#time,accel_x,accel_y,accel_z
1044.103492,-962.267725,842.705048,9400.615463
1044.103821,-1036.288319,995.924147,9622.677246
1044.104150,-1036.288319,766.095498,9696.697840
1044.104480,-1184.329507,689.485948,9770.718434
1044.104809,-962.267725,995.924147,9622.677246
1044.105138,-888.247130,689.485948,9400.615463
1044.105467,-962.267725,612.876398,9622.677246
1044.105797,-1036.288319,689.485948,9696.697840
1044.106126,-1110.308913,689.485948,9770.718434
1044.106455,-888.247130,995.924147,9696.697840
1044.106784,-1036.288319,766.095498,9474.636058
1044.107113,-1036.288319,766.095498,9548.656652
1044.107443,-1036.288319,1072.533697,9474.636058
1044.107772,-888.247130,612.876398,9622.677246
1044.108101,-1184.329507,612.876398,9622.677246
1044.108430,-814.226536,1378.971896,9326.594869
1044.108760,-1184.329507,995.924147,9622.677246
1044.109089,-888.247130,919.314598,9474.636058
1044.109418,-888.247130,919.314598,9474.636058
1044.109747,-1036.288319,1225.752797,9474.636058
1044.110076,-814.226536,1149.143247,9252.574275
1044.110406,-1110.308913,766.095498,9622.677246
1044.110735,-1184.329507,919.314598,9326.594869
1044.111064,-962.267725,1149.143247,9474.636058
1044.111393,-962.267725,842.705048,9474.636058
1044.111723,-1036.288319,842.705048,9474.636058
1044.112052,-1036.288319,995.924147,9474.636058
1044.112381,-1110.308913,1225.752797,9474.636058
1044.112710,-1036.288319,842.705048,9622.677246
1044.113039,-1184.329507,995.924147,9474.636058
1044.113369,-1184.329507,459.657299,9548.656652
1044.113698,-1036.288319,689.485948,9474.636058
1044.114027,-666.185348,919.314598,9770.718434
1044.114356,-1110.308913,842.705048,9474.636058
1044.114686,-1184.329507,1225.752797,9622.677246
1044.115015,-1184.329507,919.314598,9622.677246
1044.115344,-1258.350101,919.314598,9548.656652
1044.115673,-1184.329507,1072.533697,9326.594869
1044.116002,-1036.288319,842.705048,9696.697840
1044.116332,-1110.308913,842.705048,9622.677246
1044.116661,-1036.288319,766.095498,9474.636058
1044.116990,-1036.288319,766.095498,9622.677246
1044.117319,-1258.350101,766.095498,9770.718434
1044.117649,-1332.370696,919.314598,9548.656652
1044.117978,-962.267725,842.705048,9622.677246
1044.118307,-1110.308913,919.314598,9622.677246
1044.118636,-1036.288319,995.924147,9696.697840
1044.118965,-1036.288319,1225.752797,9548.656652
1044.119295,-814.226536,1608.800546,9400.615463
1044.119624,-1036.288319,1072.533697,9474.636058
1044.119953,-1036.288319,919.314598,9548.656652
1044.120282,-1036.288319,612.876398,9622.677246
1044.120612,-962.267725,1378.971896,9474.636058
1044.120941,-1332.370696,689.485948,9548.656652
1044.121270,-962.267725,1225.752797,9400.615463
1044.121599,-962.267725,1149.143247,9474.636058
1044.121928,-1036.288319,995.924147,9474.636058
1044.122258,-1036.288319,919.314598,9474.636058
1044.122587,-1110.308913,0.000000,9178.553681
1044.122916,-1110.308913,995.924147,9474.636058
1044.123245,-1184.329507,919.314598,9474.636058
1044.123575,-1036.288319,995.924147,9622.677246
1044.123904,-888.247130,919.314598,9474.636058
1044.124233,-814.226536,1072.533697,9474.636058
1044.124562,-1184.329507,995.924147,9622.677246
1044.124891,-1110.308913,689.485948,9474.636058
1044.125221,-962.267725,842.705048,9548.656652
1044.125550,-666.185348,995.924147,9252.574275
1044.125879,148.041188,766.095498,9400.615463
1044.126208,814.226536,1072.533697,9030.512492
1044.126538,814.226536,383.047749,9400.615463
1044.126867,740.205942,766.095498,9474.636058
1044.127196,222.061783,919.314598,9696.697840
1044.127525,0.000000,1225.752797,10436.903782
1044.127854,-666.185348,766.095498,10436.903782
1044.128184,-592.164754,459.657299,10362.883188
1044.128513,-296.082377,153.219100,10140.821405
1044.128842,74.020594,0.000000,9474.636058
1044.129171,962.267725,306.438199,9474.636058
1044.129501,2294.638420,229.828649,9178.553681
1044.129830,2886.803174,766.095498,8808.450710
1044.130159,3552.988522,1072.533697,8882.471304
1044.130488,3627.009116,1838.629195,9030.512492
1044.130817,3775.050304,2068.457845,9622.677246
1044.131147,3552.988522,1072.533697,9622.677246
1044.131476,2442.679609,1072.533697,10214.842000
1044.131805,1776.494261,995.924147,10510.924376
1044.132134,1184.329507,459.657299,10881.027347
1044.132464,1554.432478,0.000000,10658.965565
1044.132793,1776.494261,0.000000,9992.780217
1044.133122,2072.576638,-153.219100,9252.574275
1044.133451,3330.926739,-383.047749,9178.553681
1044.133780,4071.132681,612.876398,9252.574275
1044.134110,4219.173869,2068.457845,9104.533087
1044.134439,3997.112087,2604.724693,9474.636058
1044.134768,3108.864956,3064.381992,10510.924376
1044.135097,1628.453072,3294.210641,10510.924376
1044.135427,-592.164754,2451.505594,10214.842000
1044.135756,-2072.576638,1838.629195,9622.677246
1044.136085,-1850.514855,536.266849,8586.388927
1044.136414,-370.102971,-766.095498,7328.038826
1044.136744,1332.370696,-766.095498,6439.791695
1044.137073,2812.782580,-995.924147,6587.832884
1044.137402,3923.091493,0.000000,6957.935855
1044.137731,3849.070898,1915.238745,8216.285956
1044.138060,3182.885551,3983.696590,10436.903782
1044.138390,1554.432478,4596.572988,11695.253884
1044.138719,814.226536,3600.648841,12805.562797
1044.139048,-296.082377,2451.505594,12657.521608
1044.139377,-1110.308913,536.266849,12213.398043
1044.139707,-1258.350101,-1455.581446,11325.150913
1044.140036,-962.267725,-1991.848295,10066.800811
1044.140365,-148.041188,-2681.334243,8882.471304
1044.140694,1258.350101,-1991.848295,8290.306550
1044.141023,2812.782580,-842.705048,7920.203579
1044.141353,4219.173869,536.266849,7402.059420
1044.141682,4589.276840,2145.067394,7550.100608
1044.142011,4737.318029,2528.115143,8142.265362
1044.142340,4145.153275,3907.087040,9474.636058
1044.142670,3478.967927,4136.915689,10436.903782
1044.142999,2516.700203,3370.820191,10955.047942
1044.143328,1480.411884,1838.629195,11399.171507
1044.143657,518.144159,0.000000,10732.986159
1044.143986,-444.123565,-842.705048,10362.883188
1044.144316,-666.185348,-1302.362347,10140.821405
1044.144645,-444.123565,-1608.800546,10288.862594
1044.144974,74.020594,-1149.143247,10214.842000
1044.145303,222.061783,-536.266849,9400.615463
1044.145633,1184.329507,689.485948,9030.512492
1044.145962,2146.597232,689.485948,8660.409521
1044.146291,3404.947333,689.485948,8364.327145
1044.146620,4441.235652,766.095498,8512.368333
1044.146949,4737.318029,919.314598,8142.265362
1044.147279,4737.318029,1225.752797,8586.388927
1044.147608,3775.050304,1378.971896,9622.677246
1044.147937,2590.720797,1685.410096,10140.821405
1044.148266,1776.494261,1762.019645,10732.986159
1044.148596,1628.453072,2145.067394,10807.006753
1044.148925,1332.370696,2221.676944,10584.944971
1044.149254,1628.453072,2068.457845,9770.718434
1044.149583,2072.576638,1072.533697,8734.430116
1044.149912,2516.700203,612.876398,7994.224174
1044.150242,2960.823768,306.438199,7772.162391
1044.150571,2812.782580,1072.533697,8512.368333
1044.150900,1702.473667,1302.362347,9104.533087
1044.151229,592.164754,919.314598,9474.636058
1044.151559,-370.102971,536.266849,10066.800811
1044.151888,-962.267725,612.876398,10881.027347
1044.152217,-740.205942,306.438199,11029.068536
1044.152546,-1036.288319,-689.485948,11029.068536
1044.152875,-1332.370696,76.609550,11103.089130
1044.153205,-1184.329507,306.438199,10214.842000
1044.153534,518.144159,76.609550,9400.615463
1044.153863,3034.844362,689.485948,8068.244768
1044.154192,5921.647536,1685.410096,7772.162391
1044.154522,8290.306550,2451.505594,7402.059420
1044.154851,9622.677246,2604.724693,7994.224174
1044.155180,8808.450710,4060.306139,8808.450710
1044.155509,6587.832884,5515.887586,9992.780217
1044.155838,3849.070898,4826.401637,11547.212695
1044.156168,888.247130,3907.087040,12879.583391
1044.156497,-2590.720797,1762.019645,13915.871710
1044.156826,-5773.606348,-689.485948,13397.727550
1044.157155,-7846.182985,-1991.848295,11621.233289
1044.157485,-7698.141797,-2757.943793,8882.471304
1044.157814,-4737.318029,-3447.429741,5625.565159
1044.158143,666.185348,-3983.696590,3256.906145
1044.158472,5921.647536,-3753.867940,2146.597232
1044.158801,9104.533087,-689.485948,3108.864956
1044.159131,8882.471304,3370.820191,5699.585753
1044.159460,7772.162391,7890.783629,8882.471304
1044.159789,6735.874072,8810.098227,11991.336260
1044.160118,3701.029710,8427.050478,14434.015869
1044.160448,0.000000,5056.230287,16432.571912
1044.160777,-3404.947333,1608.800546,16358.551318
1044.161106,-5329.482782,0.000000,14211.954086
1044.161435,-4293.194464,-3447.429741,12139.377449
1044.161764,-1184.329507,-5515.887586,9474.636058
1044.162094,2442.679609,-6588.421283,5625.565159
1044.162423,6439.791695,-4979.620737,2072.576638
1044.162752,10658.965565,-2681.334243,1850.514855
1044.163081,12065.356855,766.095498,4811.338623
1044.163411,9844.739029,5362.668486,9548.656652
1044.163740,4811.338623,7890.783629,13027.624579
1044.164069,-1480.411884,8044.002729,14063.912898
1044.164398,-4441.235652,7354.516781,14878.139434
1044.164727,-4589.276840,1915.238745,14434.015869
1044.165057,-2368.659014,-3370.820191,12657.521608
1044.165386,-2220.617826,-7507.735880,7920.203579
1044.165715,-370.102971,-8197.221829,4663.297435
1044.166044,3108.864956,-6511.811733,5181.441594
1044.166374,5255.462188,-2681.334243,7402.059420
1044.166703,4367.215058,1838.629195,8364.327145
1044.167032,2368.659014,5056.230287,8438.347739
1044.167361,2442.679609,6818.249932,9622.677246
1044.167690,3923.091493,6281.983084,11843.295072
1044.168020,3775.050304,3217.601092,13693.809927
1044.168349,1110.308913,995.924147,12435.459826
1044.168678,-888.247130,-1685.410096,12065.356855
1044.169007,-2294.638420,-3983.696590,11843.295072
1044.169337,-2442.679609,-3983.696590,10732.986159
1044.169666,-2146.597232,-3983.696590,7105.977043
1044.169995,962.267725,-3907.087040,5033.400406
1044.170324,5847.626942,-2451.505594,6587.832884
1044.170653,9400.615463,2068.457845,7179.997637
1044.170983,9992.780217,5056.230287,7105.977043
1044.171312,8734.430116,5286.058936,8216.285956
1044.171641,4071.132681,7277.907231,10214.842000
1044.171970,-296.082377,8044.002729,13323.706956
1044.172300,-2442.679609,5592.497135,15544.324782
1044.172629,-4293.194464,1762.019645,14359.995275
1044.172958,-6365.771101,-2145.067394,11325.150913
1044.173287,-6883.915261,-4979.620737,9326.594869
1044.173617,-4737.318029,-7124.688131,8512.368333
1044.173946,-3108.864956,-5669.106685,7254.018232
1044.174276,-3108.864956,-2451.505594,6587.832884
1044.174605,-2516.700203,1608.800546,6587.832884
1044.174935,1110.308913,3983.696590,6883.915261
1044.175264,5403.503377,2681.334243,7328.038826
1044.175594,7328.038826,4903.011187,8512.368333
1044.175923,6291.750507,7354.516781,9770.718434
1044.176253,5181.441594,6435.202183,11251.130318
1044.176582,3034.844362,5132.839837,12361.439231
1044.176912,814.226536,4749.792088,12139.377449
1044.177241,0.000000,3294.210641,11843.295072
1044.177571,-1036.288319,842.705048,10881.027347
1044.177900,-1480.411884,-689.485948,8882.471304
1044.178230,-1998.556043,-1225.752797,7476.080014
1044.178559,-1924.535449,-1915.238745,8068.244768
1044.178889,-2368.659014,-153.219100,9622.677246
1044.179218,-4219.173869,2298.286494,8808.450710
1044.179548,-3923.091493,3294.210641,6365.771101
1044.179877,-518.144159,383.047749,5181.441594
1044.180207,2738.761985,-1991.848295,6587.832884
1044.180536,3701.029710,-153.219100,8364.327145
1044.180866,962.267725,2757.943793,9696.697840
1044.181195,-1184.329507,2911.162892,10436.903782
1044.181525,-1776.494261,2757.943793,11621.233289
1044.181854,-1184.329507,2987.772442,11917.315666
1044.182184,148.041188,1685.410096,11399.171507
1044.182513,814.226536,0.000000,9696.697840
1044.182842,1110.308913,-1302.362347,8956.491898
1044.183172,-518.144159,-1302.362347,8882.471304
1044.183501,-3701.029710,-842.705048,10881.027347
1044.183831,-5181.441594,-229.828649,11917.315666
1044.184160,-4737.318029,459.657299,11769.274478
1044.184490,-2812.782580,-536.266849,9844.739029
1044.184819,0.000000,-2528.115143,8364.327145
1044.185149,2368.659014,-3830.477490,7698.141797
1044.185478,2294.638420,-3064.381992,8512.368333
1044.185808,740.205942,995.924147,9770.718434
1044.186137,0.000000,4903.011187,11325.150913
1044.186467,74.020594,5439.278036,11695.253884
1044.186796,0.000000,3524.039291,11177.109724
1044.187126,-518.144159,1608.800546,10732.986159
1044.187455,-2072.576638,153.219100,10732.986159
1044.187785,-4367.215058,-1149.143247,11843.295072
1044.188114,-7994.224174,536.266849,11991.336260
1044.188444,-9918.759623,1149.143247,10955.047942
1044.188773,-7550.100608,-1532.190996,8364.327145
1044.189103,-3256.906145,-2681.334243,5773.606348
1044.189432,1776.494261,-3140.991542,3701.029710
1044.189762,4811.338623,-1685.410096,4515.256246
1044.190091,4737.318029,612.876398,6069.688724
1044.190421,2072.576638,4596.572988,9326.594869
1044.190750,518.144159,8197.221829,11473.192101
1044.191080,74.020594,9039.926876,12657.521608
1044.191409,222.061783,7277.907231,12361.439231
1044.191739,296.082377,3294.210641,9992.780217
1044.192068,-296.082377,-1149.143247,7920.203579
1044.192397,-1702.473667,-4060.306139,8364.327145
1044.192727,-3034.844362,-2911.162892,9622.677246
1044.193056,-3849.070898,-229.828649,9770.718434
1044.193386,-2442.679609,612.876398,7846.182985
1044.193715,222.061783,766.095498,5773.606348
1044.194045,3997.112087,229.828649,5255.462188
1044.194374,5625.565159,1302.362347,6217.729913
1044.194704,4811.338623,3753.867940,8660.409521
1044.195033,1110.308913,6665.030833,11103.089130
1044.195363,-2146.597232,7048.078582,12731.542202
1044.195692,-4367.215058,3907.087040,14359.995275
1044.196022,-4737.318029,919.314598,13323.706956
1044.196351,-3997.112087,-3447.429741,11399.171507
1044.196681,-3923.091493,-5362.668486,9622.677246
1044.197010,-4515.256246,-4596.572988,9400.615463
1044.197340,-3552.988522,-2451.505594,8956.491898
1044.197669,-1406.391290,-1378.971896,7994.224174
1044.197999,1406.391290,-612.876398,7254.018232
1044.198328,3034.844362,1838.629195,7698.141797
1044.198658,5033.400406,4596.572988,8290.306550
1044.198987,5921.647536,4519.963438,8660.409521
1044.199317,4737.318029,4443.353888,10436.903782
1044.199646,2072.576638,4826.401637,12879.583391
1044.199976,-1702.473667,3983.696590,13915.871710
1044.200305,-4959.379811,2604.724693,13619.789333
1044.200635,-7105.977043,459.657299,12879.583391
1044.200964,-7920.203579,-1762.019645,11103.089130
1044.201294,-7624.121203,-5592.497135,9030.512492
1044.201623,-6365.771101,-6511.811733,7105.977043
1044.201952,-4367.215058,-4060.306139,6957.935855
1044.202282,-2146.597232,-1149.143247,5625.565159
1044.202611,-666.185348,459.657299,4589.276840
1044.202941,1554.432478,1915.238745,4515.256246
1044.203270,4219.173869,2528.115143,6587.832884
1044.203600,5551.544565,2221.676944,10288.862594
1044.203929,3404.947333,4826.401637,14656.077652
1044.204259,-888.247130,7890.783629,15026.180623
1044.204588,-3849.070898,6588.421283,12879.583391
1044.204918,-3182.885551,1762.019645,10732.986159
1044.205247,-1554.432478,-1762.019645,9474.636058
1044.205577,-1036.288319,-4136.915689,8586.388927
1044.205906,-2738.761985,-5439.278036,7179.997637
1044.206236,-3923.091493,-2834.553343,6365.771101
1044.206565,-2516.700203,-612.876398,6513.812290
1044.206895,814.226536,-919.314598,6439.791695
1044.207224,2516.700203,306.438199,6957.935855
1044.207554,4145.153275,2528.115143,7624.121203
1044.207883,4885.359217,3447.429741,8734.430116
1044.208213,3997.112087,4136.915689,11103.089130
1044.208542,1850.514855,5669.106685,12583.501014
1044.208872,-888.247130,5362.668486,13767.830521
1044.209201,-3627.009116,3524.039291,12731.542202
1044.209531,-4663.297435,1455.581446,11325.150913
1044.209860,-3923.091493,-1608.800546,10807.006753
1044.210190,-4145.153275,-4443.353888,9326.594869
1044.210519,-5699.585753,-4443.353888,9178.553681
1044.210849,-6217.729913,-2987.772442,7994.224174
1044.211178,-3775.050304,-1225.752797,7476.080014
1044.211507,-592.164754,-995.924147,7254.018232
1044.211837,2146.597232,536.266849,8068.244768
1044.212166,3627.009116,2451.505594,7772.162391
1044.212496,4219.173869,3753.867940,8142.265362
1044.212825,3404.947333,4596.572988,10066.800811
1044.213155,2368.659014,5898.935335,12287.418637
1044.213484,-222.061783,5056.230287,14211.954086
1044.213814,-3404.947333,3524.039291,13915.871710
1044.214143,-4959.379811,2145.067394,13101.645173
1044.214473,-4737.318029,306.438199,11621.233289
1044.214802,-4959.379811,-2451.505594,9696.697840
1044.215132,-5847.626942,-4366.744339,8216.285956
1044.215461,-4737.318029,-3524.039291,7105.977043
1044.215791,-1776.494261,-1225.752797,6291.750507
1044.216120,370.102971,1378.971896,5255.462188
1044.216450,2368.659014,2374.896044,5329.482782
1044.216779,3108.864956,1762.019645,6661.853478
1044.217109,2738.761985,2911.162892,9992.780217
1044.217438,1480.411884,4903.011187,12361.439231
1044.217768,-740.205942,7584.345430,13323.706956
1044.218097,-3034.844362,6281.983084,12287.418637
1044.218427,-4367.215058,2757.943793,10584.944971
1044.218756,-2516.700203,-766.095498,8808.450710
1044.219086,222.061783,-3600.648841,7624.121203
1044.219415,-444.123565,-3983.696590,7179.997637
1044.219745,-3404.947333,-1149.143247,6735.874072
1044.220074,-5033.400406,153.219100,6735.874072
1044.220404,-2368.659014,-536.266849,7402.059420
1044.220733,1184.329507,919.314598,8068.244768
1044.221062,3701.029710,2528.115143,7698.141797
1044.221392,4367.215058,1991.848295,8364.327145
1044.221721,2368.659014,1302.362347,10214.842000
1044.222051,444.123565,2911.162892,12731.542202
1044.222380,-1184.329507,4366.744339,13101.645173
1044.222710,-3256.906145,2911.162892,12361.439231
1044.223039,-4811.338623,2145.067394,12139.377449
1044.223369,-4293.194464,-1149.143247,11103.089130
1044.223698,-3182.885551,-4673.182538,9770.718434
1044.224028,-3849.070898,-4903.011187,8068.244768
1044.224357,-4441.235652,-3677.258390,7920.203579
1044.224687,-3256.906145,-1991.848295,7994.224174
1044.225016,-592.164754,-1838.629195,8734.430116
1044.225346,2368.659014,-459.657299,8956.491898
1044.225675,3923.091493,1378.971896,7846.182985
1044.226005,4367.215058,1915.238745,8364.327145
1044.226334,3775.050304,2834.553343,11177.109724
1044.226664,1702.473667,5515.887586,14582.057057
1044.226993,-1850.514855,5515.887586,15248.242405
1044.227323,-4663.297435,3907.087040,14508.036463
1044.227652,-6217.729913,1838.629195,12213.398043
1044.227982,-5033.400406,-766.095498,10214.842000
1044.228311,-4589.276840,-4596.572988,9104.533087
1044.228641,-5033.400406,-4903.011187,7550.100608
1044.228970,-5033.400406,-2604.724693,6587.832884
1044.229300,-3034.844362,-1378.971896,5921.647536
1044.229629,0.000000,919.314598,5181.441594
1044.229959,3404.947333,2987.772442,5699.585753
1044.230288,4737.318029,1685.410096,6587.832884
1044.230617,3775.050304,3370.820191,7994.224174
1044.230947,1702.473667,6205.373534,11547.212695
1044.231276,370.102971,7201.297681,14211.954086
1044.231606,-1924.535449,7124.688131,14137.933492
1044.231935,-3923.091493,5132.839837,11547.212695
1044.232265,-3108.864956,612.876398,9030.512492
1044.232594,-1776.494261,-3753.867940,7105.977043
1044.232924,-1480.411884,-3064.381992,6587.832884
1044.233253,-2960.823768,-1991.848295,6957.935855
1044.233583,-2368.659014,-229.828649,7476.080014
1044.233912,-740.205942,1762.019645,6809.894666
1044.234242,1480.411884,2068.457845,5995.668130
1044.234571,4071.132681,1685.410096,6809.894666
1044.234901,5107.421000,3447.429741,7624.121203
1044.235230,3404.947333,4826.401637,10140.821405
1044.235560,0.000000,5132.839837,11991.336260
1044.235889,-2664.741391,4903.011187,13471.748144
1044.236219,-4293.194464,3217.601092,13397.727550
1044.236548,-5181.441594,689.485948,12583.501014
1044.236878,-5255.462188,-766.095498,11399.171507
1044.237207,-5551.544565,-3064.381992,9844.739029
1044.237537,-5625.565159,-4903.011187,8882.471304
1044.237866,-5107.421000,-3447.429741,8660.409521
1044.238196,-3108.864956,-1149.143247,8808.450710
1044.238525,-888.247130,0.000000,7402.059420
1044.238855,1850.514855,1072.533697,6883.915261
1044.239184,3849.070898,766.095498,6587.832884
1044.239514,4737.318029,1532.190996,8142.265362
1044.239843,2960.823768,3524.039291,11621.233289
1044.240173,666.185348,5286.058936,14211.954086
1044.240502,-2220.617826,5132.839837,14878.139434
1044.240831,-4441.235652,2987.772442,13471.748144
1044.241161,-5107.421000,0.000000,12361.439231
1044.241490,-4737.318029,-2145.067394,11103.089130
1044.241820,-4589.276840,-3064.381992,9474.636058
1044.242149,-4589.276840,-3907.087040,7994.224174
1044.242479,-3775.050304,-3677.258390,7105.977043
1044.242808,-2442.679609,-2221.676944,6439.791695
1044.243138,-592.164754,153.219100,5773.606348
1044.243467,2072.576638,1378.971896,6069.688724
1044.243797,4293.194464,1378.971896,7179.997637
1044.244126,3478.967927,2911.162892,9252.574275
1044.244456,888.247130,3830.477490,11991.336260
1044.244785,-814.226536,5592.497135,14359.995275
1044.245115,-2072.576638,6205.373534,13989.892304
1044.245444,-2886.803174,3983.696590,11843.295072
1044.245774,-2516.700203,0.000000,9474.636058
1044.246103,-3478.967927,-2604.724693,7105.977043
1044.246433,-4293.194464,-3064.381992,6587.832884
1044.246762,-4071.132681,-2451.505594,7920.203579
1044.247092,-2960.823768,-612.876398,7772.162391
1044.247421,-1406.391290,76.609550,5773.606348
1044.247751,740.205942,0.000000,5773.606348
1044.248080,4441.235652,1455.581446,7105.977043
1044.248410,6291.750507,2681.334243,7624.121203
1044.248739,5107.421000,3753.867940,9252.574275
1044.249069,1776.494261,6281.983084,12435.459826
1044.249398,-148.041188,8656.879127,14656.077652
1044.249728,-1702.473667,6205.373534,14285.974681
1044.250057,-3034.844362,3064.381992,12361.439231
1044.250386,-4071.132681,536.266849,9918.759623
1044.250716,-4367.215058,-2451.505594,8734.430116
1044.251045,-4663.297435,-5209.449386,8438.347739
1044.251375,-5329.482782,-3753.867940,8586.388927
1044.251704,-4959.379811,-2221.676944,7402.059420
1044.252034,-3552.988522,-1532.190996,6069.688724
1044.252363,0.000000,0.000000,6661.853478
1044.252693,2960.823768,459.657299,7624.121203
1044.253022,3627.009116,2221.676944,8586.388927
1044.253352,1850.514855,4519.963438,10436.903782
1044.253681,-296.082377,5975.544884,12953.603985
1044.254011,-1036.288319,5362.668486,14211.954086
1044.254340,-2294.638420,3677.258390,13619.789333
1044.254670,-3404.947333,1455.581446,13249.686362
1044.254999,-4367.215058,-1762.019645,11769.274478
1044.255329,-4959.379811,-3447.429741,9326.594869
1044.255658,-4441.235652,-4213.525239,8512.368333
1044.255988,-2664.741391,-3753.867940,8734.430116
1044.256317,-1850.514855,-1608.800546,7550.100608
1044.256647,-222.061783,612.876398,5995.668130
1044.256976,2442.679609,612.876398,5551.544565
1044.257306,5033.400406,1455.581446,7105.977043
1044.257635,5107.421000,2987.772442,9696.697840
1044.257965,2368.659014,4060.306139,12139.377449
1044.258294,-814.226536,5745.716235,13693.809927
1044.258624,-2960.823768,5362.668486,13027.624579
1044.258953,-3997.112087,2451.505594,11177.109724
1044.259283,-3182.885551,-1378.971896,9770.718434
1044.259612,-2812.782580,-3677.258390,8734.430116
1044.259941,-3775.050304,-4213.525239,8068.244768
1044.260271,-4515.256246,-2528.115143,8068.244768
1044.260600,-3478.967927,-1532.190996,7328.038826
1044.260930,-962.267725,-995.924147,6809.894666
1044.261259,1998.556043,0.000000,5773.606348
1044.261589,4515.256246,2145.067394,7105.977043
1044.261918,6217.729913,3677.258390,7550.100608
1044.262248,4737.318029,4213.525239,8882.471304
1044.262577,2072.576638,4979.620737,11325.150913
1044.262907,-444.123565,5286.058936,13175.665768
1044.263236,-2516.700203,4826.401637,13027.624579
1044.263566,-4367.215058,2757.943793,12065.356855
1044.263895,-4737.318029,0.000000,10066.800811
1044.264225,-5107.421000,-3524.039291,8808.450710
1044.264554,-5699.585753,-5056.230287,7994.224174
1044.264884,-5403.503377,-2757.943793,7920.203579
1044.265213,-4071.132681,-306.438199,6809.894666
1044.265543,-2072.576638,0.000000,6069.688724
1044.265872,-148.041188,842.705048,6365.771101
1044.266202,1776.494261,1608.800546,7920.203579
1044.266531,3404.947333,1455.581446,10584.944971
1044.266861,2072.576638,4136.915689,13323.706956
1044.267190,-1406.391290,6971.469032,13989.892304
1044.267520,-3849.070898,5209.449386,13619.789333
1044.267849,-3701.029710,1762.019645,12583.501014
1044.268179,-2886.803174,306.438199,11769.274478
1044.268508,-2368.659014,-2451.505594,10066.800811
1044.268838,-3627.009116,-4136.915689,9326.594869
1044.269167,-5107.421000,-2451.505594,8660.409521
1044.269496,-4071.132681,-1685.410096,8882.471304
1044.269826,-1850.514855,-1072.533697,7846.182985
1044.270155,666.185348,919.314598,6217.729913
1044.270485,3478.967927,2068.457845,6883.915261
1044.270814,5033.400406,1149.143247,8364.327145
1044.271144,4219.173869,3294.210641,10436.903782
1044.271473,1776.494261,6205.373534,11843.295072
1044.271803,0.000000,5822.325785,11917.315666
1044.272132,-1998.556043,3753.867940,11843.295072
1044.272462,-4293.194464,2298.286494,11103.089130
1044.272792,-4515.256246,-306.438199,10807.006753
1044.273121,-3997.112087,-2374.896044,9918.759623
1044.273451,-5033.400406,-3907.087040,8142.265362
1044.273780,-5107.421000,-2834.553343,7105.977043
1044.274110,-3404.947333,-2451.505594,6513.812290
1044.274439,296.082377,-1915.238745,6291.750507
1044.274769,3775.050304,0.000000,5551.544565
1044.275099,5995.668130,2221.676944,5699.585753
1044.275428,6735.874072,3830.477490,7254.018232
1044.275758,5625.565159,5439.278036,10066.800811
1044.276087,3404.947333,5975.544884,13619.789333
1044.276417,1036.288319,6588.421283,14878.139434
1044.276746,-1258.350101,4903.011187,13471.748144
1044.277076,-2738.761985,1685.410096,11769.274478
1044.277406,-2664.741391,-1762.019645,10955.047942
1044.277735,-2738.761985,-4519.963438,10066.800811
1044.278065,-4367.215058,-3600.648841,8290.306550
1044.278394,-4885.359217,-1685.410096,6587.832884
1044.278724,-2812.782580,-1302.362347,5329.482782
1044.279053,74.020594,-1378.971896,5477.523971
1044.279383,1554.432478,0.000000,7402.059420
1044.279712,1924.535449,2221.676944,9326.594869
1044.280042,296.082377,4060.306139,9992.780217
1044.280372,-1406.391290,4979.620737,11029.068536
1044.280701,-2516.700203,5286.058936,12953.603985
1044.281031,-3552.988522,2911.162892,14582.057057
1044.281360,-5329.482782,1455.581446,13249.686362
1044.281690,-6661.853478,229.828649,10584.944971
1044.282019,-5699.585753,-2221.676944,9030.512492
1044.282349,-4589.276840,-4060.306139,8512.368333
1044.282679,-4589.276840,-4519.963438,8882.471304
1044.283008,-4663.297435,-1608.800546,9178.553681
1044.283338,-2738.761985,1072.533697,7179.997637
1044.283667,444.123565,2374.896044,5847.626942
1044.283997,4811.338623,1455.581446,6661.853478
1044.284326,6735.874072,919.314598,8512.368333
1044.284656,5033.400406,2145.067394,10436.903782
1044.284986,1036.288319,3983.696590,12731.542202
1044.285315,-1702.473667,6358.592633,14582.057057
1044.285645,-3478.967927,6511.811733,13693.809927
1044.285974,-4367.215058,2451.505594,12361.439231
1044.286304,-3404.947333,-1455.581446,10436.903782
1044.286633,-2146.597232,-3753.867940,8882.471304
1044.286963,-2886.803174,-4903.011187,7698.141797
1044.287293,-4811.338623,-2528.115143,7476.080014
1044.287622,-5625.565159,-766.095498,7179.997637
1044.287952,-2590.720797,0.000000,6069.688724
1044.288281,1776.494261,-306.438199,5773.606348
1044.288611,5995.668130,1838.629195,7179.997637
1044.288940,7031.956449,2604.724693,7624.121203
1044.289270,3849.070898,3447.429741,8142.265362
1044.289599,1702.473667,5898.935335,10732.986159
1044.289929,592.164754,6358.592633,12657.521608
1044.290259,0.000000,4749.792088,13175.665768
1044.290588,-1258.350101,2374.896044,12065.356855
1044.290918,-1702.473667,-766.095498,9918.759623
1044.291247,-1332.370696,-3370.820191,8512.368333
1044.291577,-2072.576638,-4060.306139,8882.471304
1044.291906,-3182.885551,-1532.190996,8660.409521
1044.292236,-3478.967927,536.266849,6883.915261
1044.292566,-1406.391290,612.876398,5625.565159
1044.292895,2812.782580,383.047749,7994.224174
1044.293225,4737.318029,1838.629195,9178.553681
1044.293554,2960.823768,2145.067394,8808.450710
1044.293884,0.000000,2757.943793,10510.924376
1044.294213,-2812.782580,4443.353888,13397.727550
1044.294543,-3627.009116,4519.963438,15396.283594
1044.294873,-4367.215058,1455.581446,13989.892304
1044.295202,-5329.482782,-153.219100,10436.903782
1044.295532,-4737.318029,-2451.505594,7846.182985
1044.295861,-3775.050304,-5592.497135,8364.327145
1044.296191,-3256.906145,-4903.011187,9252.574275
1044.296520,-3997.112087,-689.485948,8808.450710
1044.296850,-3330.926739,153.219100,7772.162391
1044.297180,-1036.288319,919.314598,7698.141797
1044.297509,2812.782580,2834.553343,8956.491898
1044.297839,5847.626942,3217.601092,9622.677246
1044.298168,5033.400406,2145.067394,9770.718434
1044.298498,666.185348,4903.011187,10807.006753
1044.298827,-2516.700203,5439.278036,12657.521608
1044.299157,-3849.070898,3600.648841,13841.851115
1044.299487,-5625.565159,2681.334243,12657.521608
1044.299816,-6143.709319,612.876398,10510.924376
1044.300146,-5477.523971,-4213.525239,8068.244768
1044.300475,-4441.235652,-5975.544884,7254.018232
1044.300805,-3701.029710,-4290.134789,7550.100608
1044.301134,-2590.720797,-2451.505594,7179.997637
1044.301464,-1110.308913,766.095498,6143.709319
1044.301793,814.226536,3140.991542,6217.729913
1044.302123,4959.379811,2911.162892,7772.162391
1044.302453,7328.038826,3370.820191,8586.388927
1044.302782,5625.565159,4673.182538,9104.533087
1044.303112,2664.741391,5515.887586,10510.924376
1044.303441,962.267725,5209.449386,12509.480420
1044.303771,-814.226536,4136.915689,12361.439231
1044.304100,-2368.659014,1302.362347,11843.295072
1044.304430,-3182.885551,-536.266849,10658.965565
1044.304760,-3775.050304,-1225.752797,9178.553681
1044.305089,-3775.050304,-2757.943793,7624.121203
1044.305419,-2886.803174,-2834.553343,6365.771101
1044.305748,-1184.329507,-1378.971896,5995.668130
1044.306078,666.185348,383.047749,6217.729913
1044.306407,2146.597232,2145.067394,7031.956449
1044.306737,3849.070898,4366.744339,7846.182985
1044.307067,3701.029710,2987.772442,8734.430116
1044.307396,2738.761985,3524.039291,11769.274478
1044.307726,0.000000,4903.011187,14804.118840
1044.308055,-2516.700203,4903.011187,15618.345376
1044.308385,-4219.173869,2451.505594,13397.727550
1044.308714,-4515.256246,-689.485948,11547.212695
1044.309044,-4145.153275,-2911.162892,10362.883188
1044.309374,-4293.194464,-4596.572988,9178.553681
1044.309703,-4663.297435,-3600.648841,7402.059420
1044.310033,-3034.844362,-1762.019645,6365.771101
1044.310362,-296.082377,-1072.533697,6217.729913
1044.310692,1776.494261,-229.828649,6957.935855
1044.311021,2886.803174,995.924147,8438.347739
1044.311351,2590.720797,2834.553343,9548.656652
1044.311681,1554.432478,4060.306139,10732.986159
1044.312010,0.000000,5515.887586,12213.398043
1044.312340,-962.267725,4673.182538,13693.809927
1044.312669,-2368.659014,2374.896044,13249.686362
1044.312999,-3923.091493,842.705048,11103.089130
1044.313328,-4145.153275,-766.095498,9844.739029
1044.313658,-4219.173869,-2604.724693,9252.574275
1044.313987,-4663.297435,-3907.087040,8364.327145
1044.314317,-5699.585753,-3294.210641,7772.162391
1044.314647,-3923.091493,-2604.724693,8142.265362
1044.314976,-1184.329507,-689.485948,7698.141797
1044.315306,1480.411884,1455.581446,7328.038826
1044.315635,3478.967927,1149.143247,7402.059420
1044.315965,4663.297435,2068.457845,8438.347739
1044.316294,3849.070898,3677.258390,9252.574275
1044.316624,1702.473667,4749.792088,11547.212695
1044.316954,222.061783,4903.011187,13471.748144
1044.317283,-1628.453072,4213.525239,12509.480420
1044.317613,-3404.947333,2145.067394,11325.150913
1044.317942,-3034.844362,-995.924147,9622.677246
1044.318272,-2368.659014,-2298.286494,8142.265362
1044.318601,-1850.514855,-2374.896044,6291.750507
1044.318931,-1554.432478,-2528.115143,5995.668130
1044.319261,-666.185348,-842.705048,5477.523971
1044.319590,1258.350101,1072.533697,6365.771101
1044.319920,2664.741391,2451.505594,7624.121203
1044.320249,3775.050304,3677.258390,8438.347739
1044.320579,3552.988522,3830.477490,9474.636058
1044.320908,2294.638420,3677.258390,11399.171507
1044.321238,222.061783,3830.477490,13915.871710
1044.321568,-1998.556043,4136.915689,14063.912898
1044.321897,-4441.235652,2451.505594,12287.418637
1044.322227,-4737.318029,-536.266849,10881.027347
1044.322556,-4071.132681,-2911.162892,10214.842000
1044.322886,-3404.947333,-4826.401637,8734.430116
1044.323215,-4367.215058,-3370.820191,7105.977043
1044.323545,-4071.132681,-1072.533697,6217.729913
1044.323874,-1406.391290,153.219100,5625.565159
1044.324204,740.205942,76.609550,6587.832884
1044.324534,2072.576638,1608.800546,8660.409521
1044.324863,1332.370696,3294.210641,10510.924376
1044.325193,-222.061783,4213.525239,11325.150913
1044.325522,-1332.370696,5132.839837,12509.480420
1044.325852,-1850.514855,4213.525239,14211.954086
1044.326181,-2072.576638,2145.067394,14211.954086
1044.326511,-2590.720797,229.828649,10807.006753
1044.326841,-2442.679609,-1225.752797,8734.430116
1044.327170,-1776.494261,-3983.696590,9178.553681
1044.327500,-3256.906145,-3983.696590,10955.047942
1044.327829,-5181.441594,229.828649,11547.212695
1044.328159,-4663.297435,1302.362347,8882.471304
1044.328488,-1258.350101,-459.657299,5995.668130
1044.328818,2590.720797,0.000000,5995.668130
1044.329148,5329.482782,306.438199,7476.080014
1044.329477,5255.462188,76.609550,8216.285956
1044.329807,2146.597232,2528.115143,9622.677246
1044.330136,-962.267725,5975.544884,12065.356855
1044.330466,-2368.659014,6435.202183,13545.768739
1044.330795,-2960.823768,3294.210641,12509.480420
1044.331125,-2812.782580,1685.410096,11029.068536
1044.331455,-1850.514855,0.000000,8438.347739
1044.331784,-1332.370696,-3064.381992,6883.915261
1044.332114,-2886.803174,-2528.115143,6735.874072
1044.332443,-3775.050304,-612.876398,7105.977043
1044.332773,-2368.659014,-153.219100,7031.956449
1044.333102,518.144159,536.266849,5625.565159
1044.333432,2886.803174,1991.848295,5847.626942
1044.333762,5329.482782,1532.190996,6735.874072
1044.334091,4885.359217,689.485948,8956.491898
1044.334421,2590.720797,2528.115143,11695.253884
1044.334750,0.000000,4979.620737,14211.954086
1044.335080,-2960.823768,4290.134789,14434.015869
1044.335409,-4071.132681,2451.505594,13693.809927
1044.335739,-4441.235652,459.657299,11991.336260
1044.336068,-2664.741391,-2911.162892,10436.903782
1044.336398,-2442.679609,-4749.792088,7772.162391
1044.336728,-3849.070898,-3677.258390,6439.791695
1044.337057,-3701.029710,-1225.752797,6957.935855
1044.337387,-2146.597232,-306.438199,7105.977043
1044.337716,-222.061783,-153.219100,7179.997637
1044.338046,1776.494261,1225.752797,8290.306550
1044.338375,3034.844362,2374.896044,9474.636058
1044.338705,2886.803174,3064.381992,11473.192101
1044.339035,888.247130,4519.963438,12879.583391
1044.339364,-1850.514855,4749.792088,13767.830521
1044.339694,-3108.864956,3830.477490,12805.562797
1044.340023,-3182.885551,1685.410096,11103.089130
1044.340353,-2812.782580,-1225.752797,11769.274478
1044.340682,-3404.947333,-3830.477490,12509.480420
1044.341012,-5625.565159,-3370.820191,10955.047942
1044.341342,-6069.688724,-2221.676944,8734.430116
1044.341671,-3552.988522,-1378.971896,7402.059420
1044.342001,0.000000,-1225.752797,6513.812290
1044.342330,3034.844362,612.876398,5107.421000
1044.342660,5255.462188,689.485948,5625.565159
1044.342989,5921.647536,2145.067394,7624.121203
1044.343319,3034.844362,5745.716235,9474.636058
1044.343649,0.000000,6894.859482,12509.480420
1044.343978,-2072.576638,6665.030833,13989.892304
1044.344308,-3997.112087,4979.620737,12805.562797
1044.344637,-4145.153275,2221.676944,10955.047942
1044.344967,-2368.659014,-1915.238745,9400.615463
1044.345296,-2664.741391,-3753.867940,8438.347739
1044.345626,-4293.194464,-2528.115143,6883.915261
1044.345956,-5551.544565,-1149.143247,6069.688724
1044.346285,-2590.720797,-229.828649,5625.565159
1044.346615,1480.411884,1149.143247,4959.379811
1044.346944,4367.215058,1225.752797,5403.503377
1044.347274,5847.626942,2374.896044,6291.750507
1044.347603,5329.482782,4136.915689,7994.224174
1044.347933,4071.132681,3370.820191,11177.109724
1044.348262,444.123565,5362.668486,14359.995275
1044.348592,-3552.988522,6358.592633,15248.242405
1044.348922,-5551.544565,3524.039291,14211.954086
1044.349251,-4441.235652,-919.314598,13249.686362
1044.349581,-2886.803174,-2374.896044,12139.377449
1044.349910,-2516.700203,-3524.039291,8956.491898
1044.350240,-4515.256246,-3830.477490,6069.688724
1044.350569,-4811.338623,-842.705048,4071.132681
1044.350899,-2368.659014,-459.657299,4663.297435
1044.351229,222.061783,-1378.971896,7476.080014
1044.351558,1406.391290,1455.581446,9326.594869
1044.351888,222.061783,3294.210641,9474.636058
1044.352217,-370.102971,2451.505594,10066.800811
1044.352547,-370.102971,3983.696590,12361.439231
1044.352876,-1258.350101,4443.353888,13915.871710
1044.353206,-1850.514855,1762.019645,12139.377449
1044.353536,-3404.947333,383.047749,10288.862594
1044.353865,-3034.844362,536.266849,11029.068536
1044.354195,-2442.679609,-3447.429741,12361.439231
1044.354524,-4441.235652,-4596.572988,12065.356855
1044.354854,-7105.977043,-536.266849,9474.636058
1044.355183,-5699.585753,-842.705048,7624.121203
1044.355513,-370.102971,-1915.238745,6809.894666
1044.355843,3182.885551,-383.047749,5847.626942
1044.356172,5403.503377,-153.219100,6291.750507
1044.356502,5107.421000,0.000000,6439.791695
1044.356831,3552.988522,3524.039291,9622.677246
1044.357161,1036.288319,7124.688131,13471.748144
1044.357490,-1184.329507,6052.154434,14063.912898
1044.357820,-3330.926739,4749.792088,12805.562797
1044.358149,-4293.194464,2987.772442,10732.986159
1044.358479,-2590.720797,-1302.362347,10362.883188
1044.358809,-1998.556043,-2757.943793,9548.656652
1044.359138,-4663.297435,-2451.505594,7994.224174
1044.359468,-5847.626942,-1762.019645,6069.688724
1044.359797,-3997.112087,-1455.581446,4737.318029
1044.360127,740.205942,-1072.533697,4959.379811
1044.360456,4071.132681,689.485948,6587.832884
1044.360786,5107.421000,2604.724693,7550.100608
1044.361116,4145.153275,4749.792088,7772.162391
1044.361445,2812.782580,4060.306139,10288.862594
1044.361775,1110.308913,4903.011187,14211.954086
1044.362104,-1776.494261,6435.202183,15544.324782
1044.362434,-4071.132681,3983.696590,13841.851115
1044.362763,-4589.276840,919.314598,10881.027347
1044.363093,-3330.926739,-1991.848295,9474.636058
1044.363423,-2738.761985,-4136.915689,8364.327145
1044.363752,-3997.112087,-3983.696590,7179.997637
1044.364082,-4885.359217,-1302.362347,5995.668130
1044.364411,-3478.967927,383.047749,5921.647536
1044.364741,-666.185348,-383.047749,6513.812290
1044.365070,1702.473667,1072.533697,8142.265362
1044.365400,2146.597232,3064.381992,9178.553681
1044.365730,1406.391290,3217.601092,9918.759623
1044.366059,-296.082377,4213.525239,11399.171507
1044.366389,-1628.453072,4903.011187,13027.624579
1044.366718,-2664.741391,2681.334243,13027.624579
1044.367048,-4663.297435,306.438199,11547.212695
1044.367377,-5181.441594,0.000000,10955.047942
1044.367707,-4293.194464,-1915.238745,10288.862594
1044.368037,-4219.173869,-4596.572988,9992.780217
1044.368366,-5403.503377,-4673.182538,10214.842000
1044.368696,-4959.379811,-1149.143247,9844.739029
1044.369025,-2368.659014,0.000000,8438.347739
1044.369355,1332.370696,-153.219100,7179.997637
1044.369684,3849.070898,842.705048,6735.874072
1044.370014,5773.606348,1149.143247,7254.018232
1044.370343,5625.565159,1378.971896,9474.636058
1044.370673,2516.700203,3907.087040,11991.336260
1044.371003,0.000000,7124.688131,13471.748144
1044.371332,-1850.514855,5362.668486,12657.521608
1044.371662,-1850.514855,2298.286494,12213.398043
1044.371991,-1554.432478,229.828649,10732.986159
1044.372321,-1480.411884,-2451.505594,9622.677246
1044.372650,-2590.720797,-3140.991542,7920.203579
1044.372980,-4589.276840,-612.876398,6439.791695
1044.373310,-3330.926739,-306.438199,6069.688724
1044.373639,888.247130,-689.485948,5625.565159
1044.373969,3849.070898,1072.533697,6143.709319
1044.374298,5181.441594,2604.724693,5847.626942
1044.374628,4663.297435,2145.067394,7402.059420
1044.374957,2442.679609,2987.772442,10436.903782
1044.375287,148.041188,5209.449386,13693.809927
1044.375616,-1850.514855,4519.963438,15026.180623
1044.375946,-3552.988522,3753.867940,13693.809927
1044.376275,-4367.215058,1838.629195,11473.192101
1044.376605,-3034.844362,-3217.601092,10140.821405
1044.376934,-1702.473667,-4060.306139,8882.471304
1044.377264,-2368.659014,-1455.581446,7031.956449
1044.377593,-2812.782580,536.266849,5033.400406
1044.377923,-1628.453072,306.438199,4515.256246
1044.378252,148.041188,-459.657299,6439.791695
1044.378582,1702.473667,2221.676944,8808.450710
1044.378911,1258.350101,3677.258390,9770.718434
1044.379241,370.102971,4213.525239,11103.089130
1044.379570,-1628.453072,4979.620737,11843.295072
1044.379900,-2442.679609,3370.820191,12583.501014
1044.380229,-2664.741391,383.047749,11991.336260
1044.380559,-3997.112087,-1302.362347,10658.965565
1044.380888,-5181.441594,0.000000,10658.965565
1044.381218,-5551.544565,-2298.286494,12213.398043
1044.381547,-6513.812290,-4366.744339,12361.439231
1044.381877,-7772.162391,-1455.581446,10214.842000
1044.382206,-6143.709319,-995.924147,8068.244768
1044.382536,-1554.432478,-1072.533697,7031.956449
1044.382865,2368.659014,0.000000,6809.894666
1044.383195,4219.173869,153.219100,6809.894666
1044.383524,4737.318029,995.924147,7772.162391
1044.383854,3034.844362,2987.772442,9252.574275
1044.384183,1628.453072,6128.763984,12509.480420
1044.384513,-296.082377,6588.421283,14211.954086
1044.384842,-1924.535449,4213.525239,12361.439231
1044.385172,-2516.700203,1838.629195,10955.047942
1044.385501,-2368.659014,-2068.457845,11843.295072
1044.385831,-2960.823768,-2145.067394,11695.253884
1044.386160,-6291.750507,-1225.752797,9474.636058
1044.386490,-6439.791695,-1915.238745,7698.141797
1044.386819,-3330.926739,-1685.410096,6587.832884
1044.387149,0.000000,-689.485948,5033.400406
1044.387478,3478.967927,153.219100,4071.132681
1044.387808,5773.606348,1072.533697,4737.318029
1044.388137,5551.544565,2528.115143,6883.915261
1044.388467,3701.029710,4673.182538,10066.800811
1044.388796,1036.288319,6128.763984,12805.562797
1044.389126,-666.185348,6128.763984,13101.645173
1044.389455,-1628.453072,3830.477490,12435.459826
1044.389785,-2368.659014,1302.362347,11917.315666
1044.390114,-962.267725,-689.485948,11547.212695
1044.390444,-1406.391290,-3830.477490,9992.780217
1044.390773,-3701.029710,-3140.991542,8660.409521
1044.391103,-4737.318029,1072.533697,7254.018232
1044.391432,-2812.782580,1225.752797,6217.729913
1044.391762,1406.391290,306.438199,5329.482782
1044.392091,3478.967927,1225.752797,5551.544565
1044.392421,4071.132681,1838.629195,7254.018232
1044.392750,2812.782580,2221.676944,9474.636058
1044.393080,-296.082377,4673.182538,11621.233289
1044.393409,-3701.029710,6281.983084,12953.603985
1044.393739,-4811.338623,2911.162892,13545.768739
1044.394068,-5403.503377,-1149.143247,12953.603985
1044.394398,-5477.523971,-1685.410096,12435.459826
1044.394727,-5477.523971,-3753.867940,10955.047942
1044.395057,-6069.688724,-4060.306139,9696.697840
1044.395386,-5699.585753,-2681.334243,8956.491898
1044.395716,-4589.276840,-1991.848295,7994.224174
1044.396045,-1184.329507,-459.657299,7105.977043
1044.396375,2294.638420,-306.438199,6957.935855
1044.396704,4589.276840,1915.238745,8364.327145
1044.397034,4219.173869,3677.258390,8660.409521
1044.397363,2590.720797,3753.867940,8956.491898
1044.397693,1332.370696,4596.572988,11769.274478
1044.398022,592.164754,5209.449386,14063.912898
1044.398352,-2146.597232,4673.182538,14063.912898
1044.398681,-4441.235652,2911.162892,11843.295072
1044.399011,-4737.318029,-383.047749,9400.615463
1044.399340,-3997.112087,-4979.620737,10584.944971
1044.399670,-5625.565159,-5745.716235,11473.192101
1044.399999,-7772.162391,-1302.362347,9770.718434
1044.400329,-7105.977043,-306.438199,7031.956449
1044.400658,-1998.556043,-842.705048,4441.235652
1044.400988,3182.885551,0.000000,3552.988522
1044.401317,7179.997637,612.876398,3701.029710
1044.401647,8734.430116,842.705048,4737.318029
1044.401976,6365.771101,4596.572988,7772.162391
1044.402306,3182.885551,8656.879127,12213.398043
1044.402635,592.164754,7737.564530,14878.139434
1044.402965,-1924.535449,4749.792088,14508.036463
1044.403294,-3108.864956,2911.162892,13471.748144
1044.403624,-1998.556043,-612.876398,13175.665768
1044.403953,-1406.391290,-3140.991542,11251.130318
1044.404283,-3849.070898,-2681.334243,8808.450710
1044.404612,-6143.709319,-919.314598,4219.173869
1044.404942,-4145.153275,-612.876398,1776.494261
1044.405271,740.205942,-2604.724693,4219.173869
1044.405601,3034.844362,306.438199,7772.162391
1044.405930,1554.432478,4596.572988,9104.533087
1044.406260,148.041188,4903.011187,8882.471304
1044.406589,0.000000,4060.306139,10510.924376
1044.406919,-518.144159,3600.648841,13175.665768
1044.407248,-2664.741391,2298.286494,14508.036463
1044.407578,-4589.276840,76.609550,13619.789333
1044.407907,-5033.400406,-536.266849,11991.336260
1044.408237,-4071.132681,-1378.971896,10955.047942
1044.408566,-3552.988522,-4290.134789,10140.821405
1044.408896,-4071.132681,-4290.134789,8438.347739
1044.409225,-2960.823768,-1149.143247,7328.038826
1044.409555,370.102971,306.438199,6587.832884
1044.409884,3552.988522,1455.581446,7179.997637
1044.410214,5329.482782,3447.429741,8438.347739
1044.410543,4219.173869,3830.477490,9030.512492
1044.410873,1850.514855,3447.429741,10510.924376
1044.411202,0.000000,6588.421283,12805.562797
1044.411532,-1628.453072,6741.640382,14137.933492
1044.411861,-3997.112087,2451.505594,11695.253884
1044.412191,-5921.647536,-1225.752797,10066.800811
1044.412520,-6143.709319,-3830.477490,11177.109724
1044.412850,-5699.585753,-5209.449386,11695.253884
1044.413179,-7105.977043,-3983.696590,9696.697840
1044.413509,-7846.182985,-1762.019645,7476.080014
1044.413838,-4293.194464,-1225.752797,6143.709319
1044.414168,814.226536,-1608.800546,5403.503377
1044.414497,5255.462188,919.314598,5255.462188
1044.414827,7328.038826,3294.210641,6069.688724
1044.415156,6883.915261,4596.572988,7105.977043
1044.415486,4737.318029,5209.449386,9474.636058
1044.415815,2294.638420,6665.030833,13323.706956
1044.416145,296.082377,6971.469032,14878.139434
1044.416474,-1850.514855,4903.011187,13027.624579
1044.416804,-3330.926739,612.876398,11177.109724
1044.417133,-3256.906145,-1915.238745,10140.821405
1044.417463,-3330.926739,-4136.915689,9548.656652
1044.417792,-4515.256246,-3907.087040,7476.080014
1044.418122,-4737.318029,-1378.971896,6143.709319
1044.418451,-3108.864956,612.876398,4959.379811
1044.418781,74.020594,689.485948,4959.379811
1044.419110,3256.906145,919.314598,6069.688724
1044.419440,3552.988522,3140.991542,8216.285956
1044.419769,2146.597232,4749.792088,9474.636058
1044.420099,-740.205942,5286.058936,11177.109724
1044.420428,-2960.823768,4673.182538,13249.686362
1044.420758,-4071.132681,1991.848295,14211.954086
1044.421087,-4737.318029,76.609550,13027.624579
1044.421417,-4885.359217,-842.705048,11769.274478
1044.421746,-3997.112087,-2757.943793,11325.150913
1044.422076,-4441.235652,-4519.963438,9770.718434
1044.422405,-4145.153275,-2451.505594,8216.285956
1044.422735,-2220.617826,-842.705048,6735.874072
1044.423064,1702.473667,383.047749,6439.791695
1044.423394,3849.070898,1838.629195,6735.874072
1044.423723,4811.338623,2834.553343,7846.182985
1044.424053,4589.276840,2681.334243,9252.574275
1044.424382,3552.988522,4290.134789,11103.089130
1044.424712,592.164754,6971.469032,13545.768739
1044.425041,-1850.514855,4749.792088,14285.974681
1044.425371,-3627.009116,0.000000,14211.954086
1044.425700,-5181.441594,-2221.676944,13175.665768
1044.426030,-5625.565159,-1608.800546,11917.315666
1044.426359,-4663.297435,-3370.820191,10732.986159
1044.426689,-4811.338623,-3140.991542,8512.368333
1044.427018,-3997.112087,-1685.410096,5995.668130
1044.427348,-1332.370696,-1991.848295,3997.112087
1044.427677,2812.782580,76.609550,3108.864956
1044.428007,5329.482782,2987.772442,4589.276840
1044.428336,6365.771101,3907.087040,8142.265362
1044.428666,4737.318029,4519.963438,9400.615463
1044.428995,1554.432478,6588.421283,10066.800811
1044.429325,0.000000,5975.544884,12065.356855
1044.429654,0.000000,3217.601092,14952.160028
1044.429984,-1702.473667,1838.629195,14952.160028
1044.430313,-3923.091493,995.924147,11991.336260
1044.430643,-4219.173869,-1608.800546,8512.368333
1044.430972,-3923.091493,-2834.553343,6143.709319
1044.431302,-3034.844362,-3600.648841,6513.812290
1044.431631,-2664.741391,-2681.334243,6513.812290
1044.431961,-1998.556043,0.000000,5403.503377
1044.432290,74.020594,1915.238745,4811.338623
1044.432620,2516.700203,3524.039291,6735.874072
1044.432949,4441.235652,2604.724693,8512.368333
1044.433279,3478.967927,1685.410096,9104.533087
1044.433608,148.041188,3140.991542,10288.862594
1044.433938,-1332.370696,4673.182538,14137.933492
1044.434267,-3256.906145,4290.134789,15914.427753
1044.434597,-5255.462188,1072.533697,14804.118840
1044.434926,-6439.791695,-536.266849,12805.562797
1044.435256,-5403.503377,-3064.381992,10658.965565
1044.435585,-3552.988522,-4596.572988,9400.615463
1044.435915,-4145.153275,-3217.601092,7476.080014
1044.436244,-3552.988522,-2451.505594,6513.812290
1044.436574,-1332.370696,-1302.362347,5477.523971
1044.436903,1628.453072,536.266849,6513.812290
1044.437233,4071.132681,2374.896044,7994.224174
1044.437562,4589.276840,2681.334243,9622.677246
1044.437892,2368.659014,3524.039291,11177.109724
1044.438221,-296.082377,6205.373534,12953.603985
1044.438551,-740.205942,6205.373534,13471.748144
1044.438880,-1406.391290,1762.019645,13175.665768
1044.439210,-2960.823768,-459.657299,13101.645173
1044.439539,-4811.338623,-1762.019645,13471.748144
1044.439869,-5625.565159,-3677.258390,12435.459826
1044.440198,-5773.606348,-3370.820191,9992.780217
1044.440528,-5699.585753,-1991.848295,7624.121203
1044.440857,-3034.844362,-1608.800546,5329.482782
1044.441187,888.247130,-1378.971896,3701.029710
1044.441516,5255.462188,612.876398,4219.173869
1044.441846,7698.141797,3907.087040,5255.462188
1044.442175,6957.935855,4673.182538,6957.935855
1044.442505,3627.009116,6281.983084,9252.574275
1044.442834,296.082377,7584.345430,12287.418637
1044.443164,-1036.288319,5898.935335,14508.036463
1044.443493,-2442.679609,4366.744339,13471.748144
1044.443823,-3627.009116,1838.629195,11029.068536
1044.444152,-3404.947333,-2374.896044,9548.656652
1044.444482,-3404.947333,-5515.887586,9252.574275
1044.444811,-4071.132681,-4366.744339,8956.491898
1044.445141,-4737.318029,-995.924147,7254.018232
1044.445470,-2442.679609,612.876398,5181.441594
1044.445800,1036.288319,1149.143247,4145.153275
1044.446129,5107.421000,1532.190996,4959.379811
1044.446459,7031.956449,2528.115143,6809.894666
1044.446788,5477.523971,3677.258390,8364.327145
1044.447118,1776.494261,5669.106685,11251.130318
1044.447447,-1628.453072,6894.859482,14434.015869
1044.447777,-3923.091493,5209.449386,16062.468941
1044.448106,-5329.482782,1532.190996,14434.015869
1044.448436,-5551.544565,-1762.019645,12361.439231
1044.448765,-4959.379811,-3753.867940,9696.697840
1044.449095,-4515.256246,-5439.278036,9030.512492
1044.449424,-5033.400406,-4366.744339,7846.182985
1044.449754,-4737.318029,-1685.410096,6513.812290
1044.450083,-2812.782580,0.000000,5255.462188
1044.450413,666.185348,229.828649,5773.606348
1044.450742,4293.194464,1455.581446,8216.285956
1044.451072,4441.235652,2451.505594,9992.780217
1044.451401,2072.576638,4060.306139,11843.295072
1044.451731,-1332.370696,6894.859482,12731.542202
1044.452060,-2368.659014,4903.011187,14285.974681
1044.452390,-2294.638420,-306.438199,15100.201217
1044.452719,-3923.091493,-1378.971896,13989.892304
1044.453049,-5477.523971,-919.314598,11177.109724
1044.453378,-4441.235652,-3677.258390,9104.533087
1044.453708,-3478.967927,-4596.572988,7402.059420
1044.454037,-2886.803174,-2374.896044,5773.606348
1044.454367,-1036.288319,-1378.971896,4737.318029
1044.454696,1998.556043,-995.924147,4737.318029
1044.455026,3997.112087,3294.210641,6809.894666
1044.455355,4811.338623,4903.011187,8660.409521
1044.455685,4737.318029,3140.991542,9252.574275
1044.456014,2368.659014,4213.525239,10510.924376
1044.456344,-740.205942,5209.449386,13545.768739
1044.456673,-2960.823768,5209.449386,14285.974681
1044.457003,-4293.194464,2604.724693,12731.542202
1044.457332,-4219.173869,0.000000,10436.903782
1044.457662,-3552.988522,-3600.648841,8068.244768
1044.457991,-2960.823768,-5439.278036,7402.059420
1044.458321,-2516.700203,-3524.039291,7402.059420
1044.458650,-2146.597232,153.219100,6735.874072
1044.458980,74.020594,1225.752797,4663.297435
1044.459309,3552.988522,1225.752797,4293.194464
1044.459639,6661.853478,2987.772442,6587.832884
1044.459968,7328.038826,3830.477490,9326.594869
1044.460298,4959.379811,4519.963438,10955.047942
1044.460627,666.185348,6128.763984,12435.459826
1044.460957,-1776.494261,5439.278036,14656.077652
1044.461286,-2960.823768,2221.676944,14804.118840
1044.461616,-4219.173869,995.924147,13989.892304
1044.461945,-4737.318029,306.438199,11251.130318
1044.462275,-4293.194464,-2987.772442,9474.636058
1044.462604,-4145.153275,-4903.011187,8068.244768
1044.462934,-4737.318029,-1762.019645,6365.771101
1044.463263,-3478.967927,153.219100,5403.503377
1044.463593,-814.226536,612.876398,4441.235652
1044.463922,1258.350101,1455.581446,5403.503377
1044.464252,2368.659014,1991.848295,7624.121203
1044.464581,2960.823768,2221.676944,9548.656652
1044.464911,444.123565,4060.306139,11029.068536
1044.465240,-2812.782580,6818.249932,13101.645173
1044.465570,-4589.276840,5209.449386,13693.809927
1044.465899,-3775.050304,229.828649,13175.665768
1044.466229,-3108.864956,-3217.601092,13397.727550
1044.466558,-4737.318029,-1838.629195,12361.439231
1044.466888,-5477.523971,-995.924147,11103.089130
1044.467217,-4737.318029,-3140.991542,9178.553681
1044.467547,-3404.947333,-2451.505594,8216.285956
1044.467876,-296.082377,-383.047749,6735.874072
1044.468206,3256.906145,0.000000,4737.318029
1044.468535,5847.626942,1455.581446,3923.091493
1044.468865,6143.709319,3140.991542,6587.832884
1044.469194,4811.338623,3140.991542,9622.677246
1044.469524,2442.679609,3294.210641,13101.645173
1044.469853,-1406.391290,6588.421283,14508.036463
1044.470183,-3849.070898,6205.373534,13693.809927
1044.470512,-4441.235652,1685.410096,12287.418637
1044.470842,-3108.864956,-1302.362347,11103.089130
1044.471171,-2294.638420,-3830.477490,10140.821405
1044.471501,-3256.906145,-4826.401637,8068.244768
1044.471830,-4959.379811,-2221.676944,6883.915261
1044.472160,-4145.153275,536.266849,6661.853478
1044.472489,-888.247130,766.095498,6587.832884
1044.472819,2812.782580,612.876398,4737.318029
1044.473148,5403.503377,2681.334243,4367.215058
1044.473478,7105.977043,2298.286494,4959.379811
1044.473807,6735.874072,2145.067394,9104.533087
1044.474137,2664.741391,4213.525239,13027.624579
1044.474466,-1554.432478,6052.154434,15396.283594
1044.474796,-3478.967927,4749.792088,14508.036463
1044.475125,-3627.009116,1838.629195,12509.480420
1044.475455,-2886.803174,-612.876398,11399.171507
1044.475784,-1776.494261,-3907.087040,10510.924376
1044.476114,-2960.823768,-4903.011187,8956.491898
1044.476443,-4737.318029,-1838.629195,6809.894666
1044.476773,-3997.112087,229.828649,6069.688724
1044.477102,-1406.391290,229.828649,5773.606348
1044.477432,814.226536,919.314598,6291.750507
1044.477761,1554.432478,1149.143247,7920.203579
1044.478091,1480.411884,2451.505594,9696.697840
1044.478421,0.000000,4596.572988,11695.253884
1044.478750,-2294.638420,5515.887586,13175.665768
1044.479080,-4145.153275,3447.429741,14804.118840
1044.479409,-5255.462188,459.657299,14137.933492
1044.479739,-5403.503377,0.000000,11621.233289
1044.480068,-3627.009116,-2604.724693,10066.800811
1044.480398,-2886.803174,-3524.039291,10214.842000
1044.480727,-4663.297435,-2451.505594,8956.491898
1044.481057,-4663.297435,-2221.676944,7402.059420
1044.481387,-1480.411884,-1149.143247,6809.894666
1044.481716,2664.741391,1225.752797,6661.853478
1044.482046,4811.338623,3294.210641,6809.894666
1044.482375,4515.256246,3064.381992,6883.915261
1044.482705,3627.009116,3294.210641,7254.018232
1044.483034,2368.659014,4366.744339,10140.821405
1044.483364,222.061783,5439.278036,13693.809927
1044.483693,-3404.947333,4596.572988,15100.201217
1044.484023,-6439.791695,1532.190996,13619.789333
1044.484353,-7994.224174,-1149.143247,11177.109724
1044.484682,-5625.565159,-2911.162892,9770.718434
1044.485012,-3182.885551,-5286.058936,9252.574275
1044.485341,-3330.926739,-4749.792088,7476.080014
1044.485671,-4145.153275,-536.266849,5255.462188
1044.486000,-740.205942,689.485948,4071.132681
1044.486330,4071.132681,1378.971896,4589.276840
1044.486659,6439.791695,4290.134789,5699.585753
1044.486989,7031.956449,3907.087040,6957.935855
1044.487319,6365.771101,3907.087040,8068.244768
1044.487648,4367.215058,5132.839837,11843.295072
1044.487978,1998.556043,4673.182538,14952.160028
1044.488307,-1702.473667,3677.258390,16136.489536
1044.488637,-4589.276840,1838.629195,14211.954086
1044.488966,-4663.297435,-995.924147,12435.459826
1044.489296,-2960.823768,-3753.867940,11029.068536
1044.489625,-2960.823768,-4443.353888,10362.883188
1044.489955,-5181.441594,-2681.334243,8142.265362
1044.490285,-4959.379811,-919.314598,5625.565159
1044.490614,-1554.432478,612.876398,4219.173869
1044.490944,2812.782580,1685.410096,4885.359217
1044.491273,4515.256246,1838.629195,7179.997637
1044.491603,2960.823768,2451.505594,8734.430116
1044.491932,0.000000,4213.525239,9548.656652
1044.492262,-1850.514855,5669.106685,11547.212695
1044.492591,-2516.700203,4979.620737,14211.954086
1044.492921,-3775.050304,1915.238745,14211.954086
1044.493251,-6143.709319,-1302.362347,12583.501014
1044.493580,-6439.791695,-3140.991542,11473.192101
1044.493910,-5773.606348,-3217.601092,11325.150913
1044.494239,-5477.523971,-2757.943793,10807.006753
1044.494569,-5477.523971,-1685.410096,9326.594869
1044.494898,-3552.988522,-383.047749,6291.750507
1044.495228,962.267725,-229.828649,4441.235652
1044.495557,5625.565159,-459.657299,5329.482782
1044.495887,6661.853478,2451.505594,7846.182985
1044.496217,4071.132681,5592.497135,9548.656652
1044.496546,1480.411884,5975.544884,10584.944971
1044.496876,-296.082377,6358.592633,12287.418637
1044.497205,-1184.329507,5132.839837,12805.562797
1044.497535,-2960.823768,1915.238745,11621.233289
1044.497864,-4811.338623,-995.924147,10881.027347
1044.498194,-5107.421000,-2987.772442,11325.150913
1044.498523,-6143.709319,-3524.039291,11621.233289
1044.498853,-7402.059420,-2528.115143,10288.862594
1044.499183,-6957.935855,-689.485948,8512.368333
1044.499512,-3775.050304,-842.705048,6143.709319
1044.499842,1184.329507,-383.047749,4367.215058
1044.500171,5921.647536,612.876398,4145.153275
1044.500501,7624.121203,2451.505594,5625.565159
1044.500830,6365.771101,3447.429741,8142.265362
1044.501160,2960.823768,5592.497135,11325.150913
1044.501489,1036.288319,6971.469032,13323.706956
1044.501819,0.000000,5209.449386,13175.665768
1044.502149,-1258.350101,1915.238745,11917.315666
1044.502478,-1258.350101,0.000000,11251.130318
1044.502808,-666.185348,-2451.505594,10288.862594
1044.503137,-1332.370696,-4749.792088,9474.636058
1044.503467,-3108.864956,-1915.238745,8438.347739
1044.503796,-4737.318029,536.266849,7476.080014
1044.504126,-2664.741391,1225.752797,6883.915261
1044.504455,222.061783,1302.362347,6735.874072
1044.504785,2368.659014,1915.238745,7254.018232
1044.505115,3404.947333,1378.971896,7994.224174
1044.505444,1184.329507,919.314598,10214.842000
1044.505774,-2368.659014,4136.915689,13323.706956
1044.506103,-5255.462188,5286.058936,13989.892304
1044.506433,-5107.421000,2681.334243,12657.521608
1044.506762,-3923.091493,-689.485948,9992.780217
1044.507092,-2516.700203,-2604.724693,9622.677246
1044.507421,-1776.494261,-4749.792088,8882.471304
1044.507751,-2368.659014,-3907.087040,9178.553681
1044.508080,-3034.844362,-229.828649,9548.656652
1044.508410,-2368.659014,1838.629195,9474.636058
1044.508740,-666.185348,2221.676944,7772.162391
1044.509069,2368.659014,3140.991542,6365.771101
1044.509399,4959.379811,1991.848295,7179.997637
1044.509728,4885.359217,1225.752797,9696.697840
1044.510058,1850.514855,4519.963438,11473.192101
1044.510387,-2294.638420,4979.620737,12509.480420
1044.510717,-4367.215058,2604.724693,14211.954086
1044.511046,-5921.647536,1608.800546,13767.830521
1044.511376,-6365.771101,536.266849,11843.295072
1044.511706,-4441.235652,-2604.724693,9622.677246
1044.512035,-3775.050304,-4903.011187,7698.141797
1044.512365,-3997.112087,-1838.629195,7254.018232
1044.512694,-3478.967927,-1225.752797,6883.915261
1044.513024,-1554.432478,76.609550,5551.544565
1044.513353,444.123565,2911.162892,3775.050304
1044.513683,3256.906145,2451.505594,5181.441594
1044.514012,5847.626942,2145.067394,7550.100608
1044.514342,5255.462188,4136.915689,9770.718434
1044.514672,2738.761985,5286.058936,10732.986159
1044.515001,370.102971,4366.744339,13027.624579
1044.515331,-1776.494261,3524.039291,14137.933492
1044.515660,-2886.803174,2451.505594,13471.748144
1044.515990,-3701.029710,-766.095498,11621.233289
1044.516319,-3552.988522,-1378.971896,9992.780217
1044.516649,-2960.823768,-2221.676944,8734.430116
1044.516978,-3404.947333,-3524.039291,8290.306550
1044.517308,-3034.844362,-1072.533697,6883.915261
1044.517638,-1998.556043,1455.581446,4885.359217
1044.517967,518.144159,1762.019645,5255.462188
1044.518297,2960.823768,1991.848295,6661.853478
1044.518626,2960.823768,2604.724693,8142.265362
1044.518956,2146.597232,2298.286494,9918.759623
1044.519285,370.102971,2757.943793,12731.542202
1044.519615,-2220.617826,4366.744339,15248.242405
1044.519944,-4515.256246,3370.820191,15396.283594
1044.520274,-6291.750507,689.485948,12657.521608
1044.520604,-4959.379811,-2068.457845,11473.192101
1044.520933,-3034.844362,-4060.306139,10732.986159
1044.521263,-3256.906145,-3064.381992,9400.615463
1044.521592,-3627.009116,-1685.410096,7698.141797
1044.521922,-2294.638420,-229.828649,6513.812290
1044.522251,370.102971,0.000000,6365.771101
1044.522581,2664.741391,2145.067394,6883.915261
1044.522910,4145.153275,2145.067394,7698.141797
1044.523240,3997.112087,2757.943793,8808.450710
1044.523570,2220.617826,4290.134789,9696.697840
1044.523899,296.082377,4749.792088,11473.192101
1044.524229,-666.185348,2528.115143,13249.686362
1044.524558,-3330.926739,0.000000,13175.665768
1044.524888,-6513.812290,229.828649,12657.521608
1044.525217,-7031.956449,-689.485948,12361.439231
1044.525547,-5477.523971,-3140.991542,10955.047942
1044.525876,-4811.338623,-3524.039291,9178.553681
1044.526206,-4219.173869,-1915.238745,6217.729913
1044.526536,-1110.308913,-1455.581446,4515.256246
1044.526865,2738.761985,306.438199,4441.235652
1044.527195,4811.338623,3217.601092,6069.688724
1044.527524,5107.421000,4060.306139,7402.059420
1044.527854,4219.173869,4596.572988,8068.244768
1044.528183,2368.659014,5209.449386,10510.924376
1044.528513,592.164754,5669.106685,13027.624579
1044.528842,-1184.329507,3983.696590,13397.727550
1044.529172,-2664.741391,766.095498,12435.459826
1044.529502,-3552.988522,-1225.752797,11103.089130
1044.529831,-3256.906145,-2451.505594,10288.862594
1044.530161,-3404.947333,-3524.039291,9918.759623
1044.530490,-4219.173869,-2451.505594,8438.347739
1044.530820,-4367.215058,229.828649,6957.935855
1044.531149,-1110.308913,306.438199,5699.585753
1044.531479,2812.782580,1072.533697,5181.441594
1044.531808,4737.318029,3064.381992,6365.771101
1044.532138,4959.379811,2834.553343,7328.038826
1044.532468,3034.844362,2068.457845,9474.636058
1044.532797,148.041188,4596.572988,12657.521608
1044.533127,-2220.617826,5286.058936,14730.098246
1044.533456,-3923.091493,3524.039291,14285.974681
1044.533786,-5329.482782,536.266849,11547.212695
1044.534115,-4441.235652,-2681.334243,10807.006753
1044.534445,-2738.761985,-5822.325785,11251.130318
1044.534774,-3775.050304,-4366.744339,10732.986159
1044.535104,-6143.709319,-612.876398,8216.285956
1044.535434,-4441.235652,229.828649,6809.894666
1044.535763,-296.082377,-229.828649,6291.750507
1044.536093,2960.823768,1685.410096,5181.441594
1044.536422,4885.359217,2298.286494,5847.626942
1044.536752,4959.379811,1455.581446,7846.182985
1044.537081,2072.576638,3600.648841,10436.903782
1044.537411,-1924.535449,5975.544884,13175.665768
1044.537740,-3182.885551,4749.792088,14730.098246
1044.538070,-3997.112087,1685.410096,14434.015869
1044.538400,-4737.318029,-383.047749,12583.501014
1044.538729,-3997.112087,-3140.991542,11177.109724
1044.539059,-4367.215058,-5056.230287,10807.006753
1044.539388,-5181.441594,-2451.505594,10066.800811
1044.539718,-5551.544565,-383.047749,8216.285956
1044.540047,-2812.782580,0.000000,5329.482782
1044.540377,1406.391290,459.657299,2960.823768
1044.540706,4737.318029,536.266849,4515.256246
1044.541036,6513.812290,1991.848295,7476.080014
1044.541366,5181.441594,4519.963438,9252.574275
1044.541695,1702.473667,5745.716235,10066.800811
1044.542025,0.000000,6052.154434,12435.459826
1044.542354,-1110.308913,4213.525239,14508.036463
1044.542684,-2812.782580,2681.334243,13989.892304
1044.543013,-3997.112087,689.485948,11399.171507
1044.543343,-3849.070898,-1762.019645,10066.800811
1044.543672,-3849.070898,-3140.991542,8956.491898
1044.544002,-4589.276840,-3217.601092,8956.491898
1044.544332,-3923.091493,-1378.971896,7031.956449
1044.544661,-740.205942,229.828649,4737.318029
1044.544991,2220.617826,766.095498,2886.803174
1044.545320,4959.379811,1378.971896,4737.318029
1044.545650,6069.688724,2145.067394,8290.306550
1044.545979,3478.967927,3600.648841,10732.986159
1044.546309,-740.205942,5822.325785,12953.603985
1044.546638,-3775.050304,6741.640382,15026.180623
1044.546968,-5181.441594,4060.306139,15026.180623
1044.547298,-6143.709319,76.609550,12583.501014
1044.547627,-5847.626942,-2451.505594,10436.903782
1044.547957,-5033.400406,-3140.991542,8364.327145
1044.548286,-4219.173869,-4519.963438,7328.038826
1044.548616,-4885.359217,-3753.867940,7105.977043
1044.548945,-4959.379811,-689.485948,7105.977043
1044.549275,-2442.679609,-229.828649,6439.791695
1044.549604,0.000000,1302.362347,7105.977043
1044.549934,2146.597232,3677.258390,8512.368333
1044.550264,3478.967927,3830.477490,9992.780217
1044.550593,2368.659014,2681.334243,11399.171507
1044.550923,-1628.453072,4213.525239,13323.706956
1044.551252,-5107.421000,4749.792088,14508.036463
1044.551582,-7624.121203,2451.505594,14211.954086
1044.551911,-9474.636058,995.924147,13249.686362
1044.552241,-8956.491898,-1225.752797,11843.295072
1044.552570,-6661.853478,-4519.963438,9252.574275
1044.552900,-4811.338623,-6358.592633,6809.894666
1044.553230,-4071.132681,-4749.792088,6809.894666
1044.553559,-3849.070898,-1762.019645,6883.915261
1044.553889,-3034.844362,1685.410096,6809.894666
1044.554218,-962.267725,3983.696590,7031.956449
1044.554548,1332.370696,3217.601092,7698.141797
1044.554877,2368.659014,3830.477490,8290.306550
1044.555207,2072.576638,4366.744339,9770.718434
1044.555536,0.000000,2987.772442,11399.171507
1044.555866,-4219.173869,3217.601092,11843.295072
1044.556196,-7476.080014,3753.867940,10807.006753
1044.556525,-8216.285956,1455.581446,10881.027347
1044.556855,-7179.997637,-842.705048,11103.089130
1044.557184,-5699.585753,-1378.971896,9252.574275
1044.557514,-3478.967927,-1915.238745,6365.771101
1044.557843,-1702.473667,-2911.162892,5477.523971
1044.558173,-1924.535449,-1302.362347,7179.997637
1044.558502,-3849.070898,3524.039291,8660.409521
1044.558832,-4885.359217,5286.058936,9400.615463
1044.559162,-4293.194464,3907.087040,9770.718434
1044.559491,-3701.029710,2604.724693,9770.718434
1044.559821,-3256.906145,1685.410096,9400.615463
1044.560150,-2368.659014,-383.047749,8882.471304
1044.560480,-2442.679609,-2374.896044,9474.636058
1044.560809,-4589.276840,-689.485948,10807.006753
1044.561139,-7328.038826,1608.800546,10955.047942
1044.561468,-8290.306550,1608.800546,10881.027347
1044.561798,-6957.935855,1302.362347,11103.089130
1044.562128,-5033.400406,1532.190996,10881.027347
1044.562457,-2812.782580,919.314598,10066.800811
1044.562787,-1258.350101,612.876398,8808.450710
1044.563116,-1332.370696,306.438199,7698.141797
1044.563446,-1924.535449,1838.629195,8808.450710
1044.563775,-2960.823768,2221.676944,10881.027347
1044.564105,-4737.318029,2221.676944,11103.089130
1044.564434,-7105.977043,1532.190996,10214.842000
1044.564764,-8882.471304,306.438199,9918.759623
1044.565093,-8068.244768,-459.657299,10510.924376
1044.565423,-6809.894666,-1225.752797,10214.842000
1044.565753,-5329.482782,-1225.752797,9326.594869
1044.566082,-4071.132681,-306.438199,7402.059420
1044.566412,-1628.453072,76.609550,6439.791695
1044.566741,814.226536,1072.533697,7846.182985
1044.567071,1406.391290,1378.971896,9474.636058
1044.567400,-1332.370696,3524.039291,9770.718434
1044.567730,-4589.276840,4290.134789,10288.862594
1044.568059,-6069.688724,3064.381992,11843.295072
1044.568389,-6439.791695,2145.067394,12361.439231
1044.568719,-6439.791695,153.219100,10658.965565
1044.569048,-4515.256246,-2604.724693,8068.244768
1044.569378,-1998.556043,-3753.867940,6291.750507
1044.569707,74.020594,-2757.943793,6217.729913
1044.570037,1702.473667,-1149.143247,7105.977043
1044.570366,2220.617826,1225.752797,8290.306550
1044.570696,74.020594,3370.820191,9474.636058
1044.571025,-2812.782580,5592.497135,10955.047942
1044.571355,-5625.565159,5515.887586,12065.356855
1044.571685,-7402.059420,4136.915689,12361.439231
1044.572014,-8734.430116,2604.724693,11399.171507
1044.572344,-8290.306550,229.828649,9548.656652
1044.572673,-5921.647536,-2987.772442,7994.224174
1044.573003,-3404.947333,-5209.449386,7328.038826
1044.573332,-2146.597232,-3753.867940,6439.791695
1044.573662,-888.247130,-689.485948,5847.626942
1044.573991,444.123565,1455.581446,7476.080014
1044.574321,1110.308913,4213.525239,9770.718434
1044.574651,-962.267725,6894.859482,11695.253884
1044.574980,-3701.029710,6665.030833,12805.562797
1044.575310,-6809.894666,4519.963438,13175.665768
1044.575639,-9252.574275,2757.943793,14508.036463
1044.575968,-10140.821405,536.266849,13989.892304
1044.576298,-9548.656652,-1378.971896,10658.965565
1044.576627,-7031.956449,-4673.182538,6957.935855
1044.576957,-2368.659014,-6358.592633,4071.132681
1044.577286,1258.350101,-4673.182538,3923.091493
1044.577616,3627.009116,-153.219100,4737.318029
1044.577945,4145.153275,3600.648841,6587.832884
1044.578275,1998.556043,7660.954980,8882.471304
1044.578604,-666.185348,10112.460574,11325.150913
1044.578933,-2664.741391,8580.269578,13027.624579
1044.579263,-5329.482782,5745.716235,13545.768739
1044.579592,-8660.409521,766.095498,14582.057057
1044.579922,-11621.233289,-2298.286494,14508.036463
1044.580251,-14063.912898,-4060.306139,12287.418637
1044.580581,-13101.645173,-5515.887586,8734.430116
1044.580910,-9400.615463,-6588.421283,5255.462188
1044.581240,-4441.235652,-5209.449386,3775.050304
1044.581569,888.247130,-2911.162892,3478.967927
1044.581898,3256.906145,536.266849,4367.215058
1044.582228,3108.864956,5515.887586,6069.688724
1044.582557,962.267725,10189.070123,8142.265362
1044.582887,-1036.288319,9959.241474,11325.150913
1044.583216,-3108.864956,7584.345430,13323.706956
1044.583546,-5847.626942,4060.306139,13175.665768
1044.583875,-7550.100608,-995.924147,11991.336260
1044.584205,-8734.430116,-4673.182538,10732.986159
1044.584534,-7994.224174,-6971.469032,10584.944971
1044.584863,-7105.977043,-6665.030833,10288.862594
1044.585193,-5255.462188,-4290.134789,8956.491898
1044.585522,-2590.720797,-1915.238745,7105.977043
1044.585852,518.144159,306.438199,7328.038826
1044.586181,2368.659014,3140.991542,9326.594869
1044.586511,1924.535449,6511.811733,9992.780217
1044.586840,666.185348,6205.373534,11695.253884
1044.587170,-2146.597232,4673.182538,13027.624579
1044.587499,-5107.421000,3140.991542,13619.789333
1044.587828,-7476.080014,1072.533697,12139.377449
1044.588158,-8142.265362,-1915.238745,9474.636058
1044.588487,-6883.915261,-5056.230287,7179.997637
1044.588817,-4515.256246,-6052.154434,6587.832884
1044.589146,-2960.823768,-3907.087040,6735.874072
1044.589476,-2812.782580,-612.876398,7105.977043
1044.589805,-2516.700203,2528.115143,7994.224174
1044.590135,-2590.720797,5745.716235,9178.553681
1044.590464,-2146.597232,8044.002729,10436.903782
1044.590793,-2368.659014,7354.516781,11251.130318
1044.591123,-3330.926739,4826.401637,11547.212695
1044.591452,-3997.112087,2604.724693,11991.336260
1044.591782,-5181.441594,919.314598,11843.295072
1044.592111,-6661.853478,-536.266849,10955.047942
1044.592441,-6883.915261,-1685.410096,9252.574275
1044.592770,-5551.544565,-1991.848295,7846.182985
1044.593100,-3034.844362,76.609550,7550.100608
1044.593429,-740.205942,1378.971896,6957.935855
1044.593758,518.144159,3294.210641,7105.977043
1044.594088,222.061783,5439.278036,7698.141797
1044.594417,-888.247130,6894.859482,9030.512492
1044.594747,-1924.535449,6818.249932,10066.800811
1044.595076,-3256.906145,5592.497135,10881.027347
1044.595406,-4219.173869,3524.039291,10584.944971
1044.595735,-4293.194464,1762.019645,9474.636058
1044.596064,-3849.070898,-459.657299,9104.533087
1044.596394,-3404.947333,-1915.238745,8734.430116
1044.596723,-3256.906145,0.000000,8216.285956
1044.597053,-2812.782580,2451.505594,8734.430116
1044.597382,-2664.741391,3983.696590,9622.677246
1044.597712,-2442.679609,4826.401637,10214.842000
1044.598041,-1332.370696,4903.011187,10584.944971
1044.598371,-1110.308913,5669.106685,10436.903782
1044.598700,-666.185348,4903.011187,10066.800811
1044.599029,-666.185348,3907.087040,9992.780217
1044.599359,-444.123565,2681.334243,9548.656652
1044.599688,-222.061783,2298.286494,9252.574275
1044.600018,-888.247130,2451.505594,9178.553681
1044.600347,-370.102971,2604.724693,9770.718434
1044.600677,0.000000,3447.429741,10510.924376
1044.601006,-888.247130,5132.839837,11029.068536
1044.601336,-2146.597232,6741.640382,11251.130318
1044.601665,-3552.988522,6894.859482,10436.903782
1044.601994,-3552.988522,5592.497135,9622.677246
1044.602324,-3330.926739,5056.230287,8586.388927
1044.602653,-2516.700203,3600.648841,7031.956449
1044.602983,-1110.308913,1532.190996,5921.647536
1044.603312,-666.185348,766.095498,5255.462188
1044.603642,-592.164754,1149.143247,5995.668130
1044.603971,-1850.514855,2221.676944,7402.059420
1044.604301,-2220.617826,4290.134789,9178.553681
1044.604630,-2738.761985,5669.106685,10436.903782
1044.604959,-2516.700203,5975.544884,11029.068536
1044.605289,-1924.535449,6128.763984,11251.130318
1044.605618,-888.247130,5822.325785,10732.986159
1044.605948,222.061783,4749.792088,10510.924376
1044.606277,74.020594,3983.696590,9992.780217
1044.606607,-148.041188,3753.867940,9548.656652
1044.606936,-222.061783,3294.210641,8660.409521
1044.607266,0.000000,2604.724693,8512.368333
1044.607595,518.144159,2911.162892,8660.409521
1044.607924,814.226536,2681.334243,9030.512492
1044.608254,296.082377,2528.115143,9770.718434
1044.608583,-814.226536,3447.429741,10066.800811
1044.608913,-2812.782580,4903.011187,11325.150913
1044.609242,-2738.761985,5209.449386,11769.274478
1044.609572,-2368.659014,4673.182538,11991.336260
1044.609901,-1998.556043,4290.134789,11547.212695
1044.610231,-1924.535449,4136.915689,10362.883188
1044.610560,-1184.329507,4060.306139,9992.780217
1044.610889,-296.082377,4903.011187,9770.718434
1044.611219,0.000000,5362.668486,8956.491898
1044.611548,444.123565,4749.792088,7402.059420
1044.611878,518.144159,3447.429741,6365.771101
1044.612207,814.226536,2451.505594,6291.750507
1044.612537,370.102971,1915.238745,7179.997637
1044.612866,-814.226536,2298.286494,8808.450710
1044.613196,-2590.720797,2757.943793,9918.759623
1044.613525,-3330.926739,3447.429741,10732.986159
1044.613854,-2516.700203,3983.696590,11399.171507
1044.614184,-1702.473667,5362.668486,11325.150913
1044.614513,-1036.288319,5898.935335,10955.047942
1044.614843,-222.061783,6205.373534,9918.759623
1044.615172,444.123565,6358.592633,9326.594869
1044.615502,518.144159,5745.716235,8882.471304
1044.615831,-370.102971,4826.401637,7624.121203
1044.616161,-962.267725,4903.011187,6735.874072
1044.616490,-1036.288319,2911.162892,6069.688724
1044.616819,-1110.308913,1302.362347,6365.771101
1044.617149,-1702.473667,306.438199,6883.915261
1044.617478,-2220.617826,0.000000,7772.162391
1044.617808,-2738.761985,229.828649,9918.759623
1044.618137,-2886.803174,2298.286494,11473.192101
1044.618467,-2294.638420,3983.696590,12509.480420
1044.618796,-1184.329507,4443.353888,12953.603985
1044.619126,-370.102971,4903.011187,12509.480420
1044.619455,0.000000,6511.811733,12657.521608
1044.619784,0.000000,6894.859482,11769.274478
1044.620114,444.123565,5515.887586,10584.944971
1044.620443,222.061783,3983.696590,9474.636058
1044.620773,-370.102971,3064.381992,8660.409521
1044.621102,-1332.370696,2681.334243,7772.162391
1044.621432,-1924.535449,2451.505594,7402.059420
1044.621761,-1480.411884,1915.238745,7920.203579
1044.622090,-962.267725,1838.629195,7994.224174
1044.622420,-370.102971,2451.505594,8734.430116
1044.622749,-148.041188,2757.943793,8882.471304
1044.623079,148.041188,2987.772442,9918.759623
1044.623408,-740.205942,4903.011187,10955.047942
1044.623738,-1480.411884,6741.640382,11399.171507
1044.624067,-1702.473667,6894.859482,12361.439231
1044.624397,-1776.494261,6588.421283,12435.459826
1044.624726,-2590.720797,6971.469032,11325.150913
1044.625055,-3552.988522,6511.811733,8956.491898
1044.625385,-2812.782580,4519.963438,6069.688724
1044.625714,-518.144159,2911.162892,4145.153275
1044.626044,1998.556043,1685.410096,3849.070898
1044.626373,2590.720797,2068.457845,4737.318029
1044.626703,1554.432478,2298.286494,5847.626942
1044.627032,-666.185348,3753.867940,8068.244768
1044.627362,-3182.885551,5669.106685,10436.903782
1044.627691,-4663.297435,6052.154434,13545.768739
1044.628020,-4737.318029,6128.763984,14656.077652
1044.628350,-4737.318029,5209.449386,14804.118840
1044.628679,-4737.318029,4826.401637,12435.459826
1044.629009,-3330.926739,3753.867940,10436.903782
1044.629338,-962.267725,2757.943793,8216.285956
1044.629668,1850.514855,2681.334243,5625.565159
1044.629997,4663.297435,2911.162892,5329.482782
1044.630327,5551.544565,3907.087040,5551.544565
1044.630656,4515.256246,4826.401637,6883.915261
1044.630985,1480.411884,5056.230287,8956.491898
1044.631315,-2294.638420,7277.907231,11769.274478
1044.631644,-5033.400406,8350.440928,14063.912898
1044.631974,-5403.503377,6588.421283,14359.995275
1044.632303,-4663.297435,2987.772442,13027.624579
1044.632633,-3256.906145,229.828649,10288.862594
1044.632962,-1924.535449,-459.657299,7550.100608
1044.633292,-1036.288319,0.000000,5551.544565
1044.633621,-444.123565,1378.971896,6809.894666
1044.633950,0.000000,4136.915689,8438.347739
1044.634280,-296.082377,6052.154434,8586.388927
1044.634609,-814.226536,5362.668486,6661.853478
1044.634939,148.041188,2451.505594,6069.688724
1044.635268,148.041188,766.095498,9252.574275
1044.635598,-888.247130,3064.381992,12879.583391
1044.635927,-3034.844362,5745.716235,14211.954086
1044.636257,-3701.029710,5515.887586,13397.727550
1044.636586,-2738.761985,3677.258390,12805.562797
1044.636915,-1628.453072,4290.134789,11399.171507
1044.637245,-222.061783,3830.477490,7624.121203
1044.637574,1850.514855,1225.752797,4441.235652
1044.637904,4145.153275,-919.314598,3256.906145
1044.638233,3849.070898,-766.095498,4293.194464
1044.638563,1776.494261,1149.143247,6883.915261
1044.638892,-370.102971,2374.896044,9992.780217
1044.639222,-2738.761985,3217.601092,12509.480420
1044.639551,-4737.318029,4519.963438,13693.809927
1044.639880,-4515.256246,3830.477490,13841.851115
1044.640210,-3034.844362,1225.752797,14211.954086
1044.640539,-1406.391290,1072.533697,13841.851115
1044.640869,-2072.576638,2987.772442,11843.295072
1044.641198,-1776.494261,3830.477490,9622.677246
1044.641528,-666.185348,4596.572988,8808.450710
1044.641857,0.000000,5209.449386,8216.285956
1044.642187,444.123565,4673.182538,6513.812290
1044.642516,2072.576638,2451.505594,4737.318029
1044.642845,2368.659014,-459.657299,3923.091493
1044.643175,444.123565,-1762.019645,6069.688724
1044.643504,-2516.700203,76.609550,9696.697840
1044.643834,-4589.276840,1302.362347,13323.706956
1044.644163,-6069.688724,3447.429741,14434.015869
1044.644493,-6069.688724,5209.449386,13989.892304
1044.644822,-3849.070898,3677.258390,12435.459826
1044.645152,-666.185348,1378.971896,11473.192101
1044.645481,518.144159,2068.457845,8660.409521
1044.645810,370.102971,5056.230287,6217.729913
1044.646140,1184.329507,4443.353888,5773.606348
1044.646469,1480.411884,4903.011187,6735.874072
1044.646799,814.226536,5132.839837,6661.853478
1044.647128,444.123565,3294.210641,5255.462188
1044.647458,1332.370696,0.000000,4737.318029
1044.647787,1110.308913,-1302.362347,7105.977043
1044.648116,-1036.288319,-1225.752797,9992.780217
1044.648446,-3552.988522,-612.876398,12953.603985
1044.648775,-5477.523971,1302.362347,14063.912898
1044.649105,-5181.441594,3140.991542,14137.933492
1044.649434,-3552.988522,2528.115143,13027.624579
1044.649764,-1258.350101,1838.629195,11843.295072
1044.650093,0.000000,1608.800546,9474.636058
1044.650423,1036.288319,995.924147,6661.853478
1044.650752,1628.453072,1455.581446,6143.709319
1044.651081,1480.411884,3447.429741,6513.812290
1044.651411,1036.288319,2987.772442,6513.812290
1044.651740,962.267725,383.047749,5773.606348
1044.652070,962.267725,-2145.067394,6883.915261
1044.652399,962.267725,-1685.410096,9326.594869
1044.652729,-296.082377,-2604.724693,11843.295072
1044.653058,-3182.885551,-2451.505594,13767.830521
1044.653388,-5773.606348,-536.266849,14730.098246
1044.653717,-5551.544565,1378.971896,14952.160028
1044.654046,-3478.967927,766.095498,14508.036463
1044.654376,-1776.494261,-229.828649,12879.583391
1044.654705,-1258.350101,0.000000,10732.986159
1044.655035,-296.082377,0.000000,8216.285956
1044.655364,814.226536,-153.219100,7105.977043
1044.655694,1776.494261,689.485948,6143.709319
1044.656023,2590.720797,-229.828649,5403.503377
1044.656353,2368.659014,-1608.800546,6513.812290
1044.656682,1036.288319,-1072.533697,8290.306550
1044.657011,0.000000,-306.438199,10807.006753
1044.657341,-1258.350101,306.438199,12287.418637
1044.657670,-3849.070898,536.266849,13249.686362
1044.658000,-4515.256246,2145.067394,14063.912898
1044.658329,-3627.009116,766.095498,12879.583391
1044.658659,-2072.576638,0.000000,11029.068536
1044.658988,-1480.411884,229.828649,9252.574275
1044.659318,-1480.411884,689.485948,7846.182985
1044.659647,-1258.350101,689.485948,7476.080014
1044.659976,-740.205942,1838.629195,6291.750507
1044.660306,-592.164754,2221.676944,4737.318029
1044.660635,148.041188,842.705048,4071.132681
1044.660965,814.226536,-612.876398,5551.544565
1044.661294,148.041188,689.485948,7698.141797
1044.661624,-222.061783,2068.457845,10584.944971
1044.661953,-1850.514855,2451.505594,12805.562797
1044.662283,-3627.009116,4060.306139,13693.809927
1044.662612,-4441.235652,4596.572988,13915.871710
1044.662941,-2960.823768,2451.505594,12879.583391
1044.663271,-1702.473667,2221.676944,10732.986159
1044.663600,-1184.329507,1608.800546,8660.409521
1044.663930,-1110.308913,229.828649,6809.894666
1044.664259,-1184.329507,-612.876398,6513.812290
1044.664589,-1480.411884,766.095498,6365.771101
1044.664918,-1480.411884,1532.190996,5107.421000
1044.665248,0.000000,0.000000,4663.297435
1044.665577,1702.473667,-612.876398,6735.874072
1044.665906,2960.823768,1072.533697,9326.594869
1044.666236,2886.803174,1072.533697,11769.274478
1044.666565,1110.308913,2604.724693,14211.954086
1044.666895,-1924.535449,4519.963438,15248.242405
1044.667224,-3330.926739,5898.935335,16358.551318
1044.667554,-2442.679609,3983.696590,15692.365970
1044.667883,-1480.411884,1378.971896,13101.645173
1044.668213,-1258.350101,-229.828649,9474.636058
1044.668542,-1110.308913,-2374.896044,7105.977043
1044.668871,-1258.350101,-1991.848295,5477.523971
1044.669201,-518.144159,-536.266849,4515.256246
1044.669530,666.185348,-1149.143247,4589.276840
1044.669860,1480.411884,-766.095498,5551.544565
1044.670189,1110.308913,459.657299,7476.080014
1044.670519,296.082377,1532.190996,9622.677246
1044.670848,-1036.288319,1838.629195,11843.295072
1044.671178,-2442.679609,2834.553343,14063.912898
1044.671507,-3330.926739,3830.477490,14804.118840
1044.671836,-2886.803174,2068.457845,13693.809927
1044.672166,-2738.761985,-842.705048,11399.171507
1044.672495,-3182.885551,-1838.629195,9252.574275
1044.672825,-3034.844362,-1455.581446,7698.141797
1044.673154,-2368.659014,-689.485948,6883.915261
1044.673484,-1184.329507,-306.438199,5477.523971
1044.673813,518.144159,306.438199,5329.482782
1044.674143,2072.576638,0.000000,4737.318029
1044.674472,2590.720797,-153.219100,5403.503377
1044.674802,2072.576638,229.828649,7624.121203
1044.675131,518.144159,1072.533697,11547.212695
1044.675461,-1480.411884,2298.286494,14211.954086
1044.675790,-3923.091493,3447.429741,15322.262999
1044.676120,-4219.173869,2374.896044,14285.974681
1044.676449,-3108.864956,-995.924147,11917.315666
1044.676779,-2072.576638,-3217.601092,10658.965565
1044.677109,-1850.514855,-2068.457845,9326.594869
1044.677438,-1850.514855,-1608.800546,7550.100608
1044.677768,-2146.597232,-1762.019645,6883.915261
1044.678097,-1998.556043,76.609550,7105.977043
1044.678427,-1184.329507,1532.190996,7179.997637
1044.678756,74.020594,995.924147,7179.997637
1044.679086,2220.617826,1225.752797,7105.977043
1044.679415,2960.823768,766.095498,8364.327145
1044.679745,2812.782580,-689.485948,11473.192101
1044.680075,444.123565,0.000000,14730.098246
1044.680404,-3701.029710,3140.991542,15618.345376
1044.680734,-5403.503377,3830.477490,14063.912898
1044.681063,-4145.153275,766.095498,12583.501014
1044.681393,-1480.411884,-995.924147,11473.192101
1044.681722,0.000000,-1991.848295,9474.636058
1044.682052,74.020594,-1762.019645,6809.894666
1044.682381,0.000000,76.609550,5033.400406
1044.682711,1332.370696,1838.629195,4589.276840
1044.683041,2664.741391,1455.581446,5995.668130
1044.683370,3108.864956,1608.800546,7402.059420
1044.683700,2590.720797,2834.553343,8734.430116
1044.684029,1480.411884,2834.553343,10066.800811
1044.684359,-222.061783,2528.115143,12361.439231
1044.684688,-2738.761985,2681.334243,14434.015869
1044.685018,-4959.379811,3294.210641,14878.139434
1044.685347,-5551.544565,2068.457845,12879.583391
1044.685677,-4515.256246,383.047749,10807.006753
1044.686006,-3330.926739,-383.047749,8438.347739
1044.686336,-3923.091493,-919.314598,6439.791695
1044.686666,-2960.823768,-842.705048,5403.503377
1044.686995,-962.267725,1302.362347,5107.421000
1044.687325,1258.350101,2681.334243,4885.359217
1044.687654,2590.720797,2528.115143,4219.173869
1044.687984,3108.864956,612.876398,5107.421000
1044.688313,2590.720797,1302.362347,8068.244768
1044.688643,1332.370696,2374.896044,11695.253884
1044.688972,-814.226536,3830.477490,14434.015869
1044.689302,-3404.947333,4443.353888,14656.077652
1044.689632,-4293.194464,2145.067394,13915.871710
1044.689961,-3330.926739,-306.438199,11991.336260
1044.690291,-1924.535449,-1608.800546,9844.739029
1044.690620,-1554.432478,-536.266849,7920.203579
1044.690950,-1480.411884,229.828649,6587.832884
1044.691279,-1184.329507,-536.266849,5477.523971
1044.691609,-1036.288319,-306.438199,5699.585753
1044.691938,-296.082377,536.266849,6217.729913
1044.692268,0.000000,612.876398,6217.729913
1044.692598,148.041188,0.000000,7105.977043
1044.692927,1110.308913,-612.876398,10510.924376
1044.693257,0.000000,-1225.752797,13397.727550
1044.693586,-2442.679609,-306.438199,15544.324782
1044.693916,-5477.523971,1378.971896,15840.407159
1044.694245,-5551.544565,1378.971896,14804.118840
1044.694575,-3478.967927,-612.876398,12805.562797
1044.694904,-1036.288319,-2374.896044,11177.109724
1044.695234,370.102971,-2757.943793,9030.512492
1044.695564,1184.329507,-1991.848295,7698.141797
1044.695893,888.247130,229.828649,7179.997637
1044.696223,1036.288319,1378.971896,6513.812290
1044.696552,2146.597232,-229.828649,6661.853478
1044.696882,3330.926739,-689.485948,7254.018232
1044.697211,3256.906145,383.047749,8808.450710
1044.697541,2368.659014,153.219100,10584.944971
1044.697870,444.123565,-306.438199,12657.521608
1044.698200,-2442.679609,2374.896044,14508.036463
1044.698529,-5255.462188,3140.991542,13915.871710
1044.698859,-4959.379811,2221.676944,12879.583391
1044.699189,-3330.926739,0.000000,11547.212695
1044.699518,-2812.782580,0.000000,8512.368333
1044.699848,-3256.906145,-306.438199,5921.647536
1044.700177,-2516.700203,-536.266849,4737.318029
1044.700507,-1554.432478,383.047749,5033.400406
1044.700836,-740.205942,2145.067394,5847.626942
1044.701166,-296.082377,2528.115143,5625.565159
1044.701495,296.082377,1072.533697,5551.544565
1044.701825,1110.308913,-153.219100,7031.956449
1044.702155,592.164754,1225.752797,9992.780217
1044.702484,-814.226536,2451.505594,13101.645173
1044.702814,-3034.844362,3907.087040,14211.954086
1044.703143,-3701.029710,3983.696590,13989.892304
1044.703473,-2590.720797,1991.848295,12583.501014
1044.703802,-666.185348,0.000000,10436.903782
1044.704132,0.000000,0.000000,9326.594869
1044.704461,148.041188,229.828649,7846.182985
1044.704791,-296.082377,536.266849,6809.894666
1044.705121,0.000000,1991.848295,6883.915261
1044.705450,370.102971,2374.896044,7105.977043
1044.705780,666.185348,1838.629195,7179.997637
1044.706109,518.144159,1685.410096,7402.059420
1044.706439,740.205942,1378.971896,8956.491898
1044.706768,1480.411884,459.657299,11325.150913
1044.707098,-666.185348,-306.438199,13027.624579
1044.707427,-3997.112087,1608.800546,14211.954086
1044.707757,-5699.585753,2068.457845,14063.912898
1044.708087,-4885.359217,1302.362347,13841.851115
1044.708416,-3404.947333,1225.752797,11621.233289
1044.708746,-1776.494261,-536.266849,8882.471304
1044.709075,296.082377,-2451.505594,6365.771101
1044.709405,666.185348,-919.314598,5699.585753
1044.709734,1184.329507,2068.457845,4811.338623
1044.710064,1998.556043,1838.629195,4293.194464
1044.710393,2664.741391,229.828649,5403.503377
1044.710723,3256.906145,612.876398,7846.182985
1044.711052,2294.638420,1762.019645,11103.089130
1044.711382,444.123565,1072.533697,12953.603985
1044.711712,-2146.597232,1532.190996,14137.933492
1044.712041,-4293.194464,2374.896044,14730.098246
1044.712371,-4589.276840,1762.019645,14508.036463
1044.712700,-3256.906145,229.828649,13619.789333
1044.713030,-2960.823768,76.609550,11177.109724
1044.713359,-3330.926739,536.266849,7698.141797
1044.713689,-2738.761985,-1302.362347,5699.585753
1044.714018,-888.247130,-842.705048,4959.379811
1044.714348,740.205942,0.000000,5181.441594
1044.714678,1702.473667,1149.143247,4959.379811
1044.715007,1850.514855,1072.533697,5033.400406
1044.715337,1776.494261,153.219100,7624.121203
1044.715666,1036.288319,383.047749,11695.253884
1044.715996,-1332.370696,2374.896044,14804.118840
1044.716325,-3701.029710,3753.867940,15988.448347
1044.716655,-4441.235652,3370.820191,15322.262999
1044.716984,-3552.988522,1072.533697,13693.809927
1044.717314,-2812.782580,-689.485948,11399.171507
1044.717644,-2368.659014,-1455.581446,8808.450710
1044.717973,-1702.473667,-995.924147,7254.018232
1044.718303,-1332.370696,1149.143247,6291.750507
1044.718632,-814.226536,2451.505594,4959.379811
1044.718962,518.144159,1991.848295,3701.029710
1044.719291,2368.659014,0.000000,3256.906145
1044.719621,2368.659014,-459.657299,4737.318029
1044.719950,1628.453072,2604.724693,8734.430116
1044.720280,296.082377,3140.991542,12361.439231
1044.720609,-2220.617826,1838.629195,14211.954086
1044.720939,-4737.318029,2528.115143,14878.139434
1044.721269,-4811.338623,1838.629195,14878.139434
1044.721598,-2664.741391,306.438199,13619.789333
1044.721928,-1850.514855,-612.876398,11029.068536
1044.722257,-1628.453072,-536.266849,8660.409521
1044.722587,-592.164754,-1608.800546,7105.977043
1044.722916,-370.102971,-766.095498,6143.709319
1044.723246,444.123565,2374.896044,6291.750507
1044.723575,1702.473667,1838.629195,6587.832884
1044.723905,2664.741391,919.314598,6957.935855
1044.724235,2664.741391,1455.581446,8142.265362
1044.724564,1628.453072,1225.752797,10732.986159
1044.724894,-222.061783,1455.581446,13619.789333
1044.725223,-2812.782580,3370.820191,15544.324782
1044.725553,-4811.338623,4826.401637,15840.407159
1044.725882,-4441.235652,2757.943793,13989.892304
1044.726212,-3182.885551,-459.657299,11177.109724
1044.726541,-2368.659014,-1532.190996,8808.450710
1044.726871,-2516.700203,-842.705048,7105.977043
1044.727201,-2146.597232,153.219100,6439.791695
1044.727530,-1036.288319,1608.800546,5329.482782
1044.727860,592.164754,2068.457845,4441.235652
1044.728189,2368.659014,1455.581446,4885.359217
1044.728519,2664.741391,1608.800546,6291.750507
1044.728848,1628.453072,2451.505594,7698.141797
1044.729178,0.000000,3064.381992,10066.800811
1044.729507,-1702.473667,3140.991542,12731.542202
1044.729837,-3701.029710,4673.182538,14359.995275
1044.730167,-4441.235652,4673.182538,13471.748144
1044.730496,-3478.967927,1225.752797,11177.109724
1044.730826,-2442.679609,-1302.362347,8808.450710
1044.731155,-2368.659014,-1302.362347,7994.224174
1044.731485,-2368.659014,0.000000,7624.121203
1044.731814,-2294.638420,612.876398,6069.688724
1044.732144,-1480.411884,1378.971896,5107.421000
1044.732473,296.082377,995.924147,4589.276840
1044.732803,2220.617826,-459.657299,5995.668130
1044.733132,2590.720797,-229.828649,8142.265362
1044.733462,1628.453072,1838.629195,10584.944971
1044.733792,0.000000,1838.629195,13027.624579
1044.734121,-2368.659014,2298.286494,14878.139434
1044.734451,-3552.988522,2451.505594,15988.448347
1044.734780,-3034.844362,1378.971896,15544.324782
1044.735110,-1776.494261,-919.314598,13027.624579
1044.735439,-888.247130,-842.705048,10732.986159
1044.735769,-592.164754,-919.314598,9548.656652
1044.736098,-962.267725,-919.314598,7994.224174
1044.736428,-814.226536,-383.047749,7105.977043
1044.736758,-148.041188,995.924147,6439.791695
1044.737087,1850.514855,1072.533697,6069.688724
1044.737417,2072.576638,0.000000,6587.832884
1044.737746,1406.391290,-383.047749,8290.306550
1044.738076,296.082377,-306.438199,10584.944971
1044.738405,-962.267725,536.266849,13249.686362
1044.738735,-3182.885551,3447.429741,14434.015869
1044.739064,-4219.173869,4060.306139,13767.830521
1044.739394,-3108.864956,1532.190996,12361.439231
1044.739724,-1924.535449,-459.657299,10658.965565
1044.740053,-1850.514855,-459.657299,8956.491898
1044.740383,-1998.556043,689.485948,7846.182985
1044.740712,-2368.659014,1532.190996,6883.915261
1044.741042,-1998.556043,1991.848295,5477.523971
1044.741371,-518.144159,1685.410096,4737.318029
1044.741701,1406.391290,689.485948,5551.544565
1044.742030,2072.576638,1225.752797,6587.832884
1044.742360,592.164754,2221.676944,7846.182985
1044.742690,-444.123565,1762.019645,10214.842000
1044.743019,-1850.514855,2145.067394,12657.521608
1044.743349,-3182.885551,3677.258390,14137.933492
1044.743678,-3330.926739,4979.620737,13323.706956
1044.744008,-2664.741391,2451.505594,11473.192101
1044.744337,-1332.370696,0.000000,10362.883188
1044.744667,-1554.432478,383.047749,9474.636058
1044.744996,-2294.638420,1072.533697,8142.265362
1044.745326,-1998.556043,1608.800546,7105.977043
1044.745655,-1036.288319,2451.505594,5551.544565
1044.745985,518.144159,1608.800546,4737.318029
1044.746315,2220.617826,0.000000,5255.462188
1044.746644,2664.741391,-612.876398,7179.997637
1044.746974,1628.453072,1149.143247,9326.594869
1044.747303,-222.061783,2374.896044,11917.315666
1044.747633,-2146.597232,2987.772442,14804.118840
1044.747962,-3775.050304,4673.182538,16062.468941
1044.748292,-3701.029710,3677.258390,13915.871710
1044.748621,-1406.391290,383.047749,11843.295072
1044.748951,-222.061783,-612.876398,9622.677246
1044.749281,-592.164754,383.047749,8512.368333
1044.749610,-1332.370696,766.095498,7476.080014
1044.749940,-1776.494261,1072.533697,5995.668130
1044.750269,-888.247130,1225.752797,4959.379811
1044.750599,666.185348,0.000000,5181.441594
1044.750928,1332.370696,-2451.505594,5921.647536
1044.751258,740.205942,-1608.800546,7920.203579
1044.751587,-592.164754,-459.657299,10881.027347
1044.751917,-2220.617826,842.705048,13471.748144
1044.752247,-3997.112087,2298.286494,15544.324782
1044.752576,-4737.318029,2911.162892,15692.365970
1044.752906,-3701.029710,1838.629195,14063.912898
1044.753235,-2368.659014,-612.876398,11029.068536
1044.753565,-1332.370696,-1762.019645,8956.491898
1044.753894,-888.247130,-1072.533697,8068.244768
1044.754224,-1036.288319,-229.828649,7402.059420
1044.754553,-592.164754,1072.533697,6661.853478
1044.754883,74.020594,1915.238745,5699.585753
1044.755213,1924.535449,0.000000,5033.400406
1044.755542,2960.823768,-1532.190996,6217.729913
1044.755872,2072.576638,-689.485948,9178.553681
1044.756201,74.020594,1072.533697,11917.315666
1044.756531,-2368.659014,2298.286494,13175.665768
1044.756860,-4293.194464,2528.115143,13915.871710
1044.757190,-4663.297435,2374.896044,13841.851115
1044.757519,-3997.112087,612.876398,12731.542202
1044.757849,-2738.761985,-459.657299,10214.842000
1044.758178,-2664.741391,0.000000,7920.203579
1044.758508,-2368.659014,306.438199,6439.791695
1044.758838,-1554.432478,229.828649,5699.585753
1044.759167,-814.226536,689.485948,5329.482782
1044.759497,0.000000,1762.019645,5255.462188
1044.759826,888.247130,1685.410096,5033.400406
1044.760156,1776.494261,306.438199,7031.956449
1044.760485,1480.411884,0.000000,9622.677246
1044.760815,-518.144159,612.876398,12509.480420
1044.761144,-2886.803174,1991.848295,14434.015869
1044.761474,-3997.112087,4366.744339,14804.118840
1044.761804,-3701.029710,3447.429741,13249.686362
1044.762133,-1850.514855,612.876398,12139.377449
1044.762463,0.000000,-766.095498,9992.780217
1044.762792,222.061783,-153.219100,8068.244768
1044.763122,740.205942,1149.143247,6809.894666
1044.763451,-148.041188,2145.067394,6069.688724
1044.763781,-148.041188,2451.505594,5773.606348
1044.764110,296.082377,1532.190996,5773.606348
1044.764440,1554.432478,0.000000,7031.956449
1044.764770,1480.411884,-612.876398,9030.512492
1044.765099,-148.041188,76.609550,11177.109724
1044.765429,-2368.659014,689.485948,13101.645173
1044.765758,-4441.235652,1608.800546,14730.098246
1044.766088,-4737.318029,3600.648841,15100.201217
1044.766417,-3849.070898,3294.210641,13767.830521
1044.766747,-1998.556043,1915.238745,10955.047942
1044.767076,-1110.308913,-153.219100,8290.306550
1044.767406,-592.164754,-536.266849,6735.874072
1044.767735,0.000000,153.219100,5551.544565
1044.768065,518.144159,995.924147,5551.544565
1044.768395,296.082377,2374.896044,5403.503377
1044.768724,444.123565,1532.190996,5551.544565
1044.769054,962.267725,-153.219100,7476.080014
1044.769383,444.123565,-229.828649,9474.636058
1044.769713,-962.267725,842.705048,11473.192101
1044.770042,-2294.638420,1608.800546,13027.624579
1044.770372,-3701.029710,1838.629195,14063.912898
1044.770701,-3849.070898,2987.772442,13545.768739
1044.771031,-2886.803174,1532.190996,11399.171507
1044.771361,-1702.473667,-229.828649,9474.636058
1044.771690,-1776.494261,459.657299,8216.285956
1044.772020,-1480.411884,766.095498,7328.038826
1044.772349,-666.185348,0.000000,6587.832884
1044.772679,-370.102971,-612.876398,5477.523971
1044.773008,0.000000,-536.266849,5403.503377
1044.773338,666.185348,-919.314598,7105.977043
1044.773667,1110.308913,-689.485948,9252.574275
1044.773997,222.061783,459.657299,10955.047942
1044.774327,-1258.350101,612.876398,12361.439231
1044.774656,-2368.659014,919.314598,14359.995275
1044.774986,-3256.906145,2528.115143,14508.036463
1044.775315,-2516.700203,2374.896044,12731.542202
1044.775645,-1036.288319,-842.705048,10658.965565
1044.775974,-518.144159,-2068.457845,9400.615463
1044.776304,-888.247130,-1072.533697,8512.368333
1044.776634,-962.267725,-306.438199,7920.203579
1044.776963,-666.185348,-689.485948,7105.977043
1044.777293,-666.185348,995.924147,6513.812290
1044.777622,296.082377,536.266849,6883.915261
1044.777952,1184.329507,-229.828649,7772.162391
1044.778282,814.226536,-383.047749,9474.636058
1044.778611,0.000000,306.438199,11473.192101
1044.778941,-1850.514855,919.314598,13101.645173
1044.779270,-3330.926739,1838.629195,13397.727550
1044.779600,-3849.070898,2068.457845,13027.624579
1044.779930,-2146.597232,689.485948,11843.295072
1044.780259,-814.226536,-459.657299,10807.006753
1044.780589,-1184.329507,383.047749,9400.615463
1044.780919,-1628.453072,919.314598,7846.182985
1044.781248,-1332.370696,536.266849,7179.997637
1044.781578,-1036.288319,1762.019645,6587.832884
1044.781907,0.000000,2528.115143,6365.771101
1044.782237,1406.391290,842.705048,6587.832884
1044.782567,1628.453072,-536.266849,7624.121203
1044.782896,370.102971,1072.533697,9400.615463
1044.783226,-1480.411884,2451.505594,11029.068536
1044.783555,-2590.720797,2145.067394,12805.562797
1044.783885,-3108.864956,3064.381992,13619.789333
1044.784215,-2812.782580,3447.429741,12509.480420
1044.784544,-1628.453072,536.266849,10658.965565
1044.784874,-888.247130,76.609550,9326.594869
1044.785203,-1702.473667,612.876398,8216.285956
1044.785533,-2368.659014,1762.019645,7402.059420
1044.785863,-1850.514855,1915.238745,7624.121203
1044.786192,-518.144159,2681.334243,6735.874072
1044.786522,888.247130,2911.162892,5329.482782
1044.786852,2220.617826,0.000000,4663.297435
1044.787181,2960.823768,-1378.971896,6217.729913
1044.787511,1850.514855,306.438199,9548.656652
1044.787840,-962.267725,3294.210641,11917.315666
1044.788170,-3478.967927,4596.572988,13545.768739
1044.788500,-4885.359217,3524.039291,13323.706956
1044.788829,-3997.112087,1302.362347,12583.501014
1044.789159,-2590.720797,-919.314598,11991.336260
1044.789488,-2294.638420,-1532.190996,9844.739029
1044.789818,-2368.659014,153.219100,8142.265362
1044.790148,-2516.700203,-383.047749,7402.059420
1044.790477,-2072.576638,459.657299,7105.977043
1044.790807,-1258.350101,689.485948,6883.915261
1044.791137,888.247130,612.876398,6365.771101
1044.791466,2812.782580,-229.828649,7105.977043
1044.791796,2960.823768,-766.095498,8512.368333
1044.792125,1702.473667,-612.876398,11103.089130
1044.792455,0.000000,-536.266849,13989.892304
1044.792785,-2368.659014,1149.143247,15322.262999
1044.793114,-3849.070898,3600.648841,14952.160028
1044.793444,-2368.659014,1225.752797,13989.892304
1044.793773,-370.102971,-1532.190996,12953.603985
1044.794103,-592.164754,-1685.410096,9844.739029
1044.794433,-1628.453072,-842.705048,7624.121203
1044.794762,-1184.329507,-612.876398,6439.791695
1044.795092,-296.082377,0.000000,6217.729913
1044.795421,0.000000,1149.143247,6143.709319
1044.795751,370.102971,-612.876398,5699.585753
1044.796081,1110.308913,-2451.505594,6365.771101
1044.796410,222.061783,-1455.581446,8956.491898
1044.796740,-1258.350101,842.705048,11843.295072
1044.797070,-3256.906145,1915.238745,13989.892304
1044.797399,-4811.338623,2681.334243,14730.098246
1044.797729,-4885.359217,3140.991542,13545.768739
1044.798058,-3552.988522,995.924147,11843.295072
1044.798388,-1554.432478,-306.438199,10140.821405
1044.798718,-1184.329507,536.266849,8512.368333
1044.799047,-1258.350101,1455.581446,6661.853478
1044.799377,-740.205942,1762.019645,5181.441594
1044.799706,592.164754,1608.800546,5033.400406
1044.800036,1998.556043,1838.629195,5033.400406
1044.800366,2368.659014,1072.533697,5551.544565
1044.800695,2516.700203,76.609550,7105.977043
1044.801025,1998.556043,1072.533697,9992.780217
1044.801355,-222.061783,1915.238745,13027.624579
1044.801684,-3478.967927,3677.258390,14730.098246
1044.802014,-5551.544565,5056.230287,14211.954086
1044.802343,-4515.256246,3753.867940,13323.706956
1044.802673,-2442.679609,1378.971896,11399.171507
1044.803003,-2146.597232,-306.438199,9252.574275
1044.803332,-2368.659014,536.266849,7179.997637
1044.803662,-1776.494261,1149.143247,5921.647536
1044.803991,-1184.329507,1532.190996,5107.421000
1044.804321,-740.205942,2374.896044,4885.359217
1044.804651,666.185348,1532.190996,5625.565159
1044.804980,2072.576638,536.266849,6661.853478
1044.805310,1924.535449,153.219100,7994.224174
1044.805639,1406.391290,306.438199,10510.924376
1044.805969,-296.082377,1532.190996,13545.768739
1044.806299,-2664.741391,3447.429741,15026.180623
1044.806628,-3997.112087,4749.792088,14508.036463
1044.806958,-2368.659014,2221.676944,12879.583391
1044.807288,-370.102971,-383.047749,11473.192101
1044.807617,-222.061783,-612.876398,10214.842000
1044.807947,-1702.473667,229.828649,7772.162391
1044.808276,-1184.329507,0.000000,5921.647536
1044.808606,296.082377,0.000000,5699.585753
1044.808936,814.226536,1378.971896,5921.647536
1044.809265,666.185348,536.266849,6513.812290
1044.809595,592.164754,-1072.533697,7772.162391
1044.809924,666.185348,-689.485948,9770.718434
1044.810254,-666.185348,766.095498,12879.583391
1044.810584,-2590.720797,1838.629195,14582.057057
1044.810913,-3997.112087,2451.505594,15396.283594
1044.811243,-3552.988522,1838.629195,14434.015869
1044.811573,-2294.638420,1838.629195,12583.501014
1044.811902,-1332.370696,383.047749,10584.944971
1044.812232,-740.205942,-536.266849,8882.471304
1044.812561,-1036.288319,-459.657299,6883.915261
1044.812891,-1628.453072,612.876398,5625.565159
1044.813221,-666.185348,1762.019645,4885.359217
1044.813550,1036.288319,1149.143247,4737.318029
1044.813880,1998.556043,-612.876398,5551.544565
1044.814209,1406.391290,-919.314598,7328.038826
1044.814539,74.020594,689.485948,9622.677246
1044.814869,-1702.473667,2298.286494,12657.521608
1044.815198,-3330.926739,3370.820191,14211.954086
1044.815528,-4367.215058,3983.696590,13915.871710
1044.815857,-3627.009116,2604.724693,12805.562797
1044.816187,-1924.535449,459.657299,10658.965565
1044.816517,-1258.350101,-229.828649,8364.327145
1044.816846,-1480.411884,0.000000,6883.915261
1044.817176,-888.247130,229.828649,6439.791695
1044.817506,-888.247130,919.314598,6291.750507
1044.817835,-370.102971,2374.896044,5477.523971
1044.818165,518.144159,2145.067394,4885.359217
1044.818494,2368.659014,0.000000,5847.626942
1044.818824,2368.659014,-153.219100,8364.327145
1044.819154,1406.391290,1532.190996,11695.253884
1044.819483,0.000000,2145.067394,13767.830521
1044.819813,-2146.597232,2681.334243,15100.201217
1044.820142,-3775.050304,3217.601092,14434.015869
1044.820472,-2960.823768,2068.457845,13397.727550
1044.820802,-1184.329507,-153.219100,12139.377449
1044.821131,-444.123565,-536.266849,10066.800811
1044.821461,-1554.432478,153.219100,7772.162391
1044.821791,-1554.432478,0.000000,7105.977043
1044.822120,-740.205942,459.657299,6809.894666
1044.822450,222.061783,1072.533697,6587.832884
1044.822779,1258.350101,612.876398,7031.956449
1044.823109,1480.411884,0.000000,7550.100608
1044.823439,814.226536,229.828649,9696.697840
1044.823768,-592.164754,536.266849,12509.480420
1044.824098,-2442.679609,1762.019645,14063.912898
1044.824427,-3552.988522,3217.601092,14211.954086
1044.824757,-2960.823768,3064.381992,12731.542202
1044.825087,-1628.453072,1762.019645,11029.068536
1044.825416,-1110.308913,0.000000,9622.677246
1044.825746,-1258.350101,0.000000,8364.327145
1044.826076,-1776.494261,459.657299,7179.997637
1044.826405,-2664.741391,1532.190996,5699.585753
1044.826735,-1554.432478,2221.676944,4737.318029
1044.827064,222.061783,1149.143247,4737.318029
1044.827394,2294.638420,-306.438199,5551.544565
1044.827724,2516.700203,0.000000,6809.894666
1044.828053,1036.288319,1072.533697,8364.327145
1044.828383,-666.185348,1991.848295,11917.315666
1044.828712,-2590.720797,3524.039291,14878.139434
1044.829042,-4219.173869,4903.011187,15396.283594
1044.829372,-4145.153275,3753.867940,13841.851115
1044.829701,-2516.700203,1149.143247,11621.233289
1044.830031,-1702.473667,-459.657299,9622.677246
1044.830360,-2146.597232,0.000000,8290.306550
1044.830690,-2220.617826,153.219100,7476.080014
1044.831020,-1554.432478,842.705048,6365.771101
1044.831349,-814.226536,1608.800546,4811.338623
1044.831679,222.061783,689.485948,4145.153275
1044.832009,2516.700203,-1532.190996,5847.626942
1044.832338,3034.844362,-306.438199,8734.430116
1044.832668,1776.494261,2068.457845,11547.212695
1044.832997,-444.123565,2528.115143,13693.809927
1044.833327,-2590.720797,3064.381992,15396.283594
1044.833657,-3552.988522,3447.429741,15100.201217
1044.833986,-3108.864956,2451.505594,14063.912898
1044.834316,-1480.411884,229.828649,11843.295072
1044.834645,-666.185348,-689.485948,9474.636058
1044.834975,-814.226536,-842.705048,7846.182985
1044.835305,-666.185348,-536.266849,6957.935855
1044.835634,-666.185348,612.876398,5847.626942
1044.835964,0.000000,1455.581446,5033.400406
1044.836294,1406.391290,919.314598,5773.606348
1044.836623,1776.494261,229.828649,7328.038826
1044.836953,1184.329507,0.000000,9030.512492
1044.837282,74.020594,0.000000,10955.047942
1044.837612,-2146.597232,1149.143247,12805.562797
1044.837942,-3997.112087,2528.115143,14508.036463
1044.838271,-4293.194464,3447.429741,14508.036463
1044.838601,-2960.823768,995.924147,11843.295072
1044.838930,-2220.617826,-842.705048,9696.697840
1044.839260,-1332.370696,-383.047749,8364.327145
1044.839590,-1258.350101,536.266849,7624.121203
1044.839919,-666.185348,1225.752797,6661.853478
1044.840249,0.000000,1685.410096,5477.523971
1044.840578,962.267725,1149.143247,4515.256246
1044.840908,2220.617826,-459.657299,5699.585753
1044.841238,2072.576638,-689.485948,8142.265362
1044.841567,814.226536,1072.533697,10436.903782
1044.841897,-1480.411884,2068.457845,12731.542202
1044.842227,-2516.700203,2604.724693,14582.057057
1044.842556,-4145.153275,2528.115143,14211.954086
1044.842886,-3775.050304,2145.067394,13027.624579
1044.843215,-2294.638420,612.876398,11843.295072
1044.843545,-1258.350101,689.485948,9474.636058
1044.843875,-1554.432478,1455.581446,7105.977043
1044.844204,-1184.329507,612.876398,5403.503377
1044.844534,-888.247130,-459.657299,5033.400406
1044.844863,-148.041188,383.047749,5329.482782
1044.845193,148.041188,1302.362347,5551.544565
1044.845523,814.226536,0.000000,5773.606348
1044.845852,1480.411884,-1149.143247,7550.100608
1044.846182,592.164754,-919.314598,11251.130318
1044.846512,-1184.329507,2068.457845,14878.139434
1044.846841,-3701.029710,3447.429741,15618.345376
1044.847171,-4293.194464,4366.744339,14804.118840
1044.847500,-2368.659014,2374.896044,13101.645173
1044.847830,-592.164754,-229.828649,11991.336260
1044.848160,0.000000,-1072.533697,9696.697840
1044.848489,-222.061783,-306.438199,6957.935855
1044.848819,-444.123565,-612.876398,6069.688724
1044.849148,-148.041188,0.000000,5921.647536
1044.849478,-666.185348,1838.629195,7031.956449
1044.849808,518.144159,306.438199,6957.935855
1044.850137,1110.308913,-1302.362347,7476.080014
1044.850467,740.205942,-689.485948,9030.512492
1044.850796,0.000000,76.609550,11991.336260
1044.851126,-1258.350101,766.095498,14359.995275
1044.851456,-3330.926739,2604.724693,15026.180623
1044.851785,-4293.194464,4213.525239,13767.830521
1044.852115,-2664.741391,2221.676944,12213.398043
1044.852445,-1332.370696,306.438199,10436.903782
1044.852774,-1110.308913,153.219100,8068.244768
1044.853104,-740.205942,229.828649,6587.832884
1044.853433,-592.164754,306.438199,5329.482782
1044.853763,-518.144159,1072.533697,5329.482782
1044.854093,0.000000,1378.971896,5625.565159
1044.854422,888.247130,0.000000,6439.791695
1044.854752,1110.308913,0.000000,7698.141797
1044.855081,518.144159,1302.362347,10362.883188
1044.855411,-1036.288319,2757.943793,11843.295072
1044.855741,-2664.741391,2681.334243,13397.727550
1044.856070,-3404.947333,3140.991542,13619.789333
1044.856400,-2812.782580,3600.648841,12139.377449
1044.856730,-2072.576638,1608.800546,10807.006753
1044.857059,-1850.514855,153.219100,9326.594869
1044.857389,-2368.659014,536.266849,7402.059420
1044.857718,-2664.741391,229.828649,6513.812290
1044.858048,-1850.514855,0.000000,5625.565159
1044.858378,-888.247130,689.485948,5551.544565
1044.858707,74.020594,919.314598,5107.421000
1044.859037,888.247130,-612.876398,5921.647536
1044.859366,1850.514855,-1302.362347,8216.285956
1044.859696,1406.391290,229.828649,11325.150913
1044.860026,-666.185348,2374.896044,14582.057057
1044.860355,-2664.741391,4136.915689,15914.427753
1044.860685,-3849.070898,4366.744339,15248.242405
1044.861014,-2368.659014,1225.752797,13323.706956
1044.861344,-518.144159,-1149.143247,11251.130318
1044.861674,296.082377,-1608.800546,8882.471304
1044.862003,0.000000,-536.266849,7328.038826
1044.862333,-370.102971,306.438199,6587.832884
1044.862663,-666.185348,842.705048,6365.771101
1044.862992,-1258.350101,536.266849,5847.626942
1044.863322,0.000000,-1302.362347,5625.565159
1044.863651,518.144159,-1915.238745,7105.977043
1044.863981,1332.370696,-536.266849,9770.718434
1044.864311,296.082377,-229.828649,11991.336260
1044.864640,-1776.494261,0.000000,13693.809927
1044.864970,-4441.235652,1072.533697,15100.201217
1044.865299,-5477.523971,3830.477490,15544.324782
1044.865629,-4145.153275,3370.820191,14656.077652
1044.865959,-2146.597232,689.485948,11917.315666
1044.866288,-1184.329507,-1225.752797,8216.285956
1044.866618,-518.144159,-2374.896044,6291.750507
1044.866948,-148.041188,-1149.143247,5477.523971
1044.867277,0.000000,1685.410096,6143.709319
1044.867607,518.144159,1838.629195,5995.668130
1044.867936,1332.370696,766.095498,6439.791695
1044.868266,1554.432478,0.000000,7698.141797
1044.868596,1776.494261,459.657299,9548.656652
1044.868925,296.082377,1072.533697,11177.109724
1044.869255,-1332.370696,2298.286494,12805.562797
1044.869584,-3182.885551,3600.648841,13619.789333
1044.869914,-3701.029710,2834.553343,13397.727550
1044.870244,-3182.885551,1455.581446,11695.253884
1044.870573,-2516.700203,689.485948,9326.594869
1044.870903,-2442.679609,383.047749,7402.059420
1044.871232,-2072.576638,536.266849,5921.647536
1044.871562,-1184.329507,76.609550,5403.503377
1044.871892,-222.061783,689.485948,4737.318029
1044.872221,296.082377,1225.752797,4515.256246
1044.872551,814.226536,459.657299,6217.729913
1044.872881,1036.288319,612.876398,8290.306550
1044.873210,74.020594,842.705048,10807.006753
1044.873540,-1110.308913,995.924147,13175.665768
1044.873869,-2368.659014,2298.286494,15470.304188
1044.874199,-3997.112087,3753.867940,14508.036463
1044.874529,-3478.967927,2604.724693,12731.542202
1044.874858,-1702.473667,-383.047749,11325.150913
1044.875188,-592.164754,-995.924147,9548.656652
1044.875517,0.000000,76.609550,7846.182985
1044.875847,-296.082377,-306.438199,7105.977043
1044.876177,-222.061783,383.047749,6587.832884
1044.876506,-296.082377,612.876398,6069.688724
1044.876836,222.061783,153.219100,6513.812290
1044.877166,1036.288319,0.000000,7476.080014
1044.877495,1554.432478,-689.485948,9548.656652
1044.877825,666.185348,459.657299,12213.398043
1044.878154,-1628.453072,383.047749,14137.933492
1044.878484,-3923.091493,1378.971896,14656.077652
1044.878814,-4219.173869,2374.896044,14508.036463
1044.879143,-3108.864956,1608.800546,13175.665768
1044.879473,-2294.638420,612.876398,11399.171507
1044.879803,-1258.350101,-383.047749,8956.491898
1044.880132,-888.247130,-1225.752797,6587.832884
1044.880462,-370.102971,-612.876398,5995.668130
1044.880792,0.000000,1608.800546,5699.585753
1044.881121,222.061783,3677.258390,5921.647536
1044.881451,740.205942,1302.362347,5403.503377
1044.881780,962.267725,-229.828649,6957.935855
1044.882110,296.082377,-229.828649,8956.491898
1044.882440,-962.267725,0.000000,11029.068536
1044.882769,-2368.659014,1225.752797,13619.789333
1044.883099,-4071.132681,3064.381992,14211.954086
1044.883429,-4441.235652,3370.820191,12879.583391
1044.883758,-3256.906145,766.095498,11695.253884
1044.884088,-1776.494261,153.219100,10510.924376
1044.884418,-1850.514855,1685.410096,9178.553681
1044.884747,-1332.370696,1455.581446,7402.059420
1044.885077,-518.144159,919.314598,6439.791695
1044.885407,148.041188,919.314598,5551.544565
1044.885736,370.102971,842.705048,5477.523971
1044.886066,1036.288319,153.219100,6439.791695
1044.886395,1110.308913,0.000000,8438.347739
1044.886725,444.123565,842.705048,10436.903782
1044.887055,-1258.350101,1455.581446,12583.501014
1044.887384,-2442.679609,1838.629195,14063.912898
1044.887714,-3034.844362,3217.601092,13545.768739
1044.888044,-2590.720797,2604.724693,12657.521608
1044.888373,-1332.370696,1072.533697,11029.068536
1044.888703,-814.226536,-689.485948,9400.615463
1044.889033,-1184.329507,76.609550,7920.203579
1044.889362,-1480.411884,536.266849,6957.935855
1044.889692,-1184.329507,229.828649,6439.791695
1044.890022,-740.205942,842.705048,5921.647536
1044.890351,-444.123565,0.000000,5921.647536
1044.890681,444.123565,-1225.752797,7254.018232
1044.891011,296.082377,-1072.533697,9178.553681
1044.891340,-222.061783,0.000000,11917.315666
1044.891670,-1924.535449,919.314598,14211.954086
1044.891999,-3849.070898,2834.553343,15174.221811
1044.892329,-3701.029710,3140.991542,14434.015869
1044.892659,-2220.617826,1838.629195,12657.521608
1044.892988,-518.144159,-842.705048,10584.944971
1044.893318,-370.102971,-383.047749,8142.265362
1044.893648,-666.185348,306.438199,7698.141797
1044.893977,-370.102971,842.705048,7105.977043
1044.894307,-370.102971,919.314598,6587.832884
1044.894637,0.000000,842.705048,5699.585753
1044.894966,1110.308913,-1072.533697,6365.771101
1044.895296,1554.432478,-1302.362347,8216.285956
1044.895626,370.102971,306.438199,10510.924376
1044.895955,-1036.288319,2221.676944,11991.336260
1044.896285,-2590.720797,2451.505594,13471.748144
1044.896614,-3849.070898,3907.087040,14211.954086
1044.896944,-3701.029710,4519.963438,13027.624579
1044.897274,-2368.659014,2221.676944,11251.130318
1044.897603,-1554.432478,612.876398,8660.409521
1044.897933,-1850.514855,842.705048,6735.874072
1044.898263,-2146.597232,995.924147,5847.626942
1044.898592,-1554.432478,766.095498,5773.606348
1044.898922,-1702.473667,1225.752797,5255.462188
1044.899252,-1036.288319,1149.143247,4589.276840
1044.899581,222.061783,-383.047749,5773.606348
1044.899911,1184.329507,-229.828649,8216.285956
1044.900241,592.164754,459.657299,10732.986159
1044.900570,-814.226536,1608.800546,12361.439231
1044.900900,-2368.659014,2834.553343,13619.789333
1044.901229,-3552.988522,4213.525239,13915.871710
1044.901559,-2738.761985,3217.601092,13175.665768
1044.901889,-814.226536,1149.143247,11769.274478
1044.902218,0.000000,383.047749,9622.677246
1044.902548,-518.144159,0.000000,7846.182985
1044.902878,-814.226536,-612.876398,6809.894666
1044.903207,-666.185348,-689.485948,6809.894666
1044.903537,-518.144159,1072.533697,6661.853478
1044.903867,-222.061783,1149.143247,5995.668130
1044.904196,370.102971,0.000000,7105.977043
1044.904526,1332.370696,-306.438199,9178.553681
1044.904856,1332.370696,612.876398,11843.295072
1044.905185,-222.061783,919.314598,14063.912898
1044.905515,-3108.864956,1072.533697,14211.954086
1044.905844,-5033.400406,2834.553343,14211.954086
1044.906174,-4589.276840,2068.457845,13471.748144
1044.906504,-2960.823768,0.000000,12287.418637
1044.906833,-1776.494261,-995.924147,9696.697840
1044.907163,-962.267725,-842.705048,7328.038826
1044.907493,-518.144159,-842.705048,5699.585753
1044.907822,0.000000,0.000000,5477.523971
1044.908152,888.247130,1149.143247,5773.606348
1044.908482,1850.514855,842.705048,5995.668130
1044.908811,2442.679609,536.266849,7698.141797
1044.909141,1702.473667,1608.800546,9992.780217
1044.909471,518.144159,2068.457845,12287.418637
1044.909800,-1554.432478,2298.286494,13989.892304
1044.910130,-3552.988522,3294.210641,14211.954086
1044.910460,-3701.029710,2834.553343,13397.727550
1044.910789,-2886.803174,919.314598,11547.212695
1044.911119,-2294.638420,-536.266849,9918.759623
1044.911448,-2368.659014,0.000000,7920.203579
1044.911778,-2072.576638,1149.143247,6883.915261
1044.912108,-1332.370696,1685.410096,5847.626942
1044.912437,0.000000,2374.896044,4219.173869
1044.912767,1258.350101,1991.848295,3849.070898
1044.913097,2442.679609,1149.143247,4959.379811
1044.913426,1998.556043,2298.286494,6957.935855
1044.913756,444.123565,2604.724693,9474.636058
1044.914086,-1776.494261,1608.800546,11695.253884
1044.914415,-4367.215058,2298.286494,14137.933492
1044.914745,-5625.565159,3064.381992,14804.118840
1044.915075,-5033.400406,1838.629195,13619.789333
1044.915404,-3627.009116,0.000000,11473.192101
