#time,accel_x,accel_y,accel_z
1058.048656,-1184.329507,995.924147,9474.636058
1058.048986,-1110.308913,919.314598,9326.594869
1058.049315,-1110.308913,536.266849,9252.574275
1058.049644,-962.267725,1225.752797,9326.594869
1058.049974,-1036.288319,919.314598,9474.636058
1058.050303,-1110.308913,995.924147,9474.636058
1058.050633,-1110.308913,995.924147,9474.636058
1058.050962,-1036.288319,919.314598,9548.656652
1058.051291,-1406.391290,536.266849,9178.553681
1058.051621,-1332.370696,842.705048,9474.636058
1058.051950,-1110.308913,842.705048,9622.677246
1058.052280,-1036.288319,995.924147,9548.656652
1058.052609,-1258.350101,842.705048,9474.636058
1058.052938,-592.164754,919.314598,9770.718434
1058.053268,-740.205942,459.657299,9770.718434
1058.053597,-1110.308913,919.314598,9474.636058
1058.053927,-1036.288319,919.314598,9622.677246
1058.054256,-1184.329507,1072.533697,9400.615463
1058.054585,-1184.329507,612.876398,9474.636058
1058.054915,-592.164754,689.485948,9252.574275
1058.055244,-962.267725,536.266849,9474.636058
1058.055574,-1110.308913,842.705048,9548.656652
1058.055903,-1184.329507,766.095498,9548.656652
1058.056232,-962.267725,766.095498,9622.677246
1058.056562,-1036.288319,919.314598,9696.697840
1058.056891,-888.247130,842.705048,9474.636058
1058.057220,-962.267725,689.485948,9548.656652
1058.057550,-962.267725,995.924147,9326.594869
1058.057879,-1036.288319,1072.533697,9474.636058
1058.058209,-888.247130,689.485948,9548.656652
1058.058538,-740.205942,1072.533697,9622.677246
1058.058867,-814.226536,766.095498,9474.636058
1058.059197,-1110.308913,995.924147,9474.636058
1058.059526,-1036.288319,766.095498,9548.656652
1058.059856,-1036.288319,1302.362347,9104.533087
1058.060185,-1110.308913,306.438199,9104.533087
1058.060514,-962.267725,995.924147,9622.677246
1058.060844,-962.267725,689.485948,9400.615463
1058.061173,-814.226536,842.705048,9622.677246
1058.061503,-1110.308913,1072.533697,9548.656652
1058.061832,-962.267725,1149.143247,9400.615463
1058.062161,-1110.308913,1149.143247,9548.656652
1058.062491,-1036.288319,842.705048,9622.677246
1058.062820,-1036.288319,995.924147,9622.677246
1058.063150,-1184.329507,919.314598,9548.656652
1058.063479,-1184.329507,1149.143247,9622.677246
1058.063808,-888.247130,689.485948,9770.718434
1058.064138,-962.267725,766.095498,9474.636058
1058.064467,-1258.350101,995.924147,9474.636058
1058.064797,-1036.288319,1072.533697,9844.739029
1058.065126,-1036.288319,1072.533697,9548.656652
1058.065455,-814.226536,1532.190996,9474.636058
1058.065785,-1184.329507,919.314598,9696.697840
1058.066114,-1184.329507,1072.533697,9622.677246
1058.066444,-1036.288319,689.485948,9622.677246
1058.066773,-1036.288319,919.314598,9622.677246
1058.067102,-1332.370696,766.095498,9030.512492
1058.067432,-1036.288319,766.095498,9844.739029
1058.067761,-1184.329507,919.314598,9474.636058
1058.068091,-1184.329507,919.314598,9400.615463
1058.068420,-888.247130,689.485948,9548.656652
1058.068749,-592.164754,1455.581446,9474.636058
1058.069079,-740.205942,995.924147,9770.718434
1058.069408,-888.247130,842.705048,9474.636058
1058.069738,-1036.288319,919.314598,9474.636058
1058.070067,-1036.288319,995.924147,9326.594869
1058.070396,-814.226536,766.095498,9622.677246
1058.070726,-1110.308913,842.705048,9326.594869
1058.071055,-1036.288319,995.924147,9474.636058
1058.071385,-962.267725,842.705048,9474.636058
1058.071714,-888.247130,919.314598,9474.636058
1058.072043,-1036.288319,689.485948,9400.615463
1058.072373,-1332.370696,842.705048,8956.491898
1058.072702,-666.185348,995.924147,9178.553681
1058.073032,-222.061783,612.876398,8956.491898
1058.073361,518.144159,612.876398,9326.594869
1058.073690,1110.308913,459.657299,9474.636058
1058.074020,666.185348,919.314598,9400.615463
1058.074349,370.102971,306.438199,9252.574275
1058.074679,0.000000,1072.533697,10066.800811
1058.075008,-518.144159,1149.143247,10362.883188
1058.075337,-740.205942,612.876398,10436.903782
1058.075667,-296.082377,76.609550,10214.842000
1058.075996,0.000000,536.266849,9474.636058
1058.076326,740.205942,0.000000,9474.636058
1058.076655,1628.453072,0.000000,9104.533087
1058.076984,2664.741391,766.095498,9030.512492
1058.077314,3478.967927,1072.533697,8956.491898
1058.077643,4145.153275,1378.971896,9474.636058
1058.077972,3775.050304,1991.848295,9400.615463
1058.078302,3404.947333,1685.410096,10066.800811
1058.078631,2812.782580,1302.362347,10436.903782
1058.078961,1776.494261,1225.752797,10362.883188
1058.079290,1628.453072,689.485948,10732.986159
1058.079619,1480.411884,-153.219100,10658.965565
1058.079949,1702.473667,-306.438199,10066.800811
1058.080278,2220.617826,-229.828649,9400.615463
1058.080608,2812.782580,-306.438199,8956.491898
1058.080937,3775.050304,306.438199,9252.574275
1058.081266,4663.297435,1991.848295,9252.574275
1058.081596,3997.112087,2451.505594,9400.615463
1058.081925,3108.864956,2681.334243,9918.759623
1058.082255,1702.473667,2834.553343,10362.883188
1058.082584,-296.082377,2451.505594,10214.842000
1058.082913,-1036.288319,2068.457845,9474.636058
1058.083243,-1850.514855,689.485948,8734.430116
1058.083572,-444.123565,-689.485948,7846.182985
1058.083902,1332.370696,-1225.752797,6883.915261
1058.084231,2664.741391,-995.924147,6439.791695
1058.084560,3627.009116,0.000000,6587.832884
1058.084890,4293.194464,1225.752797,7402.059420
1058.085219,3701.029710,3140.991542,9548.656652
1058.085549,2146.597232,4673.182538,11177.109724
1058.085878,1110.308913,4366.744339,12065.356855
1058.086207,148.041188,2757.943793,12435.459826
1058.086537,-1110.308913,1225.752797,12287.418637
1058.086866,-1776.494261,-842.705048,11843.295072
1058.087196,-1628.453072,-2068.457845,11177.109724
1058.087525,-962.267725,-2834.553343,9992.780217
1058.087854,296.082377,-2221.676944,9030.512492
1058.088184,2368.659014,-1685.410096,7846.182985
1058.088513,4071.132681,-612.876398,7402.059420
1058.088843,4737.318029,612.876398,7402.059420
1058.089172,5033.400406,2528.115143,8142.265362
1058.089501,4663.297435,3677.258390,9030.512492
1058.089831,3849.070898,4519.963438,9918.759623
1058.090160,3701.029710,3677.258390,10807.006753
1058.090490,2368.659014,2681.334243,11473.192101
1058.090819,814.226536,1072.533697,11177.109724
1058.091148,0.000000,0.000000,10658.965565
1058.091478,-814.226536,-842.705048,10510.924376
1058.091807,-962.267725,-1378.971896,10066.800811
1058.092137,-740.205942,-1072.533697,9844.739029
1058.092466,-370.102971,-1072.533697,9400.615463
1058.092795,592.164754,-766.095498,8660.409521
1058.093125,1850.514855,153.219100,8290.306550
1058.093454,2590.720797,383.047749,8068.244768
1058.093784,3775.050304,766.095498,8586.388927
1058.094113,4145.153275,766.095498,8364.327145
1058.094442,3923.091493,1378.971896,8882.471304
1058.094772,3552.988522,1149.143247,9548.656652
1058.095101,2664.741391,1532.190996,10362.883188
1058.095431,1480.411884,1915.238745,10288.862594
1058.095760,1406.391290,1915.238745,10510.924376
1058.096089,1776.494261,1762.019645,10214.842000
1058.096419,2220.617826,1838.629195,10066.800811
1058.096748,2516.700203,1608.800546,8808.450710
1058.097077,2960.823768,1455.581446,7994.224174
1058.097407,3478.967927,612.876398,7846.182985
1058.097736,3330.926739,842.705048,8290.306550
1058.098066,2294.638420,1378.971896,9104.533087
1058.098395,1036.288319,689.485948,9622.677246
1058.098724,-444.123565,766.095498,9474.636058
1058.099054,-962.267725,153.219100,10436.903782
1058.099383,-1110.308913,153.219100,11103.089130
1058.099713,-1036.288319,-153.219100,11103.089130
1058.100042,-962.267725,306.438199,10658.965565
1058.100371,-296.082377,153.219100,9252.574275
1058.100701,1628.453072,229.828649,8808.450710
1058.101030,3256.906145,1225.752797,8068.244768
1058.101360,5329.482782,2145.067394,8068.244768
1058.101689,7031.956449,2451.505594,8216.285956
1058.102018,7846.182985,3447.429741,8586.388927
1058.102348,7105.977043,3907.087040,9104.533087
1058.102677,5551.544565,3753.867940,10584.944971
1058.103007,3256.906145,3524.039291,12583.501014
1058.103336,666.185348,1838.629195,14063.912898
1058.103665,-2220.617826,766.095498,14063.912898
1058.103995,-4885.359217,0.000000,12731.542202
1058.104324,-6587.832884,-1915.238745,11177.109724
1058.104654,-5847.626942,-2451.505594,9474.636058
1058.104983,-3478.967927,-2681.334243,5699.585753
1058.105312,1480.411884,-3064.381992,2146.597232
1058.105642,7105.977043,-3217.601092,1554.432478
1058.105971,11177.109724,-536.266849,3256.906145
1058.106301,10807.006753,5056.230287,5699.585753
1058.106630,8882.471304,6818.249932,7920.203579
1058.106959,6735.874072,8120.612279,11399.171507
1058.107289,2368.659014,9729.412825,14804.118840
1058.107618,-2960.823768,6818.249932,17320.819043
1058.107948,-7031.956449,1762.019645,17394.839637
1058.108277,-9030.512492,-689.485948,15026.180623
1058.108606,-7550.100608,-4213.525239,11547.212695
1058.108936,-3627.009116,-7890.783629,8956.491898
1058.109265,1184.329507,-8963.317327,5995.668130
1058.109595,5181.441594,-6665.030833,2220.617826
1058.109924,9992.780217,-3447.429741,1258.350101
1058.110253,13545.768739,306.438199,4367.215058
1058.110583,12731.542202,5898.935335,8438.347739
1058.110912,8512.368333,9346.365076,11769.274478
1058.111242,2812.782580,10725.336972,13841.851115
1058.111571,-370.102971,8963.317327,15396.283594
1058.111900,-1332.370696,3600.648841,15988.448347
1058.112230,-1850.514855,-1532.190996,14359.995275
1058.112559,-2812.782580,-5515.887586,9770.718434
1058.112889,-1628.453072,-7431.126331,5847.626942
1058.113218,1258.350101,-8044.002729,5033.400406
1058.113547,3404.947333,-5439.278036,6291.750507
1058.113877,2442.679609,-1455.581446,7105.977043
1058.114206,1258.350101,3064.381992,7772.162391
1058.114536,2072.576638,6358.592633,9178.553681
1058.114865,4145.153275,6894.859482,10732.986159
1058.115194,3701.029710,4443.353888,12139.377449
1058.115524,1480.411884,1991.848295,12287.418637
1058.115853,-1258.350101,-766.095498,12657.521608
1058.116183,-2886.803174,-1455.581446,12583.501014
1058.116512,-4885.359217,-1455.581446,11399.171507
1058.116841,-3256.906145,-3370.820191,8142.265362
1058.117171,518.144159,-5898.935335,5403.503377
1058.117500,5625.565159,-4903.011187,4737.318029
1058.117829,10584.944971,-1149.143247,5181.441594
1058.118159,11843.295072,3140.991542,5847.626942
1058.118488,9770.718434,5822.325785,7550.100608
1058.118818,6661.853478,8273.831378,11251.130318
1058.119147,3182.885551,9193.145976,14804.118840
1058.119481,666.185348,7890.783629,16580.613101
1058.119810,-1480.411884,3447.429741,15840.407159
1058.120140,-4071.132681,-1762.019645,13471.748144
1058.120469,-6143.709319,-4749.792088,11547.212695
1058.120798,-5477.523971,-6818.249932,10807.006753
1058.121128,-4737.318029,-5669.106685,9104.533087
1058.121457,-5033.400406,-3677.258390,5403.503377
1058.121786,-2886.803174,-995.924147,2368.659014
1058.122116,3627.009116,0.000000,2664.741391
1058.122445,10214.842000,689.485948,5625.565159
1058.122774,11473.192101,5286.058936,7031.956449
1058.123104,9622.677246,9039.926876,7550.100608
1058.123433,7328.038826,9193.145976,9770.718434
1058.123762,4441.235652,9499.584175,14137.933492
1058.124092,962.267725,8733.488677,15988.448347
1058.124421,-1850.514855,4826.401637,14804.118840
1058.124750,-3701.029710,-766.095498,13397.727550
1058.125080,-5847.626942,-2298.286494,11917.315666
1058.125409,-6809.894666,-3294.210641,10658.965565
1058.125738,-6291.750507,-5515.887586,9622.677246
1058.126068,-5921.647536,-2757.943793,6587.832884
1058.126397,-2590.720797,0.000000,2886.803174
1058.126726,4293.194464,-1378.971896,370.102971
1058.127056,10584.944971,-1455.581446,2368.659014
1058.127385,11547.212695,1685.410096,4071.132681
1058.127714,8068.244768,5515.887586,6735.874072
1058.128044,4293.194464,7967.393179,10066.800811
1058.128373,1702.473667,9346.365076,14211.954086
1058.128702,-1406.391290,7890.783629,17098.757260
1058.129032,-4885.359217,3294.210641,16284.530724
1058.129361,-6883.915261,-1455.581446,14211.954086
1058.129690,-7105.977043,-5592.497135,13471.748144
1058.130020,-8808.450710,-7354.516781,12065.356855
1058.130349,-10362.883188,-6741.640382,9622.677246
1058.130678,-9622.677246,-4136.915689,7402.059420
1058.131008,-3404.947333,-2987.772442,5773.606348
1058.131337,4219.173869,-3907.087040,5181.441594
1058.131666,8734.430116,536.266849,3478.967927
1058.131996,10362.883188,4060.306139,3182.885551
1058.132325,9178.553681,2528.115143,7105.977043
1058.132654,5699.585753,6281.983084,14211.954086
1058.132984,888.247130,9576.193725,18801.230927
1058.133313,-2960.823768,8273.831378,18875.251521
1058.133642,-7846.182985,4443.353888,16950.716072
1058.133972,-9474.636058,-229.828649,13915.871710
1058.134301,-7550.100608,-7431.126331,11695.253884
1058.134630,-5699.585753,-11031.775171,9030.512492
1058.134960,-6439.791695,-5132.839837,4515.256246
1058.135289,-4959.379811,-3983.696590,3182.885551
1058.135619,-518.144159,-2987.772442,3256.906145
1058.135948,3182.885551,2451.505594,2960.823768
1058.136277,6143.709319,3524.039291,3330.926739
1058.136607,6957.935855,4136.915689,6809.894666
1058.136936,4441.235652,8733.488677,13027.624579
1058.137265,1332.370696,10189.070123,17172.777854
1058.137595,-2664.741391,6358.592633,16802.674883
1058.137924,-7920.203579,4749.792088,13175.665768
1058.138253,-9030.512492,919.314598,11547.212695
1058.138583,-6291.750507,-6665.030833,10732.986159
1058.138912,-4737.318029,-6971.469032,9474.636058
1058.139241,-3108.864956,-4213.525239,4811.338623
1058.139571,370.102971,-4596.572988,962.267725
1058.139900,5181.441594,-2911.162892,-0.000000
1058.140229,9770.718434,-383.047749,2960.823768
1058.140559,11177.109724,2681.334243,6217.729913
1058.140888,7698.141797,9576.193725,8808.450710
1058.141217,3997.112087,13406.671215,14211.954086
1058.141547,2294.638420,12180.918418,17542.880825
1058.141876,-666.185348,9039.926876,17172.777854
1058.142205,-5033.400406,2374.896044,15470.304188
1058.142535,-9622.677246,-3140.991542,12879.583391
1058.142864,-12805.562797,-4366.744339,10807.006753
1058.143193,-11177.109724,-6588.421283,8734.430116
1058.143523,-7402.059420,-8427.050478,6069.688724
1058.143852,-3330.926739,-7814.174080,3108.864956
1058.144181,1998.556043,-6052.154434,2368.659014
1058.144511,5181.441594,-3370.820191,4367.215058
1058.144840,5477.523971,5439.278036,5551.544565
1058.145169,3997.112087,10572.117872,8956.491898
1058.145499,3256.906145,9806.022374,14656.077652
1058.145828,2442.679609,10725.336972,18061.024985
1058.146157,0.000000,8273.831378,18357.107362
1058.146487,-3182.885551,3294.210641,16654.633695
1058.146816,-7402.059420,1225.752797,11991.336260
1058.147145,-9400.615463,-4060.306139,8512.368333
1058.147475,-6883.915261,-9422.974625,8068.244768
1058.147804,-3701.029710,-9116.536426,8142.265362
1058.148133,-1184.329507,-5286.058936,4515.256246
1058.148463,1406.391290,-1302.362347,1480.411884
1058.148792,4959.379811,306.438199,1776.494261
1058.149121,7550.100608,2681.334243,4515.256246
1058.149451,6661.853478,5209.449386,10214.842000
1058.149780,2294.638420,10801.946522,14878.139434
1058.150109,-2146.597232,13483.280765,17838.963202
1058.150439,-5181.441594,9499.584175,16802.674883
1058.150768,-7402.059420,3370.820191,12509.480420
1058.151098,-7476.080014,-5898.935335,8438.347739
1058.151427,-7031.956449,-12104.308868,6365.771101
1058.151756,-6217.729913,-6971.469032,6143.709319
1058.152086,-3701.029710,-5286.058936,4885.359217
1058.152415,0.000000,-6205.373534,3775.050304
1058.152744,3256.906145,-3677.258390,2738.761985
1058.153074,6439.791695,919.314598,2516.700203
1058.153403,8956.491898,2528.115143,6365.771101
1058.153732,7254.018232,8427.050478,12065.356855
1058.154062,3034.844362,14479.204912,18135.045579
1058.154391,222.061783,11644.651570,18431.127956
1058.154720,-2664.741391,5822.325785,16876.695478
1058.155050,-5625.565159,229.828649,15322.262999
1058.155379,-8068.244768,-4136.915689,12583.501014
1058.155708,-9622.677246,-7431.126331,8660.409521
1058.156038,-7105.977043,-7890.783629,5847.626942
1058.156367,-2738.761985,-7967.393179,2960.823768
1058.156696,2146.597232,-8656.879127,1776.494261
1058.157026,4737.318029,-4136.915689,2886.803174
1058.157355,5551.544565,2068.457845,4737.318029
1058.157684,5255.462188,6665.030833,8660.409521
1058.158014,3701.029710,10648.727422,13693.809927
1058.158343,1036.288319,11568.042020,18875.251521
1058.158672,-296.082377,10801.946522,20503.704593
1058.159002,-3923.091493,7124.688131,18579.169144
1058.159331,-7476.080014,2068.457845,14137.933492
1058.159660,-10807.006753,-2834.553343,9326.594869
1058.159990,-10807.006753,-7814.174080,7550.100608
1058.160319,-7402.059420,-8580.269578,6439.791695
1058.160648,-3627.009116,-7660.954980,5551.544565
1058.160978,148.041188,-5132.839837,2812.782580
1058.161307,3182.885551,306.438199,888.247130
1058.161636,6365.771101,1915.238745,1406.391290
1058.161966,8956.491898,2451.505594,6217.729913
1058.162295,7476.080014,9422.974625,13619.789333
1058.162624,3256.906145,15398.519510,18727.210333
1058.162954,-1776.494261,16164.615008,18727.210333
1058.163283,-5181.441594,9806.022374,16210.510130
1058.163612,-4959.379811,1225.752797,10955.047942
1058.163942,-5107.421000,-7354.516781,7402.059420
1058.164271,-5551.544565,-8350.440928,5921.647536
1058.164600,-4219.173869,-5209.449386,4589.276840
1058.164930,-1110.308913,-7124.688131,3330.926739
1058.165259,2146.597232,-5286.058936,1480.411884
1058.165588,3701.029710,-153.219100,148.041188
1058.165918,6069.688724,383.047749,3552.988522
1058.166247,6809.894666,4596.572988,9992.780217
1058.166577,3552.988522,12947.013916,16136.489536
1058.166906,-888.247130,14096.157163,17987.004391
1058.167235,-4219.173869,9116.536426,16728.654289
1058.167565,-7476.080014,2987.772442,15544.324782
1058.167894,-7920.203579,-1991.848295,13767.830521
1058.168223,-8882.471304,-7890.783629,10881.027347
1058.168553,-9474.636058,-8120.612279,7328.038826
1058.168882,-5995.668130,-7814.174080,5477.523971
1058.169211,-740.205942,-10342.289223,3997.112087
1058.169541,4071.132681,-6894.859482,3108.864956
1058.169870,6587.832884,-1685.410096,3034.844362
1058.170199,7550.100608,2374.896044,6069.688724
1058.170529,6809.894666,8350.440928,11917.315666
1058.170858,4811.338623,12104.308868,17394.839637
1058.171187,2590.720797,11031.775171,20207.622217
1058.171517,-2368.659014,8656.879127,20133.601622
1058.171846,-6587.832884,6205.373534,17172.777854
1058.172175,-8512.368333,-612.876398,12805.562797
1058.172505,-8216.285956,-8963.317327,8438.347739
1058.172834,-7476.080014,-10801.946522,6587.832884
1058.173163,-5255.462188,-9499.584175,5847.626942
1058.173493,-2146.597232,-6894.859482,3997.112087
1058.173822,666.185348,-2221.676944,1776.494261
1058.174151,2664.741391,1072.533697,444.123565
1058.174481,5181.441594,2528.115143,4367.215058
1058.174810,5625.565159,7048.078582,11325.150913
1058.175139,3034.844362,12793.794817,16506.592507
1058.175469,-1480.411884,14019.547613,17616.901420
1058.175798,-5847.626942,9806.022374,16062.468941
1058.176127,-7105.977043,4136.915689,13101.645173
1058.176457,-6291.750507,-3217.601092,9400.615463
1058.176786,-5773.606348,-7737.564530,6143.709319
1058.177115,-4441.235652,-6281.983084,4293.194464
1058.177445,-1702.473667,-6052.154434,3404.947333
1058.177774,1924.535449,-4903.011187,2146.597232
1058.178103,4737.318029,-766.095498,2146.597232
1058.178433,7031.956449,2681.334243,3182.885551
1058.178762,7624.121203,5592.497135,7328.038826
1058.179091,5551.544565,10725.336972,12879.583391
1058.179421,1924.535449,14249.376263,16654.633695
1058.179750,-1036.288319,11491.432470,16580.613101
1058.180079,-4441.235652,5286.058936,15840.407159
1058.180409,-6883.915261,-306.438199,15840.407159
1058.180738,-9696.697840,-3524.039291,12435.459826
1058.181068,-11769.274478,-6052.154434,7031.956449
1058.181397,-8512.368333,-7507.735880,3775.050304
1058.181726,-2812.782580,-9422.974625,3923.091493
1058.182056,2146.597232,-7431.126331,3849.070898
1058.182385,3997.112087,-3447.429741,4071.132681
1058.182714,4441.235652,2528.115143,4145.153275
1058.183044,4885.359217,7967.393179,8586.388927
1058.183373,5403.503377,10801.946522,14582.057057
1058.183702,3108.864956,10572.117872,19245.354492
1058.184032,-1702.473667,8273.831378,19393.395680
1058.184361,-7105.977043,6894.859482,17320.819043
1058.184690,-8808.450710,1991.848295,14359.995275
1058.185020,-8512.368333,-5439.278036,10510.924376
1058.185349,-7254.018232,-11721.261119,8586.388927
1058.185678,-5477.523971,-10648.727422,7179.997637
1058.186008,-2368.659014,-6435.202183,5255.462188
1058.186337,1998.556043,-3830.477490,1480.411884
1058.186666,4885.359217,-1685.410096,1110.308913
1058.186996,6513.812290,612.876398,4219.173869
1058.187325,6291.750507,6588.421283,11177.109724
1058.187654,4441.235652,12334.137518,16062.468941
1058.187984,666.185348,13713.109414,17690.922014
1058.188313,-4071.132681,10495.508323,15322.262999
1058.188642,-7698.141797,5132.839837,13841.851115
1058.188972,-7254.018232,-3294.210641,11251.130318
1058.189301,-6365.771101,-8580.269578,8660.409521
1058.189630,-6143.709319,-7124.688131,6069.688724
1058.189960,-4589.276840,-5898.935335,3849.070898
1058.190289,-1110.308913,-6281.983084,2590.720797
1058.190618,3775.050304,-3524.039291,1184.329507
1058.190948,7179.997637,1532.190996,888.247130
1058.191277,8734.430116,3140.991542,4293.194464
1058.191606,6661.853478,8427.050478,11843.295072
1058.191936,1776.494261,14479.204912,16950.716072
1058.192265,-2072.576638,13483.280765,17246.798449
1058.192594,-3627.009116,7431.126331,15618.345376
1058.192924,-5403.503377,1455.581446,14211.954086
1058.193253,-7328.038826,-3140.991542,12065.356855
1058.193582,-8882.471304,-9039.926876,9178.553681
1058.193912,-8216.285956,-8044.002729,6957.935855
1058.194241,-5403.503377,-5898.935335,4737.318029
1058.194570,-1184.329507,-5669.106685,2812.782580
1058.194900,3627.009116,-4903.011187,3034.844362
1058.195229,6735.874072,-1302.362347,4737.318029
1058.195558,6883.915261,4596.572988,6883.915261
1058.195888,5847.626942,9806.022374,10584.944971
1058.196217,4589.276840,11721.261119,16358.551318
1058.196547,1110.308913,10112.460574,19097.313304
1058.196876,-3849.070898,7048.078582,18801.230927
1058.197205,-7624.121203,2834.553343,15026.180623
1058.197535,-8216.285956,-2298.286494,11991.336260
1058.197864,-8216.285956,-6052.154434,9844.739029
1058.198193,-6661.853478,-8580.269578,8512.368333
1058.198523,-3256.906145,-9116.536426,5921.647536
1058.198852,296.082377,-6052.154434,3701.029710
1058.199181,3182.885551,-2298.286494,2886.803174
1058.199511,4811.338623,1838.629195,3552.988522
1058.199840,5033.400406,4903.011187,7105.977043
1058.200169,5181.441594,8733.488677,12583.501014
1058.200499,3182.885551,11108.384721,16062.468941
1058.200828,-592.164754,11261.603821,15914.427753
1058.201157,-4589.276840,7660.954980,14656.077652
1058.201487,-6809.894666,919.314598,11769.274478
1058.201816,-7994.224174,-4290.134789,8512.368333
1058.202145,-7179.997637,-7277.907231,6587.832884
1058.202475,-4441.235652,-6971.469032,6661.853478
1058.202804,-2146.597232,-5439.278036,5921.647536
1058.203133,222.061783,-3064.381992,2812.782580
1058.203463,3256.906145,-1149.143247,1628.453072
1058.203792,7105.977043,919.314598,3256.906145
1058.204121,7402.059420,5515.887586,9030.512492
1058.204451,4515.256246,11951.089769,13471.748144
1058.204780,296.082377,12870.404366,15618.345376
1058.205109,-2368.659014,8810.098227,14656.077652
1058.205439,-4959.379811,2604.724693,14804.118840
1058.205768,-7772.162391,-1532.190996,13989.892304
1058.206097,-10362.883188,-4060.306139,10510.924376
1058.206427,-10510.924376,-6358.592633,6661.853478
1058.206756,-6587.832884,-8350.440928,4515.256246
1058.207085,-1332.370696,-8350.440928,2812.782580
1058.207415,3182.885551,-6052.154434,2516.700203
1058.207744,5107.421000,-2451.505594,4367.215058
1058.208073,5551.544565,4519.963438,5995.668130
1058.208403,4737.318029,9652.803275,9844.739029
1058.208732,3849.070898,9729.412825,14952.160028
1058.209061,-666.185348,9039.926876,18431.127956
1058.209391,-4959.379811,9193.145976,18653.189738
1058.209720,-8290.306550,5056.230287,16654.633695
1058.210049,-9400.615463,-2221.676944,13027.624579
1058.210379,-9474.636058,-8503.660028,10807.006753
1058.210708,-8586.388927,-11184.994271,8882.471304
1058.211037,-4737.318029,-9269.755526,5847.626942
1058.211367,518.144159,-7354.516781,3627.009116
1058.211696,4737.318029,-4596.572988,3478.967927
1058.212026,6513.812290,536.266849,4959.379811
1058.212355,6439.791695,5515.887586,8364.327145
1058.212684,6883.915261,9576.193725,11991.336260
1058.213014,4737.318029,13636.499864,15248.242405
1058.213343,1406.391290,13406.671215,15100.201217
1058.213672,-2072.576638,6665.030833,15026.180623
1058.214002,-4737.318029,-1149.143247,14508.036463
1058.214331,-6957.935855,-4060.306139,11843.295072
1058.214660,-8660.409521,-4596.572988,8734.430116
1058.214990,-7772.162391,-5056.230287,5995.668130
1058.215319,-3182.885551,-5822.325785,3849.070898
1058.215648,1998.556043,-6818.249932,1258.350101
1058.215978,6735.874072,-4366.744339,888.247130
1058.216307,8512.368333,2374.896044,3034.844362
1058.216636,6217.729913,8427.050478,7476.080014
1058.216966,2664.741391,13483.280765,11473.192101
1058.217295,74.020594,13866.328514,13989.892304
1058.217624,222.061783,8197.221829,15248.242405
1058.217954,-1406.391290,2911.162892,15692.365970
1058.218283,-5921.647536,153.219100,14359.995275
1058.218612,-10288.862594,-2451.505594,10362.883188
1058.218942,-10584.944971,-7048.078582,7254.018232
1058.219271,-6883.915261,-6971.469032,5403.503377
1058.219600,-1184.329507,-5592.497135,3478.967927
1058.219930,4441.235652,-6511.811733,2146.597232
1058.220259,6513.812290,-2911.162892,3182.885551
1058.220588,5921.647536,3983.696590,5477.523971
1058.220918,3701.029710,8427.050478,9178.553681
1058.221247,2590.720797,10955.165621,14137.933492
1058.221577,296.082377,10495.508323,17838.963202
1058.221906,-2368.659014,7431.126331,18727.210333
1058.222236,-6439.791695,3140.991542,16802.674883
1058.222565,-9252.574275,-229.828649,13841.851115
1058.222895,-11177.109724,-4903.011187,10140.821405
1058.223225,-10807.006753,-9422.974625,8216.285956
1058.223554,-6735.874072,-8963.317327,8512.368333
1058.223884,-2220.617826,-7201.297681,7550.100608
1058.224213,1850.514855,-3830.477490,3552.988522
1058.224543,4219.173869,153.219100,1628.453072
1058.224873,6217.729913,1302.362347,3849.070898
1058.225202,7476.080014,4136.915689,11251.130318
1058.225532,4885.359217,10955.165621,17394.839637
1058.225861,0.000000,14172.766713,18579.169144
1058.226191,-4441.235652,10189.070123,16506.592507
1058.226521,-6587.832884,3600.648841,13323.706956
1058.226850,-6143.709319,-3524.039291,10955.047942
1058.227180,-5847.626942,-9882.631924,9918.759623
1058.227509,-7402.059420,-6665.030833,7772.162391
1058.227839,-6291.750507,-2374.896044,5403.503377
1058.228169,-444.123565,-5132.839837,2664.741391
1058.228498,5033.400406,-5975.544884,1332.370696
1058.228828,7846.182985,-919.314598,2072.576638
1058.229157,7920.203579,3907.087040,4589.276840
1058.229487,6365.771101,10265.679673,10066.800811
1058.229817,3849.070898,15398.519510,13397.727550
1058.230146,1776.494261,10648.727422,16210.510130
1058.230476,-1406.391290,3447.429741,16432.571912
1058.230805,-5699.585753,2451.505594,14063.912898
1058.231135,-7550.100608,-1072.533697,10881.027347
1058.231465,-7476.080014,-5745.716235,8808.450710
1058.231794,-6661.853478,-5209.449386,5699.585753
1058.232124,-1924.535449,-6511.811733,2146.597232
1058.232453,4811.338623,-8503.660028,1184.329507
1058.232783,8216.285956,-3294.210641,2516.700203
1058.233113,6957.935855,4519.963438,5255.462188
1058.233442,3330.926739,6052.154434,8734.430116
1058.233772,148.041188,10342.289223,12731.542202
1058.234101,-1184.329507,13330.061665,16136.489536
1058.234431,-1332.370696,7431.126331,17616.901420
1058.234761,-3849.070898,0.000000,17912.983796
1058.235090,-9030.512492,-2987.772442,16358.551318
1058.235420,-13027.624579,-5209.449386,11769.274478
1058.235749,-11843.295072,-8810.098227,8142.265362
1058.236079,-6809.894666,-7967.393179,6587.832884
1058.236409,-1258.350101,-6588.421283,5699.585753
1058.236738,4145.153275,-6665.030833,5255.462188
1058.237068,7105.977043,-1608.800546,5477.523971
1058.237397,7550.100608,5822.325785,3849.070898
1058.237727,6291.750507,8656.879127,7254.018232
1058.238057,4219.173869,11491.432470,14285.974681
1058.238386,1406.391290,12563.966167,19319.375086
1058.238716,-1406.391290,8273.831378,19319.375086
1058.239045,-5033.400406,3830.477490,15766.386565
1058.239375,-8956.491898,1455.581446,11103.089130
1058.239705,-10362.883188,-5515.887586,8290.306550
1058.240034,-9400.615463,-10801.946522,7550.100608
1058.240364,-7031.956449,-8197.221829,6587.832884
1058.240693,-3108.864956,-4290.134789,4071.132681
1058.241023,1184.329507,-4213.525239,1998.556043
1058.241352,3627.009116,536.266849,2960.823768
1058.241682,4811.338623,3983.696590,4441.235652
1058.242012,5329.482782,6205.373534,7328.038826
1058.242341,4885.359217,11644.651570,11695.253884
1058.242671,2516.700203,14172.766713,14434.015869
1058.243000,-888.247130,9039.926876,14952.160028
1058.243330,-4589.276840,1991.848295,13989.892304
1058.243660,-6439.791695,-1455.581446,11769.274478
1058.243989,-7328.038826,-3983.696590,9178.553681
1058.244319,-5921.647536,-4903.011187,7624.121203
1058.244648,-2886.803174,-3983.696590,5329.482782
1058.244978,2072.576638,-5515.887586,1998.556043
1058.245308,7254.018232,-6052.154434,814.226536
1058.245637,9104.533087,-689.485948,3552.988522
1058.245967,7550.100608,5822.325785,7402.059420
1058.246296,3256.906145,11108.384721,11621.233289
1058.246626,1332.370696,12180.918418,15618.345376
1058.246956,0.000000,7737.564530,18727.210333
1058.247285,-2516.700203,3294.210641,19393.395680
1058.247615,-7105.977043,0.000000,16580.613101
1058.247944,-10584.944971,-3447.429741,12731.542202
1058.248274,-11547.212695,-7814.174080,9696.697840
1058.248604,-8882.471304,-8044.002729,6809.894666
1058.248933,-3404.947333,-8044.002729,3182.885551
1058.249263,2516.700203,-9806.022374,1702.473667
1058.249592,6809.894666,-4903.011187,4589.276840
1058.249922,6143.709319,3907.087040,6735.874072
1058.250252,4663.297435,8197.221829,9104.533087
1058.250581,3404.947333,9652.803275,11547.212695
1058.250911,1850.514855,12180.918418,16284.530724
1058.251240,814.226536,9422.974625,18653.189738
1058.251570,-1850.514855,3370.820191,17320.819043
1058.251900,-6365.771101,1225.752797,13989.892304
1058.252229,-9622.677246,-1455.581446,9104.533087
1058.252559,-9474.636058,-9193.145976,8142.265362
1058.252888,-6217.729913,-10495.508323,8290.306550
1058.253218,-2886.803174,-5592.497135,6809.894666
1058.253548,0.000000,-4749.792088,2886.803174
1058.253877,3330.926739,-2145.067394,1998.556043
1058.254207,5921.647536,2834.553343,3775.050304
1058.254536,7105.977043,4979.620737,7476.080014
1058.254866,5107.421000,8120.612279,11843.295072
1058.255196,1110.308913,13100.233016,15692.365970
1058.255525,-1702.473667,11338.213370,16432.571912
1058.255855,-3552.988522,3524.039291,15026.180623
1058.256184,-5255.462188,-459.657299,12435.459826
1058.256514,-6587.832884,-3217.601092,8512.368333
1058.256844,-5921.647536,-6818.249932,5921.647536
1058.257173,-2516.700203,-5056.230287,3330.926739
1058.257503,1702.473667,-4060.306139,592.164754
1058.257832,5255.462188,-5362.668486,666.185348
1058.258162,6513.812290,-1149.143247,4367.215058
1058.258492,4737.318029,6665.030833,7476.080014
1058.258821,2294.638420,10189.070123,10881.027347
1058.259151,444.123565,12870.404366,14434.015869
1058.259480,-1258.350101,11797.870669,15248.242405
1058.259810,-1036.288319,1685.410096,17172.777854
1058.260140,-3256.906145,-4366.744339,16876.695478
1058.260469,-8882.471304,-1302.362347,13471.748144
1058.260799,-12731.542202,-3064.381992,10214.842000
1058.261128,-11103.089130,-7124.688131,8512.368333
1058.261458,-6291.750507,-5056.230287,5181.441594
1058.261788,1406.391290,-6435.202183,1406.391290
1058.262117,7994.224174,-9729.412825,962.267725
1058.262447,8364.327145,-1302.362347,4885.359217
1058.262776,4737.318029,8273.831378,8882.471304
1058.263106,2146.597232,10035.851024,13323.706956
1058.263436,1258.350101,12257.527968,17098.757260
1058.263765,370.102971,13636.499864,18801.230927
1058.264095,0.000000,5822.325785,18209.066173
1058.264424,-3997.112087,612.876398,14656.077652
1058.264754,-8068.244768,-766.095498,9252.574275
1058.265084,-8882.471304,-7431.126331,7698.141797
1058.265413,-7105.977043,-10342.289223,7994.224174
1058.265743,-5995.668130,-5209.449386,7698.141797
1058.266072,-3182.885551,-4826.401637,4811.338623
1058.266402,888.247130,-5362.668486,3404.947333
1058.266732,4441.235652,383.047749,3701.029710
1058.267061,5847.626942,4826.401637,6365.771101
1058.267391,5181.441594,6665.030833,10732.986159
1058.267720,2812.782580,10342.289223,14804.118840
1058.268050,-518.144159,11108.384721,16654.633695
1058.268379,-3108.864956,5362.668486,15470.304188
1058.268709,-4737.318029,2451.505594,13101.645173
1058.269039,-5921.647536,-995.924147,10584.944971
1058.269368,-5477.523971,-5209.449386,7105.977043
1058.269698,-3404.947333,-5515.887586,3256.906145
1058.270027,666.185348,-6052.154434,592.164754
1058.270357,4885.359217,-7048.078582,814.226536
1058.270687,5699.585753,-1762.019645,3256.906145
1058.271016,5181.441594,4443.353888,5921.647536
1058.271346,3997.112087,7431.126331,9548.656652
1058.271675,2590.720797,11414.822920,13323.706956
1058.272005,592.164754,13559.890315,14508.036463
1058.272335,-222.061783,5515.887586,15396.283594
1058.272664,-2368.659014,-2834.553343,16802.674883
1058.272994,-7624.121203,-459.657299,15026.180623
1058.273323,-12435.459826,-2145.067394,11547.212695
1058.273653,-11843.295072,-7814.174080,8364.327145
1058.273983,-7846.182985,-6665.030833,5699.585753
1058.274312,-962.267725,-6741.640382,1628.453072
1058.274642,6069.688724,-10265.679673,-148.041188
1058.274971,8734.430116,-6358.592633,3182.885551
1058.275301,5847.626942,4673.182538,7698.141797
1058.275631,2072.576638,9269.755526,11769.274478
1058.275960,1480.411884,12180.918418,15396.283594
1058.276290,1850.514855,13866.328514,19467.416275
1058.276619,1406.391290,8656.879127,20207.622217
1058.276949,-2072.576638,2298.286494,15914.427753
1058.277279,-6439.791695,-2604.724693,13915.871710
1058.277608,-8586.388927,-5515.887586,12879.583391
1058.277938,-10584.944971,-5439.278036,11325.150913
1058.278267,-8734.430116,-5209.449386,7031.956449
1058.278597,-2516.700203,-6741.640382,2294.638420
1058.278927,4293.194464,-7967.393179,370.102971
1058.279256,8438.347739,-3830.477490,1480.411884
1058.279586,7624.121203,2604.724693,4071.132681
1058.279915,4145.153275,8963.317327,8882.471304
1058.280245,1036.288319,14402.595362,14211.954086
1058.280575,74.020594,12257.527968,18949.272115
1058.280904,-2072.576638,8044.002729,17912.983796
1058.281234,-4219.173869,3447.429741,13471.748144
1058.281563,-5625.565159,-2911.162892,10881.027347
1058.281893,-7031.956449,-2604.724693,8660.409521
1058.282223,-7624.121203,-2987.772442,4811.338623
1058.282552,-4219.173869,-5515.887586,444.123565
1058.282882,1628.453072,-7584.345430,-1924.535449
1058.283211,6513.812290,-5898.935335,1184.329507
1058.283541,7105.977043,2298.286494,4885.359217
1058.283871,4293.194464,7737.564530,8364.327145
1058.284200,2220.617826,12257.527968,10881.027347
1058.284530,2220.617826,14402.595362,13323.706956
1058.284859,1850.514855,10418.898773,14952.160028
1058.285189,444.123565,1532.190996,17616.901420
1058.285519,-5477.523971,-1991.848295,16580.613101
1058.285848,-12435.459826,229.828649,12805.562797
1058.286178,-13693.809927,-4366.744339,9474.636058
1058.286507,-9400.615463,-7814.174080,8142.265362
1058.286837,-3552.988522,-6511.811733,4071.132681
1058.287167,2960.823768,-9576.193725,-148.041188
1058.287496,7031.956449,-10265.679673,444.123565
1058.287826,6143.709319,153.219100,4367.215058
1058.288155,3034.844362,8427.050478,10140.821405
1058.288485,2368.659014,10495.508323,16580.613101
1058.288815,592.164754,13866.328514,20429.683999
1058.289144,-814.226536,13176.842566,20133.601622
1058.289474,-1406.391290,4519.963438,16728.654289
1058.289803,-4441.235652,-2068.457845,12509.480420
1058.290133,-7698.141797,-4979.620737,11473.192101
1058.290463,-9622.677246,-7584.345430,11621.233289
1058.290792,-8438.347739,-6052.154434,9474.636058
1058.291122,-3997.112087,-6052.154434,4737.318029
1058.291451,888.247130,-8580.269578,1480.411884
1058.291781,5033.400406,-6511.811733,1702.473667
1058.292111,6513.812290,689.485948,3997.112087
1058.292440,5847.626942,5975.544884,8142.265362
1058.292770,3256.906145,10572.117872,13989.892304
1058.293099,296.082377,12947.013916,17987.004391
1058.293429,-2220.617826,8733.488677,17838.963202
1058.293759,-4071.132681,4060.306139,14359.995275
1058.294088,-4737.318029,536.266849,11103.089130
1058.294418,-5699.585753,-2834.553343,8512.368333
1058.294747,-6143.709319,-5056.230287,5921.647536
1058.295077,-3552.988522,-4366.744339,2738.761985
1058.295406,666.185348,-5898.935335,-444.123565
1058.295736,5255.462188,-6511.811733,444.123565
1058.296066,6513.812290,0.000000,3701.029710
1058.296395,4515.256246,6588.421283,6661.853478
1058.296725,2368.659014,9422.974625,9918.759623
1058.297054,962.267725,12870.404366,12953.603985
1058.297384,-296.082377,13100.233016,15174.221811
1058.297714,-1110.308913,5669.106685,15988.448347
1058.298043,-4219.173869,-1838.629195,15396.283594
1058.298373,-9400.615463,-1608.800546,12509.480420
1058.298702,-12805.562797,-4136.915689,8808.450710
1058.299032,-11547.212695,-7737.564530,7328.038826
1058.299362,-6365.771101,-4673.182538,5551.544565
1058.299691,-222.061783,-5975.544884,2368.659014
1058.300021,5329.482782,-9039.926876,962.267725
1058.300350,6587.832884,-3064.381992,2516.700203
1058.300680,4737.318029,5592.497135,7179.997637
1058.301010,2294.638420,9193.145976,13323.706956
1058.301339,740.205942,12487.356617,18579.169144
1058.301669,-888.247130,14019.547613,20429.683999
1058.301998,-1184.329507,6588.421283,17987.004391
1058.302328,-3775.050304,-1762.019645,15544.324782
1058.302658,-7402.059420,-4136.915689,13767.830521
1058.302987,-10214.842000,-5898.935335,11843.295072
1058.303317,-9252.574275,-6052.154434,8290.306550
1058.303646,-4071.132681,-5745.716235,5033.400406
1058.303976,2146.597232,-8427.050478,2368.659014
1058.304306,5847.626942,-6894.859482,1628.453072
1058.304635,6513.812290,-1149.143247,3108.864956
1058.304965,5477.523971,5515.887586,7031.956449
1058.305294,3849.070898,11261.603821,11843.295072
1058.305624,2220.617826,11414.822920,17246.798449
1058.305954,-444.123565,7890.783629,18579.169144
1058.306283,-3923.091493,3677.258390,16358.551318
1058.306613,-4663.297435,0.000000,13249.686362
1058.306942,-4219.173869,-2451.505594,11177.109724
1058.307272,-5255.462188,-3677.258390,9104.533087
1058.307602,-6069.688724,-4290.134789,2442.679609
1058.307931,-2146.597232,-5898.935335,-2812.782580
1058.308261,7105.977043,-7660.954980,-1628.453072
1058.308590,11103.089130,-3140.991542,3478.967927
1058.308920,6957.935855,5515.887586,7105.977043
1058.309250,1850.514855,9959.241474,9622.677246
1058.309579,1036.288319,12870.404366,11473.192101
1058.309909,1702.473667,12027.699319,14656.077652
1058.310238,1184.329507,4596.572988,19245.354492
1058.310568,-2738.761985,-1225.752797,17912.983796
1058.310898,-8438.347739,536.266849,13397.727550
1058.311227,-10955.047942,-2528.115143,9770.718434
1058.311557,-9104.533087,-6281.983084,10658.965565
1058.311886,-7846.182985,-4673.182538,7179.997637
1058.312216,-3775.050304,-4443.353888,-814.226536
1058.312546,5107.421000,-9499.584175,-2516.700203
1058.312875,10510.924376,-4979.620737,2368.659014
1058.313205,7254.018232,5975.544884,6957.935855
1058.313534,1036.288319,7737.564530,9474.636058
1058.313864,-2146.597232,10572.117872,12361.439231
1058.314194,-1702.473667,14709.033562,18505.148550
1058.314523,444.123565,10648.727422,21539.992912
1058.314853,-2294.638420,2068.457845,18209.066173
1058.315182,-9474.636058,-2528.115143,10214.842000
1058.315512,-13101.645173,-4060.306139,5921.647536
1058.315842,-9992.780217,-8427.050478,8660.409521
1058.316171,-5847.626942,-7737.564530,11251.130318
1058.316501,-4959.379811,-6128.763984,8660.409521
1058.316830,-2664.741391,-4519.963438,4959.379811
1058.317160,1554.432478,-689.485948,3182.885551
1058.317490,5625.565159,1378.971896,4811.338623
1058.317819,6883.915261,4443.353888,7994.224174
1058.318149,3775.050304,9269.755526,11843.295072
1058.318478,1554.432478,9806.022374,17616.901420
1058.318808,-148.041188,8044.002729,18357.107362
1058.319138,-3849.070898,5056.230287,15026.180623
1058.319467,-7031.956449,-153.219100,11251.130318
1058.319797,-7920.203579,-5056.230287,8586.388927
1058.320126,-5477.523971,-4903.011187,7402.059420
1058.320456,444.123565,-3983.696590,3330.926739
1058.320786,4441.235652,-7354.516781,222.061783
1058.321115,5921.647536,-4903.011187,666.185348
1058.321445,5625.565159,2298.286494,4219.173869
1058.321774,4663.297435,5822.325785,9178.553681
1058.322104,3923.091493,13483.280765,12731.542202
1058.322433,1850.514855,16777.491406,12953.603985
1058.322763,962.267725,7890.783629,15026.180623
1058.323093,-1036.288319,-1378.971896,15544.324782
1058.323422,-5477.523971,-1149.143247,14211.954086
1058.323752,-9474.636058,-995.924147,10955.047942
1058.324082,-10955.047942,-5822.325785,9326.594869
1058.324411,-9622.677246,-4596.572988,9548.656652
1058.324741,-5329.482782,-5592.497135,4367.215058
1058.325071,2664.741391,-9806.022374,-2516.700203
1058.325400,9104.533087,-6052.154434,-3997.112087
1058.325730,11769.274478,1455.581446,3034.844362
1058.326059,8216.285956,6281.983084,9770.718434
1058.326389,1776.494261,11721.261119,14211.954086
1058.326719,-1554.432478,15781.567259,16580.613101
1058.327048,-1332.370696,12793.794817,19171.333898
1058.327378,-2664.741391,4596.572988,21465.972318
1058.327708,-6217.729913,-3140.991542,19171.333898
1058.328037,-10955.047942,-6665.030833,11547.212695
1058.328367,-12287.418637,-8273.831378,5181.441594
1058.328697,-7920.203579,-7584.345430,4145.153275
1058.329026,-2886.803174,-8120.612279,4663.297435
1058.329356,1406.391290,-8120.612279,4515.256246
1058.329686,4367.215058,-3983.696590,4441.235652
1058.330015,4959.379811,3294.210641,4959.379811
1058.330345,4737.318029,9193.145976,8216.285956
1058.330675,4219.173869,11338.213370,13175.665768
1058.331004,1258.350101,11874.480219,17246.798449
1058.331334,0.000000,8810.098227,16432.571912
1058.331663,-1702.473667,383.047749,17468.860231
1058.331993,-5255.462188,-1838.629195,16432.571912
1058.332323,-11991.336260,-766.095498,12583.501014
1058.332652,-14211.954086,-6128.763984,7920.203579
1058.332982,-8438.347739,-6741.640382,5181.441594
1058.333312,-666.185348,-6971.469032,1184.329507
1058.333641,5847.626942,-7967.393179,-814.226536
1058.333971,7550.100608,-4443.353888,1628.453072
1058.334301,5551.544565,5745.716235,6439.791695
1058.334630,3701.029710,13406.671215,11251.130318
1058.334960,3997.112087,14096.157163,13101.645173
1058.335290,2738.761985,13713.109414,13323.706956
1058.335619,444.123565,5898.935335,14063.912898
1058.335949,-1776.494261,-1915.238745,14211.954086
1058.336279,-5033.400406,-1762.019645,12065.356855
1058.336608,-7994.224174,-3140.991542,9844.739029
1058.336938,-9326.594869,-4903.011187,8882.471304
1058.337267,-8512.368333,-4826.401637,6513.812290
1058.337597,-1480.411884,-6435.202183,1184.329507
1058.337927,5921.647536,-7354.516781,-666.185348
1058.338256,9474.636058,-1455.581446,2072.576638
1058.338586,6883.915261,7201.297681,6513.812290
1058.338916,2516.700203,9652.803275,11399.171507
1058.339245,370.102971,12563.966167,14804.118840
1058.339575,-1554.432478,12947.013916,17838.963202
1058.339905,-3256.906145,6281.983084,19689.478057
1058.340234,-6661.853478,153.219100,17394.839637
1058.340564,-9918.759623,-4443.353888,12065.356855
1058.340894,-10807.006753,-7354.516781,7254.018232
1058.341223,-8586.388927,-7890.783629,4663.297435
1058.341553,-3330.926739,-8733.488677,5107.421000
1058.341883,2442.679609,-8503.660028,5033.400406
1058.342212,5181.441594,-3600.648841,5403.503377
1058.342542,5551.544565,3753.867940,5847.626942
1058.342871,5995.668130,7277.907231,9178.553681
1058.343201,4811.338623,10801.946522,13397.727550
1058.343531,2294.638420,14709.033562,16802.674883
1058.343860,1258.350101,10189.070123,17690.922014
1058.344190,-148.041188,1302.362347,17246.798449
1058.344520,-5625.565159,-1072.533697,15026.180623
1058.344849,-11843.295072,-3370.820191,12509.480420
1058.345179,-13027.624579,-7507.735880,9548.656652
1058.345509,-8956.491898,-6281.983084,6069.688724
1058.345838,-2220.617826,-6281.983084,1924.535449
1058.346168,4959.379811,-9039.926876,-222.061783
1058.346498,7476.080014,-5362.668486,666.185348
1058.346827,6217.729913,4290.134789,4071.132681
1058.347157,3997.112087,10418.898773,9844.739029
1058.347487,2812.782580,16088.005458,14359.995275
1058.347816,962.267725,18233.072852,15174.221811
1058.348146,148.041188,8656.879127,13841.851115
1058.348475,-1628.453072,-1915.238745,13249.686362
1058.348805,-5181.441594,-3064.381992,12139.377449
1058.349135,-8586.388927,-3983.696590,10362.883188
1058.349464,-10510.924376,-7354.516781,8808.450710
1058.349794,-10584.944971,-4826.401637,5625.565159
1058.350124,-4885.359217,-4443.353888,1628.453072
1058.350453,4811.338623,-7967.393179,-148.041188
1058.350783,9622.677246,-4136.915689,1776.494261
1058.351113,6809.894666,5439.278036,4589.276840
1058.351442,2368.659014,11414.822920,10362.883188
1058.351772,1480.411884,13253.452115,14952.160028
1058.352102,222.061783,13559.890315,18727.210333
1058.352431,-1702.473667,6741.640382,18801.230927
1058.352761,-4811.338623,-536.266849,15840.407159
1058.353091,-8142.265362,-3907.087040,11251.130318
1058.353420,-9252.574275,-7507.735880,9252.574275
1058.353750,-9030.512492,-7660.954980,7846.182985
1058.354079,-5773.606348,-6435.202183,5329.482782
1058.354409,0.000000,-7660.954980,2812.782580
1058.354739,4811.338623,-7124.688131,3923.091493
1058.355068,6365.771101,1685.410096,6661.853478
1058.355398,5181.441594,7354.516781,9400.615463
1058.355728,4145.153275,9652.803275,12435.459826
1058.356057,1998.556043,14249.376263,15470.304188
1058.356387,1998.556043,10418.898773,19911.539840
1058.356717,1258.350101,842.705048,20281.642811
1058.357046,-4885.359217,0.000000,15544.324782
1058.357376,-11325.150913,0.000000,9474.636058
1058.357706,-10584.944971,-7660.954980,7031.956449
1058.358035,-6291.750507,-8427.050478,7550.100608
1058.358365,-2516.700203,-5362.668486,4145.153275
1058.358695,1480.411884,-6665.030833,-518.144159
1058.359024,5255.462188,-5132.839837,296.082377
1058.359354,6809.894666,4903.011187,5255.462188
1058.359683,5995.668130,8580.269578,9696.697840
1058.360013,4589.276840,10878.556072,11103.089130
1058.360343,2368.659014,15321.909960,12657.521608
1058.360672,1998.556043,9729.412825,16950.716072
1058.361002,0.000000,2221.676944,17172.777854
1058.361332,-4811.338623,766.095498,13397.727550
1058.361661,-8660.409521,-2298.286494,8882.471304
1058.361991,-9326.594869,-7277.907231,7476.080014
1058.362321,-7698.141797,-6052.154434,8364.327145
1058.362650,-3627.009116,-4673.182538,3108.864956
1058.362980,2368.659014,-6741.640382,-2516.700203
1058.363310,7698.141797,-4903.011187,-1406.391290
1058.363639,9104.533087,2221.676944,4737.318029
1058.363969,5551.544565,7737.564530,10436.903782
1058.364299,148.041188,13100.233016,12879.583391
1058.364628,-2442.679609,15321.909960,15248.242405
1058.364958,-2368.659014,9346.365076,18431.127956
1058.365287,-1998.556043,2374.896044,19541.436869
1058.365617,-6069.688724,-4290.134789,14508.036463
1058.365947,-11103.089130,-6894.859482,8512.368333
1058.366276,-13323.706956,-7967.393179,6143.709319
1058.366606,-8956.491898,-7124.688131,8068.244768
1058.366936,-2664.741391,-7048.078582,6587.832884
1058.367265,2146.597232,-7507.735880,3701.029710
1058.367595,5403.503377,-2757.943793,3923.091493
1058.367925,7031.956449,2604.724693,6661.853478
1058.368254,6217.729913,7277.907231,11325.150913
1058.368584,3701.029710,13176.842566,14878.139434
1058.368914,1110.308913,14709.033562,17024.736666
1058.369243,1480.411884,7967.393179,18357.107362
1058.369573,-1480.411884,0.000000,17987.004391
1058.369903,-7179.997637,-1838.629195,14359.995275
1058.370232,-11843.295072,-4673.182538,9992.780217
1058.370562,-10955.047942,-9116.536426,7254.018232
1058.370891,-5773.606348,-6665.030833,6217.729913
1058.371221,-592.164754,-6205.373534,2368.659014
1058.371551,3552.988522,-7507.735880,-370.102971
1058.371880,6069.688724,-2757.943793,1184.329507
1058.372210,6069.688724,6281.983084,6513.812290
1058.372540,5477.523971,12180.918418,11399.171507
1058.372869,3404.947333,14709.033562,13619.789333
1058.373199,888.247130,12793.794817,16580.613101
1058.373529,-1406.391290,5822.325785,17098.757260
1058.373858,-4145.153275,1838.629195,13693.809927
1058.374188,-5477.523971,-1225.752797,10214.842000
1058.374518,-7031.956449,-5056.230287,8142.265362
1058.374847,-7920.203579,-5592.497135,7476.080014
1058.375177,-5181.441594,-5669.106685,3478.967927
1058.375507,2072.576638,-5898.935335,-962.267725
1058.375836,7254.018232,-4903.011187,-1184.329507
1058.376166,8438.347739,1378.971896,3034.844362
1058.376495,5255.462188,7277.907231,8438.347739
1058.376825,2368.659014,10878.556072,13027.624579
1058.377155,962.267725,13483.280765,17172.777854
1058.377484,-1110.308913,12180.918418,18949.272115
1058.377814,-3256.906145,5592.497135,17912.983796
1058.378144,-5033.400406,-2145.067394,14804.118840
1058.378473,-7624.121203,-4826.401637,10214.842000
1058.378803,-10510.924376,-6128.763984,4515.256246
1058.379133,-8734.430116,-6665.030833,3923.091493
1058.379462,-3330.926739,-7814.174080,4663.297435
1058.379792,2072.576638,-7201.297681,5181.441594
1058.380122,4145.153275,-2681.334243,4737.318029
1058.380451,4071.132681,1838.629195,5921.647536
1058.380781,3701.029710,6205.373534,9548.656652
1058.381111,2886.803174,11031.775171,13693.809927
1058.381440,666.185348,12487.356617,18061.024985
1058.381770,518.144159,7277.907231,20059.581028
1058.382100,-2072.576638,1225.752797,18209.066173
1058.382429,-6809.894666,-1225.752797,14137.933492
1058.382759,-10658.965565,-4673.182538,10288.862594
1058.383088,-10732.986159,-9039.926876,9252.574275
1058.383418,-6661.853478,-6588.421283,6735.874072
1058.383748,-592.164754,-5515.887586,2368.659014
1058.384077,5625.565159,-6971.469032,-148.041188
1058.384407,8438.347739,-4979.620737,1850.514855
1058.384737,7105.977043,3907.087040,6217.729913
1058.385066,3627.009116,10878.556072,10955.047942
1058.385396,2072.576638,15398.519510,14211.954086
1058.385726,1036.288319,13636.499864,18135.045579
1058.386055,-296.082377,6588.421283,18505.148550
1058.386385,-3404.947333,1149.143247,13693.809927
1058.386715,-6365.771101,-3524.039291,10436.903782
1058.387044,-6883.915261,-6052.154434,8438.347739
1058.387374,-8512.368333,-5362.668486,7994.224174
1058.387704,-8142.265362,-5056.230287,4145.153275
1058.388033,-1776.494261,-6128.763984,-666.185348
1058.388363,6513.812290,-5745.716235,-1258.350101
1058.388692,10140.821405,-766.095498,2368.659014
1058.389022,7402.059420,5975.544884,6809.894666
1058.389352,3108.864956,10648.727422,10066.800811
1058.389681,740.205942,13253.452115,14359.995275
1058.390011,-296.082377,11338.213370,19171.333898
1058.390341,-1998.556043,8503.660028,20059.581028
1058.390670,-4441.235652,1149.143247,15470.304188
1058.391000,-6957.935855,-6052.154434,10732.986159
1058.391330,-9030.512492,-6435.202183,7920.203579
1058.391659,-9030.512492,-5362.668486,7698.141797
1058.391989,-5181.441594,-6971.469032,4441.235652
1058.392319,0.000000,-5745.716235,962.267725
1058.392648,5181.441594,-4366.744339,1406.391290
1058.392978,7994.224174,-842.705048,4885.359217
1058.393308,6735.874072,4290.134789,8068.244768
1058.393637,2738.761985,11338.213370,11325.150913
1058.393967,148.041188,14172.766713,15544.324782
1058.394296,148.041188,11184.994271,20207.622217
1058.394626,-962.267725,4519.963438,21317.931130
1058.394956,-4589.276840,-2068.457845,16284.530724
1058.395285,-9252.574275,-4060.306139,10140.821405
1058.395615,-9770.718434,-6818.249932,8290.306550
1058.395945,-7105.977043,-7201.297681,10066.800811
1058.396274,-3404.947333,-4903.011187,6735.874072
1058.396604,518.144159,-4826.401637,1554.432478
1058.396934,5255.462188,-4903.011187,962.267725
1058.397263,7328.038826,1225.752797,4811.338623
1058.397593,5551.544565,7354.516781,9326.594869
1058.397923,2516.700203,11414.822920,12065.356855
1058.398252,740.205942,11644.651570,15914.427753
1058.398582,0.000000,8963.317327,18135.045579
1058.398912,-2220.617826,3907.087040,15914.427753
1058.399241,-4959.379811,-1302.362347,11843.295072
1058.399571,-6957.935855,-3983.696590,8734.430116
1058.399900,-7846.182985,-5975.544884,7772.162391
1058.400230,-6883.915261,-5286.058936,4589.276840
1058.400560,-1998.556043,-4596.572988,888.247130
1058.400889,4589.276840,-5362.668486,-0.000000
1058.401219,8364.327145,-1225.752797,3034.844362
1058.401549,7179.997637,5056.230287,5551.544565
1058.401878,4885.359217,7737.564530,7550.100608
1058.402208,3256.906145,9422.974625,12065.356855
1058.402538,148.041188,10648.727422,17690.922014
1058.402867,-2294.638420,8273.831378,19837.519246
1058.403197,-3108.864956,919.314598,15766.386565
1058.403527,-5477.523971,-3524.039291,10288.862594
1058.403856,-8290.306550,-4673.182538,7254.018232
1058.404186,-9326.594869,-8580.269578,8142.265362
1058.404516,-7031.956449,-6971.469032,7105.977043
1058.404845,-2220.617826,-3447.429741,3997.112087
1058.405175,3404.947333,-3907.087040,1702.473667
1058.405504,7179.997637,-1532.190996,3849.070898
1058.405834,6587.832884,2221.676944,6365.771101
1058.406164,2294.638420,6665.030833,9918.759623
1058.406493,-1924.535449,12257.527968,14211.954086
1058.406823,-2442.679609,13483.280765,19837.519246
1058.407153,-2368.659014,5592.497135,22946.384202
1058.407482,-6217.729913,-2681.334243,18431.127956
1058.407812,-11177.109724,-4366.744339,10658.965565
1058.408142,-10510.924376,-7660.954980,6365.771101
1058.408471,-5699.585753,-9269.755526,7105.977043
1058.408801,-2220.617826,-5515.887586,7105.977043
1058.409131,1184.329507,-3600.648841,3478.967927
1058.409460,5625.565159,-4443.353888,2368.659014
1058.409790,8512.368333,1225.752797,5033.400406
1058.410120,6809.894666,7890.783629,8438.347739
1058.410449,4441.235652,11644.651570,10955.047942
1058.410779,2516.700203,13100.233016,13693.809927
1058.411108,2516.700203,8503.660028,17542.880825
1058.411438,-666.185348,1762.019645,17764.942608
1058.411768,-6587.832884,842.705048,13989.892304
1058.412097,-10214.842000,-2451.505594,10584.944971
1058.412427,-9918.759623,-6818.249932,9400.615463
1058.412757,-8734.430116,-4366.744339,7105.977043
1058.413086,-4293.194464,-4366.744339,2072.576638
1058.413416,3256.906145,-7124.688131,-2072.576638
1058.413746,8438.347739,-4596.572988,-370.102971
1058.414075,8216.285956,4903.011187,4663.297435
1058.414405,6291.750507,9039.926876,8956.491898
1058.414735,4071.132681,12104.308868,10066.800811
1058.415064,1110.308913,13253.452115,13397.727550
1058.415394,222.061783,7431.126331,18209.066173
1058.415724,-1554.432478,2145.067394,17764.942608
1058.416053,-4367.215058,-2145.067394,13915.871710
1058.416383,-7624.121203,-4903.011187,9622.677246
1058.416712,-10066.800811,-5592.497135,8808.450710
1058.417042,-9400.615463,-5286.058936,9696.697840
1058.417372,-4367.215058,-5132.839837,4959.379811
1058.417701,2516.700203,-4136.915689,-0.000000
1058.418031,8364.327145,-2528.115143,888.247130
1058.418361,11103.089130,-383.047749,5329.482782
1058.418690,5995.668130,5669.106685,8586.388927
1058.419020,0.000000,12180.918418,11769.274478
1058.419350,-1850.514855,14249.376263,16950.716072
1058.419679,-2146.597232,11491.432470,19023.292709
1058.420009,-3701.029710,1838.629195,18727.210333
1058.420339,-7550.100608,-7124.688131,14359.995275
1058.420668,-11843.295072,-6205.373534,9178.553681
1058.420998,-11547.212695,-6971.469032,7550.100608
1058.421328,-7105.977043,-8350.440928,8438.347739
1058.421657,-3330.926739,-5362.668486,6291.750507
1058.421987,814.226536,-4826.401637,4441.235652
1058.422316,5551.544565,-3753.867940,5329.482782
1058.422646,7031.956449,3677.258390,7031.956449
1058.422976,5551.544565,11261.603821,8734.430116
1058.423305,4071.132681,11031.775171,12287.418637
1058.423635,2146.597232,10418.898773,14656.077652
1058.423965,296.082377,7354.516781,16062.468941
1058.424294,-2886.803174,153.219100,15766.386565
1058.424624,-8290.306550,-1455.581446,12953.603985
1058.424954,-12583.501014,-3217.601092,9104.533087
1058.425283,-10732.986159,-6281.983084,8438.347739
1058.425613,-4441.235652,-6741.640382,6365.771101
1058.425943,1406.391290,-5362.668486,2072.576638
1058.426272,5625.565159,-5745.716235,-444.123565
1058.426602,6587.832884,-612.876398,1924.535449
1058.426931,6143.709319,7737.564530,7402.059420
1058.427261,4959.379811,10648.727422,12805.562797
1058.427591,2368.659014,12104.308868,16358.551318
1058.427920,-148.041188,12717.185267,15692.365970
1058.428250,-1554.432478,4903.011187,13693.809927
1058.428579,-2072.576638,-2528.115143,12139.377449
1058.428909,-4367.215058,-4366.744339,10732.986159
1058.429239,-6883.915261,-6052.154434,9548.656652
1058.429568,-8882.471304,-5898.935335,8586.388927
1058.429898,-6365.771101,-2757.943793,4959.379811
1058.430227,1036.288319,-3140.991542,1998.556043
1058.430557,8068.244768,-4826.401637,518.144159
1058.430887,9770.718434,153.219100,2812.782580
1058.431216,5551.544565,6358.592633,6883.915261
1058.431546,1702.473667,11414.822920,11917.315666
1058.431876,-814.226536,13176.842566,16950.716072
1058.432205,-2368.659014,8656.879127,20873.807564
1058.432535,-5181.441594,2068.457845,19541.436869
1058.432864,-8290.306550,-3217.601092,14434.015869
1058.433194,-9030.512492,-6281.983084,9474.636058
1058.433524,-8290.306550,-9116.536426,7105.977043
1058.433853,-5921.647536,-6358.592633,6661.853478
1058.434183,-1924.535449,-5669.106685,5107.421000
1058.434512,3923.091493,-5515.887586,4219.173869
1058.434842,6661.853478,-459.657299,5403.503377
1058.435172,6513.812290,5439.278036,7550.100608
1058.435501,4885.359217,8427.050478,9326.594869
1058.435831,3034.844362,11797.870669,12435.459826
1058.436160,1998.556043,12334.137518,15470.304188
1058.436490,1924.535449,6128.763984,17912.983796
1058.436820,-2146.597232,-306.438199,16580.613101
1058.437149,-9844.739029,-2374.896044,12731.542202
1058.437479,-14063.912898,-4060.306139,9844.739029
1058.437808,-12583.501014,-6588.421283,9252.574275
1058.438138,-7402.059420,-5209.449386,6883.915261
1058.438468,-1850.514855,-5362.668486,2368.659014
1058.438797,3701.029710,-6971.469032,-0.000000
1058.439127,6291.750507,-1762.019645,1924.535449
1058.439457,6513.812290,6588.421283,5847.626942
1058.439786,5033.400406,11491.432470,9696.697840
1058.440116,3034.844362,14709.033562,11325.150913
1058.440445,1850.514855,12257.527968,13545.768739
1058.440775,1258.350101,4596.572988,16062.468941
1058.441105,-2146.597232,-995.924147,14137.933492
1058.441434,-6809.894666,-2068.457845,11399.171507
1058.441764,-10140.821405,-4903.011187,9770.718434
1058.442093,-11029.068536,-5362.668486,10658.965565
1058.442423,-8660.409521,-3753.867940,7254.018232
1058.442753,-1480.411884,-5898.935335,1998.556043
1058.443082,6587.832884,-7201.297681,-888.247130
1058.443412,9474.636058,-995.924147,1554.432478
1058.443741,6957.935855,5669.106685,7031.956449
1058.444071,3701.029710,9882.631924,11917.315666
1058.444401,-296.082377,14325.985813,14359.995275
1058.444730,-1998.556043,12640.575717,16284.530724
1058.445060,-2960.823768,4136.915689,18949.272115
1058.445389,-5773.606348,-2298.286494,17172.777854
1058.445719,-9548.656652,-4903.011187,11843.295072
1058.446049,-11251.130318,-7890.783629,7031.956449
1058.446378,-8734.430116,-8427.050478,6143.709319
1058.446708,-3849.070898,-6588.421283,7031.956449
1058.447038,1628.453072,-5898.935335,5329.482782
1058.447367,5033.400406,-2987.772442,4515.256246
1058.447697,6809.894666,3140.991542,5107.421000
1058.448026,7105.977043,6818.249932,8364.327145
1058.448356,5995.668130,10648.727422,12361.439231
1058.448686,2664.741391,13330.061665,16210.510130
1058.449015,592.164754,8273.831378,18209.066173
1058.449345,-2072.576638,1991.848295,17098.757260
1058.449674,-6883.915261,-536.266849,14137.933492
1058.450004,-9992.780217,-3753.867940,11177.109724
1058.450334,-10066.800811,-8886.707777,9474.636058
1058.450663,-7179.997637,-7354.516781,6809.894666
1058.450993,-3330.926739,-4673.182538,1924.535449
1058.451322,2368.659014,-5745.716235,-1258.350101
1058.451652,6439.791695,-1685.410096,1554.432478
1058.451982,8142.265362,5209.449386,6217.729913
1058.452311,6365.771101,9652.803275,9030.512492
1058.452641,3404.947333,13100.233016,10658.965565
1058.452971,1332.370696,12640.575717,13915.871710
1058.453300,518.144159,7660.954980,16654.633695
1058.453630,-2220.617826,689.485948,14878.139434
1058.453959,-5329.482782,-2681.334243,11695.253884
1058.454289,-7254.018232,-5515.887586,9252.574275
1058.454619,-8438.347739,-7660.954980,9622.677246
1058.454948,-7550.100608,-4519.963438,10881.027347
1058.455278,-3108.864956,-3983.696590,4071.132681
1058.455607,3775.050304,-2757.943793,-2146.597232
1058.455937,9770.718434,-2145.067394,-962.267725
1058.456267,11473.192101,2068.457845,5921.647536
1058.456596,6217.729913,9499.584175,11029.068536
1058.456926,0.000000,13406.671215,13101.645173
1058.457255,-2886.803174,11644.651570,16062.468941
1058.457585,-3701.029710,7660.954980,20133.601622
1058.457915,-6291.750507,1149.143247,19023.292709
1058.458244,-8734.430116,-7201.297681,13249.686362
1058.458574,-10881.027347,-10801.946522,7179.997637
1058.458903,-11029.068536,-7507.735880,5107.421000
1058.459233,-7105.977043,-6281.983084,7328.038826
1058.459563,-1258.350101,-6741.640382,6883.915261
1058.459892,3034.844362,-2987.772442,5625.565159
1058.460222,5255.462188,536.266849,4737.318029
1058.460552,6587.832884,5439.278036,6587.832884
1058.460881,6661.853478,9039.926876,9696.697840
1058.461211,4219.173869,12180.918418,15174.221811
1058.461540,1850.514855,12717.185267,16210.510130
1058.461870,-296.082377,6281.983084,15692.365970
1058.462200,-3404.947333,-1225.752797,14878.139434
1058.462529,-8512.368333,-3294.210641,13101.645173
1058.462859,-12731.542202,-6281.983084,10881.027347
1058.463188,-11399.171507,-7890.783629,8956.491898
1058.463518,-6735.874072,-5898.935335,6069.688724
1058.463848,-592.164754,-4596.572988,1480.411884
1058.464177,4885.359217,-5439.278036,370.102971
1058.464507,7105.977043,-1838.629195,2960.823768
1058.464836,6069.688724,7354.516781,7698.141797
1058.465166,3478.967927,12104.308868,12065.356855
1058.465496,518.144159,13789.718964,15100.201217
1058.465825,-1850.514855,12257.527968,16062.468941
1058.466155,-3775.050304,4519.963438,14878.139434
1058.466484,-5107.421000,-1991.848295,11991.336260
1058.466814,-6661.853478,-3370.820191,8734.430116
1058.467144,-7476.080014,-5515.887586,6809.894666
1058.467473,-7402.059420,-6435.202183,4441.235652
1058.467803,-4737.318029,-5286.058936,3108.864956
1058.468133,1628.453072,-5132.839837,2812.782580
1058.468462,5847.626942,-1685.410096,4515.256246
1058.468792,5477.523971,5132.839837,5921.647536
1058.469121,2960.823768,8733.488677,7698.141797
1058.469451,1406.391290,10572.117872,11177.109724
1058.469781,-296.082377,11644.651570,17394.839637
1058.470110,-2368.659014,7354.516781,21539.992912
1058.470440,-6809.894666,2528.115143,18283.086767
1058.470769,-11769.274478,229.828649,11843.295072
1058.471099,-13027.624579,-6818.249932,7402.059420
1058.471429,-11473.192101,-10648.727422,6883.915261
1058.471758,-8438.347739,-7660.954980,6069.688724
1058.472088,-3552.988522,-6358.592633,4589.276840
1058.472417,814.226536,-6588.421283,3404.947333
1058.472747,2072.576638,1225.752797,5255.462188
1058.473077,3404.947333,7124.688131,6587.832884
1058.473406,4441.235652,7277.907231,8882.471304
1058.473736,2072.576638,9652.803275,13249.686362
1058.474065,-1850.514855,13023.623466,17616.901420
1058.474395,-4293.194464,8580.269578,19023.292709
1058.474725,-7772.162391,3447.429741,16432.571912
1058.475054,-11103.089130,536.266849,12731.542202
1058.475384,-10732.986159,-6052.154434,8956.491898
1058.475714,-8364.327145,-11414.822920,6513.812290
1058.476043,-7698.141797,-10725.336972,6513.812290
1058.476373,-8290.306550,-5132.839837,6143.709319
1058.476702,-6883.915261,-1149.143247,5995.668130
1058.477032,-2738.761985,1302.362347,6365.771101
1058.477362,1184.329507,4060.306139,7105.977043
1058.477691,3627.009116,6435.202183,7994.224174
1058.478021,3701.029710,7890.783629,8882.471304
1058.478350,1332.370696,7354.516781,11399.171507
1058.478680,-2442.679609,6435.202183,12287.418637
1058.479010,-5847.626942,4826.401637,11843.295072
1058.479339,-7179.997637,1072.533697,10658.965565
1058.479669,-6735.874072,-2528.115143,9104.533087
1058.479998,-6217.729913,-4213.525239,7698.141797
1058.480328,-4885.359217,-4443.353888,6513.812290
1058.480658,-3330.926739,-4290.134789,6069.688724
1058.480987,-2442.679609,-1685.410096,7105.977043
1058.481317,-3034.844362,2757.943793,8734.430116
1058.481647,-4293.194464,5209.449386,10436.903782
1058.481976,-4737.318029,5975.544884,11177.109724
1058.482306,-4589.276840,5362.668486,11325.150913
1058.482635,-4219.173869,3983.696590,10881.027347
1058.482965,-3923.091493,1532.190996,10214.842000
1058.483295,-3404.947333,-1991.848295,9548.656652
1058.483624,-6069.688724,-3064.381992,9622.677246
1058.483954,-8512.368333,-1991.848295,8216.285956
1058.484283,-7920.203579,-1608.800546,7772.162391
1058.484613,-5107.421000,-842.705048,8734.430116
1058.484943,-3182.885551,153.219100,9326.594869
1058.485272,-1628.453072,1378.971896,9252.574275
1058.485602,0.000000,2068.457845,9104.533087
1058.485931,1184.329507,2987.772442,9770.718434
1058.486261,-148.041188,4366.744339,11251.130318
1058.486591,-2738.761985,4519.963438,12287.418637
1058.486920,-5699.585753,2528.115143,12583.501014
1058.487250,-8438.347739,1072.533697,12805.562797
1058.487579,-9104.533087,-536.266849,12583.501014
1058.487909,-7920.203579,-1532.190996,11251.130318
1058.488239,-6069.688724,-2681.334243,8438.347739
1058.488568,-4737.318029,-4213.525239,5033.400406
1058.488898,-2812.782580,-3140.991542,4293.194464
1058.489228,-740.205942,0.000000,5625.565159
1058.489557,888.247130,2604.724693,8142.265362
1058.489887,0.000000,4366.744339,9844.739029
1058.490216,-3478.967927,5975.544884,10881.027347
1058.490546,-5995.668130,5669.106685,11769.274478
1058.490876,-6957.935855,3677.258390,12805.562797
1058.491205,-6883.915261,1762.019645,12287.418637
1058.491535,-6143.709319,459.657299,9844.739029
1058.491864,-4293.194464,-2451.505594,7772.162391
1058.492194,-2368.659014,-4519.963438,6587.832884
1058.492524,-1036.288319,-2834.553343,6291.750507
1058.492853,0.000000,0.000000,6957.935855
1058.493183,148.041188,2681.334243,8142.265362
1058.493512,-592.164754,3907.087040,9844.739029
1058.493842,-2738.761985,5056.230287,10955.047942
1058.494172,-5329.482782,4673.182538,12139.377449
1058.494501,-6883.915261,2987.772442,12879.583391
1058.494831,-7772.162391,1685.410096,11991.336260
1058.495160,-7105.977043,0.000000,10066.800811
1058.495490,-4737.318029,-2451.505594,8068.244768
1058.495820,-3330.926739,-4596.572988,6143.709319
1058.496149,-1850.514855,-3907.087040,5403.503377
1058.496479,-148.041188,-919.314598,5847.626942
1058.496809,814.226536,2145.067394,6809.894666
1058.497138,148.041188,4673.182538,8882.471304
1058.497468,-2220.617826,5209.449386,11029.068536
1058.497797,-4885.359217,6281.983084,13027.624579
1058.498127,-7402.059420,5056.230287,13915.871710
1058.498457,-9030.512492,2451.505594,14285.974681
1058.498786,-9474.636058,459.657299,13323.706956
1058.499116,-9178.553681,-2145.067394,10732.986159
1058.499445,-6883.915261,-4826.401637,8068.244768
1058.499775,-3034.844362,-5745.716235,6143.709319
1058.500105,74.020594,-3140.991542,5921.647536
1058.500434,1924.535449,612.876398,6143.709319
1058.500764,2368.659014,3294.210641,7179.997637
1058.501093,1110.308913,5132.839837,9104.533087
1058.501423,-740.205942,7814.174080,10658.965565
1058.501753,-2960.823768,7201.297681,11769.274478
1058.502082,-5255.462188,3753.867940,13249.686362
1058.502412,-7846.182985,-229.828649,14063.912898
1058.502741,-10066.800811,-995.924147,12953.603985
1058.503071,-10807.006753,-2757.943793,11029.068536
1058.503401,-8882.471304,-4443.353888,7624.121203
1058.503730,-5033.400406,-5209.449386,5625.565159
1058.504060,-1554.432478,-3677.258390,4293.194464
1058.504390,888.247130,-919.314598,4737.318029
1058.504719,1702.473667,2604.724693,6291.750507
1058.505049,296.082377,6741.640382,8142.265362
1058.505378,-1776.494261,8733.488677,10140.821405
1058.505708,-3923.091493,7814.174080,11991.336260
1058.506038,-6291.750507,4060.306139,12953.603985
1058.506367,-8438.347739,919.314598,12361.439231
1058.506697,-9770.718434,-1378.971896,11177.109724
1058.507026,-9696.697840,-4596.572988,10362.883188
1058.507356,-7920.203579,-6511.811733,9030.512492
1058.507686,-5181.441594,-5439.278036,7624.121203
1058.508015,-2294.638420,-3217.601092,6143.709319
1058.508345,1110.308913,-459.657299,5995.668130
1058.508674,2960.823768,2374.896044,7402.059420
1058.509004,3182.885551,5286.058936,9622.677246
1058.509334,2072.576638,7967.393179,11325.150913
1058.509663,-1258.350101,6665.030833,12657.521608
1058.509993,-4515.256246,4060.306139,14359.995275
1058.510323,-7328.038826,1685.410096,14952.160028
1058.510652,-9844.739029,-153.219100,13619.789333
1058.510982,-10066.800811,-3217.601092,10436.903782
1058.511311,-7994.224174,-5439.278036,7031.956449
1058.511641,-4367.215058,-5975.544884,5625.565159
1058.511971,-1702.473667,-3907.087040,5551.544565
1058.512300,296.082377,-995.924147,5995.668130
1058.512630,0.000000,3983.696590,6883.915261
1058.512959,-888.247130,8273.831378,8586.388927
1058.513289,-1776.494261,9422.974625,10584.944971
1058.513619,-3256.906145,7890.783629,12361.439231
1058.513948,-5033.400406,5669.106685,12953.603985
1058.514278,-6513.812290,2298.286494,12435.459826
1058.514607,-7031.956449,-842.705048,12287.418637
1058.514937,-8290.306550,-2145.067394,10955.047942
1058.515267,-7846.182985,-3140.991542,9474.636058
1058.515596,-5551.544565,-2604.724693,7698.141797
1058.515926,-2220.617826,-229.828649,6365.771101
1058.516255,1036.288319,1378.971896,5847.626942
1058.516585,2220.617826,3447.429741,6513.812290
1058.516915,1776.494261,5745.716235,7550.100608
1058.517244,74.020594,7507.735880,9326.594869
1058.517574,-1480.411884,7354.516781,10881.027347
1058.517904,-2960.823768,5669.106685,11917.315666
1058.518233,-4071.132681,3907.087040,11325.150913
1058.518563,-4737.318029,1072.533697,9844.739029
1058.518892,-3997.112087,-1149.143247,8956.491898
1058.519222,-2960.823768,-1762.019645,8364.327145
1058.519552,-2442.679609,-383.047749,7846.182985
1058.519881,-2368.659014,1762.019645,7994.224174
1058.520211,-2590.720797,3217.601092,8586.388927
1058.520540,-2072.576638,4596.572988,9770.718434
1058.520870,-1776.494261,6358.592633,10732.986159
1058.521200,-1776.494261,6665.030833,11325.150913
1058.521529,-1924.535449,5439.278036,11399.171507
1058.521859,-1998.556043,4213.525239,10881.027347
1058.522188,-1776.494261,2757.943793,10510.924376
1058.522518,-1184.329507,2068.457845,9548.656652
1058.522848,-1184.329507,1455.581446,8734.430116
1058.523177,-740.205942,2298.286494,8882.471304
1058.523507,-148.041188,3447.429741,9474.636058
1058.523836,0.000000,5745.716235,10214.842000
1058.524166,-1480.411884,7354.516781,10214.842000
1058.524496,-2220.617826,7431.126331,9622.677246
1058.524825,-2664.741391,6894.859482,8882.471304
1058.525155,-2368.659014,5975.544884,8364.327145
1058.525485,-1702.473667,3524.039291,7179.997637
1058.525814,-1480.411884,1762.019645,6365.771101
1058.526144,-1332.370696,383.047749,6291.750507
1058.526473,-1850.514855,612.876398,7328.038826
1058.526803,-2664.741391,1762.019645,8438.347739
1058.527133,-3108.864956,3830.477490,9548.656652
1058.527462,-2960.823768,5132.839837,9770.718434
1058.527792,-2442.679609,6511.811733,10362.883188
1058.528121,-1628.453072,6435.202183,10362.883188
1058.528451,-518.144159,5362.668486,9696.697840
1058.528781,370.102971,4903.011187,9770.718434
1058.529110,74.020594,4596.572988,9548.656652
1058.529440,-370.102971,3907.087040,9474.636058
1058.529769,-518.144159,2757.943793,9104.533087
1058.530099,-296.082377,2145.067394,8882.471304
1058.530429,592.164754,2145.067394,9474.636058
1058.530758,888.247130,1685.410096,9918.759623
1058.531088,222.061783,2374.896044,10288.862594
1058.531417,-1110.308913,3677.258390,11029.068536
1058.531747,-2146.597232,5209.449386,11473.192101
1058.532077,-1850.514855,5669.106685,11843.295072
1058.532406,-1036.288319,5745.716235,11769.274478
1058.532736,-888.247130,4749.792088,10732.986159
1058.533065,-888.247130,4443.353888,9770.718434
1058.533395,-370.102971,4290.134789,9548.656652
1058.533725,0.000000,4749.792088,9178.553681
1058.534054,0.000000,4903.011187,7920.203579
1058.534384,-148.041188,4366.744339,7105.977043
1058.534713,74.020594,2528.115143,6217.729913
1058.535043,-148.041188,1608.800546,6365.771101
1058.535373,-518.144159,1685.410096,7328.038826
1058.535702,-2072.576638,2374.896044,9030.512492
1058.536032,-2886.803174,3447.429741,9548.656652
1058.536361,-3478.967927,3983.696590,10362.883188
1058.536691,-2590.720797,4060.306139,11177.109724
1058.537021,-1702.473667,4903.011187,11399.171507
1058.537350,-1110.308913,5592.497135,10362.883188
1058.537680,-222.061783,6052.154434,9770.718434
1058.538009,222.061783,6128.763984,9400.615463
1058.538339,592.164754,5822.325785,9178.553681
1058.538669,-148.041188,5822.325785,8438.347739
1058.538998,-888.247130,4673.182538,6809.894666
1058.539328,-740.205942,2757.943793,6143.709319
1058.539658,-740.205942,1072.533697,5699.585753
1058.539987,-1036.288319,-229.828649,6661.853478
1058.540317,-1628.453072,-612.876398,8290.306550
1058.540646,-2294.638420,612.876398,9844.739029
1058.540976,-2812.782580,2834.553343,10955.047942
1058.541306,-2220.617826,3370.820191,12435.459826
1058.541635,-1184.329507,4903.011187,13619.789333
1058.541965,-888.247130,6052.154434,14211.954086
1058.542294,-592.164754,7048.078582,13175.665768
1058.542624,0.000000,6358.592633,11547.212695
1058.542954,518.144159,5209.449386,10436.903782
1058.543283,0.000000,3600.648841,9844.739029
1058.543613,-592.164754,2911.162892,8882.471304
1058.543942,-1850.514855,2681.334243,7550.100608
1058.544272,-1924.535449,2068.457845,7031.956449
1058.544602,-1110.308913,689.485948,7105.977043
1058.544931,-296.082377,919.314598,8142.265362
1058.545261,148.041188,2145.067394,9474.636058
1058.545590,0.000000,3217.601092,9992.780217
1058.545920,-518.144159,4749.792088,10584.944971
1058.546250,-962.267725,6281.983084,11251.130318
1058.546579,-1480.411884,7124.688131,12435.459826
1058.546909,-1258.350101,6435.202183,12657.521608
1058.547238,-1998.556043,6894.859482,12139.377449
1058.547568,-3034.844362,6818.249932,10288.862594
1058.547898,-3404.947333,6052.154434,7254.018232
1058.548227,-1554.432478,3907.087040,4441.235652
1058.548557,1184.329507,2221.676944,3478.967927
1058.548886,3552.988522,1532.190996,3478.967927
1058.549216,3256.906145,2145.067394,3849.070898
1058.549546,1332.370696,2987.772442,5403.503377
1058.549875,-1258.350101,4749.792088,7994.224174
1058.550205,-3997.112087,5822.325785,11769.274478
1058.550534,-4737.318029,7354.516781,15322.262999
1058.550864,-5181.441594,6818.249932,15396.283594
1058.551194,-5477.523971,5439.278036,14063.912898
1058.551523,-5033.400406,3907.087040,11843.295072
1058.551853,-3404.947333,3064.381992,9696.697840
1058.552182,-814.226536,2451.505594,8586.388927
1058.552512,2072.576638,2374.896044,6217.729913
1058.552842,4589.276840,2757.943793,4885.359217
1058.553171,5551.544565,2987.772442,5181.441594
1058.553501,4219.173869,4443.353888,6883.915261
1058.553830,1406.391290,6281.983084,9844.739029
1058.554160,-2664.741391,8963.317327,13027.624579
1058.554490,-5181.441594,9346.365076,14508.036463
1058.554819,-4811.338623,6435.202183,14582.057057
1058.555149,-3627.009116,2757.943793,13471.748144
1058.555479,-1924.535449,-383.047749,9992.780217
1058.555808,-1258.350101,-1072.533697,6883.915261
1058.556138,-592.164754,0.000000,6069.688724
1058.556467,0.000000,1915.238745,8068.244768
1058.556797,-666.185348,4749.792088,8512.368333
1058.557127,-888.247130,6052.154434,7698.141797
1058.557456,-444.123565,4136.915689,5847.626942
1058.557786,370.102971,2221.676944,6735.874072
1058.558115,74.020594,2298.286494,9844.739029
1058.558445,-1406.391290,4213.525239,12583.501014
1058.558775,-2960.823768,5745.716235,13545.768739
1058.559104,-3627.009116,5975.544884,13175.665768
1058.559434,-3034.844362,5286.058936,11843.295072
1058.559763,-1924.535449,3600.648841,9252.574275
1058.560093,222.061783,1915.238745,6513.812290
1058.560423,2442.679609,459.657299,4811.338623
1058.560752,2960.823768,383.047749,4663.297435
1058.561082,2220.617826,1762.019645,5921.647536
1058.561411,740.205942,2987.772442,8290.306550
1058.561741,-1258.350101,4673.182538,11103.089130
1058.562071,-3034.844362,5132.839837,12361.439231
1058.562400,-2886.803174,4903.011187,12361.439231
1058.562730,-2220.617826,2528.115143,12287.418637
1058.563059,-1406.391290,919.314598,12435.459826
1058.563389,-2072.576638,1915.238745,12065.356855
1058.563719,-2368.659014,3600.648841,10807.006753
1058.564048,-1480.411884,4443.353888,9474.636058
1058.564378,-1036.288319,5209.449386,8734.430116
1058.564707,-148.041188,5822.325785,7846.182985
1058.565037,1776.494261,3983.696590,6291.750507
1058.565367,3034.844362,995.924147,4737.318029
1058.565696,1998.556043,1455.581446,5551.544565
1058.566026,0.000000,3064.381992,8734.430116
1058.566355,-1924.535449,3677.258390,12509.480420
1058.566685,-4145.153275,4826.401637,14137.933492
1058.567015,-5625.565159,5209.449386,13397.727550
1058.567344,-4441.235652,3753.867940,12139.377449
1058.567674,-2442.679609,919.314598,11843.295072
1058.568003,-1998.556043,612.876398,10214.842000
1058.568333,-2072.576638,1991.848295,8512.368333
1058.568663,-1998.556043,3830.477490,6809.894666
1058.568992,-740.205942,4673.182538,6143.709319
1058.569322,740.205942,4673.182538,6069.688724
1058.569652,1776.494261,3907.087040,6069.688724
1058.569981,2442.679609,3600.648841,5551.544565
1058.570311,2516.700203,3753.867940,5699.585753
1058.570640,2294.638420,2451.505594,7920.203579
1058.570970,666.185348,2221.676944,11621.233289
1058.571300,-3256.906145,3447.429741,13323.706956
1058.571629,-5033.400406,3677.258390,13101.645173
1058.571959,-4515.256246,1378.971896,12139.377449
1058.572288,-3256.906145,-229.828649,11547.212695
1058.572618,-2516.700203,-842.705048,10140.821405
1058.572948,-1406.391290,-1455.581446,8142.265362
1058.573277,-2146.597232,-1762.019645,5921.647536
1058.573607,-1628.453072,0.000000,4811.338623
1058.573936,888.247130,306.438199,6661.853478
1058.574266,2886.803174,383.047749,8808.450710
1058.574596,2294.638420,2221.676944,9178.553681
1058.574925,1850.514855,2451.505594,10066.800811
1058.575255,2072.576638,612.876398,11843.295072
1058.575584,74.020594,766.095498,14508.036463
1058.575914,-3034.844362,2528.115143,16062.468941
1058.576244,-3997.112087,689.485948,15914.427753
1058.576573,-3849.070898,-919.314598,13693.809927
1058.576903,-3849.070898,-1455.581446,12287.418637
1058.577232,-3404.947333,-1762.019645,9770.718434
1058.577562,-1924.535449,-2604.724693,6513.812290
1058.577892,666.185348,-2757.943793,3775.050304
1058.578221,4219.173869,-1915.238745,3108.864956
1058.578551,5033.400406,-919.314598,4367.215058
1058.578880,3627.009116,2145.067394,5699.585753
1058.579210,1628.453072,3524.039291,8142.265362
1058.579540,74.020594,2757.943793,11695.253884
1058.579869,-1924.535449,4596.572988,14137.933492
1058.580199,-3108.864956,4136.915689,15248.242405
1058.580528,-4515.256246,229.828649,14137.933492
1058.580858,-6217.729913,-2145.067394,12509.480420
1058.581188,-7031.956449,-1225.752797,10584.944971
1058.581517,-5847.626942,-1072.533697,8734.430116
1058.581847,-3849.070898,-1072.533697,7698.141797
1058.582176,-2146.597232,153.219100,5847.626942
1058.582506,888.247130,-306.438199,4367.215058
1058.582836,3108.864956,-842.705048,3701.029710
1058.583165,3182.885551,1608.800546,4811.338623
1058.583495,2368.659014,3447.429741,7994.224174
1058.583824,1184.329507,4979.620737,12139.377449
1058.584154,-592.164754,5822.325785,14730.098246
1058.584484,-2146.597232,4290.134789,15396.283594
1058.584813,-2590.720797,1455.581446,14656.077652
1058.585143,-3701.029710,0.000000,13027.624579
1058.585473,-4441.235652,306.438199,11547.212695
1058.585802,-3775.050304,-842.705048,9844.739029
1058.586132,-2590.720797,-1455.581446,6661.853478
1058.586461,-814.226536,-1532.190996,4737.318029
1058.586791,1406.391290,-1378.971896,3701.029710
1058.587121,2886.803174,1225.752797,4219.173869
1058.587450,3478.967927,3140.991542,5477.523971
1058.587780,2960.823768,3447.429741,7402.059420
1058.588109,1776.494261,2757.943793,10510.924376
1058.588439,-592.164754,3294.210641,13915.871710
1058.588769,-3182.885551,3830.477490,16136.489536
1058.589098,-5107.421000,2451.505594,15840.407159
1058.589428,-5995.668130,1149.143247,14730.098246
1058.589757,-5181.441594,-383.047749,12657.521608
1058.590087,-3923.091493,-1915.238745,8956.491898
1058.590417,-2146.597232,-2451.505594,5921.647536
1058.590746,1332.370696,-2145.067394,3330.926739
1058.591076,4885.359217,-2528.115143,2294.638420
1058.591405,6217.729913,-766.095498,3552.988522
1058.591735,5403.503377,2374.896044,6439.791695
1058.592065,3627.009116,5132.839837,10510.924376
1058.592394,1406.391290,5898.935335,12879.583391
1058.592724,-740.205942,6358.592633,15174.221811
1058.593053,-2146.597232,3753.867940,16284.530724
1058.593383,-3849.070898,842.705048,16062.468941
1058.593713,-5551.544565,-459.657299,14211.954086
1058.594042,-6883.915261,-1225.752797,11029.068536
1058.594372,-7179.997637,-2604.724693,7994.224174
1058.594701,-5255.462188,-1455.581446,5181.441594
1058.595031,-740.205942,-1608.800546,3182.885551
1058.595361,3923.091493,-3600.648841,1998.556043
1058.595690,4885.359217,-1915.238745,888.247130
1058.596020,3404.947333,2298.286494,3478.967927
1058.596349,666.185348,4519.963438,7920.203579
1058.596679,-1776.494261,6818.249932,12731.542202
1058.597009,-2664.741391,6741.640382,16654.633695
1058.597338,-3552.988522,2987.772442,17098.757260
1058.597668,-5847.626942,-612.876398,14878.139434
1058.597997,-7402.059420,-2221.676944,12213.398043
1058.598327,-6587.832884,-4060.306139,10140.821405
1058.598657,-4737.318029,-3677.258390,7624.121203
1058.598986,-2442.679609,-1915.238745,5033.400406
1058.599316,1258.350101,-2681.334243,3849.070898
1058.599646,4145.153275,-2528.115143,3552.988522
1058.599975,5181.441594,459.657299,4219.173869
1058.600305,5329.482782,3140.991542,6735.874072
1058.600634,4515.256246,4749.792088,11325.150913
1058.600964,2146.597232,5056.230287,15322.262999
1058.601294,-1258.350101,5132.839837,18209.066173
1058.601623,-3923.091493,2757.943793,18357.107362
1058.601953,-6217.729913,612.876398,16728.654289
1058.602282,-6883.915261,-689.485948,14137.933492
1058.602612,-5921.647536,-3677.258390,10436.903782
1058.602942,-3627.009116,-4673.182538,6883.915261
1058.603271,-888.247130,-4290.134789,3552.988522
1058.603601,2960.823768,-3830.477490,2220.617826
1058.603930,5329.482782,-1532.190996,2072.576638
1058.604260,5625.565159,2604.724693,3701.029710
1058.604590,5107.421000,5515.887586,7846.182985
1058.604919,2664.741391,6358.592633,12361.439231
1058.605249,-444.123565,7354.516781,15248.242405
1058.605578,-2368.659014,6052.154434,16580.613101
1058.605908,-3997.112087,2451.505594,16062.468941
1058.606238,-5995.668130,0.000000,14285.974681
1058.606567,-7254.018232,-1455.581446,12361.439231
1058.606897,-7624.121203,-2834.553343,9178.553681
1058.607226,-5921.647536,-2221.676944,5255.462188
1058.607556,-1258.350101,-1838.629195,1702.473667
1058.607886,4737.318029,-2834.553343,148.041188
1058.608215,7772.162391,-1762.019645,444.123565
1058.608545,6587.832884,2834.553343,2220.617826
1058.608874,3108.864956,5515.887586,5551.544565
1058.609204,0.000000,7584.345430,11251.130318
1058.609534,-2146.597232,7890.783629,16432.571912
1058.609863,-3552.988522,6205.373534,19023.292709
1058.610193,-6291.750507,1225.752797,17320.819043
1058.610522,-7846.182985,-1991.848295,13545.768739
1058.610852,-7772.162391,-3753.867940,10807.006753
1058.611182,-6809.894666,-4519.963438,8364.327145
1058.611511,-4737.318029,-3907.087040,4811.338623
1058.611841,-814.226536,-4290.134789,3627.009116
1058.612170,3775.050304,-3524.039291,3552.988522
1058.612500,5329.482782,536.266849,3701.029710
1058.612830,5181.441594,3600.648841,5033.400406
1058.613159,5033.400406,4749.792088,8216.285956
1058.613489,3034.844362,5592.497135,13767.830521
1058.613819,296.082377,7048.078582,18357.107362
1058.614148,-3108.864956,4749.792088,19319.375086
1058.614478,-5921.647536,0.000000,17468.860231
1058.614807,-7624.121203,-1838.629195,14656.077652
1058.615137,-7624.121203,-4673.182538,12657.521608
1058.615467,-5773.606348,-5592.497135,9400.615463
1058.615796,-3256.906145,-5209.449386,4811.338623
1058.616126,370.102971,-5132.839837,1406.391290
1058.616455,4737.318029,-4519.963438,740.205942
1058.616785,6957.935855,0.000000,4219.173869
1058.617115,6439.791695,4519.963438,7624.121203
1058.617444,3701.029710,7277.907231,10807.006753
1058.617774,518.144159,8503.660028,14434.015869
1058.618103,-888.247130,7507.735880,17912.983796
1058.618433,-2294.638420,4213.525239,19245.354492
1058.618763,-4959.379811,459.657299,16950.716072
1058.619092,-7550.100608,-842.705048,12805.562797
1058.619422,-7698.141797,-3370.820191,9400.615463
1058.619751,-6069.688724,-4060.306139,6439.791695
1058.620081,-3552.988522,-3524.039291,2886.803174
1058.620411,1554.432478,-4519.963438,518.144159
1058.620740,4959.379811,-2451.505594,-0.000000
1058.621070,5551.544565,1838.629195,1628.453072
1058.621399,3701.029710,5898.935335,5181.441594
1058.621729,1332.370696,7584.345430,9622.677246
1058.622059,-518.144159,7814.174080,14508.036463
1058.622388,-2664.741391,7431.126331,17394.839637
1058.622718,-5329.482782,3753.867940,17468.860231
1058.623047,-7105.977043,0.000000,14878.139434
1058.623377,-7772.162391,-2451.505594,11621.233289
1058.623707,-7328.038826,-5669.106685,8364.327145
1058.624036,-4811.338623,-4136.915689,5625.565159
1058.624366,-1406.391290,-3294.210641,3108.864956
1058.624695,3034.844362,-3677.258390,1776.494261
1058.625025,5625.565159,-1302.362347,2664.741391
1058.625355,6143.709319,2604.724693,4663.297435
1058.625684,5551.544565,6052.154434,8142.265362
1058.626014,3478.967927,6358.592633,11843.295072
1058.626344,1110.308913,5975.544884,16432.571912
1058.626673,-1924.535449,4213.525239,19615.457463
1058.627003,-4885.359217,1378.971896,19319.375086
1058.627332,-7624.121203,0.000000,16210.510130
1058.627662,-8364.327145,-2757.943793,13249.686362
1058.627992,-6513.812290,-5515.887586,10955.047942
1058.628321,-4441.235652,-5209.449386,6069.688724
1058.628651,-666.185348,-5056.230287,2368.659014
1058.628980,5329.482782,-4749.792088,518.144159
1058.629310,8068.244768,-1302.362347,1776.494261
1058.629640,7402.059420,2987.772442,5255.462188
1058.629969,4885.359217,6588.421283,9400.615463
1058.630299,1480.411884,8580.269578,13175.665768
1058.630628,222.061783,8350.440928,16654.633695
1058.630958,-1554.432478,5439.278036,19023.292709
1058.631288,-4367.215058,1685.410096,17764.942608
1058.631617,-6735.874072,-1072.533697,14285.974681
1058.631947,-8512.368333,-3064.381992,10807.006753
1058.632277,-7846.182985,-3524.039291,7994.224174
1058.632606,-6217.729913,-2911.162892,5625.565159
1058.632936,-1110.308913,-2757.943793,1998.556043
1058.633265,4293.194464,-3140.991542,-1332.370696
1058.633595,7402.059420,-2451.505594,-1184.329507
1058.633925,6957.935855,2221.676944,2368.659014
1058.634254,3404.947333,6971.469032,7031.956449
1058.634584,-222.061783,9652.803275,12731.542202
1058.634913,-1924.535449,9882.631924,17542.880825
1058.635243,-3404.947333,7048.078582,19393.395680
1058.635573,-5403.503377,1762.019645,17838.963202
1058.635902,-7402.059420,-2068.457845,13323.706956
1058.636232,-8290.306550,-3217.601092,9474.636058
1058.636561,-6883.915261,-3524.039291,6809.894666
1058.636891,-3330.926739,-3447.429741,4811.338623
1058.637221,1332.370696,-3447.429741,3552.988522
1058.637550,4071.132681,-2374.896044,2072.576638
1058.637880,4663.297435,306.438199,2368.659014
1058.638210,4663.297435,3447.429741,5107.421000
1058.638539,3182.885551,5592.497135,11029.068536
1058.638869,296.082377,7660.954980,16062.468941
1058.639198,-2516.700203,7201.297681,18357.107362
1058.639528,-4515.256246,2757.943793,17987.004391
1058.639858,-6217.729913,-459.657299,16654.633695
1058.640187,-7254.018232,-1378.971896,13545.768739
1058.640517,-6661.853478,-3524.039291,10066.800811
1058.640846,-3849.070898,-5669.106685,5773.606348
1058.641176,148.041188,-4290.134789,2516.700203
1058.641506,4441.235652,-4596.572988,1924.535449
1058.641835,6883.915261,-2221.676944,2590.720797
1058.642165,6291.750507,2528.115143,4737.318029
1058.642495,4737.318029,5975.544884,8586.388927
1058.642824,2738.761985,7660.954980,14063.912898
1058.643154,148.041188,8810.098227,17912.983796
1058.643483,-2368.659014,7354.516781,18949.272115
1058.643813,-3997.112087,1455.581446,16802.674883
1058.644143,-5625.565159,-1915.238745,14211.954086
1058.644472,-7698.141797,-2374.896044,11917.315666
1058.644802,-7550.100608,-3600.648841,10066.800811
1058.645131,-7179.997637,-2604.724693,6439.791695
1058.645461,-2812.782580,-3140.991542,2146.597232
1058.645791,4219.173869,-3294.210641,-370.102971
1058.646120,8808.450710,-2987.772442,-518.144159
1058.646450,7698.141797,2068.457845,1998.556043
1058.646779,3330.926739,6818.249932,5699.585753
1058.647109,-222.061783,9499.584175,11103.089130
1058.647439,-1406.391290,10955.165621,17024.736666
1058.647768,-2368.659014,8580.269578,19467.416275
1058.648098,-4515.256246,2834.553343,17838.963202
1058.648428,-6069.688724,-2451.505594,12731.542202
1058.648757,-7846.182985,-3677.258390,9844.739029
1058.649087,-7846.182985,-2298.286494,8142.265362
1058.649416,-6291.750507,-2374.896044,5625.565159
1058.649746,-1406.391290,-3524.039291,3256.906145
1058.650076,4367.215058,-3064.381992,1406.391290
1058.650405,5847.626942,-1608.800546,1998.556043
1058.650735,4885.359217,2298.286494,3330.926739
1058.651064,2368.659014,4519.963438,7105.977043
1058.651394,74.020594,6435.202183,13989.892304
1058.651724,-2368.659014,9652.803275,19245.354492
1058.652053,-3552.988522,6511.811733,21021.848753
1058.652383,-5181.441594,536.266849,18505.148550
1058.652712,-7179.997637,-2451.505594,13545.768739
1058.653042,-7698.141797,-3830.477490,10214.842000
1058.653372,-4737.318029,-4290.134789,8142.265362
1058.653701,-1850.514855,-4213.525239,6069.688724
1058.654031,2220.617826,-2528.115143,3923.091493
1058.654361,4663.297435,-2374.896044,2664.741391
1058.654690,5995.668130,-919.314598,3404.947333
1058.655020,5477.523971,3907.087040,7402.059420
1058.655349,2886.803174,6665.030833,12213.398043
1058.655679,-444.123565,8810.098227,16210.510130
1058.656009,-1702.473667,7660.954980,18431.127956
1058.656338,-2516.700203,3217.601092,17838.963202
1058.656668,-4589.276840,0.000000,14285.974681
1058.656997,-6735.874072,-1915.238745,11103.089130
1058.657327,-6735.874072,-2757.943793,9104.533087
1058.657657,-5995.668130,-2221.676944,6513.812290
1058.657986,-2664.741391,-766.095498,3108.864956
1058.658316,2738.761985,-1838.629195,444.123565
1058.658645,6809.894666,-2757.943793,-1332.370696
1058.658975,6735.874072,459.657299,1258.350101
1058.659305,3627.009116,4673.182538,5551.544565
1058.659634,0.000000,7890.783629,10955.047942
1058.659964,-2368.659014,9806.022374,16136.489536
1058.660294,-2960.823768,8044.002729,18801.230927
1058.660623,-4293.194464,3907.087040,17764.942608
1058.660953,-5477.523971,-153.219100,13989.892304
1058.661282,-6735.874072,-2681.334243,10955.047942
1058.661612,-7105.977043,-2681.334243,8882.471304
1058.661942,-6365.771101,-1225.752797,7105.977043
1058.662271,-2220.617826,-536.266849,3775.050304
1058.662601,3552.988522,-2451.505594,1332.370696
1058.662930,6439.791695,-2911.162892,148.041188
1058.663260,6439.791695,689.485948,2220.617826
1058.663590,3849.070898,3753.867940,6069.688724
1058.663919,1258.350101,7124.688131,12139.377449
1058.664249,-1702.473667,9269.755526,17912.983796
1058.664578,-3330.926739,6894.859482,20503.704593
1058.664908,-4293.194464,1915.238745,19245.354492
1058.665238,-6217.729913,-1608.800546,15026.180623
1058.665567,-6883.915261,-2298.286494,10807.006753
1058.665897,-5107.421000,-4366.744339,7772.162391
1058.666227,-2812.782580,-4136.915689,6217.729913
1058.666556,222.061783,-2374.896044,4663.297435
1058.666886,2960.823768,-2528.115143,2146.597232
1058.667215,4663.297435,-2221.676944,1998.556043
1058.667545,5033.400406,1455.581446,4145.153275
1058.667875,3404.947333,3907.087040,9992.780217
1058.668204,444.123565,6281.983084,15100.201217
1058.668534,-2368.659014,6588.421283,18431.127956
1058.668863,-3256.906145,3983.696590,19245.354492
1058.669193,-5255.462188,1149.143247,16876.695478
1058.669523,-7105.977043,-459.657299,14508.036463
1058.669852,-6365.771101,-2834.553343,11547.212695
1058.670182,-4515.256246,-4060.306139,7624.121203
1058.670511,-2146.597232,-2528.115143,3849.070898
1058.670841,3034.844362,-2451.505594,1554.432478
1058.671171,6587.832884,-2757.943793,1702.473667
1058.671500,6587.832884,919.314598,1776.494261
1058.671830,4071.132681,4213.525239,4663.297435
1058.672160,1850.514855,6128.763984,9844.739029
1058.672489,-962.267725,7967.393179,14804.118840
1058.672819,-2516.700203,7354.516781,17987.004391
1058.673148,-4441.235652,3217.601092,17246.798449
1058.673478,-5995.668130,0.000000,14285.974681
1058.673808,-7105.977043,-1838.629195,11695.253884
1058.674137,-7105.977043,-2374.896044,9030.512492
1058.674467,-6661.853478,-1532.190996,6513.812290
1058.674796,-2886.803174,-1072.533697,2886.803174
1058.675126,2442.679609,-1762.019645,518.144159
1058.675456,6661.853478,-2757.943793,-518.144159
1058.675785,6291.750507,842.705048,1554.432478
1058.676115,3701.029710,3830.477490,5477.523971
1058.676444,740.205942,5822.325785,10436.903782
1058.676774,-1776.494261,8044.002729,16654.633695
1058.677104,-3182.885551,7354.516781,19763.498651
1058.677433,-4737.318029,2298.286494,18431.127956
1058.677763,-5551.544565,-2374.896044,15766.386565
1058.678093,-6143.709319,-2604.724693,12657.521608
1058.678422,-5033.400406,-1455.581446,9770.718434
1058.678752,-3478.967927,-2451.505594,6883.915261
1058.679081,-518.144159,-2145.067394,4589.276840
1058.679411,3404.947333,-2681.334243,3256.906145
1058.679741,5255.462188,-1225.752797,2738.761985
1058.680070,5847.626942,2757.943793,4663.297435
1058.680400,3849.070898,3907.087040,7698.141797
1058.680729,1406.391290,4826.401637,12953.603985
1058.681059,-1184.329507,5975.544884,17542.880825
1058.681389,-2886.803174,5132.839837,19541.436869
1058.681718,-4589.276840,1838.629195,18061.024985
1058.682048,-6661.853478,459.657299,14952.160028
1058.682378,-6957.935855,-919.314598,11843.295072
1058.682707,-5403.503377,-4060.306139,8956.491898
1058.683037,-3108.864956,-2681.334243,4663.297435
1058.683366,1036.288319,-842.705048,962.267725
1058.683696,5773.606348,-2757.943793,592.164754
1058.684026,7179.997637,0.000000,1628.453072
1058.684355,4663.297435,3907.087040,3701.029710
1058.684685,2072.576638,4903.011187,7846.182985
1058.685014,-296.082377,6511.811733,12953.603985
1058.685344,-2812.782580,8120.612279,17024.736666
1058.685674,-3478.967927,4749.792088,17690.922014
1058.686003,-4441.235652,-842.705048,15026.180623
1058.686333,-6069.688724,-2451.505594,11991.336260
1058.686662,-6957.935855,-2451.505594,9770.718434
1058.686992,-7476.080014,-1608.800546,7698.141797
1058.687322,-4589.276840,-766.095498,4737.318029
1058.687651,1110.308913,-1685.410096,2146.597232
1058.687981,5773.606348,-3983.696590,-0.000000
1058.688311,6809.894666,-1762.019645,814.226536
1058.688640,4811.338623,1302.362347,4737.318029
1058.688970,1628.453072,4903.011187,9696.697840
1058.689299,-1850.514855,7737.564530,15396.283594
1058.689629,-2738.761985,7201.297681,19615.457463
1058.689959,-3701.029710,2604.724693,19985.560434
1058.690288,-5107.421000,-1302.362347,17024.736666
1058.690618,-6587.832884,-2145.067394,13027.624579
1058.690947,-6291.750507,-2987.772442,9844.739029
1058.691277,-4219.173869,-3294.210641,7179.997637
1058.691607,-1184.329507,-2834.553343,5329.482782
1058.691936,2664.741391,-3294.210641,3034.844362
1058.692266,4589.276840,-2451.505594,1702.473667
1058.692595,5033.400406,-383.047749,3034.844362
1058.692925,3997.112087,1838.629195,6883.915261
1058.693255,1036.288319,4673.182538,12509.480420
1058.693584,-1406.391290,6741.640382,17246.798449
1058.693914,-2960.823768,4903.011187,18653.189738
1058.694244,-3404.947333,1378.971896,17542.880825
1058.694573,-4811.338623,-1225.752797,15248.242405
1058.694903,-6143.709319,-1991.848295,12583.501014
1058.695232,-5403.503377,-2757.943793,9992.780217
1058.695562,-3330.926739,-1225.752797,6957.935855
1058.695892,-296.082377,536.266849,3404.947333
1058.696221,4293.194464,-1225.752797,962.267725
1058.696551,7105.977043,-1608.800546,1554.432478
1058.696880,6291.750507,1302.362347,3404.947333
1058.697210,3404.947333,5056.230287,6957.935855
1058.697540,74.020594,7124.688131,12435.459826
1058.697869,-2516.700203,7737.564530,16506.592507
1058.698199,-3849.070898,5209.449386,17838.963202
1058.698528,-4219.173869,919.314598,15544.324782
1058.698858,-5181.441594,-1838.629195,12509.480420
1058.699188,-6513.812290,-3064.381992,10732.986159
1058.699517,-6957.935855,-536.266849,9474.636058
1058.699847,-5995.668130,2145.067394,6883.915261
1058.700177,-814.226536,1149.143247,1628.453072
1058.700506,5995.668130,-1991.848295,-740.205942
1058.700836,8882.471304,-2451.505594,-1036.288319
1058.701165,7105.977043,459.657299,2368.659014
1058.701495,2442.679609,4903.011187,7254.018232
1058.701825,-1702.473667,8273.831378,12805.562797
1058.702154,-3849.070898,8580.269578,17394.839637
1058.702484,-4293.194464,3907.087040,19763.498651
1058.702813,-5847.626942,-306.438199,18505.148550
1058.703143,-7179.997637,-2604.724693,14582.057057
1058.703473,-7994.224174,-2681.334243,11177.109724
1058.703802,-6513.812290,-2298.286494,7920.203579
1058.704132,-4145.153275,-2911.162892,5107.421000
1058.704461,666.185348,-3294.210641,4219.173869
1058.704791,4367.215058,-3217.601092,3256.906145
1058.705121,5921.647536,-1149.143247,2368.659014
1058.705450,5477.523971,1149.143247,4441.235652
1058.705780,3552.988522,2068.457845,8882.471304
1058.706110,1850.514855,3907.087040,16284.530724
1058.706439,-518.144159,5286.058936,20799.786970
1058.706769,-2812.782580,3830.477490,20651.745782
1058.707098,-4885.359217,383.047749,17838.963202
1058.707428,-6661.853478,-1762.019645,14359.995275
1058.707758,-6143.709319,-2604.724693,11843.295072
1058.708087,-3627.009116,-3140.991542,8586.388927
1058.708417,-592.164754,-2221.676944,3849.070898
1058.708746,3627.009116,-2681.334243,740.205942
1058.709076,6069.688724,-3677.258390,-0.000000
1058.709406,6587.832884,-919.314598,1702.473667
1058.709735,3701.029710,2145.067394,5625.565159
1058.710065,74.020594,5439.278036,9918.759623
1058.710394,-2886.803174,7584.345430,15026.180623
1058.710724,-4071.132681,5975.544884,18727.210333
1058.711054,-5181.441594,1838.629195,18209.066173
1058.711383,-6513.812290,-1378.971896,15174.221811
1058.711713,-7772.162391,-1685.410096,11917.315666
1058.712043,-7476.080014,-1762.019645,9474.636058
1058.712372,-6143.709319,-919.314598,6661.853478
1058.712702,-1628.453072,-459.657299,2590.720797
1058.713031,5477.523971,-1915.238745,-444.123565
1058.713361,9326.594869,-1991.848295,-222.061783
1058.713691,7920.203579,2068.457845,1554.432478
1058.714020,4145.153275,4826.401637,4663.297435
1058.714350,444.123565,5822.325785,11029.068536
1058.714679,-2294.638420,7737.564530,16950.716072
1058.715009,-3627.009116,5592.497135,20355.663405
1058.715339,-5477.523971,1762.019645,19393.395680
1058.715668,-7550.100608,-1455.581446,15692.365970
1058.715998,-8290.306550,-2374.896044,11991.336260
1058.716327,-6957.935855,-2757.943793,9696.697840
1058.716657,-4515.256246,-2757.943793,6217.729913
1058.716987,0.000000,-1072.533697,3182.885551
1058.717316,4959.379811,-1915.238745,666.185348
1058.717646,7402.059420,-2221.676944,-148.041188
1058.717976,7254.018232,1149.143247,2442.679609
1058.718305,4663.297435,3983.696590,7402.059420
1058.718635,296.082377,7124.688131,13101.645173
1058.718964,-2590.720797,8197.221829,18875.251521
1058.719294,-3849.070898,4136.915689,21095.869347
1058.719624,-5255.462188,-689.485948,18949.272115
1058.719953,-7254.018232,-3140.991542,15322.262999
1058.720283,-7476.080014,-3140.991542,12287.418637
1058.720612,-5773.606348,-3294.210641,10658.965565
1058.720942,-4145.153275,-2451.505594,5995.668130
1058.721272,296.082377,-1302.362347,1702.473667
1058.721601,6069.688724,-3524.039291,-296.082377
1058.721931,9178.553681,-1991.848295,1480.411884
1058.722261,7698.141797,2374.896044,4145.153275
1058.722590,3330.926739,4596.572988,7476.080014
1058.722920,-222.061783,6741.640382,13619.789333
1058.723249,-2516.700203,7737.564530,19689.478057
1058.723579,-3775.050304,6128.763984,21317.931130
1058.723909,-5477.523971,1378.971896,17616.901420
1058.724238,-6661.853478,-1685.410096,13471.748144
1058.724568,-6735.874072,-3677.258390,10436.903782
1058.724897,-5773.606348,-2451.505594,8364.327145
1058.725227,-4441.235652,-1072.533697,4293.194464
1058.725557,1554.432478,-766.095498,-518.144159
1058.725886,6365.771101,-2681.334243,-1406.391290
1058.726216,7772.162391,-1532.190996,-666.185348
1058.726546,5477.523971,2374.896044,3404.947333
1058.726875,1332.370696,4826.401637,7624.121203
1058.727205,-2590.720797,8810.098227,13323.706956
1058.727534,-3849.070898,8580.269578,18653.189738
1058.727864,-4441.235652,4290.134789,20577.725188
1058.728194,-6291.750507,-229.828649,17542.880825
1058.728523,-8216.285956,-1915.238745,13101.645173
1058.728853,-7624.121203,-1302.362347,9474.636058
1058.729183,-5477.523971,-1685.410096,6217.729913
1058.729512,-1850.514855,-2221.676944,3849.070898
1058.729842,2738.761985,-2451.505594,2516.700203
1058.730171,5329.482782,-2757.943793,740.205942
1058.730501,5773.606348,306.438199,1850.514855
1058.730831,4885.359217,2451.505594,5181.441594
1058.731160,2294.638420,3983.696590,11103.089130
1058.731490,-518.144159,5669.106685,17468.860231
1058.731820,-2738.761985,5669.106685,20799.786970
1058.732149,-4515.256246,2604.724693,20133.601622
1058.732479,-5625.565159,-459.657299,16432.571912
1058.732809,-6217.729913,-2374.896044,13841.851115
1058.733138,-4959.379811,-3370.820191,11843.295072
1058.733468,-3256.906145,-3064.381992,7550.100608
1058.733797,148.041188,-2681.334243,2738.761985
1058.734127,5181.441594,-3064.381992,666.185348
1058.734457,8586.388927,-2911.162892,1554.432478
1058.734786,7698.141797,2221.676944,4885.359217
1058.735116,4071.132681,6128.763984,7402.059420
1058.735446,1184.329507,6971.469032,11325.150913
1058.735775,-740.205942,7354.516781,16876.695478
1058.736105,-2664.741391,6358.592633,19911.539840
1058.736435,-4737.318029,2604.724693,18283.086767
1058.736764,-6735.874072,-1838.629195,13397.727550
1058.737094,-7846.182985,-2757.943793,10288.862594
1058.737423,-8586.388927,-2145.067394,8808.450710
1058.737753,-7476.080014,-306.438199,7328.038826
1058.738083,-2886.803174,-766.095498,2368.659014
1058.738412,2960.823768,-1915.238745,-2146.597232
1058.738742,8142.265362,-2451.505594,-2960.823768
1058.739072,9178.553681,0.000000,1406.391290
1058.739401,4589.276840,5439.278036,5477.523971
1058.739731,-1184.329507,9116.536426,10362.883188
1058.740060,-2516.700203,9269.755526,16506.592507
1058.740390,-2812.782580,8044.002729,21021.848753
1058.740720,-4885.359217,4749.792088,20503.704593
1058.741049,-7105.977043,-689.485948,15618.345376
1058.741379,-7105.977043,-3907.087040,11029.068536
1058.741709,-6587.832884,-1225.752797,7476.080014
1058.742038,-3997.112087,-919.314598,5181.441594
1058.742368,370.102971,-2911.162892,4219.173869
1058.742698,3849.070898,-2528.115143,1480.411884
1058.743027,5403.503377,-612.876398,1406.391290
1058.743357,4663.297435,1608.800546,2886.803174
1058.743686,3552.988522,2757.943793,7402.059420
1058.744016,814.226536,5286.058936,14656.077652
1058.744346,-2368.659014,6588.421283,19541.436869
1058.744675,-4441.235652,5592.497135,20799.786970
1058.745005,-5699.585753,1915.238745,17987.004391
1058.745335,-6439.791695,-1532.190996,15100.201217
1058.745664,-5773.606348,-2911.162892,11843.295072
1058.745994,-4441.235652,-3447.429741,8438.347739
1058.746324,-1184.329507,-2757.943793,4071.132681
1058.746653,3330.926739,-1762.019645,1924.535449
1058.746983,5625.565159,-2374.896044,2146.597232
1058.747312,5921.647536,689.485948,2516.700203
1058.747642,4959.379811,2911.162892,6439.791695
1058.747972,2738.761985,4903.011187,10955.047942
1058.748301,-592.164754,7201.297681,15544.324782
1058.748631,-3182.885551,6588.421283,18061.024985
1058.748961,-4515.256246,2451.505594,18283.086767
1058.749290,-5921.647536,-612.876398,15322.262999
1058.749620,-7179.997637,-1225.752797,11843.295072
1058.749949,-6587.832884,-2604.724693,9474.636058
1058.750279,-4737.318029,-2298.286494,7772.162391
1058.750609,-2072.576638,-1838.629195,2442.679609
1058.750938,2960.823768,-2451.505594,296.082377
1058.751268,7698.141797,-2604.724693,-1480.411884
1058.751598,9326.594869,-995.924147,518.144159
1058.751927,5699.585753,3753.867940,6365.771101
1058.752257,148.041188,8503.660028,11177.109724
1058.752587,-2368.659014,9882.631924,15914.427753
1058.752916,-2442.679609,7201.297681,18949.272115
1058.753246,-3849.070898,3370.820191,19097.313304
1058.753575,-6069.688724,306.438199,16136.489536
1058.753905,-7624.121203,-2528.115143,11843.295072
1058.754235,-7920.203579,-2221.676944,8290.306550
1058.754564,-7031.956449,-1608.800546,4737.318029
1058.754894,-3034.844362,-2834.553343,2738.761985
1058.755224,3108.864956,-4213.525239,1850.514855
1058.755553,4293.194464,-1991.848295,2516.700203
1058.755883,3404.947333,1302.362347,1776.494261
1058.756212,2590.720797,2451.505594,4959.379811
1058.756542,1332.370696,3983.696590,11029.068536
1058.756872,-888.247130,5669.106685,18579.169144
1058.757201,-2442.679609,6741.640382,21984.116477
1058.757531,-4071.132681,3524.039291,20355.663405
1058.757861,-5255.462188,0.000000,16654.633695
1058.758190,-5773.606348,-1838.629195,13101.645173
1058.758520,-4367.215058,-3064.381992,10288.862594
1058.758850,-1258.350101,-2604.724693,6735.874072
1058.759179,2368.659014,-1532.190996,2590.720797
1058.759509,5181.441594,-2451.505594,1850.514855
1058.759838,5181.441594,-766.095498,3108.864956
1058.760168,4885.359217,1685.410096,4663.297435
1058.760498,2886.803174,3217.601092,9252.574275
1058.760827,296.082377,6052.154434,12953.603985
1058.761157,-2368.659014,6128.763984,17024.736666
1058.761487,-3330.926739,3217.601092,18061.024985
1058.761816,-5033.400406,459.657299,16506.592507
1058.762146,-6957.935855,229.828649,13471.748144
1058.762476,-6809.894666,0.000000,10288.862594
1058.762805,-5551.544565,-1072.533697,8290.306550
1058.763135,-3849.070898,76.609550,4589.276840
1058.763464,1184.329507,-1455.581446,-814.226536
1058.763794,6513.812290,-2987.772442,-592.164754
1058.764124,8290.306550,-995.924147,-740.205942
1058.764453,5551.544565,3447.429741,3627.009116
1058.764783,962.267725,7048.078582,8142.265362
1058.765113,-1776.494261,8197.221829,13619.789333
1058.765442,-2368.659014,7507.735880,18431.127956
1058.765772,-3552.988522,5209.449386,18801.230927
1058.766101,-5477.523971,1455.581446,16506.592507
1058.766431,-6587.832884,-1915.238745,12657.521608
1058.766761,-7402.059420,-2221.676944,9770.718434
1058.767090,-6957.935855,-995.924147,7476.080014
1058.767420,-3701.029710,-1532.190996,4071.132681
1058.767750,1406.391290,-3140.991542,2738.761985
1058.768079,4663.297435,-3907.087040,740.205942
1058.768409,4663.297435,-689.485948,2072.576638
1058.768739,3256.906145,1838.629195,4589.276840
1058.769068,1998.556043,3064.381992,9474.636058
1058.769398,74.020594,5439.278036,16210.510130
1058.769727,-1702.473667,6511.811733,21614.013506
1058.770057,-3775.050304,4979.620737,21762.054695
1058.770387,-5403.503377,1149.143247,18135.045579
1058.770716,-6365.771101,-459.657299,13545.768739
1058.771046,-4589.276840,-2221.676944,9770.718434
1058.771376,-1924.535449,-2681.334243,7031.956449
1058.771705,222.061783,-3064.381992,4293.194464
1058.772035,1628.453072,-3370.820191,1406.391290
1058.772365,3627.009116,-3370.820191,518.144159
1058.772694,3701.029710,-153.219100,3182.885551
1058.773024,3775.050304,1915.238745,7476.080014
1058.773353,962.267725,3524.039291,12287.418637
1058.773683,-1850.514855,4903.011187,15618.345376
1058.774013,-3182.885551,4443.353888,17987.004391
1058.774342,-4441.235652,2528.115143,18505.148550
1058.774672,-5847.626942,1915.238745,16580.613101
1058.775002,-6661.853478,459.657299,12953.603985
1058.775331,-4663.297435,-1838.629195,9548.656652
1058.775661,-2960.823768,-2068.457845,4737.318029
1058.775990,1184.329507,-1378.971896,1258.350101
1058.776320,5477.523971,-3600.648841,1036.288319
1058.776650,7846.182985,-1762.019645,740.205942
1058.776979,5181.441594,2451.505594,3923.091493
1058.777309,2220.617826,5439.278036,7254.018232
1058.777639,-592.164754,5745.716235,12583.501014
1058.777968,-1554.432478,6052.154434,16950.716072
1058.778298,-2812.782580,4596.572988,18801.230927
1058.778628,-4811.338623,2451.505594,16876.695478
1058.778957,-6661.853478,-536.266849,13101.645173
1058.779287,-7476.080014,-2374.896044,10362.883188
1058.779616,-7105.977043,-1302.362347,8956.491898
1058.779946,-5107.421000,-459.657299,5551.544565
1058.780276,-518.144159,-1915.238745,296.082377
1058.780605,5255.462188,-3907.087040,-0.000000
1058.780935,5995.668130,-2145.067394,666.185348
1058.781265,4663.297435,842.705048,3478.967927
1058.781594,1998.556043,3217.601092,7254.018232
1058.781924,-592.164754,6128.763984,13915.871710
1058.782253,-2368.659014,7814.174080,19171.333898
1058.782583,-3256.906145,6052.154434,21021.848753
1058.782913,-4367.215058,995.924147,18727.210333
1058.783242,-5921.647536,-1685.410096,13989.892304
1058.783572,-6069.688724,-2145.067394,10732.986159
1058.783902,-4589.276840,-1915.238745,8586.388927
1058.784231,-2368.659014,-2681.334243,5699.585753
1058.784561,962.267725,-3830.477490,2516.700203
1058.784891,2886.803174,-4366.744339,1628.453072
1058.785220,4959.379811,-2681.334243,1998.556043
1058.785550,4293.194464,689.485948,5995.668130
1058.785879,2220.617826,3217.601092,10288.862594
1058.786209,-888.247130,4673.182538,15248.242405
1058.786539,-1924.535449,4749.792088,18653.189738
1058.786868,-2738.761985,2911.162892,19837.519246
1058.787198,-4071.132681,1455.581446,18357.107362
1058.787528,-5625.565159,1225.752797,14137.933492
1058.787857,-4885.359217,-1225.752797,10658.965565
1058.788187,-2738.761985,-1608.800546,6661.853478
1058.788517,74.020594,0.000000,2368.659014
1058.788846,4811.338623,-2528.115143,296.082377
1058.789176,5921.647536,-1685.410096,1332.370696
1058.789505,4219.173869,1225.752797,1406.391290
1058.789835,2072.576638,2451.505594,5477.523971
1058.790165,-1110.308913,4060.306139,10584.944971
1058.790494,-3256.906145,6435.202183,15914.427753
1058.790824,-4663.297435,5898.935335,18283.086767
1058.791154,-5625.565159,2298.286494,16506.592507
1058.791483,-6661.853478,-153.219100,13619.789333
1058.791813,-7105.977043,-2145.067394,11843.295072
1058.792142,-6809.894666,-1608.800546,10658.965565
1058.792472,-5255.462188,919.314598,6957.935855
1058.792802,-1184.329507,842.705048,2442.679609
1058.793131,5329.482782,-3294.210641,-518.144159
1058.793461,7920.203579,-2987.772442,444.123565
1058.793791,6883.915261,766.095498,2516.700203
1058.794120,3923.091493,4213.525239,6069.688724
1058.794450,740.205942,6205.373534,11473.192101
1058.794780,-1480.411884,7124.688131,17098.757260
1058.795109,-2664.741391,4060.306139,20725.766376
1058.795439,-4219.173869,459.657299,19245.354492
1058.795768,-5921.647536,-766.095498,15396.283594
1058.796098,-7105.977043,-1685.410096,11843.295072
1058.796428,-5921.647536,-2068.457845,9474.636058
1058.796757,-4219.173869,-2374.896044,6809.894666
1058.797087,0.000000,-2374.896044,2516.700203
1058.797417,3182.885551,-3294.210641,1332.370696
1058.797746,5181.441594,-2451.505594,148.041188
1058.798076,4737.318029,153.219100,3627.009116
1058.798406,2664.741391,2374.896044,7698.141797
1058.798735,-666.185348,4443.353888,13619.789333
1058.799065,-2294.638420,5362.668486,18653.189738
1058.799394,-3108.864956,3983.696590,21021.848753
1058.799724,-5255.462188,2221.676944,19171.333898
1058.800054,-6809.894666,76.609550,15766.386565
1058.800383,-6291.750507,-2221.676944,12435.459826
1058.800713,-4367.215058,-2221.676944,9622.677246
1058.801043,-1480.411884,-842.705048,4515.256246
1058.801372,3108.864956,-1532.190996,1924.535449
1058.801702,5995.668130,-3524.039291,-0.000000
1058.802031,7476.080014,-459.657299,962.267725
1058.802361,5403.503377,2451.505594,4071.132681
1058.802691,2072.576638,4519.963438,8512.368333
1058.803020,-1924.535449,7201.297681,13767.830521
1058.803350,-3108.864956,7277.907231,17690.922014
1058.803680,-4145.153275,3217.601092,18653.189738
1058.804009,-5477.523971,689.485948,15692.365970
1058.804339,-6883.915261,-1149.143247,12139.377449
1058.804669,-7402.059420,-2298.286494,9696.697840
1058.804998,-6661.853478,-383.047749,8734.430116
1058.805328,-3701.029710,536.266849,2886.803174
1058.805657,2442.679609,-2068.457845,296.082377
1058.805987,6661.853478,-3983.696590,-1036.288319
1058.806317,6661.853478,-919.314598,888.247130
1058.806646,4367.215058,3600.648841,4811.338623
1058.806976,444.123565,6128.763984,8956.491898
1058.807306,-2442.679609,7048.078582,14582.057057
1058.807635,-3552.988522,5745.716235,19467.416275
1058.807965,-5033.400406,2451.505594,20429.683999
1058.808295,-6809.894666,-383.047749,17690.922014
1058.808624,-7846.182985,-2145.067394,13249.686362
1058.808954,-6735.874072,-2451.505594,10066.800811
1058.809283,-4515.256246,-3370.820191,7402.059420
1058.809613,-1184.329507,-3294.210641,4071.132681
1058.809943,3330.926739,-3217.601092,1628.453072
1058.810272,5773.606348,-919.314598,1184.329507
1058.810602,7105.977043,1378.971896,1998.556043
1058.810932,6735.874072,2374.896044,6143.709319
1058.811261,3923.091493,3907.087040,10881.027347
1058.811591,74.020594,5209.449386,16876.695478
1058.811920,-2442.679609,4673.182538,20577.725188
1058.812250,-5477.523971,2451.505594,20873.807564
1058.812580,-7550.100608,459.657299,17912.983796
1058.812909,-8142.265362,-1915.238745,14211.954086
1058.813239,-6365.771101,-3830.477490,11103.089130
1058.813569,-3849.070898,-2757.943793,7031.956449
1058.813898,814.226536,-2451.505594,888.247130
1058.814228,4959.379811,-4060.306139,888.247130
1058.814558,7031.956449,-1532.190996,370.102971
1058.814887,6439.791695,1378.971896,3034.844362
1058.815217,3478.967927,4596.572988,6587.832884
1058.815546,0.000000,6741.640382,11843.295072
1058.815876,-2368.659014,7584.345430,16580.613101
1058.816206,-3034.844362,5209.449386,19393.395680
1058.816535,-4515.256246,1838.629195,18061.024985
1058.816865,-6809.894666,-842.705048,13841.851115
1058.817195,-7846.182985,-1762.019645,11029.068536
1058.817524,-6735.874072,-1225.752797,8956.491898
1058.817854,-4219.173869,0.000000,5995.668130
1058.818183,518.144159,-383.047749,592.164754
1058.818513,7476.080014,-1915.238745,-2220.617826
1058.818843,8586.388927,-1149.143247,-518.144159
1058.819172,6661.853478,2528.115143,1702.473667
1058.819502,1776.494261,5362.668486,6069.688724
1058.819832,-1628.453072,7354.516781,11473.192101
1058.820161,-3775.050304,7124.688131,17542.880825
1058.820491,-4811.338623,4366.744339,21095.869347
1058.820821,-7105.977043,766.095498,19467.416275
1058.821150,-9030.512492,-1838.629195,15248.242405
1058.821480,-9104.533087,-2604.724693,11843.295072
1058.821809,-6661.853478,-1838.629195,8882.471304
1058.822139,-2368.659014,-1225.752797,4885.359217
1058.822469,2072.576638,-1838.629195,2368.659014
1058.822798,6661.853478,-2221.676944,-0.000000
1058.823128,7105.977043,1378.971896,1406.391290
1058.823458,5921.647536,4366.744339,3775.050304
1058.823787,2960.823768,5439.278036,8512.368333
1058.824117,-296.082377,5592.497135,14434.015869
1058.824447,-2886.803174,4826.401637,19171.333898
1058.824776,-4737.318029,1915.238745,20207.622217
1058.825106,-5995.668130,-1915.238745,17468.860231
1058.825435,-7179.997637,-2834.553343,14434.015869
1058.825765,-7031.956449,-3294.210641,12435.459826
1058.826095,-4441.235652,-1915.238745,11325.150913
1058.826424,-1110.308913,-383.047749,5699.585753
1058.826754,4441.235652,-919.314598,1628.453072
1058.827084,7994.224174,-1225.752797,222.061783
1058.827413,10214.842000,459.657299,2294.638420
1058.827743,7772.162391,3983.696590,5773.606348
1058.828073,3182.885551,7354.516781,9474.636058
1058.828402,-814.226536,8044.002729,14285.974681
1058.828732,-2516.700203,6205.373534,19171.333898
1058.829061,-4663.297435,2834.553343,20799.786970
1058.829391,-7179.997637,-153.219100,16432.571912
1058.829721,-8586.388927,-3217.601092,11621.233289
1058.830050,-8660.409521,-3140.991542,8808.450710
1058.830380,-7254.018232,-919.314598,7328.038826
1058.830710,-2738.761985,-1225.752797,2368.659014
1058.831039,3404.947333,-2834.553343,666.185348
1058.831369,6439.791695,-1762.019645,-1258.350101
1058.831699,6365.771101,1302.362347,444.123565
1058.832028,2960.823768,4366.744339,3923.091493
1058.832358,-1036.288319,6205.373534,8216.285956
1058.832688,-2664.741391,7737.564530,14952.160028
1058.833017,-2590.720797,5592.497135,19911.539840
1058.833347,-5477.523971,2834.553343,19615.457463
1058.833677,-8068.244768,-1302.362347,15914.427753
1058.834006,-8438.347739,-3830.477490,11991.336260
1058.834336,-6439.791695,-2528.115143,9548.656652
1058.834666,-3256.906145,-2068.457845,7179.997637
1058.834995,1998.556043,-2221.676944,3701.029710
1058.835325,4959.379811,-2374.896044,3034.844362
1058.835654,5847.626942,76.609550,1406.391290
1058.835984,6513.812290,1991.848295,3478.967927
1058.836314,5255.462188,3370.820191,7624.121203
1058.836643,1480.411884,4519.963438,13619.789333
1058.836973,-1628.453072,5286.058936,18505.148550
1058.837303,-4071.132681,2911.162892,19837.519246
1058.837632,-5625.565159,-459.657299,17987.004391
1058.837962,-7105.977043,-2834.553343,15988.448347
1058.838292,-7328.038826,-2911.162892,13471.748144
1058.838621,-5033.400406,-2528.115143,11621.233289
1058.838951,-2664.741391,-612.876398,6587.832884
1058.839281,2368.659014,-229.828649,1628.453072
1058.839610,7254.018232,-536.266849,592.164754
1058.839940,8956.491898,995.924147,1258.350101
1058.840270,7402.059420,4136.915689,3997.112087
1058.840599,3182.885551,6971.469032,7328.038826
1058.840929,-888.247130,8120.612279,12287.418637
1058.841259,-3182.885551,7048.078582,16432.571912
1058.841588,-4959.379811,2987.772442,17987.004391
1058.841918,-6513.812290,-536.266849,15914.427753
1058.842248,-8216.285956,-1991.848295,12435.459826
1058.842577,-9030.512492,-2987.772442,10658.965565
1058.842907,-7994.224174,-842.705048,9030.512492
1058.843236,-4737.318029,689.485948,5107.421000
1058.843566,1184.329507,-1302.362347,2072.576638
1058.843896,7105.977043,153.219100,-1554.432478
1058.844225,9548.656652,153.219100,-592.164754
1058.844555,8882.471304,3140.991542,3182.885551
1058.844885,3478.967927,7431.126331,7328.038826
1058.845214,-1184.329507,8810.098227,12361.439231
1058.845544,-2294.638420,7584.345430,18431.127956
1058.845874,-4441.235652,5439.278036,21539.992912
1058.846203,-7105.977043,2451.505594,19689.478057
1058.846533,-8660.409521,-2374.896044,14434.015869
1058.846863,-8290.306550,-3907.087040,9770.718434
1058.847192,-6069.688724,-2221.676944,6143.709319
1058.847522,-2146.597232,-3294.210641,4737.318029
1058.847852,1628.453072,-2834.553343,3627.009116
1058.848181,3923.091493,-919.314598,222.061783
1058.848511,4589.276840,0.000000,1258.350101
1058.848841,4293.194464,2145.067394,4071.132681
1058.849170,1998.556043,3064.381992,9474.636058
1058.849500,-296.082377,3983.696590,15618.345376
1058.849830,-3330.926739,3983.696590,19467.416275
1058.850159,-5107.421000,2374.896044,19837.519246
1058.850489,-6661.853478,-306.438199,17838.963202
1058.850818,-6661.853478,-2911.162892,14656.077652
1058.851148,-5255.462188,-3677.258390,11547.212695
1058.851478,-2072.576638,-2451.505594,7476.080014
