#time,accel_x,accel_y,accel_z
956.512304,-1036.288319,995.924147,9548.656652
956.512634,-888.247130,919.314598,9400.615463
956.512963,-1036.288319,1072.533697,9474.636058
956.513293,-518.144159,1072.533697,9474.636058
956.513623,-888.247130,919.314598,9622.677246
956.513952,-1036.288319,842.705048,9474.636058
956.514282,-1036.288319,842.705048,9474.636058
956.514611,-1184.329507,919.314598,9548.656652
956.514941,-1184.329507,536.266849,9400.615463
956.515271,-1184.329507,1149.143247,9252.574275
956.515600,-888.247130,1072.533697,9474.636058
956.515930,-1258.350101,612.876398,9474.636058
956.516260,-962.267725,995.924147,9622.677246
956.516589,-1258.350101,919.314598,9548.656652
956.516919,-1554.432478,995.924147,9400.615463
956.517249,-1110.308913,1072.533697,9474.636058
956.517578,-1110.308913,766.095498,9622.677246
956.517908,-1036.288319,919.314598,9548.656652
956.518238,-1110.308913,842.705048,9548.656652
956.518567,-1480.411884,842.705048,9474.636058
956.518897,-1406.391290,919.314598,9548.656652
956.519227,-1184.329507,842.705048,9548.656652
956.519556,-1036.288319,766.095498,9548.656652
956.519886,-1184.329507,919.314598,9622.677246
956.520216,-666.185348,536.266849,9474.636058
956.520545,-888.247130,612.876398,9548.656652
956.520875,-1184.329507,1072.533697,9548.656652
956.521205,-1184.329507,842.705048,9548.656652
956.521534,-962.267725,842.705048,9548.656652
956.521864,-962.267725,536.266849,9474.636058
956.522194,-1406.391290,689.485948,9030.512492
956.522523,-1110.308913,842.705048,9474.636058
956.522853,-1110.308913,766.095498,9474.636058
956.523183,-1036.288319,842.705048,9474.636058
956.523512,-814.226536,919.314598,9548.656652
956.523842,-888.247130,1378.971896,9178.553681
956.524172,-1184.329507,919.314598,9326.594869
956.524501,-1110.308913,1072.533697,9548.656652
956.524831,-1110.308913,1072.533697,9548.656652
956.525161,-1036.288319,995.924147,9474.636058
956.525490,-888.247130,919.314598,9548.656652
956.525820,-888.247130,919.314598,9030.512492
956.526150,-1110.308913,842.705048,9474.636058
956.526479,-962.267725,919.314598,9548.656652
956.526809,-1110.308913,995.924147,9548.656652
956.527139,-1110.308913,1225.752797,9548.656652
956.527468,-1184.329507,766.095498,9400.615463
956.527798,-740.205942,995.924147,9696.697840
956.528128,-888.247130,995.924147,9474.636058
956.528457,-1110.308913,919.314598,9548.656652
956.528787,-1036.288319,995.924147,9696.697840
956.529116,-1036.288319,842.705048,9326.594869
956.529446,-1184.329507,1072.533697,9474.636058
956.529776,-1036.288319,612.876398,9622.677246
956.530105,-962.267725,1072.533697,9622.677246
956.530435,-1036.288319,919.314598,9548.656652
956.530765,-1406.391290,383.047749,9400.615463
956.531094,-888.247130,842.705048,9696.697840
956.531424,-1036.288319,995.924147,9696.697840
956.531754,-1110.308913,995.924147,9400.615463
956.532083,-1036.288319,689.485948,9548.656652
956.532413,-1110.308913,1072.533697,9400.615463
956.532743,-1036.288319,842.705048,9252.574275
956.533072,-962.267725,842.705048,9474.636058
956.533402,-888.247130,919.314598,9474.636058
956.533732,-962.267725,919.314598,9622.677246
956.534061,-1036.288319,995.924147,9474.636058
956.534391,-814.226536,1149.143247,8956.491898
956.534721,-518.144159,1302.362347,8734.430116
956.535050,0.000000,766.095498,8808.450710
956.535380,814.226536,383.047749,9178.553681
956.535710,1036.288319,612.876398,9030.512492
956.536039,1036.288319,536.266849,9326.594869
956.536369,0.000000,1378.971896,9770.718434
956.536699,-296.082377,1072.533697,10288.862594
956.537028,-962.267725,995.924147,10362.883188
956.537358,-740.205942,229.828649,10436.903782
956.537688,-222.061783,0.000000,9992.780217
956.538017,148.041188,153.219100,9474.636058
956.538347,1184.329507,76.609550,9474.636058
956.538677,2368.659014,459.657299,8808.450710
956.539006,3108.864956,842.705048,8512.368333
956.539336,3701.029710,1302.362347,9178.553681
956.539666,3775.050304,1685.410096,8956.491898
956.539995,3849.070898,2068.457845,9548.656652
956.540325,3404.947333,1378.971896,10362.883188
956.540655,2368.659014,919.314598,10436.903782
956.540984,1702.473667,612.876398,10510.924376
956.541314,1036.288319,0.000000,10955.047942
956.541644,1258.350101,0.000000,10732.986159
956.541973,1480.411884,-153.219100,10066.800811
956.542303,2368.659014,-459.657299,9548.656652
956.542633,3552.988522,-306.438199,9400.615463
956.542962,4145.153275,689.485948,9030.512492
956.543292,4515.256246,1838.629195,9548.656652
956.543622,3701.029710,2681.334243,9844.739029
956.543951,2738.761985,2987.772442,10214.842000
956.544281,962.267725,3217.601092,10288.862594
956.544610,-888.247130,2451.505594,10140.821405
956.544940,-1776.494261,1378.971896,9030.512492
956.545270,-1110.308913,76.609550,8142.265362
956.545599,0.000000,-1072.533697,7328.038826
956.545929,1776.494261,-1455.581446,6735.874072
956.546259,3108.864956,-766.095498,6587.832884
956.546588,4071.132681,612.876398,6957.935855
956.546918,4071.132681,2068.457845,8512.368333
956.547248,2664.741391,4596.572988,10510.924376
956.547577,1554.432478,4673.182538,12065.356855
956.547907,370.102971,3677.258390,12509.480420
956.548237,0.000000,2451.505594,12657.521608
956.548566,-1332.370696,153.219100,11843.295072
956.548896,-1480.411884,-2145.067394,11177.109724
956.549226,-1036.288319,-2221.676944,10066.800811
956.549555,0.000000,-2528.115143,8808.450710
956.549885,1702.473667,-1991.848295,8142.265362
956.550215,3849.070898,-1149.143247,7476.080014
956.550544,4737.318029,919.314598,7328.038826
956.550874,4811.338623,2298.286494,7846.182985
956.551204,4663.297435,3524.039291,8586.388927
956.551533,3997.112087,4596.572988,9548.656652
956.551863,3034.844362,3294.210641,10658.965565
956.552193,2072.576638,2757.943793,11177.109724
956.552522,814.226536,1838.629195,11695.253884
956.552852,0.000000,0.000000,11029.068536
956.553182,-740.205942,-1225.752797,10510.924376
956.553511,-814.226536,-1532.190996,10436.903782
956.553841,-444.123565,-1915.238745,10658.965565
956.554171,-296.082377,-1302.362347,10288.862594
956.554500,592.164754,-306.438199,9474.636058
956.554830,1702.473667,229.828649,8660.409521
956.555160,3034.844362,689.485948,8068.244768
956.555489,3849.070898,995.924147,8512.368333
956.555819,4885.359217,689.485948,8290.306550
956.556149,4737.318029,919.314598,8734.430116
956.556478,4293.194464,1225.752797,9326.594869
956.556808,3478.967927,1455.581446,10066.800811
956.557138,2368.659014,1991.848295,10140.821405
956.557467,1850.514855,1532.190996,10066.800811
956.557797,1998.556043,1762.019645,10140.821405
956.558127,2072.576638,1685.410096,9844.739029
956.558456,1850.514855,1455.581446,9104.533087
956.558786,1850.514855,1225.752797,8586.388927
956.559115,2442.679609,842.705048,8142.265362
956.559445,2146.597232,995.924147,8068.244768
956.559775,1628.453072,842.705048,8808.450710
956.560104,518.144159,995.924147,9696.697840
956.560434,-1036.288319,536.266849,9622.677246
956.560764,-1702.473667,153.219100,9770.718434
956.561093,-1036.288319,153.219100,10658.965565
956.561423,-518.144159,-306.438199,11325.150913
956.561753,-962.267725,-536.266849,10955.047942
956.562082,-1480.411884,0.000000,10584.944971
956.562412,-148.041188,919.314598,9992.780217
956.562742,1776.494261,1225.752797,9474.636058
956.563071,3849.070898,1762.019645,9326.594869
956.563401,6143.709319,2528.115143,8512.368333
956.563731,7402.059420,2451.505594,8068.244768
956.564060,7994.224174,2757.943793,8068.244768
956.564390,6587.832884,3753.867940,9474.636058
956.564720,3701.029710,5056.230287,10881.027347
956.565049,296.082377,4213.525239,12213.398043
956.565379,-2442.679609,2681.334243,13471.748144
956.565709,-5033.400406,1838.629195,12805.562797
956.566038,-6809.894666,-1225.752797,11029.068536
956.566368,-7994.224174,-2834.553343,9770.718434
956.566698,-7105.977043,-3064.381992,7772.162391
956.567027,-4589.276840,-3217.601092,5033.400406
956.567357,0.000000,-3217.601092,3775.050304
956.567687,3923.091493,-1838.629195,3478.967927
956.568016,6809.894666,1762.019645,3923.091493
956.568346,6587.832884,4136.915689,5773.606348
956.568676,5773.606348,5515.887586,8808.450710
956.569005,3997.112087,6818.249932,12731.542202
956.569335,-148.041188,7507.735880,16580.613101
956.569665,-5329.482782,6894.859482,17542.880825
956.569994,-8808.450710,3907.087040,15618.345376
956.570324,-9178.553681,-2298.286494,13619.789333
956.570654,-7550.100608,-6971.469032,11843.295072
956.570983,-5477.523971,-6281.983084,9104.533087
956.571313,-1850.514855,-5898.935335,5477.523971
956.571643,3256.906145,-4826.401637,3034.844362
956.571972,8142.265362,-2221.676944,2072.576638
956.572302,10436.903782,1149.143247,3330.926739
956.572632,10658.965565,3524.039291,6291.750507
956.572961,8364.327145,8197.221829,10510.924376
956.573291,3404.947333,10801.946522,13989.892304
956.573621,-2516.700203,8886.707777,15988.448347
956.573950,-7846.182985,4136.915689,17024.736666
956.574280,-11029.068536,-612.876398,15840.407159
956.574609,-11695.253884,-4213.525239,13027.624579
956.574939,-9844.739029,-6281.983084,9104.533087
956.575269,-5255.462188,-8197.221829,5625.565159
956.575598,-444.123565,-8120.612279,3478.967927
956.575928,4145.153275,-5056.230287,1628.453072
956.576258,7105.977043,-229.828649,2146.597232
956.576587,8734.430116,4136.915689,5699.585753
956.576917,6957.935855,7967.393179,11843.295072
956.577247,1184.329507,11108.384721,15026.180623
956.577576,-4811.338623,10112.460574,16432.571912
956.577906,-7994.224174,4749.792088,17468.860231
956.578236,-8882.471304,-612.876398,16506.592507
956.578565,-9104.533087,-4366.744339,12213.398043
956.578895,-5921.647536,-8886.707777,7105.977043
956.579225,-518.144159,-10342.289223,3108.864956
956.579554,4885.359217,-8427.050478,1924.535449
956.579884,9178.553681,-3217.601092,2442.679609
956.580214,9548.656652,1838.629195,4219.173869
956.580543,7105.977043,7584.345430,7772.162391
956.580873,2960.823768,11797.870669,12657.521608
956.581203,-2886.803174,12180.918418,17246.798449
956.581532,-8882.471304,11108.384721,18431.127956
956.581862,-12361.439231,4290.134789,16580.613101
956.582192,-12509.480420,-2604.724693,13619.789333
956.582521,-10288.862594,-7660.954980,9474.636058
956.582851,-6217.729913,-11108.384721,5181.441594
956.583181,-2072.576638,-10342.289223,1332.370696
956.583510,2294.638420,-6205.373534,-518.144159
956.583840,7476.080014,-1685.410096,814.226536
956.584169,9622.677246,3064.381992,6291.750507
956.584499,7476.080014,8427.050478,10955.047942
956.584828,1702.473667,12487.356617,14878.139434
956.585158,-4293.194464,14172.766713,16432.571912
956.585487,-7254.018232,10955.165621,17320.819043
956.585817,-6883.915261,1915.238745,18283.086767
956.586147,-6513.812290,-4136.915689,14952.160028
956.586476,-5477.523971,-6511.811733,9178.553681
956.586806,-1998.556043,-8886.707777,4441.235652
956.587135,2516.700203,-7967.393179,2368.659014
956.587465,7031.956449,-4136.915689,1554.432478
956.587794,8956.491898,-766.095498,3627.009116
956.588124,7624.121203,4366.744339,7105.977043
956.588453,3404.947333,13330.061665,10066.800811
956.588783,-1110.308913,14249.376263,12435.459826
956.589112,-4959.379811,9959.241474,14582.057057
956.589442,-6957.935855,5439.278036,15026.180623
956.589772,-6513.812290,0.000000,13027.624579
956.590101,-5625.565159,-4596.572988,9696.697840
956.590431,-4737.318029,-6205.373534,6069.688724
956.590760,-1924.535449,-7814.174080,3923.091493
956.591090,1036.288319,-6894.859482,4515.256246
956.591419,3552.988522,-2145.067394,6513.812290
956.591749,3849.070898,4060.306139,9178.553681
956.592078,1110.308913,7814.174080,11251.130318
956.592408,-2072.576638,10418.898773,12805.562797
956.592738,-4367.215058,9959.241474,13545.768739
956.593067,-3923.091493,4979.620737,14063.912898
956.593397,-2220.617826,1149.143247,13027.624579
956.593726,-1406.391290,-1532.190996,10584.944971
956.594056,0.000000,-4519.963438,7476.080014
956.594385,1110.308913,-6588.421283,5181.441594
956.594715,3923.091493,-5669.106685,4515.256246
956.595044,6661.853478,-2681.334243,5551.544565
956.595374,5625.565159,919.314598,7994.224174
956.595703,1776.494261,5515.887586,10436.903782
956.596033,-1628.453072,7814.174080,12139.377449
956.596363,-4219.173869,7201.297681,13471.748144
956.596692,-5033.400406,5669.106685,13397.727550
956.597022,-5181.441594,1455.581446,12065.356855
956.597351,-4293.194464,-2681.334243,9918.759623
956.597681,-3330.926739,-5362.668486,7476.080014
956.598010,-1850.514855,-5592.497135,5403.503377
956.598340,222.061783,-5132.839837,5107.421000
956.598669,1776.494261,-3447.429741,6661.853478
956.598999,1332.370696,0.000000,9548.656652
956.599328,-740.205942,3600.648841,11621.233289
956.599658,-3849.070898,6052.154434,13101.645173
956.599988,-5107.421000,6511.811733,13323.706956
956.600317,-4737.318029,4290.134789,12657.521608
956.600647,-3034.844362,0.000000,11177.109724
956.600976,-888.247130,-3140.991542,9030.512492
956.601306,296.082377,-4979.620737,7105.977043
956.601635,2368.659014,-4979.620737,6217.729913
956.601965,3775.050304,-3217.601092,6513.812290
956.602294,5181.441594,-612.876398,8142.265362
956.602624,4441.235652,1685.410096,10066.800811
956.602953,1332.370696,4290.134789,11473.192101
956.603283,-2442.679609,7048.078582,12583.501014
956.603613,-4515.256246,7048.078582,13619.789333
956.603942,-5477.523971,4749.792088,13323.706956
956.604272,-5477.523971,1685.410096,11029.068536
956.604601,-4219.173869,-2145.067394,6957.935855
956.604931,-2812.782580,-4290.134789,4219.173869
956.605260,-222.061783,-5822.325785,3923.091493
956.605590,1184.329507,-3753.867940,5107.421000
956.605919,1184.329507,-612.876398,7920.203579
956.606249,-888.247130,2451.505594,11251.130318
956.606579,-4293.194464,5975.544884,13693.809927
956.606908,-5921.647536,7890.783629,14137.933492
956.607238,-5995.668130,6665.030833,13101.645173
956.607567,-4737.318029,3370.820191,11621.233289
956.607897,-2442.679609,-383.047749,9178.553681
956.608226,-592.164754,-3524.039291,7254.018232
956.608556,1036.288319,-4136.915689,6217.729913
956.608885,2812.782580,-2987.772442,6217.729913
956.609215,4589.276840,-153.219100,7105.977043
956.609544,6365.771101,2681.334243,7846.182985
956.609874,6217.729913,4443.353888,9326.594869
956.610204,3404.947333,6205.373534,10658.965565
956.610533,-296.082377,8733.488677,11991.336260
956.610863,-3478.967927,8044.002729,12953.603985
956.611192,-5107.421000,5056.230287,12953.603985
956.611522,-5773.606348,1762.019645,11177.109724
956.611851,-5255.462188,-2068.457845,8216.285956
956.612181,-4441.235652,-4366.744339,5551.544565
956.612510,-1998.556043,-4903.011187,4737.318029
956.612840,1184.329507,-4136.915689,5255.462188
956.613169,2442.679609,-1455.581446,8290.306550
956.613499,1110.308913,2757.943793,10881.027347
956.613829,-2516.700203,7201.297681,11917.315666
956.614158,-4145.153275,8733.488677,11695.253884
956.614488,-3627.009116,5745.716235,12361.439231
956.614817,-2368.659014,2834.553343,12953.603985
956.615147,-1480.411884,-766.095498,11325.150913
956.615476,-962.267725,-3447.429741,8438.347739
956.615806,370.102971,-4826.401637,6069.688724
956.616135,2960.823768,-4366.744339,5699.585753
956.616465,5699.585753,-2987.772442,6587.832884
956.616795,7402.059420,0.000000,8364.327145
956.617124,6735.874072,2987.772442,9696.697840
956.617454,2960.823768,7201.297681,11695.253884
956.617783,-1258.350101,8427.050478,13027.624579
956.618113,-4441.235652,6971.469032,13619.789333
956.618442,-6587.832884,3140.991542,12657.521608
956.618772,-6365.771101,-919.314598,10732.986159
956.619101,-5625.565159,-4903.011187,8882.471304
956.619431,-4441.235652,-7354.516781,6883.915261
956.619760,-3478.967927,-8044.002729,5255.462188
956.620090,-962.267725,-5975.544884,4737.318029
956.620420,2072.576638,-1608.800546,6217.729913
956.620749,2664.741391,1149.143247,9178.553681
956.621079,518.144159,4673.182538,11621.233289
956.621408,-1924.535449,7048.078582,13027.624579
956.621738,-3552.988522,6894.859482,14285.974681
956.622067,-4589.276840,6205.373534,14508.036463
956.622397,-5181.441594,2298.286494,12583.501014
956.622726,-4071.132681,-2681.334243,9548.656652
956.623056,-2664.741391,-6894.859482,6587.832884
956.623385,-740.205942,-8197.221829,5921.647536
956.623715,2220.617826,-5669.106685,7105.977043
956.624045,3330.926739,-2911.162892,7846.182985
956.624374,3330.926739,995.924147,9474.636058
956.624704,1258.350101,4366.744339,10584.944971
956.625033,-296.082377,7048.078582,11251.130318
956.625363,-1332.370696,7354.516781,12213.398043
956.625692,-2738.761985,5822.325785,12953.603985
956.626022,-4071.132681,3907.087040,12065.356855
956.626351,-4737.318029,383.047749,8734.430116
956.626681,-3478.967927,-3600.648841,5699.585753
956.627010,-1110.308913,-5515.887586,4145.153275
956.627340,814.226536,-4903.011187,4367.215058
956.627670,1702.473667,-2528.115143,7179.997637
956.627999,740.205942,1072.533697,10214.842000
956.628329,-2516.700203,5286.058936,12953.603985
956.628658,-5847.626942,8810.098227,14137.933492
956.628988,-6587.832884,9422.974625,13767.830521
956.629317,-5921.647536,6588.421283,11695.253884
956.629647,-3627.009116,995.924147,9770.718434
956.629976,-1702.473667,-3064.381992,7698.141797
956.630306,-444.123565,-4596.572988,6143.709319
956.630636,888.247130,-4136.915689,5477.523971
956.630965,3034.844362,-2145.067394,6143.709319
956.631295,5625.565159,306.438199,7550.100608
956.631624,6439.791695,2757.943793,8660.409521
956.631954,4367.215058,5592.497135,10140.821405
956.632283,1628.453072,8963.317327,11399.171507
956.632613,-888.247130,9576.193725,12657.521608
956.632942,-3034.844362,7354.516781,13397.727550
956.633272,-4293.194464,3753.867940,12509.480420
956.633601,-4071.132681,-766.095498,9844.739029
956.633931,-3182.885551,-4826.401637,7476.080014
956.634261,-1110.308913,-5975.544884,6513.812290
956.634590,0.000000,-4903.011187,5773.606348
956.634920,1332.370696,-2987.772442,6513.812290
956.635249,1850.514855,383.047749,8290.306550
956.635579,0.000000,4749.792088,10288.862594
956.635908,-2516.700203,7890.783629,11843.295072
956.636238,-3404.947333,8503.660028,12583.501014
956.636567,-4219.173869,5822.325785,12361.439231
956.636897,-3849.070898,1762.019645,11473.192101
956.637226,-2442.679609,-2374.896044,9770.718434
956.637556,-1258.350101,-5515.887586,7772.162391
956.637886,370.102971,-6052.154434,6365.771101
956.638215,2960.823768,-5056.230287,6883.915261
956.638545,4959.379811,-2221.676944,7550.100608
956.638874,5625.565159,842.705048,9474.636058
956.639204,3552.988522,4213.525239,11399.171507
956.639533,296.082377,8197.221829,12361.439231
956.639863,-2220.617826,7354.516781,13101.645173
956.640192,-3923.091493,5362.668486,12805.562797
956.640522,-5181.441594,1072.533697,11473.192101
956.640852,-5107.421000,-2987.772442,9696.697840
956.641181,-4145.153275,-5822.325785,8216.285956
956.641511,-2812.782580,-6818.249932,5773.606348
956.641840,-740.205942,-5515.887586,4737.318029
956.642170,1924.535449,-3907.087040,5181.441594
956.642499,2886.803174,-1072.533697,7772.162391
956.642829,296.082377,2987.772442,11029.068536
956.643158,-3256.906145,6971.469032,12953.603985
956.643488,-5699.585753,8427.050478,14656.077652
956.643817,-6883.915261,7431.126331,14730.098246
956.644147,-6291.750507,3140.991542,13619.789333
956.644477,-4441.235652,-2681.334243,9770.718434
956.644806,-2146.597232,-7277.907231,6513.812290
956.645136,592.164754,-7507.735880,4737.318029
956.645465,2072.576638,-5669.106685,5625.565159
956.645795,3701.029710,-1762.019645,7179.997637
956.646124,4219.173869,1608.800546,9104.533087
956.646454,2738.761985,4903.011187,10584.944971
956.646783,74.020594,8273.831378,11769.274478
956.647113,-2294.638420,9346.365076,13323.706956
956.647442,-4219.173869,7431.126331,13175.665768
956.647772,-5329.482782,3753.867940,11843.295072
956.648102,-4959.379811,-1302.362347,9400.615463
956.648431,-3627.009116,-4979.620737,6069.688724
956.648761,-2368.659014,-6281.983084,4293.194464
956.649090,-370.102971,-5286.058936,4811.338623
956.649420,1554.432478,-2528.115143,6069.688724
956.649749,1998.556043,383.047749,8734.430116
956.650079,-74.020594,4519.963438,11917.315666
956.650408,-3627.009116,9959.241474,13323.706956
956.650738,-5255.462188,10878.556072,14063.912898
956.651067,-5551.544565,8120.612279,13027.624579
956.651397,-4071.132681,3447.429741,11695.253884
956.651727,-2072.576638,-1378.971896,8586.388927
956.652056,-296.082377,-4979.620737,5625.565159
956.652386,1184.329507,-5975.544884,5403.503377
956.652715,2812.782580,-4290.134789,5699.585753
956.653045,4441.235652,-1608.800546,6957.935855
956.653374,4885.359217,2068.457845,8068.244768
956.653704,3997.112087,4903.011187,10214.842000
956.654033,1406.391290,8503.660028,11917.315666
956.654363,-1110.308913,10035.851024,12879.583391
956.654693,-3478.967927,8197.221829,12805.562797
956.655022,-4515.256246,3983.696590,11843.295072
956.655352,-4737.318029,-689.485948,9696.697840
956.655681,-3256.906145,-4290.134789,7994.224174
956.656011,-2368.659014,-6588.421283,7105.977043
956.656340,-888.247130,-5898.935335,6439.791695
956.656670,1184.329507,-3217.601092,6957.935855
956.656999,2886.803174,-306.438199,7920.203579
956.657329,1850.514855,3064.381992,10362.883188
956.657658,-1776.494261,7660.954980,10807.006753
956.657988,-3627.009116,8580.269578,11769.274478
956.658318,-4219.173869,6281.983084,12435.459826
956.658647,-3552.988522,3524.039291,12879.583391
956.658977,-2516.700203,0.000000,10362.883188
956.659306,-1628.453072,-4673.182538,7920.203579
956.659636,-222.061783,-6511.811733,6439.791695
956.659965,2146.597232,-5745.716235,6143.709319
956.660295,4293.194464,-3830.477490,7772.162391
956.660624,4959.379811,-153.219100,9252.574275
956.660954,2442.679609,3907.087040,11177.109724
956.661283,-962.267725,7584.345430,12213.398043
956.661613,-2960.823768,8044.002729,13101.645173
956.661943,-4293.194464,6358.592633,12657.521608
956.662272,-4885.359217,2528.115143,11473.192101
956.662602,-4441.235652,-2145.067394,9326.594869
956.662931,-3478.967927,-5286.058936,7624.121203
956.663261,-2294.638420,-6665.030833,5847.626942
956.663590,0.000000,-6128.763984,5181.441594
956.663920,2072.576638,-3830.477490,5403.503377
956.664249,2664.741391,-612.876398,7920.203579
956.664579,444.123565,3064.381992,11177.109724
956.664909,-3552.988522,7660.954980,12731.542202
956.665238,-6365.771101,9193.145976,13249.686362
956.665568,-7698.141797,6894.859482,13323.706956
956.665897,-6661.853478,2681.334243,13175.665768
956.666227,-4145.153275,-3217.601092,10436.903782
956.666556,-2220.617826,-7277.907231,7105.977043
956.666886,0.000000,-8963.317327,5403.503377
956.667215,1258.350101,-6435.202183,5773.606348
956.667545,3849.070898,-2374.896044,7402.059420
956.667874,6587.832884,919.314598,9252.574275
956.668204,4737.318029,4749.792088,10732.986159
956.668534,1628.453072,9652.803275,11029.068536
956.668863,-962.267725,10265.679673,12361.439231
956.669193,-2664.741391,7507.735880,12953.603985
956.669522,-4145.153275,4519.963438,12139.377449
956.669852,-4293.194464,-612.876398,9918.759623
956.670181,-4367.215058,-5209.449386,8142.265362
956.670511,-3478.967927,-6588.421283,6513.812290
956.670840,-1998.556043,-5439.278036,5107.421000
956.671170,296.082377,-3983.696590,4885.359217
956.671499,2738.761985,-1225.752797,7179.997637
956.671829,444.123565,3294.210641,11103.089130
956.672159,-3034.844362,8120.612279,13175.665768
956.672488,-5403.503377,10725.336972,14063.912898
956.672818,-6439.791695,9346.365076,13397.727550
956.673147,-5921.647536,5745.716235,11843.295072
956.673477,-3330.926739,-1149.143247,9844.739029
956.673806,-740.205942,-5132.839837,7402.059420
956.674136,888.247130,-5898.935335,5403.503377
956.674465,2220.617826,-5209.449386,5107.421000
956.674795,4145.153275,-1608.800546,6217.729913
956.675124,5921.647536,1608.800546,8216.285956
956.675454,4737.318029,4290.134789,10362.883188
956.675784,1850.514855,8120.612279,11621.233289
956.676113,-1110.308913,10495.508323,12731.542202
956.676443,-2886.803174,9499.584175,12879.583391
956.676772,-4145.153275,5515.887586,12213.398043
956.677102,-4293.194464,229.828649,9992.780217
956.677431,-3330.926739,-4673.182538,7772.162391
956.677761,-2516.700203,-6741.640382,6217.729913
956.678090,-1036.288319,-5822.325785,5847.626942
956.678420,740.205942,-3524.039291,6365.771101
956.678750,2664.741391,-842.705048,7772.162391
956.679079,1332.370696,2757.943793,9548.656652
956.679409,-1480.411884,6741.640382,10732.986159
956.679738,-3404.947333,8810.098227,11769.274478
956.680068,-4885.359217,7737.564530,12287.418637
956.680397,-4737.318029,4749.792088,12509.480420
956.680727,-3330.926739,-612.876398,11103.089130
956.681056,-1702.473667,-4826.401637,8956.491898
956.681386,0.000000,-6511.811733,7402.059420
956.681715,1332.370696,-6281.983084,6069.688724
956.682045,3775.050304,-4213.525239,7328.038826
956.682375,5625.565159,-536.266849,8956.491898
956.682704,4219.173869,2834.553343,10732.986159
956.683034,888.247130,6741.640382,11843.295072
956.683363,-1850.514855,8656.879127,12657.521608
956.683693,-3256.906145,7660.954980,13397.727550
956.684022,-4219.173869,3907.087040,12805.562797
956.684352,-4515.256246,-766.095498,10362.883188
956.684681,-3997.112087,-4749.792088,7846.182985
956.685011,-2738.761985,-7507.735880,5921.647536
956.685340,-962.267725,-7201.297681,5625.565159
956.685670,592.164754,-4366.744339,6069.688724
956.685999,2294.638420,-689.485948,7254.018232
956.686329,1628.453072,2145.067394,10362.883188
956.686658,-1702.473667,6435.202183,12287.418637
956.686988,-3775.050304,9039.926876,12361.439231
956.687317,-4441.235652,7354.516781,12583.501014
956.687647,-4515.256246,4366.744339,12805.562797
956.687976,-3701.029710,612.876398,11103.089130
956.688305,-2442.679609,-3830.477490,8438.347739
956.688635,-814.226536,-6588.421283,6365.771101
956.688964,370.102971,-6281.983084,5625.565159
956.689294,2664.741391,-3294.210641,6809.894666
956.689623,4219.173869,-842.705048,8216.285956
956.689953,3182.885551,2528.115143,9622.677246
956.690282,222.061783,6588.421283,10436.903782
956.690611,-2220.617826,8350.440928,11177.109724
956.690941,-3108.864956,7277.907231,12361.439231
956.691270,-4515.256246,4979.620737,12953.603985
956.691600,-4811.338623,383.047749,10881.027347
956.691929,-4367.215058,-3370.820191,8142.265362
956.692259,-3108.864956,-5975.544884,6513.812290
956.692588,-740.205942,-5362.668486,5773.606348
956.692918,1184.329507,-3830.477490,6069.688724
956.693247,3182.885551,-995.924147,7105.977043
956.693576,2368.659014,2451.505594,9918.759623
956.693906,-1036.288319,6894.859482,12287.418637
956.694235,-3775.050304,9422.974625,13693.809927
956.694565,-5255.462188,8503.660028,14434.015869
956.694894,-5181.441594,5439.278036,13249.686362
956.695224,-4441.235652,842.705048,10288.862594
956.695553,-2516.700203,-4749.792088,7105.977043
956.695883,-222.061783,-7507.735880,5107.421000
956.696212,1628.453072,-7124.688131,5551.544565
956.696541,3404.947333,-3217.601092,7179.997637
956.696871,4293.194464,1608.800546,8290.306550
956.697200,2738.761985,3983.696590,10214.842000
956.697530,518.144159,6052.154434,11325.150913
956.697859,-1702.473667,9269.755526,12435.459826
956.698189,-3256.906145,8273.831378,13693.809927
956.698518,-3849.070898,5056.230287,13397.727550
956.698847,-4663.297435,612.876398,10955.047942
956.699177,-3849.070898,-3677.258390,7476.080014
956.699506,-2146.597232,-6741.640382,5699.585753
956.699836,0.000000,-6894.859482,5107.421000
956.700165,2220.617826,-3447.429741,5477.523971
956.700495,4219.173869,-612.876398,6883.915261
956.700824,3552.988522,3140.991542,9030.512492
956.701154,1036.288319,6741.640382,10510.924376
956.701483,-1924.535449,9193.145976,11769.274478
956.701812,-3775.050304,9193.145976,13027.624579
956.702142,-4959.379811,6665.030833,13175.665768
956.702471,-3997.112087,1532.190996,11473.192101
956.702801,-2220.617826,-4443.353888,8734.430116
956.703130,-1480.411884,-6205.373534,6291.750507
956.703460,148.041188,-6665.030833,5773.606348
956.703789,2442.679609,-4519.963438,6809.894666
956.704118,4071.132681,-1149.143247,8734.430116
956.704448,2812.782580,3294.210641,10214.842000
956.704777,0.000000,6205.373534,11473.192101
956.705107,-2516.700203,8810.098227,12435.459826
956.705436,-3552.988522,8273.831378,13101.645173
956.705766,-3701.029710,4519.963438,13101.645173
956.706095,-3182.885551,0.000000,11029.068536
956.706425,-3034.844362,-3524.039291,7328.038826
956.706754,-2220.617826,-6128.763984,5699.585753
956.707083,-296.082377,-7048.078582,5403.503377
956.707413,962.267725,-4060.306139,6439.791695
956.707742,2072.576638,-536.266849,7994.224174
956.708072,1258.350101,2145.067394,9622.677246
956.708401,-370.102971,6435.202183,11991.336260
956.708731,-2368.659014,8733.488677,12361.439231
956.709060,-3256.906145,6741.640382,12953.603985
956.709389,-4367.215058,3677.258390,12879.583391
956.709719,-4441.235652,0.000000,12213.398043
956.710048,-3182.885551,-2987.772442,9622.677246
956.710378,-2072.576638,-5898.935335,7476.080014
956.710707,-444.123565,-6128.763984,6439.791695
956.711037,2220.617826,-4596.572988,6513.812290
956.711366,4663.297435,-1685.410096,7179.997637
956.711696,4589.276840,2451.505594,8808.450710
956.712025,1702.473667,4749.792088,9844.739029
956.712354,-1998.556043,7814.174080,10732.986159
956.712684,-3552.988522,7431.126331,12435.459826
956.713013,-4663.297435,4903.011187,13101.645173
956.713343,-4737.318029,459.657299,11103.089130
956.713672,-4589.276840,-3370.820191,7994.224174
956.714002,-3034.844362,-6894.859482,6809.894666
956.714331,-740.205942,-6741.640382,6365.771101
956.714660,888.247130,-3907.087040,5995.668130
956.714990,2738.761985,-689.485948,6735.874072
956.715319,2516.700203,2374.896044,8956.491898
956.715649,592.164754,5975.544884,11695.253884
956.715978,-2294.638420,8427.050478,13323.706956
956.716308,-4515.256246,7814.174080,13915.871710
956.716637,-5699.585753,6128.763984,13471.748144
956.716967,-4811.338623,2068.457845,11473.192101
956.717296,-2960.823768,-3600.648841,8808.450710
956.717625,-888.247130,-7431.126331,6587.832884
956.717955,962.267725,-7507.735880,5329.482782
956.718284,2590.720797,-4443.353888,6365.771101
956.718614,4145.153275,536.266849,8364.327145
956.718943,3701.029710,3217.601092,10140.821405
956.719273,1332.370696,6052.154434,11843.295072
956.719602,-1332.370696,9193.145976,11991.336260
956.719932,-2812.782580,8963.317327,12879.583391
956.720261,-3404.947333,6052.154434,12657.521608
956.720590,-3478.967927,1762.019645,10955.047942
956.720920,-3256.906145,-2681.334243,8290.306550
956.721249,-2368.659014,-6052.154434,6439.791695
956.721579,-740.205942,-6128.763984,5551.544565
956.721908,1036.288319,-3447.429741,5329.482782
956.722238,3256.906145,-459.657299,6143.709319
956.722567,3404.947333,2374.896044,8364.327145
956.722896,1036.288319,6205.373534,10955.047942
956.723226,-1924.535449,9193.145976,12213.398043
956.723555,-4293.194464,9806.022374,12731.542202
956.723885,-5551.544565,7584.345430,12583.501014
956.724214,-4737.318029,1455.581446,11547.212695
956.724544,-3034.844362,-3370.820191,9326.594869
956.724873,-1702.473667,-7124.688131,6513.812290
956.725203,148.041188,-7277.907231,5403.503377
956.725532,1998.556043,-4213.525239,5921.647536
956.725861,4441.235652,-1608.800546,8216.285956
956.726191,4737.318029,2298.286494,10066.800811
956.726520,2294.638420,6741.640382,11399.171507
956.726850,-222.061783,9729.412825,11695.253884
956.727179,-2220.617826,8733.488677,12657.521608
956.727509,-2886.803174,6052.154434,13101.645173
956.727838,-3330.926739,2145.067394,12065.356855
956.728167,-3034.844362,-3064.381992,9104.533087
956.728497,-2960.823768,-5898.935335,7105.977043
956.728826,-1554.432478,-6435.202183,5477.523971
956.729156,296.082377,-4903.011187,5033.400406
956.729485,3182.885551,-2604.724693,6735.874072
956.729815,4071.132681,689.485948,9252.574275
956.730144,1554.432478,4366.744339,11695.253884
956.730474,-2220.617826,8120.612279,13027.624579
956.730803,-4811.338623,9499.584175,13915.871710
956.731132,-5921.647536,7354.516781,13767.830521
956.731462,-4885.359217,2145.067394,12731.542202
956.731791,-3552.988522,-3447.429741,9770.718434
956.732121,-1702.473667,-7201.297681,6957.935855
956.732450,-222.061783,-8273.831378,5033.400406
956.732780,1628.453072,-6358.592633,5625.565159
956.733109,3108.864956,-2911.162892,7105.977043
956.733438,3775.050304,919.314598,8956.491898
956.733768,1776.494261,4443.353888,10881.027347
956.734097,-592.164754,8656.879127,11621.233289
956.734427,-2590.720797,9499.584175,12361.439231
956.734756,-3627.009116,7124.688131,12065.356855
956.735086,-3997.112087,2451.505594,11325.150913
956.735415,-3701.029710,-2068.457845,8956.491898
956.735745,-3108.864956,-5515.887586,7105.977043
956.736074,-2368.659014,-5822.325785,5403.503377
956.736403,-296.082377,-4903.011187,4515.256246
956.736733,1924.535449,-3600.648841,5921.647536
956.737062,2886.803174,-766.095498,8660.409521
956.737392,0.000000,3830.477490,11621.233289
956.737721,-3478.967927,8120.612279,13101.645173
956.738051,-5551.544565,8963.317327,13767.830521
956.738380,-6143.709319,7660.954980,14137.933492
956.738709,-5477.523971,2757.943793,12435.459826
956.739039,-3775.050304,-3064.381992,9400.615463
956.739368,-2294.638420,-6511.811733,7550.100608
956.739698,-740.205942,-6818.249932,7254.018232
956.740027,1406.391290,-4826.401637,7624.121203
956.740357,2886.803174,-1915.238745,7994.224174
956.740686,3849.070898,1302.362347,8512.368333
956.741016,3034.844362,3524.039291,10140.821405
956.741345,1480.411884,6971.469032,11843.295072
956.741674,-962.267725,9039.926876,13471.748144
956.742004,-2886.803174,8427.050478,13323.706956
956.742333,-3923.091493,4749.792088,11177.109724
956.742663,-2886.803174,76.609550,7994.224174
956.742992,-592.164754,-4290.134789,5847.626942
956.743322,1480.411884,-6818.249932,4441.235652
956.743651,2442.679609,-5056.230287,5329.482782
956.743981,3034.844362,-1455.581446,6735.874072
956.744310,2368.659014,2451.505594,8808.450710
956.744639,-222.061783,5669.106685,11103.089130
956.744969,-3775.050304,9269.755526,11769.274478
956.745298,-4737.318029,9882.631924,12287.418637
956.745628,-4811.338623,6358.592633,11695.253884
956.745957,-3775.050304,1991.848295,11473.192101
956.746287,-3108.864956,-2451.505594,9252.574275
956.746616,-3108.864956,-5439.278036,6883.915261
956.746945,-1184.329507,-6281.983084,5773.606348
956.747275,1258.350101,-4903.011187,6439.791695
956.747604,4441.235652,-1838.629195,7846.182985
956.747934,5403.503377,1072.533697,9400.615463
956.748263,3627.009116,3830.477490,11251.130318
956.748593,1628.453072,7890.783629,12509.480420
956.748922,-962.267725,9116.536426,13841.851115
956.749252,-3034.844362,8273.831378,13249.686362
956.749581,-3923.091493,5132.839837,11029.068536
956.749910,-2516.700203,-842.705048,8068.244768
956.750240,-1184.329507,-6128.763984,6365.771101
956.750569,-888.247130,-7431.126331,5847.626942
956.750899,-518.144159,-5745.716235,7105.977043
956.751228,0.000000,-1838.629195,8068.244768
956.751558,148.041188,1225.752797,9326.594869
956.751887,-814.226536,3140.991542,11251.130318
956.752216,-2368.659014,5669.106685,11843.295072
956.752546,-3997.112087,7584.345430,12065.356855
956.752875,-4959.379811,6435.202183,12731.542202
956.753205,-4959.379811,2834.553343,12879.583391
956.753534,-4441.235652,-995.924147,10955.047942
956.753864,-2960.823768,-5209.449386,7994.224174
956.754193,-666.185348,-8044.002729,5625.565159
956.754523,2072.576638,-5975.544884,5551.544565
956.754852,4293.194464,-3140.991542,7254.018232
956.755181,5477.523971,-383.047749,8956.491898
956.755511,2886.803174,4519.963438,10584.944971
956.755840,-518.144159,7507.735880,11621.233289
956.756170,-2072.576638,7890.783629,13545.768739
956.756499,-3923.091493,7354.516781,13619.789333
956.756829,-5107.421000,4290.134789,11399.171507
956.757158,-3849.070898,-1378.971896,8364.327145
956.757487,-1702.473667,-6128.763984,5995.668130
956.757817,-666.185348,-7277.907231,4885.359217
956.758146,0.000000,-6358.592633,5995.668130
956.758476,518.144159,-2681.334243,7328.038826
956.758805,370.102971,2221.676944,7920.203579
956.759135,-814.226536,4443.353888,9992.780217
956.759464,-1554.432478,6358.592633,11991.336260
956.759794,-3627.009116,7737.564530,13471.748144
956.760123,-5403.503377,6128.763984,13693.809927
956.760452,-6143.709319,3677.258390,12731.542202
956.760782,-5107.421000,153.219100,10214.842000
956.761111,-3034.844362,-3983.696590,8290.306550
956.761441,-814.226536,-7814.174080,6883.915261
956.761770,1406.391290,-6665.030833,6587.832884
956.762100,3997.112087,-2604.724693,7624.121203
956.762429,5403.503377,536.266849,8586.388927
956.762758,3478.967927,4519.963438,10288.862594
956.763088,444.123565,7584.345430,11473.192101
956.763417,-1998.556043,8733.488677,13323.706956
956.763747,-2960.823768,7660.954980,14359.995275
956.764076,-4145.153275,5209.449386,13249.686362
956.764406,-3997.112087,612.876398,9770.718434
956.764735,-2294.638420,-4673.182538,6661.853478
956.765065,-666.185348,-7048.078582,5033.400406
956.765394,666.185348,-6128.763984,5181.441594
956.765723,1924.535449,-2528.115143,6883.915261
956.766053,2368.659014,1685.410096,8290.306550
956.766382,-296.082377,5669.106685,9548.656652
956.766712,-1998.556043,7967.393179,11029.068536
956.767041,-3330.926739,9116.536426,11547.212695
956.767371,-4071.132681,7048.078582,12065.356855
956.767700,-4515.256246,4366.744339,11399.171507
956.768030,-4663.297435,-229.828649,9474.636058
956.768359,-3182.885551,-3983.696590,7698.141797
956.768688,-1332.370696,-6435.202183,6587.832884
956.769018,888.247130,-5209.449386,6143.709319
956.769347,3627.009116,-2757.943793,6735.874072
956.769677,5625.565159,0.000000,8068.244768
956.770006,4293.194464,3524.039291,10140.821405
956.770336,444.123565,6741.640382,11843.295072
956.770665,-2294.638420,8503.660028,13619.789333
956.770994,-4145.153275,8503.660028,14434.015869
956.771324,-4589.276840,5515.887586,13027.624579
956.771653,-2516.700203,0.000000,9918.759623
956.771983,-1036.288319,-5056.230287,6809.894666
956.772312,444.123565,-7737.564530,5033.400406
956.772642,1332.370696,-6741.640382,5625.565159
956.772971,1628.453072,-2451.505594,7402.059420
956.773301,1406.391290,1762.019645,9918.759623
956.773630,-296.082377,4366.744339,11621.233289
956.773959,-2812.782580,6741.640382,12435.459826
956.774289,-4589.276840,7967.393179,13027.624579
956.774618,-5033.400406,6435.202183,13027.624579
956.774948,-4959.379811,2911.162892,12139.377449
956.775277,-4589.276840,-1149.143247,10214.842000
956.775607,-3330.926739,-5132.839837,7698.141797
956.775936,-1924.535449,-7584.345430,6069.688724
956.776265,592.164754,-6665.030833,6217.729913
956.776595,3330.926739,-3217.601092,7105.977043
956.776924,4737.318029,229.828649,8142.265362
956.777254,3775.050304,2987.772442,9548.656652
956.777583,1480.411884,6281.983084,10881.027347
956.777913,-814.226536,8044.002729,12213.398043
956.778242,-2960.823768,7431.126331,13693.809927
956.778572,-4737.318029,4903.011187,12657.521608
956.778901,-4293.194464,229.828649,10140.821405
956.779230,-2590.720797,-4826.401637,7105.977043
956.779560,-1036.288319,-7967.393179,5403.503377
956.779889,592.164754,-7507.735880,5181.441594
956.780219,1776.494261,-4519.963438,6661.853478
956.780548,1850.514855,459.657299,8364.327145
956.780878,-518.144159,4673.182538,10362.883188
956.781207,-2886.803174,6971.469032,11473.192101
956.781536,-4293.194464,7967.393179,12583.501014
956.781866,-5403.503377,7201.297681,13101.645173
956.782195,-5477.523971,3217.601092,12731.542202
956.782525,-5477.523971,-306.438199,10658.965565
956.782854,-4737.318029,-4366.744339,8290.306550
956.783184,-2738.761985,-7201.297681,6883.915261
956.783513,0.000000,-7124.688131,6291.750507
956.783843,2886.803174,-3600.648841,7402.059420
956.784172,5477.523971,0.000000,8660.409521
956.784501,3997.112087,3447.429741,9992.780217
956.784831,518.144159,7354.516781,10584.944971
956.785160,-1702.473667,8197.221829,12509.480420
956.785490,-2368.659014,7354.516781,14952.160028
956.785819,-4293.194464,6358.592633,13841.851115
956.786149,-4367.215058,1991.848295,10140.821405
956.786478,-2442.679609,-3830.477490,6957.935855
956.786808,-148.041188,-7277.907231,4811.338623
956.787137,1332.370696,-6665.030833,4737.318029
956.787467,1998.556043,-3217.601092,6661.853478
956.787796,2220.617826,1378.971896,8660.409521
956.788126,-148.041188,5439.278036,10658.965565
956.788455,-2664.741391,8120.612279,11695.253884
956.788785,-3701.029710,9193.145976,11325.150913
956.789114,-3997.112087,7048.078582,12139.377449
956.789444,-4515.256246,3830.477490,12213.398043
956.789773,-4589.276840,689.485948,10362.883188
956.790103,-3997.112087,-3140.991542,7402.059420
956.790432,-1850.514855,-6511.811733,5773.606348
956.790762,962.267725,-5898.935335,4959.379811
956.791091,4515.256246,-2834.553343,6587.832884
956.791421,7179.997637,-306.438199,7772.162391
956.791750,5255.462188,3217.601092,9474.636058
956.792080,1036.288319,7967.393179,10807.006753
956.792409,-2146.597232,10572.117872,11991.336260
956.792739,-4293.194464,8733.488677,13915.871710
956.793068,-5033.400406,6128.763984,13323.706956
956.793398,-4589.276840,766.095498,10140.821405
956.793727,-2368.659014,-5209.449386,6957.935855
956.794057,0.000000,-8120.612279,4737.318029
956.794386,1332.370696,-7584.345430,5699.585753
956.794716,2072.576638,-3753.867940,7328.038826
956.795045,2368.659014,383.047749,9326.594869
956.795375,1036.288319,4826.401637,11473.192101
956.795704,-1036.288319,7737.564530,12361.439231
956.796034,-2590.720797,8963.317327,12953.603985
956.796363,-3997.112087,6205.373534,13175.665768
956.796693,-3997.112087,2145.067394,14063.912898
956.797022,-4737.318029,-383.047749,11547.212695
956.797352,-4663.297435,-3677.258390,7994.224174
956.797681,-2146.597232,-7277.907231,5699.585753
956.798011,518.144159,-7660.954980,5255.462188
956.798340,3627.009116,-4673.182538,6143.709319
956.798670,5995.668130,-1225.752797,7994.224174
956.798999,4293.194464,3370.820191,9992.780217
956.799329,222.061783,7737.564530,11325.150913
956.799658,-2294.638420,9422.974625,12731.542202
956.799988,-3849.070898,7967.393179,13767.830521
956.800317,-5255.462188,5209.449386,12879.583391
956.800647,-4589.276840,76.609550,9992.780217
956.800976,-3627.009116,-4366.744339,7254.018232
956.801306,-1924.535449,-7048.078582,5255.462188
956.801635,-518.144159,-8350.440928,5033.400406
956.801965,814.226536,-4826.401637,6143.709319
956.802294,1924.535449,-229.828649,8364.327145
956.802624,814.226536,3830.477490,10214.842000
956.802953,-1850.514855,7048.078582,11103.089130
956.803283,-3478.967927,9269.755526,11325.150913
956.803612,-4145.153275,7431.126331,12213.398043
956.803942,-4071.132681,3907.087040,12953.603985
956.804271,-4367.215058,76.609550,11621.233289
956.804601,-4589.276840,-3677.258390,8808.450710
956.804930,-3256.906145,-7354.516781,6661.853478
956.805260,-666.185348,-7201.297681,6661.853478
956.805589,2664.741391,-4673.182538,7920.203579
956.805919,4737.318029,-995.924147,9326.594869
956.806248,3627.009116,2528.115143,9992.780217
956.806578,1110.308913,5132.839837,10732.986159
956.806907,-1850.514855,8580.269578,11843.295072
956.807237,-3330.926739,8503.660028,13471.748144
956.807566,-4145.153275,6358.592633,12509.480420
956.807896,-3627.009116,1378.971896,9252.574275
956.808225,-1924.535449,-3753.867940,6365.771101
956.808555,-296.082377,-7660.954980,5847.626942
956.808884,296.082377,-7124.688131,6365.771101
956.809214,222.061783,-2451.505594,7254.018232
956.809543,1036.288319,1072.533697,8882.471304
956.809873,370.102971,4826.401637,10732.986159
956.810202,-1406.391290,6894.859482,11399.171507
956.810532,-3182.885551,8427.050478,11473.192101
956.810861,-4293.194464,7584.345430,11843.295072
956.811191,-5033.400406,4903.011187,12139.377449
956.811520,-4367.215058,919.314598,11325.150913
956.811850,-3330.926739,-3294.210641,8956.491898
956.812179,-2516.700203,-6435.202183,6513.812290
956.812509,0.000000,-6511.811733,5181.441594
956.812838,3404.947333,-4519.963438,6291.750507
956.813168,5847.626942,-1225.752797,7846.182985
956.813497,5033.400406,2528.115143,9844.739029
956.813827,1998.556043,5822.325785,11695.253884
956.814156,-592.164754,9576.193725,12879.583391
956.814486,-2368.659014,9652.803275,13841.851115
956.814815,-2812.782580,7048.078582,12805.562797
956.815145,-2294.638420,2145.067394,9770.718434
956.815474,-962.267725,-3447.429741,6439.791695
956.815804,0.000000,-6741.640382,4811.338623
956.816133,666.185348,-6435.202183,6217.729913
956.816463,296.082377,-2451.505594,7994.224174
956.816792,296.082377,1149.143247,9030.512492
956.817122,-370.102971,3983.696590,10807.006753
956.817451,-1628.453072,6894.859482,11621.233289
956.817781,-2590.720797,8273.831378,10807.006753
956.818110,-3478.967927,5745.716235,10732.986159
956.818440,-4293.194464,2681.334243,12139.377449
956.818769,-4885.359217,306.438199,12435.459826
956.819099,-5551.544565,-2298.286494,10140.821405
956.819428,-3997.112087,-5439.278036,7476.080014
956.819757,-592.164754,-6128.763984,5551.544565
956.820087,4367.215058,-5669.106685,5773.606348
956.820416,7772.162391,-2987.772442,7179.997637
956.820746,7624.121203,1838.629195,9104.533087
956.821075,3256.906145,6971.469032,11103.089130
956.821405,-666.185348,9806.022374,13101.645173
956.821734,-3034.844362,9576.193725,15174.221811
956.822064,-4071.132681,7584.345430,14211.954086
956.822393,-3330.926739,1762.019645,10732.986159
956.822723,-1776.494261,-4366.744339,7031.956449
956.823052,-888.247130,-7354.516781,4589.276840
956.823382,-666.185348,-8580.269578,4959.379811
956.823711,-518.144159,-6052.154434,6365.771101
956.824041,-444.123565,-612.876398,8216.285956
956.824370,-1332.370696,3140.991542,9992.780217
956.824700,-2664.741391,5515.887586,11769.274478
956.825029,-3849.070898,7354.516781,10807.006753
956.825359,-4589.276840,5362.668486,11621.233289
956.825688,-4737.318029,2298.286494,13989.892304
956.826018,-5107.421000,1608.800546,13471.748144
956.826347,-5699.585753,-1149.143247,9844.739029
956.826677,-3997.112087,-6128.763984,6217.729913
956.827006,0.000000,-7737.564530,4737.318029
956.827336,3997.112087,-5898.935335,5477.523971
956.827665,7698.141797,-3294.210641,7031.956449
956.827995,6735.874072,1608.800546,8882.471304
956.828324,1924.535449,7354.516781,11029.068536
956.828654,-1924.535449,9652.803275,13027.624579
956.828983,-3627.009116,8580.269578,14730.098246
956.829313,-4663.297435,7967.393179,14063.912898
956.829642,-4145.153275,2757.943793,11251.130318
956.829972,-2738.761985,-3907.087040,8068.244768
956.830301,-2072.576638,-6818.249932,5699.585753
956.830631,-1406.391290,-8503.660028,5329.482782
956.830960,-814.226536,-5209.449386,5995.668130
956.831290,-518.144159,-536.266849,7920.203579
956.831619,-148.041188,2451.505594,10066.800811
956.831949,-1554.432478,5362.668486,11917.315666
956.832278,-2812.782580,8197.221829,11251.130318
956.832608,-2886.803174,7737.564530,11769.274478
956.832937,-2886.803174,4290.134789,14137.933492
956.833267,-4219.173869,3677.258390,13471.748144
956.833596,-4811.338623,1455.581446,9326.594869
956.833926,-3108.864956,-4213.525239,5625.565159
956.834255,518.144159,-6281.983084,4071.132681
956.834585,4515.256246,-6435.202183,5033.400406
956.834914,6809.894666,-3294.210641,7105.977043
956.835244,5551.544565,1302.362347,9844.739029
956.835573,962.267725,6741.640382,11769.274478
956.835903,-2590.720797,9269.755526,13027.624579
956.836232,-3330.926739,8580.269578,13841.851115
956.836562,-2812.782580,7048.078582,13693.809927
956.836891,-1184.329507,2987.772442,11177.109724
956.837221,0.000000,-2068.457845,7254.018232
956.837550,444.123565,-4443.353888,4293.194464
956.837880,1332.370696,-5898.935335,3478.967927
956.838209,2146.597232,-4366.744339,5181.441594
956.838539,2664.741391,-459.657299,8216.285956
956.838868,1184.329507,3677.258390,10732.986159
956.839198,-1776.494261,5669.106685,11843.295072
956.839527,-4071.132681,6511.811733,12583.501014
956.839857,-4663.297435,5362.668486,13915.871710
956.840186,-5403.503377,4366.744339,14582.057057
956.840516,-5921.647536,2221.676944,12435.459826
956.840845,-4885.359217,-1072.533697,8512.368333
956.841175,-2294.638420,-5209.449386,5255.462188
956.841504,1850.514855,-7124.688131,3775.050304
956.841834,5773.606348,-5669.106685,5255.462188
956.842163,6661.853478,-1762.019645,7698.141797
956.842493,4959.379811,3677.258390,10140.821405
956.842822,1110.308913,6358.592633,12287.418637
956.843152,-2294.638420,8427.050478,13249.686362
956.843481,-4515.256246,7584.345430,14137.933492
956.843811,-4737.318029,5822.325785,14137.933492
956.844140,-3775.050304,1608.800546,11695.253884
956.844470,-2294.638420,-3064.381992,7698.141797
956.844799,-1184.329507,-6894.859482,4145.153275
956.845129,222.061783,-8580.269578,3627.009116
956.845458,1184.329507,-5592.497135,5995.668130
956.845788,1480.411884,-306.438199,9178.553681
956.846117,222.061783,3830.477490,10881.027347
956.846447,-1924.535449,6588.421283,11251.130318
956.846776,-2886.803174,7431.126331,10436.903782
956.847106,-3404.947333,4290.134789,12435.459826
956.847435,-4367.215058,2451.505594,14434.015869
956.847765,-6143.709319,1685.410096,12879.583391
956.848094,-6291.750507,-1378.971896,9400.615463
956.848424,-4293.194464,-5745.716235,6143.709319
956.848753,-444.123565,-7431.126331,4589.276840
956.849083,3923.091493,-6511.811733,4885.359217
956.849412,6513.812290,-3830.477490,6291.750507
956.849742,5551.544565,1532.190996,8512.368333
956.850071,1850.514855,6588.421283,11029.068536
956.850401,-1554.432478,8044.002729,13175.665768
956.850730,-3849.070898,7890.783629,14730.098246
956.851060,-5551.544565,6894.859482,14211.954086
956.851389,-4737.318029,2604.724693,11917.315666
956.851719,-2812.782580,-2374.896044,8882.471304
956.852048,-1184.329507,-5822.325785,5625.565159
956.852378,0.000000,-8427.050478,3849.070898
956.852707,1258.350101,-5975.544884,5033.400406
956.853037,2812.782580,-1608.800546,7698.141797
956.853366,2442.679609,2528.115143,10288.862594
956.853696,-222.061783,5669.106685,11621.233289
956.854025,-2516.700203,7354.516781,11547.212695
956.854355,-3330.926739,6052.154434,14359.995275
956.854684,-4219.173869,4826.401637,15840.407159
956.855014,-5477.523971,3983.696590,14211.954086
956.855343,-4737.318029,-306.438199,10140.821405
956.855673,-2368.659014,-4826.401637,6439.791695
956.856002,1628.453072,-6741.640382,3701.029710
956.856332,5255.462188,-5669.106685,3849.070898
956.856661,7402.059420,-2528.115143,5847.626942
956.856990,5625.565159,3447.429741,8512.368333
956.857320,1702.473667,7431.126331,11103.089130
956.857649,-1554.432478,8963.317327,12435.459826
956.857979,-4219.173869,9346.365076,13767.830521
956.858308,-5329.482782,7048.078582,13915.871710
956.858638,-4885.359217,3064.381992,11843.295072
956.858967,-3478.967927,-1762.019645,8068.244768
956.859297,-1776.494261,-4749.792088,4737.318029
956.859626,0.000000,-7354.516781,3256.906145
956.859956,1406.391290,-4903.011187,4293.194464
956.860285,2738.761985,-995.924147,6661.853478
956.860615,2664.741391,3064.381992,9178.553681
956.860944,370.102971,7048.078582,10732.986159
956.861274,-1776.494261,7967.393179,11991.336260
956.861603,-2886.803174,6894.859482,14359.995275
956.861933,-4219.173869,6435.202183,15544.324782
956.862262,-5181.441594,4136.915689,13545.768739
956.862592,-4145.153275,-153.219100,9400.615463
956.862921,-1776.494261,-4673.182538,5773.606348
956.863251,1332.370696,-7354.516781,4071.132681
956.863580,4441.235652,-6665.030833,5107.421000
956.863910,5625.565159,-2298.286494,6883.915261
956.864239,3775.050304,2911.162892,8882.471304
956.864569,148.041188,5822.325785,11029.068536
956.864898,-3108.864956,8273.831378,13027.624579
956.865228,-5107.421000,8580.269578,14434.015869
956.865557,-5625.565159,5745.716235,14137.933492
956.865887,-4959.379811,1072.533697,11399.171507
956.866216,-3552.988522,-3447.429741,8142.265362
956.866546,-2146.597232,-6665.030833,5551.544565
956.866875,-962.267725,-8810.098227,4367.215058
956.867205,592.164754,-5975.544884,5995.668130
956.867534,2146.597232,-1378.971896,8512.368333
956.867864,1850.514855,2298.286494,10584.944971
956.868193,222.061783,5056.230287,11621.233289
956.868523,-1776.494261,6358.592633,12361.439231
956.868852,-2886.803174,5209.449386,14582.057057
956.869182,-4441.235652,4673.182538,16062.468941
956.869511,-5181.441594,2834.553343,14211.954086
956.869841,-4737.318029,-536.266849,9770.718434
956.870170,-1924.535449,-5286.058936,5847.626942
956.870500,2146.597232,-8120.612279,3108.864956
956.870829,5625.565159,-6665.030833,3182.885551
956.871159,7105.977043,-3524.039291,4811.338623
956.871488,5329.482782,2451.505594,7920.203579
956.871818,444.123565,6205.373534,10436.903782
956.872147,-3108.864956,8427.050478,12583.501014
956.872477,-5107.421000,7737.564530,14508.036463
956.872806,-6587.832884,5515.887586,14804.118840
956.873136,-6809.894666,2374.896044,11843.295072
956.873465,-5477.523971,-2834.553343,8586.388927
956.873795,-3478.967927,-7354.516781,5329.482782
956.874124,-1480.411884,-8810.098227,3923.091493
956.874454,370.102971,-5669.106685,4959.379811
956.874783,3404.947333,-2451.505594,7550.100608
956.875113,3849.070898,2374.896044,9992.780217
956.875442,962.267725,5669.106685,11621.233289
956.875772,-1554.432478,8197.221829,12435.459826
956.876101,-3108.864956,8580.269578,14063.912898
956.876431,-4145.153275,7354.516781,14434.015869
956.876760,-4663.297435,3140.991542,13175.665768
956.877090,-4219.173869,-1149.143247,9622.677246
956.877419,-2294.638420,-5362.668486,7031.956449
956.877749,592.164754,-7814.174080,4811.338623
956.878078,3256.906145,-5439.278036,5847.626942
956.878408,5033.400406,-1455.581446,7031.956449
956.878737,5329.482782,2221.676944,9104.533087
956.879067,2368.659014,4979.620737,11473.192101
956.879396,-1110.308913,8580.269578,12805.562797
956.879726,-3701.029710,9652.803275,14656.077652
956.880055,-5403.503377,8120.612279,14359.995275
956.880385,-5033.400406,4213.525239,11843.295072
956.880714,-3701.029710,-689.485948,7402.059420
956.881044,-1406.391290,-5592.497135,3552.988522
956.881373,1184.329507,-8120.612279,2368.659014
956.881703,2442.679609,-5669.106685,4293.194464
956.882032,2664.741391,-459.657299,6957.935855
956.882362,2072.576638,3907.087040,9474.636058
956.882691,-296.082377,7048.078582,10362.883188
956.883021,-1480.411884,9116.536426,11103.089130
956.883350,-2590.720797,6894.859482,13989.892304
956.883680,-4145.153275,4903.011187,15174.221811
956.884009,-6143.709319,3830.477490,14137.933492
956.884339,-6291.750507,459.657299,9992.780217
956.884668,-3997.112087,-4213.525239,6883.915261
956.884998,-222.061783,-7814.174080,4589.276840
956.885327,4145.153275,-6281.983084,4219.173869
956.885657,6143.709319,-3447.429741,4959.379811
956.885986,5995.668130,1608.800546,7031.956449
956.886316,2886.803174,5898.935335,10288.862594
956.886645,-1332.370696,8427.050478,12805.562797
956.886975,-3997.112087,9806.022374,14359.995275
956.887304,-6217.729913,7354.516781,14285.974681
956.887634,-5181.441594,2834.553343,12509.480420
956.887963,-3923.091493,-2834.553343,9178.553681
956.888293,-2516.700203,-6971.469032,6513.812290
956.888622,-1332.370696,-9269.755526,5329.482782
956.888952,-296.082377,-6665.030833,7105.977043
956.889281,962.267725,-2221.676944,8660.409521
956.889611,1036.288319,2221.676944,10510.924376
956.889940,0.000000,4826.401637,11325.150913
956.890270,-1776.494261,6665.030833,11399.171507
956.890599,-2516.700203,4903.011187,13323.706956
956.890929,-3627.009116,4749.792088,15174.221811
956.891258,-5773.606348,3983.696590,13989.892304
956.891588,-5625.565159,-153.219100,10584.944971
956.891917,-3552.988522,-4979.620737,7179.997637
956.892247,0.000000,-7660.954980,4737.318029
956.892576,3256.906145,-7507.735880,3923.091493
956.892906,5773.606348,-4443.353888,5329.482782
956.893235,5625.565159,842.705048,7846.182985
956.893565,2220.617826,5592.497135,10362.883188
956.893894,-1554.432478,7354.516781,12065.356855
956.894224,-4071.132681,9193.145976,13397.727550
956.894553,-5625.565159,7431.126331,13619.789333
956.894883,-5329.482782,2757.943793,12213.398043
956.895212,-3849.070898,-1225.752797,9252.574275
956.895542,-2590.720797,-5515.887586,6143.709319
956.895871,-1184.329507,-8273.831378,3552.988522
956.896201,-444.123565,-6588.421283,4737.318029
956.896530,1184.329507,-2374.896044,7105.977043
956.896860,1702.473667,1762.019645,9696.697840
956.897189,0.000000,5132.839837,11103.089130
956.897519,-1702.473667,8350.440928,10584.944971
956.897848,-1924.535449,6128.763984,12953.603985
956.898178,-2442.679609,4213.525239,14952.160028
956.898507,-4737.318029,4136.915689,14211.954086
956.898837,-5107.421000,76.609550,11029.068536
956.899166,-2664.741391,-3830.477490,7550.100608
956.899496,666.185348,-5822.325785,6069.688724
956.899825,4367.215058,-6358.592633,5403.503377
956.900155,6661.853478,-4136.915689,6365.771101
956.900484,6513.812290,1149.143247,8364.327145
956.900814,3182.885551,6128.763984,11103.089130
956.901143,-740.205942,7890.783629,13101.645173
956.901473,-4293.194464,9576.193725,14730.098246
956.901802,-6735.874072,8656.879127,14878.139434
956.902132,-6291.750507,4290.134789,12879.583391
956.902461,-3997.112087,-842.705048,9030.512492
956.902791,-2072.576638,-5209.449386,4663.297435
956.903120,-888.247130,-8656.879127,2368.659014
956.903450,370.102971,-6894.859482,3478.967927
956.903779,1850.514855,-1915.238745,6365.771101
956.904109,2294.638420,3217.601092,9104.533087
956.904438,592.164754,6511.811733,10658.965565
956.904768,-888.247130,9499.584175,9918.759623
956.905097,-1406.391290,8197.221829,12361.439231
956.905427,-2294.638420,4749.792088,14952.160028
956.905756,-4145.153275,5056.230287,14730.098246
956.906086,-5477.523971,2145.067394,10658.965565
956.906415,-3775.050304,-3064.381992,6809.894666
956.906745,-296.082377,-6511.811733,5255.462188
956.907074,3182.885551,-6128.763984,4515.256246
956.907404,5773.606348,-3830.477490,5181.441594
956.907733,5625.565159,153.219100,6957.935855
956.908063,2812.782580,6205.373534,9474.636058
956.908392,-666.185348,7660.954980,12509.480420
956.908722,-3552.988522,8197.221829,14211.954086
956.909051,-5847.626942,8427.050478,14434.015869
956.909381,-5847.626942,4060.306139,12731.542202
956.909710,-4367.215058,-1532.190996,9918.759623
956.910040,-3552.988522,-4826.401637,6809.894666
956.910370,-2220.617826,-7814.174080,5107.421000
956.910699,-962.267725,-7507.735880,5921.647536
956.911029,518.144159,-3140.991542,8290.306550
956.911358,1332.370696,1762.019645,10510.924376
956.911688,518.144159,4213.525239,11399.171507
956.912017,-1036.288319,6281.983084,12065.356855
956.912347,-2220.617826,5975.544884,14285.974681
956.912676,-3330.926739,5209.449386,16210.510130
956.913006,-4515.256246,5132.839837,14878.139434
956.913335,-4663.297435,2068.457845,10436.903782
956.913665,-2072.576638,-3830.477490,5699.585753
956.913994,1480.411884,-7967.393179,3330.926739
956.914324,4811.338623,-7584.345430,3552.988522
956.914653,6735.874072,-3830.477490,5255.462188
956.914983,5551.544565,1685.410096,7772.162391
956.915312,1628.453072,6205.373534,9770.718434
956.915642,-1480.411884,7967.393179,11843.295072
956.915971,-3923.091493,7737.564530,14063.912898
956.916301,-6069.688724,6358.592633,14952.160028
956.916630,-6957.935855,3294.210641,13545.768739
956.916960,-6883.915261,-766.095498,10066.800811
956.917289,-5773.606348,-4903.011187,6883.915261
956.917619,-3404.947333,-7737.564530,4441.235652
956.917948,-1110.308913,-7507.735880,3552.988522
956.918278,2220.617826,-4290.134789,4885.359217
956.918607,3849.070898,-153.219100,6883.915261
956.918937,2590.720797,3830.477490,9696.697840
956.919266,-444.123565,6894.859482,11251.130318
956.919596,-2442.679609,8886.707777,13249.686362
956.919925,-4145.153275,7431.126331,14952.160028
956.920255,-5255.462188,5056.230287,15100.201217
956.920584,-4959.379811,842.705048,12879.583391
956.920914,-3627.009116,-3677.258390,8512.368333
956.921243,-814.226536,-7967.393179,6217.729913
956.921573,2590.720797,-8044.002729,5551.544565
956.921902,4885.359217,-4519.963438,6439.791695
956.922232,6513.812290,76.609550,8142.265362
956.922561,3997.112087,3140.991542,9992.780217
956.922891,370.102971,7354.516781,12435.459826
956.923220,-2590.720797,10265.679673,14878.139434
956.923550,-4885.359217,8963.317327,15396.283594
956.923879,-5551.544565,5515.887586,13619.789333
956.924209,-4515.256246,153.219100,9548.656652
956.924538,-2590.720797,-3907.087040,5699.585753
956.924868,-666.185348,-8273.831378,3330.926739
956.925197,666.185348,-8044.002729,3849.070898
956.925527,1110.308913,-3677.258390,6143.709319
956.925856,1480.411884,1532.190996,8364.327145
956.926186,444.123565,5209.449386,10214.842000
956.926515,-1332.370696,7967.393179,10807.006753
956.926845,-2442.679609,7431.126331,12139.377449
956.927174,-3997.112087,5822.325785,14434.015869
956.927504,-4959.379811,5209.449386,15470.304188
956.927833,-5625.565159,2911.162892,12509.480420
956.928163,-3775.050304,-1225.752797,8290.306550
956.928492,-666.185348,-5592.497135,5107.421000
956.928822,2960.823768,-6894.859482,3330.926739
956.929151,6217.729913,-4213.525239,3404.947333
956.929481,7698.141797,-842.705048,5699.585753
956.929810,5181.441594,4903.011187,8438.347739
956.930140,666.185348,8044.002729,11399.171507
956.930469,-2960.823768,10189.070123,12657.521608
956.930799,-4885.359217,8656.879127,14211.954086
956.931128,-4885.359217,5822.325785,13989.892304
956.931458,-4589.276840,612.876398,10658.965565
956.931787,-3478.967927,-3983.696590,7550.100608
956.932117,-2590.720797,-7277.907231,5255.462188
956.932446,-1258.350101,-7277.907231,5255.462188
956.932776,0.000000,-3907.087040,6809.894666
956.933105,962.267725,-459.657299,9326.594869
956.933435,0.000000,3064.381992,11177.109724
956.933764,-1998.556043,6052.154434,12139.377449
956.934094,-3182.885551,6741.640382,13693.809927
956.934423,-4071.132681,5822.325785,14656.077652
956.934753,-4737.318029,4903.011187,14656.077652
956.935082,-4293.194464,1302.362347,11769.274478
956.935412,-2738.761985,-2681.334243,7476.080014
956.935741,518.144159,-6511.811733,4885.359217
956.936071,3627.009116,-7354.516781,4071.132681
956.936400,5551.544565,-3830.477490,4737.318029
956.936730,6069.688724,0.000000,7179.997637
956.937059,4145.153275,3524.039291,9992.780217
956.937389,518.144159,6052.154434,12435.459826
956.937718,-3182.885551,8273.831378,14137.933492
956.938048,-5773.606348,7967.393179,14878.139434
956.938377,-6883.915261,4596.572988,13693.809927
956.938707,-5329.482782,76.609550,10584.944971
956.939036,-3552.988522,-4519.963438,6365.771101
956.939366,-2072.576638,-7814.174080,3108.864956
956.939696,-444.123565,-7890.783629,3108.864956
956.940025,1406.391290,-5669.106685,5107.421000
956.940355,1628.453072,-766.095498,8364.327145
956.940684,296.082377,4060.306139,9844.739029
956.941014,-2072.576638,6588.421283,10584.944971
956.941343,-2886.803174,6665.030833,11991.336260
956.941673,-3478.967927,4826.401637,14508.036463
956.942002,-5033.400406,4136.915689,15914.427753
956.942332,-6143.709319,2068.457845,13323.706956
956.942661,-4959.379811,-1762.019645,9252.574275
956.942991,-1850.514855,-6205.373534,6957.935855
956.943320,2590.720797,-7277.907231,5329.482782
956.943650,5699.585753,-5822.325785,5477.523971
956.943979,6883.915261,-1991.848295,6439.791695
956.944309,5329.482782,3370.820191,8734.430116
956.944638,1258.350101,6358.592633,11991.336260
956.944968,-2220.617826,9193.145976,15174.221811
956.945297,-5329.482782,9116.536426,15618.345376
956.945627,-6439.791695,6588.421283,14582.057057
956.945956,-4811.338623,1685.410096,10807.006753
956.946286,-2590.720797,-3447.429741,7105.977043
956.946615,-1184.329507,-7277.907231,3627.009116
956.946945,592.164754,-8427.050478,2442.679609
956.947274,1554.432478,-4519.963438,4737.318029
956.947604,2220.617826,689.485948,7772.162391
956.947933,962.267725,4213.525239,10140.821405
956.948263,-1258.350101,6588.421283,11399.171507
956.948592,-3034.844362,7737.564530,12731.542202
956.948922,-3552.988522,6511.811733,14730.098246
956.949251,-4663.297435,6052.154434,15322.262999
956.949581,-5033.400406,2911.162892,12583.501014
956.949910,-3552.988522,-842.705048,8364.327145
956.950240,-592.164754,-4290.134789,4737.318029
956.950569,3330.926739,-5745.716235,2960.823768
956.950899,6809.894666,-3753.867940,3627.009116
956.951228,7624.121203,-383.047749,5329.482782
956.951558,5107.421000,3753.867940,7846.182985
956.951887,1110.308913,6588.421283,11251.130318
956.952217,-2294.638420,9959.241474,13915.871710
956.952546,-5107.421000,9422.974625,14656.077652
956.952876,-6365.771101,5822.325785,14137.933492
956.953205,-5551.544565,842.705048,11325.150913
956.953535,-3701.029710,-3524.039291,8216.285956
956.953864,-2146.597232,-7048.078582,5625.565159
956.954194,-962.267725,-7124.688131,4737.318029
956.954523,592.164754,-3677.258390,5699.585753
956.954853,1998.556043,-919.314598,7920.203579
956.955182,1776.494261,2145.067394,10214.842000
956.955512,-518.144159,5132.839837,12139.377449
956.955841,-2442.679609,7277.907231,13471.748144
956.956171,-3997.112087,6511.811733,14434.015869
956.956500,-4885.359217,5209.449386,14952.160028
956.956830,-4737.318029,1838.629195,12731.542202
956.957159,-2368.659014,-2145.067394,8290.306550
956.957489,370.102971,-6435.202183,4885.359217
956.957818,2812.782580,-6741.640382,4071.132681
956.958148,5033.400406,-4596.572988,5255.462188
956.958477,5773.606348,-689.485948,7179.997637
956.958807,3775.050304,2834.553343,9474.636058
956.959136,0.000000,5592.497135,11843.295072
956.959466,-3256.906145,7967.393179,13841.851115
956.959795,-5625.565159,6818.249932,15026.180623
956.960125,-6957.935855,3753.867940,14656.077652
956.960454,-6291.750507,229.828649,11547.212695
956.960784,-4515.256246,-3677.258390,7698.141797
956.961113,-1776.494261,-6894.859482,3701.029710
956.961443,74.020594,-8350.440928,2960.823768
956.961772,2146.597232,-4903.011187,4219.173869
956.962102,3256.906145,-612.876398,6513.812290
956.962431,2368.659014,3677.258390,8734.430116
956.962761,0.000000,7354.516781,10584.944971
956.963090,-2960.823768,8580.269578,11621.233289
956.963420,-5181.441594,5898.935335,13989.892304
956.963749,-6809.894666,3983.696590,15692.365970
956.964079,-7105.977043,1838.629195,14656.077652
956.964408,-5773.606348,-2451.505594,10288.862594
956.964738,-3034.844362,-7354.516781,6957.935855
956.965067,1110.308913,-8886.707777,5107.421000
956.965397,4737.318029,-6588.421283,5181.441594
956.965726,7179.997637,-2451.505594,6661.853478
956.966056,6809.894666,3140.991542,8586.388927
956.966385,2886.803174,7584.345430,11177.109724
956.966715,-666.185348,9806.022374,13249.686362
956.967044,-3182.885551,9039.926876,14582.057057
956.967374,-4811.338623,7048.078582,14211.954086
956.967703,-4367.215058,2681.334243,10955.047942
956.968033,-2368.659014,-2757.943793,8142.265362
956.968362,-1628.453072,-6741.640382,5699.585753
956.968692,-962.267725,-7660.954980,4441.235652
956.969021,0.000000,-4903.011187,5995.668130
956.969351,1184.329507,-612.876398,8068.244768
956.969681,1406.391290,3370.820191,9844.739029
956.970010,-814.226536,6052.154434,11029.068536
956.970340,-2368.659014,6818.249932,12435.459826
956.970669,-4071.132681,6281.983084,14508.036463
956.970999,-5921.647536,6052.154434,15100.201217
956.971328,-5773.606348,3217.601092,12287.418637
956.971658,-3552.988522,-459.657299,8660.409521
956.971987,-222.061783,-4903.011187,5033.400406
956.972317,3478.967927,-7048.078582,2516.700203
956.972646,7031.956449,-4519.963438,2442.679609
956.972976,9178.553681,0.000000,4737.318029
956.973305,7402.059420,4519.963438,7846.182985
956.973635,2664.741391,7507.735880,11251.130318
956.973964,-2294.638420,10648.727422,12805.562797
956.974294,-5033.400406,9269.755526,14952.160028
956.974623,-6513.812290,6511.811733,15470.304188
956.974953,-5995.668130,1991.848295,13397.727550
956.975282,-4885.359217,-3677.258390,8956.491898
956.975612,-3478.967927,-7584.345430,5329.482782
956.975941,-1702.473667,-8120.612279,3775.050304
956.976271,814.226536,-5132.839837,4737.318029
956.976600,2442.679609,-1378.971896,6513.812290
956.976930,3108.864956,2451.505594,8882.471304
956.977259,148.041188,6052.154434,11251.130318
956.977589,-2220.617826,8273.831378,11991.336260
956.977918,-3552.988522,7431.126331,14285.974681
956.978248,-4589.276840,5515.887586,15470.304188
956.978577,-4959.379811,1685.410096,14359.995275
956.978907,-4293.194464,-1991.848295,10214.842000
956.979236,-1702.473667,-5975.544884,7031.956449
956.979566,1258.350101,-7967.393179,5329.482782
956.979895,3552.988522,-5592.497135,5477.523971
956.980225,5329.482782,-1991.848295,6587.832884
956.980554,5329.482782,1991.848295,9178.553681
956.980884,2516.700203,5592.497135,11843.295072
956.981213,-1776.494261,9576.193725,13323.706956
956.981543,-4885.359217,8733.488677,14211.954086
956.981872,-5921.647536,5362.668486,13841.851115
956.982202,-5995.668130,1455.581446,11695.253884
956.982531,-4219.173869,-2757.943793,7920.203579
956.982861,-2960.823768,-7124.688131,4293.194464
956.983190,-1406.391290,-8886.707777,3034.844362
956.983520,0.000000,-6818.249932,3701.029710
956.983849,1850.514855,-2451.505594,6439.791695
956.984179,1998.556043,2298.286494,8882.471304
956.984508,0.000000,6052.154434,10732.986159
956.984838,-2368.659014,8044.002729,11473.192101
956.985167,-3627.009116,6741.640382,13915.871710
956.985496,-4663.297435,4673.182538,14878.139434
956.985825,-5773.606348,2987.772442,13989.892304
956.986155,-5181.441594,-766.095498,10066.800811
956.986484,-2590.720797,-5056.230287,7105.977043
956.986814,1110.308913,-8273.831378,5255.462188
956.987143,4441.235652,-7124.688131,4515.256246
956.987473,6069.688724,-3294.210641,5477.523971
956.987803,5773.606348,1991.848295,7994.224174
956.988132,2812.782580,5745.716235,11103.089130
956.988462,-444.123565,8733.488677,13397.727550
956.988791,-3552.988522,9039.926876,13989.892304
956.989121,-4885.359217,7201.297681,13989.892304
956.989450,-4515.256246,2451.505594,12139.377449
956.989780,-2960.823768,-2451.505594,9252.574275
956.990110,-2072.576638,-5822.325785,6217.729913
956.990439,-444.123565,-7967.393179,4515.256246
956.990769,1110.308913,-5745.716235,5181.441594
956.991098,2812.782580,-1685.410096,7698.141797
956.991428,3034.844362,2451.505594,10066.800811
956.991757,814.226536,5362.668486,11325.150913
956.992087,-1554.432478,7737.564530,12361.439231
956.992417,-3330.926739,8197.221829,14137.933492
956.992746,-4811.338623,6971.469032,15100.201217
956.993076,-5329.482782,4290.134789,13397.727550
956.993405,-4071.132681,-459.657299,9400.615463
956.993735,-1554.432478,-4826.401637,5107.421000
956.994064,1628.453072,-7431.126331,2368.659014
956.994394,4367.215058,-6665.030833,2886.803174
956.994724,6291.750507,-1762.019645,4885.359217
956.995053,5773.606348,2987.772442,7402.059420
956.995383,2590.720797,5975.544884,10436.903782
956.995712,-1480.411884,8810.098227,12879.583391
956.996042,-4959.379811,9499.584175,15248.242405
956.996371,-7105.977043,7354.516781,15692.365970
956.996701,-7179.997637,3753.867940,14137.933492
956.997031,-4959.379811,-995.924147,9696.697840
956.997360,-2812.782580,-5975.544884,5033.400406
956.997690,0.000000,-9116.536426,1702.473667
956.998019,1924.535449,-6511.811733,2738.761985
956.998349,3404.947333,-2451.505594,5329.482782
956.998678,3404.947333,1762.019645,8290.306550
956.999008,296.082377,6052.154434,11103.089130
956.999338,-2146.597232,8886.707777,12657.521608
956.999667,-3552.988522,8273.831378,14730.098246
956.999997,-4811.338623,6588.421283,15914.427753
957.000326,-5477.523971,3217.601092,14582.057057
957.000656,-4663.297435,-1072.533697,11029.068536
957.000985,-2664.741391,-5132.839837,7698.141797
957.001315,222.061783,-7737.564530,5477.523971
957.001645,2516.700203,-7277.907231,4811.338623
957.001974,4441.235652,-4136.915689,5921.647536
957.002304,5403.503377,-306.438199,8142.265362
957.002633,2886.803174,3830.477490,11547.212695
957.002963,-1036.288319,8044.002729,13027.624579
957.003292,-3849.070898,9193.145976,14211.954086
957.003622,-5107.421000,6818.249932,14656.077652
957.003952,-4737.318029,3447.429741,13027.624579
957.004281,-2960.823768,-919.314598,8882.471304
957.004611,-1480.411884,-5209.449386,5033.400406
957.004940,0.000000,-7660.954980,2368.659014
957.005270,1184.329507,-5975.544884,2738.761985
957.005599,2220.617826,-3217.601092,5551.544565
957.005929,2072.576638,689.485948,8882.471304
957.006259,-962.267725,5209.449386,11325.150913
957.006588,-3330.926739,7354.516781,11991.336260
957.006918,-4737.318029,5515.887586,13841.851115
957.007247,-5403.503377,3983.696590,16136.489536
957.007577,-6365.771101,2757.943793,15322.262999
957.007906,-4959.379811,-766.095498,11769.274478
957.008236,-2664.741391,-3907.087040,7402.059420
957.008566,296.082377,-6281.983084,3849.070898
957.008895,4515.256246,-6971.469032,3478.967927
957.009225,7254.018232,-3753.867940,4219.173869
957.009554,8068.244768,1225.752797,6809.894666
957.009884,4959.379811,4826.401637,9918.759623
957.010213,74.020594,8120.612279,12139.377449
957.010543,-3849.070898,9729.412825,14434.015869
957.010873,-6439.791695,7584.345430,15322.262999
957.011202,-6513.812290,3600.648841,14582.057057
957.011532,-5551.544565,-612.876398,10881.027347
957.011861,-4367.215058,-5745.716235,7105.977043
957.012191,-2368.659014,-8350.440928,4293.194464
957.012520,-370.102971,-7584.345430,4811.338623
957.012850,1406.391290,-3600.648841,7105.977043
957.013180,2368.659014,1225.752797,9326.594869
957.013509,370.102971,5362.668486,10658.965565
957.013839,-2072.576638,7431.126331,11547.212695
957.014168,-3256.906145,7507.735880,13767.830521
957.014498,-4071.132681,6588.421283,14952.160028
957.014827,-4737.318029,4903.011187,14137.933492
957.015157,-4219.173869,1762.019645,10362.883188
957.015487,-2220.617826,-3294.210641,6217.729913
957.015816,1036.288319,-6894.859482,3775.050304
957.016146,4293.194464,-6818.249932,3849.070898
957.016475,6513.812290,-2528.115143,5033.400406
957.016805,5995.668130,2068.457845,7179.997637
957.017134,3627.009116,6128.763984,10288.862594
957.017464,-296.082377,8427.050478,12361.439231
957.017794,-3478.967927,9806.022374,14211.954086
957.018123,-5477.523971,8044.002729,14952.160028
957.018453,-6439.791695,4826.401637,13693.809927
957.018782,-4885.359217,383.047749,10140.821405
957.019112,-3330.926739,-4903.011187,5847.626942
957.019441,-1480.411884,-8120.612279,2886.803174
957.019771,0.000000,-6971.469032,2812.782580
957.020100,2294.638420,-3600.648841,5181.441594
957.020430,3404.947333,306.438199,7698.141797
957.020760,1702.473667,4596.572988,10362.883188
957.021089,-1480.411884,7354.516781,11917.315666
957.021419,-2812.782580,8273.831378,14063.912898
957.021748,-4219.173869,7277.907231,15840.407159
957.022078,-5033.400406,4826.401637,15470.304188
957.022407,-4515.256246,689.485948,11917.315666
957.022737,-2664.741391,-3753.867940,8438.347739
957.023067,74.020594,-7201.297681,6365.771101
957.023396,3182.885551,-7124.688131,5181.441594
957.023726,5329.482782,-3983.696590,5699.585753
957.024055,6661.853478,-306.438199,7105.977043
957.024385,3997.112087,3140.991542,9622.677246
957.024714,74.020594,7354.516781,12435.459826
957.025044,-3404.947333,9882.631924,14508.036463
957.025374,-5847.626942,8427.050478,14804.118840
957.025703,-6143.709319,4596.572988,13101.645173
957.026033,-4885.359217,-306.438199,9474.636058
957.026362,-2812.782580,-5592.497135,6069.688724
957.026692,-1110.308913,-8733.488677,3404.947333
957.027021,-222.061783,-7737.564530,3552.988522
957.027351,592.164754,-4213.525239,5699.585753
957.027681,1480.411884,-153.219100,8068.244768
957.028010,74.020594,3677.258390,10658.965565
957.028340,-2072.576638,6818.249932,11991.336260
957.028669,-3330.926739,7431.126331,13323.706956
957.028999,-4589.276840,6435.202183,14804.118840
957.029328,-4885.359217,5515.887586,15248.242405
957.029658,-4737.318029,1532.190996,11843.295072
957.029988,-3627.009116,-2528.115143,7550.100608
957.030317,-592.164754,-6818.249932,4663.297435
957.030647,2886.803174,-7814.174080,3478.967927
957.030976,4885.359217,-4979.620737,3923.091493
957.031306,6143.709319,-842.705048,6439.791695
957.031635,3923.091493,3140.991542,9252.574275
957.031965,-370.102971,6281.983084,12139.377449
957.032295,-4071.132681,9116.536426,14434.015869
957.032624,-6217.729913,8350.440928,15840.407159
957.032954,-6957.935855,5209.449386,14730.098246
957.033283,-5773.606348,766.095498,10807.006753
957.033613,-3034.844362,-4213.525239,7031.956449
957.033942,-296.082377,-8120.612279,4367.215058
957.034272,1332.370696,-8810.098227,4293.194464
957.034602,2072.576638,-4519.963438,5847.626942
957.034931,2368.659014,0.000000,8512.368333
957.035261,518.144159,4213.525239,11177.109724
957.035590,-1924.535449,7277.907231,12583.501014
957.035920,-3404.947333,7277.907231,14211.954086
957.036249,-3775.050304,6665.030833,15692.365970
957.036579,-4441.235652,5439.278036,14656.077652
957.036909,-4219.173869,1455.581446,11547.212695
957.037238,-2812.782580,-1915.238745,7328.038826
957.037568,74.020594,-5975.544884,4441.235652
957.037897,3552.988522,-6281.983084,3552.988522
957.038227,5995.668130,-3370.820191,4145.153275
957.038556,6957.935855,383.047749,6809.894666
957.038886,4367.215058,4136.915689,9622.677246
957.039216,-518.144159,6741.640382,12435.459826
957.039545,-4145.153275,9499.584175,14730.098246
957.039875,-6143.709319,8810.098227,15470.304188
957.040204,-6439.791695,5515.887586,13693.809927
957.040534,-4959.379811,1532.190996,10140.821405
957.040863,-2738.761985,-3753.867940,5403.503377
957.041193,0.000000,-7201.297681,1628.453072
957.041523,2368.659014,-7048.078582,1332.370696
957.041852,3552.988522,-3140.991542,4367.215058
957.042182,3034.844362,1225.752797,7476.080014
957.042511,518.144159,4979.620737,10140.821405
957.042841,-2368.659014,8120.612279,11547.212695
957.043170,-3775.050304,7814.174080,13841.851115
957.043500,-5255.462188,5592.497135,16136.489536
957.043830,-6291.750507,3753.867940,16506.592507
957.044159,-6069.688724,383.047749,13397.727550
957.044489,-3997.112087,-2987.772442,9030.512492
957.044818,-1036.288319,-6052.154434,5699.585753
957.045148,3256.906145,-6511.811733,4737.318029
957.045477,6217.729913,-5286.058936,5033.400406
957.045807,7772.162391,-536.266849,7031.956449
957.046137,5403.503377,4366.744339,9622.677246
957.046466,1110.308913,8273.831378,12065.356855
957.046796,-3182.885551,10418.898773,13397.727550
957.047125,-5995.668130,8963.317327,14063.912898
957.047455,-6957.935855,4749.792088,14211.954086
957.047784,-5699.585753,0.000000,11621.233289
957.048114,-4145.153275,-4903.011187,7772.162391
957.048444,-2812.782580,-8656.879127,4663.297435
957.048773,-1110.308913,-8733.488677,4367.215058
957.049103,666.185348,-5286.058936,5625.565159
957.049432,2442.679609,-919.314598,7772.162391
957.049762,1776.494261,2681.334243,9770.718434
957.050091,-370.102971,5975.544884,12139.377449
957.050421,-2220.617826,7737.564530,14063.912898
957.050751,-3997.112087,7124.688131,14952.160028
957.051080,-4885.359217,5515.887586,14508.036463
957.051410,-4219.173869,1762.019645,11399.171507
957.051739,-2294.638420,-2298.286494,7105.977043
957.052069,888.247130,-7048.078582,4219.173869
957.052398,3627.009116,-7967.393179,3256.906145
957.052728,5403.503377,-4366.744339,4737.318029
957.053058,5403.503377,153.219100,6735.874072
957.053387,2738.761985,3447.429741,9400.615463
957.053717,-1406.391290,6358.592633,11843.295072
957.054046,-4589.276840,9039.926876,14063.912898
957.054376,-6661.853478,7431.126331,15470.304188
957.054705,-7698.141797,4673.182538,14878.139434
957.055035,-6661.853478,459.657299,11399.171507
957.055365,-4737.318029,-4366.744339,7179.997637
957.055694,-1628.453072,-8197.221829,3849.070898
957.056024,444.123565,-8427.050478,3701.029710
957.056353,2516.700203,-4749.792088,5477.523971
957.056683,3627.009116,-306.438199,7920.203579
957.057012,2812.782580,4290.134789,10436.903782
957.057342,0.000000,7354.516781,12213.398043
957.057672,-1850.514855,8044.002729,14211.954086
957.058001,-3923.091493,7201.297681,15914.427753
957.058331,-4959.379811,5669.106685,15618.345376
957.058660,-4811.338623,1991.848295,12583.501014
957.058990,-3034.844362,-2145.067394,8216.285956
957.059319,0.000000,-6971.469032,5107.421000
957.059649,2442.679609,-7584.345430,4293.194464
957.059979,4441.235652,-4290.134789,4737.318029
957.060308,5477.523971,306.438199,6513.812290
957.060638,4219.173869,4213.525239,8660.409521
957.060967,888.247130,6818.249932,10732.986159
957.061297,-2516.700203,9422.974625,13175.665768
957.061626,-5403.503377,8810.098227,14508.036463
957.061956,-6587.832884,6588.421283,13989.892304
957.062286,-5699.585753,1991.848295,11029.068536
957.062615,-3997.112087,-3447.429741,7105.977043
957.062945,-2368.659014,-7354.516781,3330.926739
957.063274,148.041188,-7737.564530,2812.782580
957.063604,2738.761985,-4749.792088,3997.112087
957.063933,4071.132681,0.000000,6809.894666
957.064263,2516.700203,3677.258390,8956.491898
957.064593,-148.041188,7048.078582,11621.233289
957.064922,-2960.823768,8963.317327,14434.015869
957.065252,-5403.503377,8963.317327,16136.489536
957.065581,-6217.729913,7124.688131,15766.386565
957.065911,-5329.482782,1991.848295,12509.480420
957.066240,-2294.638420,-2757.943793,8068.244768
957.066570,740.205942,-7201.297681,4441.235652
957.066900,3404.947333,-7814.174080,2960.823768
957.067229,5329.482782,-4903.011187,4589.276840
957.067559,5625.565159,-306.438199,7105.977043
957.067888,3701.029710,4443.353888,10288.862594
957.068218,148.041188,7277.907231,12731.542202
957.068547,-2886.803174,9499.584175,14434.015869
957.068877,-5551.544565,7814.174080,15174.221811
957.069207,-6513.812290,4903.011187,14359.995275
957.069536,-5921.647536,842.705048,11029.068536
957.069866,-3997.112087,-4060.306139,7031.956449
957.070195,-2146.597232,-7660.954980,3997.112087
957.070525,0.000000,-8120.612279,3923.091493
957.070854,2072.576638,-4979.620737,5477.523971
957.071184,3849.070898,-1225.752797,7179.997637
957.071513,3034.844362,2757.943793,9104.533087
957.071843,518.144159,6281.983084,11399.171507
957.072173,-1924.535449,7890.783629,13397.727550
957.072502,-3849.070898,7048.078582,16284.530724
957.072832,-5477.523971,5592.497135,16580.613101
957.073161,-5699.585753,2298.286494,12953.603985
957.073491,-3404.947333,-2451.505594,9104.533087
957.073820,-962.267725,-7201.297681,5329.482782
957.074150,2294.638420,-8656.879127,2960.823768
957.074480,4663.297435,-6358.592633,3034.844362
957.074809,6439.791695,-2145.067394,5107.421000
957.075139,4885.359217,2451.505594,8512.368333
957.075468,740.205942,6818.249932,11473.192101
957.075798,-3108.864956,9422.974625,13027.624579
957.076127,-5255.462188,8120.612279,14730.098246
957.076457,-6365.771101,5515.887586,14804.118840
957.076787,-6069.688724,2145.067394,11991.336260
957.077116,-4959.379811,-3753.867940,7772.162391
957.077446,-3330.926739,-7890.783629,4663.297435
957.077775,-1184.329507,-8656.879127,3701.029710
957.078105,962.267725,-6281.983084,5403.503377
957.078434,3256.906145,-1302.362347,7105.977043
957.078764,2516.700203,2681.334243,9030.512492
957.079094,740.205942,6588.421283,10658.965565
957.079423,-592.164754,7660.954980,12583.501014
957.079753,-2960.823768,6818.249932,15396.283594
957.080082,-5329.482782,6281.983084,16876.695478
957.080412,-6217.729913,3830.477490,14508.036463
957.080741,-4737.318029,-536.266849,10510.924376
957.081071,-1702.473667,-5515.887586,6439.791695
957.081401,1850.514855,-8810.098227,3997.112087
957.081730,4737.318029,-7277.907231,4145.153275
957.082060,5773.606348,-2221.676944,5551.544565
957.082389,4589.276840,3524.039291,8290.306550
957.082719,666.185348,7277.907231,11769.274478
957.083048,-3034.844362,10112.460574,13767.830521
957.083378,-5699.585753,10035.851024,15026.180623
957.083708,-6291.750507,7354.516781,14137.933492
957.084037,-5403.503377,2451.505594,10362.883188
957.084367,-3256.906145,-2451.505594,6069.688724
957.084696,-1628.453072,-6894.859482,2886.803174
957.085026,0.000000,-8580.269578,2738.761985
957.085355,1776.494261,-5669.106685,4589.276840
957.085685,2294.638420,-229.828649,7846.182985
957.086015,1702.473667,3983.696590,9548.656652
957.086344,-962.267725,7354.516781,10732.986159
957.086674,-1702.473667,7354.516781,13175.665768
957.087003,-2442.679609,6588.421283,16062.468941
957.087333,-4367.215058,7584.345430,15914.427753
957.087663,-5625.565159,3983.696590,13101.645173
957.087992,-3552.988522,-766.095498,9104.533087
957.088322,-814.226536,-4826.401637,5773.606348
957.088651,2590.720797,-7277.907231,2886.803174
957.088981,5773.606348,-5362.668486,2368.659014
957.089311,7179.997637,-1915.238745,4219.173869
957.089640,5181.441594,3370.820191,8142.265362
957.089970,962.267725,6281.983084,11991.336260
957.090300,-3849.070898,9422.974625,14285.974681
957.090629,-6365.771101,8886.707777,16210.510130
957.090959,-7105.977043,5822.325785,16210.510130
957.091289,-6439.791695,1685.410096,13619.789333
957.091618,-4293.194464,-4136.915689,9400.615463
957.091948,-1924.535449,-8197.221829,4959.379811
957.092278,296.082377,-9422.974625,2960.823768
957.092607,2368.659014,-6052.154434,3627.009116
957.092937,4737.318029,-1302.362347,6217.729913
957.093267,4441.235652,2145.067394,9178.553681
957.093596,1850.514855,5592.497135,11695.253884
957.093926,-962.267725,7890.783629,13619.789333
957.094256,-3478.967927,7814.174080,15174.221811
957.094585,-5107.421000,6741.640382,16062.468941
957.094915,-5625.565159,2834.553343,14137.933492
957.095245,-4145.153275,-1225.752797,9918.759623
957.095574,-1776.494261,-6205.373534,5625.565159
957.095904,888.247130,-8810.098227,3034.844362
957.096234,3108.864956,-6818.249932,3701.029710
957.096563,4219.173869,-3064.381992,5995.668130
957.096893,3182.885551,1838.629195,8512.368333
957.097222,74.020594,5745.716235,10881.027347
957.097552,-3034.844362,8503.660028,12361.439231
957.097882,-5329.482782,8427.050478,14063.912898
957.098211,-7031.956449,5975.544884,14656.077652
957.098541,-6883.915261,2451.505594,12583.501014
957.098871,-4959.379811,-1991.848295,8512.368333
957.099200,-2738.761985,-6052.154434,4959.379811
957.099530,0.000000,-8963.317327,3256.906145
957.099860,1924.535449,-7124.688131,3923.091493
957.100189,3478.967927,-3140.991542,6883.915261
957.100519,3330.926739,2145.067394,9326.594869
957.100849,888.247130,7124.688131,10732.986159
957.101178,-1258.350101,9039.926876,11843.295072
957.101508,-3182.885551,6894.859482,14878.139434
957.101838,-4959.379811,5745.716235,16728.654289
957.102167,-6291.750507,4749.792088,15322.262999
957.102497,-5033.400406,229.828649,11103.089130
957.102827,-2960.823768,-4443.353888,7402.059420
957.103156,592.164754,-7507.735880,4737.318029
957.103486,3775.050304,-7201.297681,3849.070898
957.103816,6143.709319,-4213.525239,4885.359217
957.104145,5625.565159,1838.629195,7254.018232
957.104475,1998.556043,6588.421283,10140.821405
957.104804,-1184.329507,8350.440928,12879.583391
957.105134,-4071.132681,9422.974625,15248.242405
957.105464,-5921.647536,8580.269578,14804.118840
957.105793,-5329.482782,4443.353888,12879.583391
957.106123,-3330.926739,-766.095498,9104.533087
957.106453,-1702.473667,-5362.668486,5107.421000
957.106782,-518.144159,-7737.564530,3256.906145
957.107112,1406.391290,-6052.154434,3775.050304
957.107442,3478.967927,-1915.238745,6291.750507
957.107771,3627.009116,2528.115143,8512.368333
957.108101,1184.329507,5592.497135,10436.903782
957.108431,-1036.288319,8350.440928,12139.377449
957.108760,-2516.700203,7660.954980,14508.036463
957.109090,-4219.173869,6894.859482,15544.324782
957.109420,-5107.421000,5132.839837,13989.892304
957.109749,-4219.173869,76.609550,10362.883188
957.110079,-1480.411884,-4673.182538,6883.915261
957.110409,814.226536,-7354.516781,3404.947333
957.110738,4071.132681,-6511.811733,3404.947333
957.111068,5921.647536,-3140.991542,4885.359217
957.111398,5921.647536,1072.533697,7846.182985
957.111727,2368.659014,4903.011187,10510.924376
957.112057,-1850.514855,8810.098227,12139.377449
957.112386,-4441.235652,9346.365076,14211.954086
957.112716,-5847.626942,7354.516781,15322.262999
957.113046,-6217.729913,3983.696590,14582.057057
957.113375,-5181.441594,-995.924147,10658.965565
957.113705,-3330.926739,-5515.887586,6809.894666
957.114035,-1628.453072,-9116.536426,4145.153275
957.114364,0.000000,-7201.297681,4219.173869
957.114694,1628.453072,-3907.087040,6513.812290
957.115024,2886.803174,-153.219100,8882.471304
957.115353,1184.329507,4366.744339,10658.965565
957.115683,-1406.391290,7584.345430,11843.295072
957.116013,-2960.823768,7660.954980,14137.933492
957.116342,-4293.194464,6511.811733,15544.324782
957.116672,-4811.338623,4290.134789,14730.098246
957.117002,-4071.132681,766.095498,10955.047942
957.117331,-1628.453072,-3677.258390,7031.956449
957.117661,962.267725,-7967.393179,4441.235652
957.117991,3701.029710,-7660.954980,4589.276840
957.118320,5107.421000,-4213.525239,5699.585753
957.118650,4737.318029,306.438199,7624.121203
957.118980,1998.556043,4366.744339,10066.800811
957.119309,-1554.432478,8120.612279,12361.439231
957.119639,-4589.276840,9193.145976,14211.954086
957.119968,-5995.668130,7354.516781,14434.015869
957.120298,-6365.771101,4443.353888,12657.521608
957.120628,-4811.338623,-995.924147,8956.491898
957.120957,-2812.782580,-5056.230287,5403.503377
957.121287,-888.247130,-8273.831378,2886.803174
957.121617,666.185348,-7507.735880,3478.967927
957.121946,2146.597232,-3983.696590,5921.647536
957.122276,2590.720797,995.924147,8438.347739
957.122606,740.205942,5975.544884,10436.903782
957.122935,-1332.370696,6818.249932,12657.521608
957.123265,-3108.864956,6741.640382,15248.242405
957.123595,-5107.421000,7431.126331,16580.613101
957.123924,-6217.729913,5056.230287,15396.283594
957.124254,-4515.256246,459.657299,11769.274478
957.124584,-2294.638420,-2604.724693,7772.162391
957.124913,1036.288319,-7201.297681,4737.318029
957.125243,4811.338623,-8120.612279,4441.235652
957.125573,6735.874072,-3753.867940,5255.462188
957.125902,6365.771101,1991.848295,7105.977043
957.126232,3330.926739,4213.525239,10584.944971
957.126562,-814.226536,7814.174080,13249.686362
957.126891,-4219.173869,10725.336972,14211.954086
957.127221,-6069.688724,8810.098227,14211.954086
957.127550,-5921.647536,4596.572988,12361.439231
957.127880,-4515.256246,-153.219100,8882.471304
957.128210,-2886.803174,-4826.401637,5477.523971
957.128539,-1184.329507,-7814.174080,3330.926739
957.128869,0.000000,-6818.249932,3923.091493
957.129199,1628.453072,-2757.943793,6143.709319
957.129528,1924.535449,995.924147,7846.182985
957.129858,444.123565,3983.696590,10288.862594
957.130188,-1332.370696,5975.544884,12805.562797
957.130517,-2886.803174,6818.249932,15692.365970
957.130847,-4959.379811,7890.783629,16654.633695
957.131177,-5995.668130,6128.763984,14211.954086
957.131506,-4293.194464,1838.629195,9696.697840
957.131836,-518.144159,-2451.505594,5181.441594
957.132166,2960.823768,-7048.078582,1850.514855
957.132495,5181.441594,-7431.126331,2146.597232
957.132825,5921.647536,-3524.039291,4959.379811
957.133155,4589.276840,2145.067394,8438.347739
957.133484,1036.288319,5132.839837,11177.109724
957.133814,-2294.638420,6894.859482,13323.706956
957.134144,-4441.235652,7201.297681,15396.283594
957.134473,-5921.647536,5975.544884,15766.386565
957.134803,-5477.523971,2604.724693,14211.954086
957.135133,-4737.318029,-766.095498,10658.965565
957.135462,-2960.823768,-4136.915689,6587.832884
957.135792,-518.144159,-7048.078582,3997.112087
957.136121,1776.494261,-6588.421283,3849.070898
957.136451,3849.070898,-2528.115143,5033.400406
957.136781,4663.297435,459.657299,7476.080014
957.137110,2738.761985,3753.867940,10214.842000
957.137440,-370.102971,7124.688131,12805.562797
957.137770,-3256.906145,7354.516781,15396.283594
957.138099,-5921.647536,6281.983084,16210.510130
957.138429,-6957.935855,4596.572988,14952.160028
957.138759,-5699.585753,76.609550,11473.192101
957.139088,-2516.700203,-4673.182538,7550.100608
957.139418,370.102971,-8044.002729,4589.276840
957.139748,2590.720797,-7507.735880,4367.215058
957.140077,4959.379811,-3753.867940,4811.338623
957.140407,4663.297435,842.705048,7254.018232
957.140737,2220.617826,4903.011187,10436.903782
957.141066,-592.164754,8120.612279,12657.521608
957.141396,-3108.864956,8810.098227,14211.954086
957.141726,-4885.359217,7507.735880,14137.933492
957.142055,-5255.462188,3983.696590,12731.542202
957.142385,-3997.112087,153.219100,9252.574275
957.142715,-1998.556043,-4519.963438,5995.668130
957.143044,-666.185348,-7277.907231,3775.050304
957.143374,296.082377,-6205.373534,3701.029710
957.143703,1184.329507,-3064.381992,4959.379811
957.144033,2146.597232,612.876398,7920.203579
957.144363,888.247130,4060.306139,10436.903782
957.144692,-1110.308913,6358.592633,12213.398043
957.145022,-3404.947333,6511.811733,14285.974681
957.145352,-5921.647536,6128.763984,15766.386565
957.145681,-7402.059420,4749.792088,15248.242405
957.146011,-5847.626942,919.314598,12065.356855
957.146341,-2590.720797,-3140.991542,8216.285956
957.146670,888.247130,-7124.688131,4737.318029
957.147000,4145.153275,-7737.564530,3034.844362
957.147330,6069.688724,-4596.572988,3923.091493
957.147659,6365.771101,153.219100,7179.997637
957.147989,3182.885551,4826.401637,10955.047942
957.148319,-1110.308913,8580.269578,13693.809927
957.148648,-4515.256246,9729.412825,15100.201217
957.148978,-6069.688724,7431.126331,15840.407159
957.149308,-6217.729913,4826.401637,13767.830521
957.149637,-4663.297435,0.000000,9844.739029
957.149967,-2442.679609,-5056.230287,5773.606348
957.150297,0.000000,-8044.002729,3552.988522
957.150626,740.205942,-6588.421283,3404.947333
957.150956,1924.535449,-3447.429741,5477.523971
957.151285,2516.700203,919.314598,7846.182985
957.151615,1702.473667,4519.963438,10214.842000
957.151945,0.000000,6894.859482,12139.377449
957.152274,-2294.638420,7354.516781,14137.933492
957.152604,-4737.318029,7201.297681,15692.365970
957.152934,-6365.771101,5362.668486,15100.201217
957.153263,-5329.482782,1455.581446,12287.418637
957.153593,-2590.720797,-2451.505594,8290.306550
957.153923,592.164754,-7354.516781,4293.194464
957.154252,3552.988522,-7660.954980,2516.700203
957.154582,6069.688724,-4443.353888,3404.947333
957.154912,7031.956449,383.047749,6217.729913
957.155241,4737.318029,4673.182538,9770.718434
957.155571,74.020594,8503.660028,11991.336260
957.155901,-4071.132681,11031.775171,13471.748144
957.156230,-6143.709319,8656.879127,15470.304188
957.156560,-6587.832884,5286.058936,14878.139434
957.156890,-5107.421000,842.705048,11399.171507
957.157219,-3552.988522,-4903.011187,6735.874072
957.157549,-1850.514855,-8197.221829,2960.823768
957.157879,0.000000,-7660.954980,3182.885551
957.158208,1850.514855,-4673.182538,5625.565159
957.158538,2886.803174,0.000000,8216.285956
957.158867,1480.411884,4136.915689,10362.883188
957.159197,-1036.288319,7201.297681,11843.295072
957.159527,-2664.741391,7890.783629,14063.912898
957.159856,-4293.194464,7124.688131,15914.427753
957.160186,-5329.482782,5515.887586,15322.262999
957.160516,-4737.318029,1991.848295,11991.336260
957.160845,-2664.741391,-2298.286494,7994.224174
957.161175,74.020594,-6435.202183,5329.482782
957.161505,2590.720797,-7967.393179,3997.112087
957.161834,4737.318029,-4903.011187,4885.359217
957.162164,6069.688724,0.000000,6661.853478
957.162494,4441.235652,3677.258390,9326.594869
957.162823,1110.308913,6588.421283,11103.089130
957.163153,-2812.782580,9039.926876,13471.748144
957.163483,-5625.565159,7507.735880,14656.077652
957.163812,-6587.832884,5439.278036,14285.974681
957.164142,-5403.503377,842.705048,11399.171507
957.164472,-3923.091493,-4060.306139,7105.977043
957.164801,-2368.659014,-8733.488677,3701.029710
957.165131,-518.144159,-8503.660028,3034.844362
957.165461,2146.597232,-4979.620737,4737.318029
957.165790,4145.153275,-1072.533697,7476.080014
957.166120,2960.823768,3447.429741,9844.739029
957.166449,-740.205942,6281.983084,11769.274478
957.166779,-3108.864956,7737.564530,14359.995275
957.167109,-5107.421000,7354.516781,16580.613101
957.167438,-6217.729913,6435.202183,16802.674883
957.167768,-5181.441594,2987.772442,13323.706956
957.168098,-2812.782580,-2987.772442,8216.285956
957.168427,0.000000,-7967.393179,4219.173869
957.168757,2960.823768,-8733.488677,3108.864956
957.169087,5181.441594,-5975.544884,4293.194464
957.169416,5773.606348,-459.657299,6291.750507
957.169746,3552.988522,4443.353888,8808.450710
957.170076,222.061783,7354.516781,11621.233289
957.170405,-2664.741391,8886.707777,13767.830521
957.170735,-5033.400406,8273.831378,14730.098246
957.171065,-6069.688724,6052.154434,14730.098246
957.171394,-5625.565159,1455.581446,11769.274478
957.171724,-4811.338623,-3217.601092,7994.224174
957.172054,-3034.844362,-7431.126331,4737.318029
957.172383,-1258.350101,-8810.098227,4071.132681
957.172713,518.144159,-5286.058936,5625.565159
957.173043,2664.741391,-1072.533697,7772.162391
957.173372,2738.761985,2451.505594,9622.677246
957.173702,-296.082377,5592.497135,11991.336260
957.174031,-2886.803174,7814.174080,14211.954086
957.174361,-4589.276840,8273.831378,15840.407159
957.174691,-5329.482782,7584.345430,15396.283594
957.175020,-3997.112087,3600.648841,11843.295072
957.175350,-1406.391290,-1608.800546,6957.935855
957.175680,1332.370696,-6741.640382,3256.906145
957.176009,3701.029710,-7660.954980,2072.576638
957.176339,4737.318029,-4213.525239,3849.070898
957.176669,4737.318029,76.609550,7179.997637
957.176998,2516.700203,4903.011187,9918.759623
957.177328,-1036.288319,7660.954980,12583.501014
957.177658,-3627.009116,7890.783629,14211.954086
957.177987,-5477.523971,6971.469032,15692.365970
957.178317,-6587.832884,4749.792088,14508.036463
957.178647,-5329.482782,1378.971896,11991.336260
957.178976,-3997.112087,-2911.162892,7328.038826
957.179306,-1924.535449,-6665.030833,3478.967927
957.179636,518.144159,-7737.564530,2368.659014
957.179965,3552.988522,-5056.230287,3997.112087
957.180295,5181.441594,-229.828649,5995.668130
957.180625,3775.050304,3983.696590,9104.533087
957.180954,814.226536,7048.078582,11991.336260
957.181284,-2072.576638,9193.145976,13841.851115
957.181614,-4441.235652,8503.660028,15766.386565
957.181943,-5551.544565,6358.592633,16136.489536
957.182273,-5403.503377,1915.238745,13027.624579
957.182602,-3330.926739,-2374.896044,8882.471304
957.182932,-1036.288319,-7354.516781,5921.647536
957.183262,1258.350101,-8273.831378,4589.276840
957.183591,3627.009116,-4979.620737,4885.359217
957.183921,5181.441594,-2221.676944,6291.750507
957.184251,4145.153275,2298.286494,9104.533087
957.184580,888.247130,6511.811733,11399.171507
957.184910,-2220.617826,8427.050478,13101.645173
957.185240,-4589.276840,7890.783629,14359.995275
957.185569,-5551.544565,6358.592633,14359.995275
957.185899,-5699.585753,2451.505594,11695.253884
957.186229,-3849.070898,-3294.210641,7698.141797
957.186558,-2294.638420,-7660.954980,4441.235652
957.186888,-296.082377,-9039.926876,3108.864956
957.187218,1258.350101,-6358.592633,4515.256246
957.187547,2960.823768,-1991.848295,7624.121203
957.187877,2294.638420,2757.943793,9844.739029
957.188207,-518.144159,6511.811733,11695.253884
957.188536,-2664.741391,7584.345430,13545.768739
957.188866,-3997.112087,7507.735880,15840.407159
957.189196,-5625.565159,6205.373534,16210.510130
957.189525,-6069.688724,3217.601092,13323.706956
957.189855,-4293.194464,-1455.581446,8364.327145
957.190184,-1406.391290,-6741.640382,4811.338623
957.190514,1702.473667,-9422.974625,3034.844362
957.190844,3256.906145,-6588.421283,4441.235652
957.191173,4811.338623,-1838.629195,5847.626942
957.191503,4293.194464,2451.505594,7994.224174
957.191832,1480.411884,5515.887586,10807.006753
957.192162,-1480.411884,8197.221829,13397.727550
957.192492,-4885.359217,8350.440928,15026.180623
957.192821,-7254.018232,7354.516781,15248.242405
957.193151,-7179.997637,3524.039291,13175.665768
957.193480,-5329.482782,-1378.971896,9400.615463
957.193810,-2812.782580,-6281.983084,6143.709319
957.194140,-592.164754,-9116.536426,3849.070898
957.194469,1924.535449,-6894.859482,3330.926739
957.194799,3923.091493,-2757.943793,5329.482782
957.195128,3923.091493,2221.676944,8216.285956
957.195458,1110.308913,6511.811733,11103.089130
957.195788,-1998.556043,9499.584175,13841.851115
957.196117,-3997.112087,9499.584175,15840.407159
957.196447,-4737.318029,8503.660028,16136.489536
957.196776,-4811.338623,4060.306139,13619.789333
957.197106,-3034.844362,-1455.581446,9474.636058
957.197436,-814.226536,-6128.763984,5625.565159
957.197765,2072.576638,-8120.612279,3627.009116
957.198095,3701.029710,-5669.106685,3552.988522
957.198424,5107.421000,-2068.457845,5477.523971
957.198754,4663.297435,2681.334243,7920.203579
957.199084,2146.597232,5745.716235,10955.047942
957.199413,-888.247130,8963.317327,12805.562797
957.199743,-3849.070898,10189.070123,14434.015869
957.200073,-5329.482782,8120.612279,14804.118840
957.200402,-5921.647536,3907.087040,13397.727550
957.200732,-4811.338623,-612.876398,9474.636058
957.201061,-3182.885551,-5362.668486,5477.523971
957.201391,-962.267725,-8503.660028,3108.864956
957.201721,888.247130,-7124.688131,3701.029710
957.202050,2368.659014,-2987.772442,5773.606348
957.202380,2960.823768,766.095498,7920.203579
957.202709,962.267725,4136.915689,10658.965565
957.203039,-1702.473667,7967.393179,12953.603985
957.203369,-4145.153275,9116.536426,15100.201217
957.203698,-5033.400406,7814.174080,16136.489536
957.204028,-4885.359217,4673.182538,14359.995275
957.204357,-2812.782580,0.000000,10288.862594
957.204687,-222.061783,-4826.401637,6069.688724
957.205017,1998.556043,-8733.488677,3404.947333
957.205346,3923.091493,-7201.297681,4293.194464
957.205676,4663.297435,-3140.991542,6291.750507
957.206005,4293.194464,1378.971896,8512.368333
957.206335,1258.350101,5056.230287,11325.150913
957.206665,-2146.597232,8273.831378,12879.583391
957.206994,-5255.462188,7967.393179,14063.912898
957.207324,-6069.688724,6894.859482,14804.118840
957.207653,-6143.709319,3753.867940,12657.521608
957.207983,-4737.318029,-1149.143247,8660.409521
957.208313,-3701.029710,-6205.373534,5403.503377
957.208642,-1628.453072,-8427.050478,4441.235652
957.208972,-518.144159,-7124.688131,4737.318029
957.209301,1184.329507,-3677.258390,6735.874072
957.209631,1924.535449,459.657299,8734.430116
957.209961,592.164754,3677.258390,11473.192101
957.210290,-1332.370696,6665.030833,12879.583391
957.210620,-3849.070898,7354.516781,14508.036463
957.210949,-5107.421000,7431.126331,15026.180623
957.211279,-4737.318029,4903.011187,13767.830521
957.211609,-2960.823768,383.047749,9918.759623
957.211938,-814.226536,-4519.963438,5921.647536
957.212268,2072.576638,-7354.516781,3478.967927
957.212597,4145.153275,-6511.811733,3552.988522
957.212927,5477.523971,-2681.334243,5403.503377
957.213257,4959.379811,1072.533697,7550.100608
957.213586,1850.514855,3753.867940,10658.965565
957.213916,-2146.597232,7354.516781,13101.645173
957.214245,-5329.482782,8197.221829,15396.283594
957.214575,-7254.018232,7277.907231,16136.489536
957.214905,-7550.100608,3600.648841,14211.954086
957.215234,-6513.812290,-1149.143247,9918.759623
957.215564,-4515.256246,-5822.325785,5477.523971
957.215894,-2146.597232,-8886.707777,3034.844362
957.216223,444.123565,-7660.954980,3775.050304
957.216553,2368.659014,-3294.210641,5625.565159
957.216882,3034.844362,1378.971896,7846.182985
957.217212,1110.308913,4979.620737,10510.924376
957.217542,-1406.391290,8580.269578,12287.418637
957.217871,-3923.091493,9652.803275,14063.912898
957.218201,-5551.544565,8273.831378,15100.201217
957.218530,-6809.894666,5822.325785,14137.933492
957.218860,-6735.874072,1149.143247,10584.944971
957.219190,-4737.318029,-3983.696590,7476.080014
957.219519,-2368.659014,-8197.221829,6069.688724
957.219849,-592.164754,-6971.469032,5477.523971
957.220178,1258.350101,-3753.867940,5921.647536
957.220508,2960.823768,-306.438199,6735.874072
957.220838,2442.679609,3524.039291,8660.409521
957.221167,444.123565,6588.421283,11473.192101
957.221497,-2664.741391,8810.098227,13397.727550
957.221826,-6291.750507,9116.536426,15100.201217
957.222156,-8586.388927,7048.078582,14804.118840
957.222486,-9030.512492,3064.381992,11325.150913
957.222815,-7994.224174,-2221.676944,6587.832884
957.223145,-5033.400406,-7967.393179,4071.132681
957.223474,-2220.617826,-9652.803275,3775.050304
957.223804,-1110.308913,-5439.278036,4737.318029
957.224134,222.061783,-919.314598,5847.626942
957.224463,-370.102971,3677.258390,7846.182985
957.224793,-1332.370696,7737.564530,10658.965565
957.225122,-2220.617826,10955.165621,12509.480420
957.225452,-4145.153275,9346.365076,13989.892304
957.225782,-7105.977043,6588.421283,13767.830521
957.226111,-9992.780217,3140.991542,12879.583391
957.226441,-10955.047942,-1685.410096,12287.418637
957.226770,-10214.842000,-6435.202183,11621.233289
957.227100,-8290.306550,-7048.078582,8364.327145
957.227430,-4367.215058,-7354.516781,5181.441594
957.227759,1036.288319,-5898.935335,3627.009116
957.228089,4515.256246,-1378.971896,4737.318029
957.228418,5847.626942,2834.553343,7031.956449
957.228748,4663.297435,7584.345430,9474.636058
957.229078,1406.391290,11797.870669,11769.274478
957.229407,-2368.659014,10801.946522,13841.851115
957.229737,-5995.668130,5898.935335,16062.468941
957.230066,-9548.656652,1608.800546,15174.221811
957.230396,-11843.295072,-2068.457845,12139.377449
957.230726,-11325.150913,-7048.078582,9030.512492
957.231055,-8882.471304,-8886.707777,6439.791695
957.231385,-5699.585753,-8886.707777,4959.379811
957.231715,-2664.741391,-6894.859482,4441.235652
957.232044,-740.205942,-995.924147,5181.441594
957.232374,740.205942,5515.887586,6809.894666
957.232703,1036.288319,9729.412825,8512.368333
957.233033,444.123565,10342.289223,10955.047942
957.233363,-2220.617826,8886.707777,12213.398043
957.233692,-5403.503377,5822.325785,12805.562797
957.234022,-8660.409521,1685.410096,12361.439231
957.234351,-11029.068536,-2068.457845,11991.336260
957.234681,-11621.233289,-5745.716235,11473.192101
957.235011,-10214.842000,-8580.269578,9992.780217
957.235340,-6957.935855,-7354.516781,8438.347739
957.235670,-2590.720797,-3983.696590,6217.729913
957.235999,1628.453072,-1302.362347,5255.462188
957.236329,4219.173869,2145.067394,6883.915261
957.236659,4737.318029,6741.640382,8956.491898
957.236988,3775.050304,10265.679673,10807.006753
957.237318,370.102971,9116.536426,12731.542202
957.237647,-3034.844362,5745.716235,14952.160028
957.237977,-7179.997637,3753.867940,15396.283594
957.238307,-9696.697840,306.438199,13027.624579
957.238636,-10362.883188,-4136.915689,8956.491898
957.238966,-8142.265362,-6818.249932,5699.585753
957.239295,-4737.318029,-7124.688131,4145.153275
957.239625,-1924.535449,-5362.668486,4737.318029
957.239955,-1110.308913,-919.314598,5773.606348
957.240284,-1110.308913,4903.011187,6809.894666
957.240614,-1332.370696,8733.488677,8734.430116
957.240943,-1924.535449,11031.775171,10658.965565
957.241273,-3552.988522,9193.145976,12361.439231
957.241603,-4959.379811,5286.058936,12731.542202
957.241932,-6661.853478,1608.800546,12583.501014
957.242262,-8216.285956,-383.047749,12509.480420
957.242591,-9548.656652,-2451.505594,11695.253884
957.242921,-8734.430116,-4673.182538,10066.800811
957.243251,-5477.523971,-3294.210641,8290.306550
957.243580,-1554.432478,-383.047749,5921.647536
957.243910,2368.659014,919.314598,5181.441594
957.244239,4293.194464,3677.258390,6217.729913
957.244569,3256.906145,6818.249932,7994.224174
957.244899,1628.453072,9116.536426,9548.656652
957.245228,-592.164754,8886.707777,11695.253884
957.245558,-2590.720797,5439.278036,11917.315666
957.245887,-4663.297435,3600.648841,11695.253884
957.246217,-5255.462188,0.000000,10955.047942
957.246547,-5107.421000,-2451.505594,9252.574275
957.246876,-3923.091493,-3447.429741,8290.306550
957.247206,-3182.885551,-1608.800546,7698.141797
957.247536,-3108.864956,1532.190996,8290.306550
957.247865,-2664.741391,3217.601092,8882.471304
957.248195,-1924.535449,4749.792088,9548.656652
957.248524,-1628.453072,6818.249932,10732.986159
957.248854,-1406.391290,7890.783629,11177.109724
957.249184,-1998.556043,5822.325785,11325.150913
957.249513,-2294.638420,3830.477490,11325.150913
957.249843,-1702.473667,2604.724693,10362.883188
957.250172,-1406.391290,1149.143247,9178.553681
957.250502,-1406.391290,536.266849,8438.347739
957.250832,-962.267725,766.095498,8142.265362
957.251161,666.185348,2604.724693,9474.636058
957.251491,814.226536,5669.106685,10066.800811
957.251820,-148.041188,7660.954980,10140.821405
957.252150,-1036.288319,7507.735880,9918.759623
957.252480,-1850.514855,7584.345430,9474.636058
957.252809,-2368.659014,7201.297681,9400.615463
957.253139,-2664.741391,4826.401637,8438.347739
957.253468,-2368.659014,2298.286494,6587.832884
957.253798,-1628.453072,383.047749,6069.688724
957.254128,-1258.350101,76.609550,6809.894666
957.254457,-2072.576638,536.266849,7105.977043
957.254787,-2738.761985,2298.286494,8290.306550
957.255116,-3034.844362,4673.182538,9252.574275
957.255446,-3108.864956,6818.249932,11103.089130
957.255776,-2294.638420,7507.735880,11473.192101
957.256105,-1036.288319,7431.126331,11399.171507
957.256435,-296.082377,5975.544884,10214.842000
957.256764,-148.041188,4519.963438,9844.739029
957.257094,-370.102971,3524.039291,9474.636058
957.257424,-444.123565,2298.286494,9252.574275
957.257753,-296.082377,1915.238745,8364.327145
957.258083,0.000000,1991.848295,8734.430116
957.258412,592.164754,2451.505594,9548.656652
957.258742,814.226536,2528.115143,10066.800811
957.259072,-370.102971,4366.744339,10658.965565
957.259401,-1554.432478,5515.887586,11103.089130
957.259731,-1776.494261,6588.421283,11695.253884
957.260060,-1036.288319,5745.716235,11473.192101
957.260390,-740.205942,4673.182538,10658.965565
957.260720,-666.185348,3677.258390,9400.615463
957.261049,-814.226536,3524.039291,8364.327145
957.261379,0.000000,3907.087040,8808.450710
957.261708,-444.123565,4673.182538,8734.430116
957.262038,0.000000,4749.792088,8142.265362
957.262368,0.000000,3677.258390,7254.018232
957.262697,0.000000,2987.772442,6883.915261
957.263027,-814.226536,2298.286494,7254.018232
957.263357,-1850.514855,2451.505594,8808.450710
957.263686,-3330.926739,3064.381992,10066.800811
957.264016,-4219.173869,3753.867940,10436.903782
957.264345,-3849.070898,3677.258390,10362.883188
957.264675,-1924.535449,3447.429741,10436.903782
957.265005,-888.247130,3370.820191,9622.677246
957.265334,0.000000,4136.915689,9104.533087
957.265664,444.123565,4903.011187,9178.553681
957.265993,518.144159,6358.592633,9400.615463
957.266323,0.000000,6818.249932,8956.491898
957.266653,-222.061783,5898.935335,8734.430116
957.266982,-444.123565,4903.011187,8438.347739
957.267312,-1406.391290,2911.162892,7994.224174
957.267641,-2220.617826,766.095498,7550.100608
957.267971,-2590.720797,-306.438199,7328.038826
957.268301,-2516.700203,-689.485948,8734.430116
957.268630,-2664.741391,306.438199,9696.697840
957.268960,-2072.576638,1838.629195,10510.924376
957.269289,-1258.350101,2145.067394,10584.944971
957.269619,-518.144159,4213.525239,11177.109724
957.269949,-148.041188,5209.449386,11769.274478
957.270278,888.247130,5822.325785,11843.295072
957.270608,370.102971,5132.839837,11399.171507
957.270937,0.000000,4596.572988,11029.068536
957.271267,-1332.370696,3217.601092,9918.759623
957.271597,-1924.535449,2145.067394,9104.533087
957.271926,-1628.453072,1608.800546,9252.574275
957.272256,-1554.432478,1072.533697,8808.450710
957.272585,-1184.329507,689.485948,7772.162391
957.272915,-296.082377,306.438199,7328.038826
957.273245,814.226536,536.266849,7772.162391
957.273574,814.226536,1915.238745,9104.533087
957.273904,0.000000,3524.039291,10362.883188
957.274233,-1480.411884,4979.620737,11103.089130
957.274563,-1924.535449,5056.230287,11695.253884
957.274893,-2146.597232,4903.011187,11843.295072
957.275222,-2442.679609,4673.182538,11399.171507
957.275552,-2516.700203,3447.429741,10436.903782
957.275881,-2442.679609,2528.115143,7772.162391
957.276211,-1776.494261,2068.457845,5995.668130
957.276541,-296.082377,1225.752797,5329.482782
957.276870,1480.411884,0.000000,4885.359217
957.277200,2368.659014,306.438199,5329.482782
957.277529,1480.411884,1149.143247,6587.832884
957.277859,0.000000,1532.190996,8882.471304
957.278189,-2368.659014,2604.724693,11473.192101
957.278518,-4219.173869,3217.601092,13027.624579
957.278848,-5403.503377,2911.162892,14359.995275
957.279178,-5329.482782,2374.896044,14137.933492
957.279507,-5255.462188,1762.019645,12731.542202
957.279837,-3849.070898,766.095498,9770.718434
957.280166,-1554.432478,-153.219100,6439.791695
957.280496,1924.535449,-1072.533697,4293.194464
957.280826,5329.482782,-229.828649,4441.235652
957.281155,6513.812290,-229.828649,4663.297435
957.281485,5551.544565,153.219100,6661.853478
957.281814,2442.679609,1838.629195,9548.656652
957.282144,-1184.329507,3600.648841,13249.686362
957.282474,-4367.215058,4290.134789,16802.674883
957.282803,-6365.771101,3677.258390,18579.169144
957.283133,-7402.059420,2374.896044,17098.757260
957.283462,-7328.038826,612.876398,13767.830521
957.283792,-5181.441594,-1608.800546,9474.636058
957.284122,-962.267725,-3294.210641,5107.421000
957.284451,2146.597232,-3677.258390,2886.803174
957.284781,4367.215058,-2221.676944,2072.576638
957.285110,5107.421000,-459.657299,2812.782580
957.285440,4589.276840,1225.752797,4737.318029
957.285770,1776.494261,2298.286494,7698.141797
957.286099,-2146.597232,2911.162892,12213.398043
957.286429,-4811.338623,3447.429741,16580.613101
957.286758,-6809.894666,3447.429741,18431.127956
957.287088,-7994.224174,2451.505594,17172.777854
957.287418,-6809.894666,536.266849,13915.871710
957.287747,-3552.988522,-2604.724693,9696.697840
957.288077,962.267725,-3830.477490,5773.606348
957.288406,4293.194464,-3064.381992,2886.803174
957.288736,5847.626942,-1225.752797,1998.556043
957.289066,6883.915261,459.657299,2812.782580
957.289395,4959.379811,2221.676944,5107.421000
957.289725,962.267725,3907.087040,9400.615463
957.290054,-3330.926739,5056.230287,13693.809927
957.290384,-5847.626942,4136.915689,15840.407159
957.290713,-7402.059420,1915.238745,16210.510130
957.291043,-7179.997637,229.828649,15174.221811
957.291373,-5551.544565,-2451.505594,11769.274478
957.291702,-2294.638420,-3600.648841,7846.182985
957.292032,1258.350101,-4366.744339,4737.318029
957.292361,3404.947333,-2068.457845,3478.967927
957.292691,4737.318029,1072.533697,4885.359217
957.293020,4145.153275,3677.258390,6735.874072
957.293350,2072.576638,4826.401637,8734.430116
957.293679,-1332.370696,5669.106685,11399.171507
957.294009,-3775.050304,5056.230287,14137.933492
957.294339,-5477.523971,3370.820191,15914.427753
957.294668,-5625.565159,1991.848295,15174.221811
957.294998,-4885.359217,306.438199,13175.665768
957.295327,-2368.659014,-842.705048,9474.636058
957.295657,1036.288319,-2298.286494,6587.832884
957.295986,3182.885551,-2451.505594,4737.318029
957.296316,4071.132681,459.657299,4219.173869
957.296646,3775.050304,3217.601092,4737.318029
957.296975,2294.638420,4443.353888,7105.977043
957.297305,-1332.370696,5669.106685,10362.883188
957.297634,-4663.297435,6358.592633,12731.542202
957.297964,-6661.853478,5439.278036,13693.809927
957.298293,-6069.688724,2681.334243,13175.665768
957.298623,-4589.276840,153.219100,11251.130318
957.298952,-2294.638420,-1532.190996,8808.450710
957.299282,296.082377,-2987.772442,7105.977043
957.299612,1776.494261,-1762.019645,5625.565159
957.299941,2072.576638,995.924147,5773.606348
957.300271,1406.391290,3140.991542,6291.750507
957.300600,1480.411884,3370.820191,8734.430116
957.300930,-370.102971,4136.915689,11029.068536
957.301259,-3034.844362,4826.401637,11917.315666
957.301589,-4367.215058,3600.648841,11621.233289
957.301919,-4441.235652,919.314598,11695.253884
957.302248,-2960.823768,-689.485948,10732.986159
957.302578,-1036.288319,-1455.581446,9844.739029
957.302907,1036.288319,-1762.019645,8660.409521
957.303237,2220.617826,-612.876398,6365.771101
957.303566,2368.659014,76.609550,6513.812290
957.303896,1998.556043,1072.533697,8068.244768
957.304225,1036.288319,2145.067394,10362.883188
957.304555,-1332.370696,3370.820191,11917.315666
957.304885,-3775.050304,3140.991542,11843.295072
957.305214,-5551.544565,2145.067394,11621.233289
957.305544,-5107.421000,-459.657299,11177.109724
957.305873,-3478.967927,-2451.505594,10066.800811
957.306203,-962.267725,-2834.553343,9030.512492
957.306532,740.205942,-2451.505594,7476.080014
957.306862,1332.370696,-1685.410096,7179.997637
957.307192,1480.411884,-995.924147,7772.162391
957.307521,1258.350101,995.924147,9622.677246
957.307851,0.000000,2604.724693,11029.068536
957.308180,-1554.432478,2987.772442,11991.336260
957.308510,-2812.782580,2604.724693,12361.439231
957.308839,-4515.256246,612.876398,11473.192101
957.309169,-4663.297435,-383.047749,10510.924376
957.309498,-2442.679609,-1532.190996,9104.533087
957.309828,444.123565,-2298.286494,8068.244768
957.310158,1776.494261,-1915.238745,7105.977043
957.310487,2368.659014,-689.485948,6513.812290
957.310817,1776.494261,0.000000,6957.935855
957.311146,1184.329507,1532.190996,8438.347739
957.311476,-148.041188,2528.115143,10214.842000
957.311805,-2146.597232,2451.505594,12139.377449
957.312135,-3923.091493,1455.581446,12731.542202
957.312465,-5625.565159,689.485948,12139.377449
957.312794,-5403.503377,0.000000,10881.027347
957.313124,-3404.947333,-1149.143247,9030.512492
957.313453,-296.082377,-1455.581446,7920.203579
957.313783,1628.453072,-1302.362347,7328.038826
957.314112,2516.700203,306.438199,6883.915261
957.314442,2368.659014,1608.800546,6735.874072
957.314771,1998.556043,2374.896044,8142.265362
957.315101,592.164754,2221.676944,10584.944971
957.315431,-1924.535449,2528.115143,12805.562797
957.315760,-4293.194464,2221.676944,12953.603985
957.316090,-5625.565159,1532.190996,12509.480420
957.316419,-5181.441594,842.705048,11621.233289
957.316749,-3404.947333,-229.828649,9992.780217
957.317078,0.000000,-689.485948,8586.388927
957.317408,3108.864956,76.609550,7105.977043
957.317738,3701.029710,1072.533697,5403.503377
957.318067,4071.132681,2451.505594,5477.523971
957.318397,3182.885551,2834.553343,7105.977043
957.318726,962.267725,3370.820191,9326.594869
957.319056,-1776.494261,3753.867940,11473.192101
957.319385,-4145.153275,3677.258390,12657.521608
957.319715,-5625.565159,2451.505594,12879.583391
957.320044,-5699.585753,766.095498,11843.295072
957.320374,-4589.276840,0.000000,9992.780217
957.320704,-1776.494261,-536.266849,8142.265362
957.321033,1258.350101,-306.438199,6735.874072
957.321363,2368.659014,995.924147,5551.544565
957.321692,2368.659014,2068.457845,5551.544565
957.322022,1850.514855,2451.505594,6809.894666
957.322351,962.267725,2374.896044,9178.553681
957.322681,-1850.514855,3447.429741,11473.192101
957.323011,-4293.194464,2911.162892,12805.562797
957.323340,-5847.626942,1685.410096,12953.603985
957.323670,-5625.565159,0.000000,12361.439231
957.323999,-3701.029710,0.000000,11251.130318
957.324329,-1406.391290,612.876398,9400.615463
957.324658,1554.432478,-459.657299,6883.915261
957.324988,3108.864956,-612.876398,6291.750507
957.325317,3256.906145,1149.143247,6365.771101
957.325647,2516.700203,2451.505594,7402.059420
957.325977,1406.391290,2145.067394,8364.327145
957.326306,-962.267725,1532.190996,10510.924376
957.326636,-3701.029710,1072.533697,12953.603985
957.326965,-5403.503377,689.485948,13767.830521
957.327295,-6069.688724,-229.828649,12583.501014
957.327624,-4219.173869,-1225.752797,10658.965565
957.327954,-1258.350101,-1762.019645,8586.388927
957.328284,1554.432478,-2528.115143,7772.162391
957.328613,2590.720797,-1915.238745,6587.832884
957.328943,2590.720797,-153.219100,6217.729913
957.329272,2072.576638,1225.752797,7328.038826
957.329602,962.267725,2451.505594,9400.615463
957.329931,-444.123565,995.924147,11621.233289
957.330261,-3182.885551,0.000000,12805.562797
957.330590,-5181.441594,-612.876398,13249.686362
957.330920,-6069.688724,-536.266849,12657.521608
957.331250,-4515.256246,-612.876398,11399.171507
957.331579,-1110.308913,-2068.457845,9844.739029
957.331909,1258.350101,-2145.067394,8586.388927
957.332238,2368.659014,-1072.533697,7031.956449
957.332568,2886.803174,612.876398,6513.812290
957.332897,2368.659014,1378.971896,7105.977043
957.333227,1406.391290,1685.410096,8438.347739
957.333557,-1184.329507,1838.629195,10658.965565
957.333886,-3330.926739,1762.019645,12287.418637
957.334216,-4811.338623,459.657299,12287.418637
