#time,accel_x,accel_y,accel_z
960.310139,-962.267725,995.924147,9474.636058
960.310468,-1036.288319,1455.581446,9474.636058
960.310798,-962.267725,919.314598,9474.636058
960.311128,-740.205942,766.095498,9622.677246
960.311457,-888.247130,919.314598,9548.656652
960.311787,-1184.329507,1149.143247,9474.636058
960.312116,-962.267725,1072.533697,9400.615463
960.312446,-1036.288319,1378.971896,9474.636058
960.312775,-962.267725,995.924147,9548.656652
960.313105,-1036.288319,995.924147,9622.677246
960.313434,-962.267725,919.314598,9622.677246
960.313764,-1110.308913,842.705048,9400.615463
960.314094,-814.226536,1685.410096,9474.636058
960.314423,-888.247130,919.314598,9622.677246
960.314753,-888.247130,766.095498,9548.656652
960.315082,-962.267725,1072.533697,9622.677246
960.315412,-1110.308913,842.705048,9548.656652
960.315741,-1110.308913,919.314598,9474.636058
960.316071,-962.267725,1072.533697,9622.677246
960.316401,-1184.329507,842.705048,9696.697840
960.316730,-1036.288319,919.314598,9770.718434
960.317060,-888.247130,1149.143247,9548.656652
960.317389,-1110.308913,766.095498,9622.677246
960.317719,-740.205942,766.095498,9474.636058
960.318048,-962.267725,919.314598,9474.636058
960.318378,-1110.308913,842.705048,9474.636058
960.318708,-1184.329507,766.095498,9548.656652
960.319037,-962.267725,689.485948,9400.615463
960.319367,-888.247130,1225.752797,9474.636058
960.319696,-1036.288319,995.924147,9474.636058
960.320026,-1258.350101,842.705048,9400.615463
960.320355,-1184.329507,842.705048,9548.656652
960.320685,-888.247130,919.314598,9548.656652
960.321014,-1036.288319,842.705048,9178.553681
960.321344,-1036.288319,842.705048,9548.656652
960.321674,-1258.350101,1149.143247,9474.636058
960.322003,-962.267725,995.924147,9474.636058
960.322333,-962.267725,842.705048,9548.656652
960.322662,-814.226536,766.095498,9326.594869
960.322992,-1110.308913,919.314598,9252.574275
960.323321,-1184.329507,766.095498,9400.615463
960.323651,-962.267725,919.314598,9400.615463
960.323981,-1110.308913,1072.533697,9400.615463
960.324310,-1036.288319,1149.143247,9844.739029
960.324640,-1110.308913,689.485948,9400.615463
960.324969,-1110.308913,1072.533697,9474.636058
960.325299,-1036.288319,919.314598,9474.636058
960.325628,-1036.288319,766.095498,9474.636058
960.325958,-962.267725,842.705048,9770.718434
960.326288,-1480.411884,1378.971896,9400.615463
960.326617,-1110.308913,842.705048,9474.636058
960.326947,-1110.308913,1149.143247,9696.697840
960.327276,-1184.329507,1149.143247,9696.697840
960.327606,-888.247130,919.314598,9622.677246
960.327935,-1184.329507,612.876398,9400.615463
960.328265,-1110.308913,995.924147,9326.594869
960.328595,-1036.288319,919.314598,9548.656652
960.328924,-1036.288319,766.095498,9770.718434
960.329254,-962.267725,842.705048,9622.677246
960.329583,-1036.288319,1072.533697,9474.636058
960.329913,-1184.329507,766.095498,9252.574275
960.330242,-1110.308913,995.924147,9400.615463
960.330572,-1184.329507,919.314598,9326.594869
960.330901,-1036.288319,689.485948,9326.594869
960.331231,-1036.288319,1072.533697,9548.656652
960.331561,-1036.288319,766.095498,9696.697840
960.331890,-888.247130,842.705048,9252.574275
960.332220,-962.267725,919.314598,9622.677246
960.332549,-1184.329507,842.705048,9474.636058
960.332879,-962.267725,1149.143247,9178.553681
960.333208,-1184.329507,1378.971896,9474.636058
960.333538,-1406.391290,1302.362347,9474.636058
960.333868,-962.267725,995.924147,9622.677246
960.334197,-888.247130,995.924147,9474.636058
960.334527,-1036.288319,919.314598,9622.677246
960.334856,-1110.308913,842.705048,9548.656652
960.335186,-740.205942,919.314598,9474.636058
960.335515,-1184.329507,1225.752797,9474.636058
960.335845,-1110.308913,842.705048,9548.656652
960.336175,-962.267725,612.876398,9474.636058
960.336504,-1184.329507,995.924147,9622.677246
960.336834,-888.247130,919.314598,9696.697840
960.337163,-1036.288319,919.314598,9548.656652
960.337493,-1036.288319,919.314598,9696.697840
960.337822,-1184.329507,919.314598,9622.677246
960.338152,-1110.308913,842.705048,9474.636058
960.338481,-962.267725,612.876398,9622.677246
960.338811,-962.267725,766.095498,9400.615463
960.339141,-888.247130,995.924147,9548.656652
960.339470,-1110.308913,995.924147,9548.656652
960.339800,-962.267725,536.266849,9696.697840
960.340129,-740.205942,229.828649,9622.677246
960.340459,-1110.308913,995.924147,9474.636058
960.340788,-1184.329507,919.314598,9474.636058
960.341118,-888.247130,1072.533697,9474.636058
960.341448,-1110.308913,995.924147,9696.697840
960.341777,-1036.288319,1225.752797,9548.656652
960.342107,-888.247130,612.876398,9326.594869
960.342436,-1110.308913,919.314598,9474.636058
960.342766,-1110.308913,842.705048,9474.636058
960.343095,-962.267725,1149.143247,9400.615463
960.343425,-888.247130,766.095498,9400.615463
960.343755,-962.267725,1149.143247,9400.615463
960.344084,-1036.288319,842.705048,9030.512492
960.344414,-962.267725,919.314598,9474.636058
960.344743,-888.247130,995.924147,9030.512492
960.345073,-296.082377,842.705048,8882.471304
960.345402,592.164754,536.266849,9104.533087
960.345732,1184.329507,306.438199,9104.533087
960.346062,814.226536,612.876398,9326.594869
960.346391,370.102971,536.266849,9548.656652
960.346721,0.000000,919.314598,10140.821405
960.347050,-740.205942,1225.752797,10214.842000
960.347380,-592.164754,76.609550,9992.780217
960.347709,-444.123565,153.219100,9992.780217
960.348039,74.020594,229.828649,9844.739029
960.348368,592.164754,153.219100,9548.656652
960.348698,1554.432478,153.219100,9252.574275
960.349028,2442.679609,383.047749,8660.409521
960.349357,3330.926739,995.924147,8808.450710
960.349687,3552.988522,1378.971896,9104.533087
960.350016,3552.988522,1915.238745,9474.636058
960.350346,3478.967927,1608.800546,10066.800811
960.350675,2738.761985,1072.533697,10066.800811
960.351005,2072.576638,1378.971896,10584.944971
960.351335,1628.453072,459.657299,10807.006753
960.351664,1480.411884,153.219100,10658.965565
960.351994,1702.473667,0.000000,10066.800811
960.352323,2368.659014,-153.219100,9548.656652
960.352653,3108.864956,-229.828649,9030.512492
960.352982,3775.050304,766.095498,8882.471304
960.353312,3923.091493,1225.752797,9252.574275
960.353642,3627.009116,2145.067394,9474.636058
960.353971,3034.844362,2757.943793,9918.759623
960.354301,1702.473667,2681.334243,10510.924376
960.354630,74.020594,2451.505594,10140.821405
960.354960,-1850.514855,1991.848295,9548.656652
960.355289,-1850.514855,919.314598,8660.409521
960.355619,-592.164754,-536.266849,7772.162391
960.355949,740.205942,-1072.533697,6587.832884
960.356278,2442.679609,-1149.143247,6069.688724
960.356608,3849.070898,0.000000,6587.832884
960.356937,4219.173869,1302.362347,7402.059420
960.357267,3404.947333,3294.210641,9474.636058
960.357596,2442.679609,4443.353888,11399.171507
960.357926,1480.411884,4213.525239,12361.439231
960.358255,0.000000,2987.772442,12805.562797
960.358585,-1184.329507,919.314598,12435.459826
960.358915,-1776.494261,-1149.143247,12065.356855
960.359244,-1850.514855,-2451.505594,11325.150913
960.359574,-1036.288319,-2068.457845,9622.677246
960.359903,740.205942,-2068.457845,8364.327145
960.360233,2442.679609,-1838.629195,7476.080014
960.360562,4293.194464,-459.657299,7105.977043
960.360892,4959.379811,995.924147,6883.915261
960.361222,4959.379811,2681.334243,7402.059420
960.361551,4441.235652,4136.915689,8586.388927
960.361881,3997.112087,4519.963438,10214.842000
960.362210,2960.823768,3524.039291,11325.150913
960.362540,1776.494261,2681.334243,11843.295072
960.362869,444.123565,842.705048,11399.171507
960.363199,-296.082377,-459.657299,10510.924376
960.363529,-814.226536,-1302.362347,10807.006753
960.363858,-888.247130,-2068.457845,10732.986159
960.364188,-740.205942,-1762.019645,10658.965565
960.364517,-296.082377,-383.047749,10140.821405
960.364847,962.267725,383.047749,9326.594869
960.365176,2220.617826,383.047749,8216.285956
960.365506,3552.988522,842.705048,7846.182985
960.365835,4737.318029,1072.533697,7550.100608
960.366165,5181.441594,842.705048,7476.080014
960.366495,5107.421000,1608.800546,7846.182985
960.366824,3552.988522,1378.971896,8734.430116
960.367154,2442.679609,1302.362347,9992.780217
960.367483,1628.453072,1762.019645,10732.986159
960.367813,1110.308913,1915.238745,11325.150913
960.368142,1184.329507,1685.410096,10881.027347
960.368472,1850.514855,1838.629195,10362.883188
960.368802,1998.556043,1225.752797,9548.656652
960.369131,2442.679609,536.266849,8364.327145
960.369461,2664.741391,306.438199,8290.306550
960.369790,2368.659014,919.314598,8290.306550
960.370120,1554.432478,1455.581446,8956.491898
960.370449,1332.370696,76.609550,9474.636058
960.370779,0.000000,306.438199,9992.780217
960.371109,-1110.308913,536.266849,10436.903782
960.371438,-1184.329507,0.000000,11103.089130
960.371768,-1406.391290,76.609550,11177.109724
960.372097,-1776.494261,536.266849,10732.986159
960.372427,-740.205942,459.657299,10436.903782
960.372756,666.185348,0.000000,9326.594869
960.373086,2960.823768,536.266849,8512.368333
960.373416,4885.359217,1915.238745,7772.162391
960.373745,7105.977043,2451.505594,7846.182985
960.374075,8142.265362,3140.991542,8882.471304
960.374404,7105.977043,3983.696590,9400.615463
960.374734,4811.338623,4903.011187,10362.883188
960.375063,2072.576638,4979.620737,11473.192101
960.375393,-444.123565,3753.867940,12139.377449
960.375722,-3478.967927,1302.362347,12953.603985
960.376052,-6439.791695,-1072.533697,12065.356855
960.376382,-8290.306550,-2298.286494,10658.965565
960.376711,-8290.306550,-2987.772442,8956.491898
960.377041,-6217.729913,-2987.772442,6291.750507
960.377370,-2294.638420,-2987.772442,3552.988522
960.377700,3034.844362,-3370.820191,3034.844362
960.378029,6661.853478,-1072.533697,3478.967927
960.378359,7328.038826,3447.429741,4811.338623
960.378689,6143.709319,6205.373534,7105.977043
960.379018,4811.338623,7737.564530,10362.883188
960.379348,2368.659014,7584.345430,14730.098246
960.379677,-888.247130,7201.297681,17764.942608
960.380007,-4737.318029,5286.058936,16654.633695
960.380336,-7846.182985,1225.752797,13619.789333
960.380666,-8290.306550,-4136.915689,11843.295072
960.380996,-6809.894666,-6818.249932,10881.027347
960.381325,-4145.153275,-5745.716235,8660.409521
960.381655,-592.164754,-5056.230287,5921.647536
960.381984,3256.906145,-3064.381992,3849.070898
960.382314,7031.956449,229.828649,3034.844362
960.382643,9622.677246,2145.067394,4885.359217
960.382973,9844.739029,3753.867940,8068.244768
960.383302,6513.812290,8044.002729,11177.109724
960.383632,1036.288319,9499.584175,14063.912898
960.383962,-5181.441594,6358.592633,16210.510130
960.384291,-9548.656652,3064.381992,15988.448347
960.384621,-11325.150913,-612.876398,13767.830521
960.384950,-9326.594869,-4903.011187,10510.924376
960.385280,-5699.585753,-7890.783629,8068.244768
960.385609,-2294.638420,-7814.174080,4885.359217
960.385939,814.226536,-5132.839837,2294.638420
960.386269,4441.235652,-1762.019645,1998.556043
960.386598,7846.182985,842.705048,5625.565159
960.386928,7179.997637,5669.106685,11103.089130
960.387257,2368.659014,10035.851024,14508.036463
960.387587,-3478.967927,10572.117872,14137.933492
960.387916,-6957.935855,5209.449386,14656.077652
960.388246,-7179.997637,536.266849,15692.365970
960.388576,-7179.997637,-1762.019645,13471.748144
960.388905,-5773.606348,-6052.154434,8068.244768
960.389235,-2220.617826,-9039.926876,3701.029710
960.389564,2664.741391,-8503.660028,1998.556043
960.389894,7476.080014,-4903.011187,3034.844362
960.390223,9474.636058,-306.438199,5625.565159
960.390553,7550.100608,5515.887586,7920.203579
960.390883,3034.844362,11644.651570,10807.006753
960.391212,-1998.556043,11338.213370,14730.098246
960.391541,-6217.729913,9882.631924,17542.880825
960.391871,-9474.636058,5592.497135,16728.654289
960.392200,-10658.965565,-383.047749,14434.015869
960.392530,-9770.718434,-4060.306139,10362.883188
960.392859,-7105.977043,-8044.002729,5699.585753
960.393189,-3404.947333,-9882.631924,1850.514855
960.393518,444.123565,-8427.050478,444.123565
960.393848,4885.359217,-2911.162892,3108.864956
960.394177,6661.853478,2298.286494,7772.162391
960.394507,3701.029710,7431.126331,11917.315666
960.394836,-666.185348,12563.966167,14359.995275
960.395166,-3404.947333,11797.870669,14656.077652
960.395495,-3256.906145,7584.345430,15544.324782
960.395825,-3108.864956,2068.457845,15100.201217
960.396154,-3701.029710,-2068.457845,12213.398043
960.396484,-4219.173869,-4979.620737,7550.100608
960.396813,-1924.535449,-7277.907231,5699.585753
960.397143,1628.453072,-5975.544884,5403.503377
960.397472,4515.256246,-2681.334243,5699.585753
960.397802,4959.379811,0.000000,6291.750507
960.398131,3330.926739,4060.306139,8290.306550
960.398461,518.144159,9499.584175,9474.636058
960.398790,-666.185348,9959.241474,11621.233289
960.399120,-1850.514855,7584.345430,13101.645173
960.399449,-3478.967927,4826.401637,12657.521608
960.399779,-3775.050304,1149.143247,10140.821405
960.400108,-2590.720797,-3064.381992,7476.080014
960.400438,-1332.370696,-4903.011187,6143.709319
960.400767,592.164754,-6128.763984,5773.606348
960.401097,740.205942,-4290.134789,7402.059420
960.401426,-296.082377,76.609550,9548.656652
960.401755,-2368.659014,3830.477490,11177.109724
960.402085,-4145.153275,7431.126331,12509.480420
960.402414,-3997.112087,7354.516781,12657.521608
960.402744,-2664.741391,5056.230287,12287.418637
960.403073,-814.226536,1532.190996,11177.109724
960.403403,518.144159,-1225.752797,8364.327145
960.403732,1480.411884,-2221.676944,6661.853478
960.404062,2368.659014,-3830.477490,7031.956449
960.404391,3108.864956,-2374.896044,8438.347739
960.404721,2960.823768,-612.876398,9252.574275
960.405050,2072.576638,1149.143247,9622.677246
960.405380,-444.123565,3907.087040,10584.944971
960.405709,-2368.659014,4213.525239,11769.274478
960.406039,-2960.823768,4136.915689,12657.521608
960.406368,-2886.803174,2987.772442,12139.377449
960.406698,-2812.782580,1149.143247,9992.780217
960.407027,-2738.761985,-1455.581446,6735.874072
960.407357,-1332.370696,-2911.162892,6069.688724
960.407686,518.144159,-3600.648841,6439.791695
960.408016,1554.432478,-3447.429741,7624.121203
960.408345,592.164754,-842.705048,9178.553681
960.408675,-2368.659014,1762.019645,10881.027347
960.409004,-5329.482782,3447.429741,12509.480420
960.409334,-6513.812290,3907.087040,13175.665768
960.409663,-5847.626942,3064.381992,12583.501014
960.409993,-3478.967927,536.266849,10732.986159
960.410322,-1110.308913,-2374.896044,8364.327145
960.410652,518.144159,-4443.353888,6809.894666
960.410981,2368.659014,-3753.867940,6143.709319
960.411311,4219.173869,-1608.800546,6069.688724
960.411640,5033.400406,153.219100,7179.997637
960.411969,4663.297435,1608.800546,9696.697840
960.412299,1406.391290,2911.162892,11843.295072
960.412628,-2590.720797,5286.058936,12657.521608
960.412958,-5181.441594,5362.668486,13323.706956
960.413287,-5625.565159,3753.867940,12879.583391
960.413617,-4885.359217,689.485948,11251.130318
960.413946,-3775.050304,-2528.115143,8068.244768
960.414276,-2368.659014,-3830.477490,4885.359217
960.414605,-296.082377,-3677.258390,3923.091493
960.414935,1998.556043,-2681.334243,5403.503377
960.415264,2664.741391,-383.047749,8438.347739
960.415594,296.082377,2604.724693,10955.047942
960.415923,-3404.947333,6205.373534,12657.521608
960.416253,-6069.688724,7507.735880,13841.851115
960.416582,-6513.812290,5975.544884,13915.871710
960.416912,-4885.359217,2681.334243,12361.439231
960.417241,-2812.782580,-1378.971896,9918.759623
960.417571,-1036.288319,-2834.553343,7550.100608
960.417900,888.247130,-4136.915689,5921.647536
960.418230,2368.659014,-3064.381992,5921.647536
960.418559,4293.194464,-153.219100,7476.080014
960.418889,4959.379811,2911.162892,8882.471304
960.419218,4441.235652,5209.449386,9548.656652
960.419548,2294.638420,6435.202183,10732.986159
960.419877,-740.205942,7814.174080,11399.171507
960.420207,-3330.926739,6894.859482,11547.212695
960.420536,-4293.194464,3600.648841,11621.233289
960.420866,-3849.070898,459.657299,10510.924376
960.421195,-3182.885551,-1762.019645,8438.347739
960.421525,-2738.761985,-3370.820191,5477.523971
960.421854,-592.164754,-4290.134789,4219.173869
960.422183,2664.741391,-3064.381992,5625.565159
960.422513,3478.967927,229.828649,8068.244768
960.422842,962.267725,3830.477490,10140.821405
960.423172,-3256.906145,7124.688131,12139.377449
960.423501,-5699.585753,8427.050478,12509.480420
960.423831,-5107.421000,6205.373534,12805.562797
960.424160,-2960.823768,1991.848295,11991.336260
960.424490,-1110.308913,-1991.848295,9474.636058
960.424819,518.144159,-4366.744339,6661.853478
960.425149,1332.370696,-5822.325785,5847.626942
960.425478,2886.803174,-4366.744339,6957.935855
960.425808,4219.173869,-689.485948,8734.430116
960.426137,3997.112087,2298.286494,10288.862594
960.426467,2516.700203,4519.963438,11473.192101
960.426796,296.082377,6818.249932,11843.295072
960.427126,-1406.391290,6205.373534,12287.418637
960.427455,-3034.844362,3983.696590,11843.295072
960.427785,-4515.256246,842.705048,11325.150913
960.428114,-4663.297435,-1762.019645,9844.739029
960.428444,-3997.112087,-4366.744339,8438.347739
960.428773,-2812.782580,-5745.716235,7105.977043
960.429103,-814.226536,-5209.449386,5921.647536
960.429432,1776.494261,-4060.306139,6809.894666
960.429762,2072.576638,-1072.533697,8364.327145
960.430091,-518.144159,2834.553343,10807.006753
960.430421,-3997.112087,5898.935335,11769.274478
960.430750,-5403.503377,6358.592633,12213.398043
960.431080,-5107.421000,4136.915689,12805.562797
960.431409,-3330.926739,689.485948,11769.274478
960.431739,-1480.411884,-2451.505594,8734.430116
960.432068,-370.102971,-4979.620737,6365.771101
960.432397,518.144159,-5592.497135,5921.647536
960.432727,2368.659014,-4136.915689,7031.956449
960.433056,3775.050304,-919.314598,8956.491898
960.433386,2294.638420,1915.238745,9992.780217
960.433715,-296.082377,4673.182538,11547.212695
960.434045,-2738.761985,6588.421283,12287.418637
960.434374,-3404.947333,5592.497135,13249.686362
960.434704,-3849.070898,3983.696590,12287.418637
960.435033,-4663.297435,1762.019645,9992.780217
960.435363,-3775.050304,-1685.410096,7179.997637
960.435692,-2368.659014,-4366.744339,5477.523971
960.436022,0.000000,-4903.011187,4811.338623
960.436351,1924.535449,-3294.210641,6439.791695
960.436681,2516.700203,-689.485948,9178.553681
960.437010,148.041188,3600.648841,11399.171507
960.437340,-3923.091493,6665.030833,12805.562797
960.437669,-6957.935855,8120.612279,12731.542202
960.437999,-7402.059420,6665.030833,12213.398043
960.438328,-5921.647536,3294.210641,11917.315666
960.438658,-2960.823768,-1225.752797,10288.862594
960.438987,-1184.329507,-5056.230287,7994.224174
960.439317,296.082377,-5209.449386,5773.606348
960.439646,1924.535449,-3907.087040,5625.565159
960.439976,4293.194464,-995.924147,7402.059420
960.440305,6069.688724,2757.943793,9030.512492
960.440635,5477.523971,5745.716235,10362.883188
960.440964,2294.638420,8350.440928,11251.130318
960.441294,-222.061783,9729.412825,11399.171507
960.441623,-1332.370696,7354.516781,11843.295072
960.441953,-1110.308913,3370.820191,11325.150913
960.442282,-1628.453072,76.609550,8734.430116
960.442611,-2146.597232,-2451.505594,7105.977043
960.442941,-1628.453072,-5286.058936,6365.771101
960.443270,-666.185348,-4366.744339,7031.956449
960.443600,444.123565,-1762.019645,8068.244768
960.443929,148.041188,1302.362347,9326.594869
960.444259,-962.267725,4136.915689,10362.883188
960.444588,-3108.864956,6741.640382,10658.965565
960.444918,-3923.091493,6511.811733,11177.109724
960.445247,-3849.070898,4366.744339,11695.253884
960.445577,-2960.823768,2221.676944,11769.274478
960.445906,-2738.761985,-1225.752797,9252.574275
960.446236,-1554.432478,-3907.087040,7476.080014
960.446565,74.020594,-4903.011187,7105.977043
960.446895,2442.679609,-4443.353888,7254.018232
960.447224,4737.318029,-1455.581446,8290.306550
960.447554,4885.359217,1762.019645,9770.718434
960.447883,2738.761985,4060.306139,11473.192101
960.448213,-370.102971,6665.030833,12805.562797
960.448542,-2516.700203,6741.640382,13397.727550
960.448872,-2960.823768,5439.278036,13027.624579
960.449201,-2960.823768,919.314598,11251.130318
960.449531,-2590.720797,-2911.162892,9178.553681
960.449860,-2738.761985,-5132.839837,6587.832884
960.450190,-1998.556043,-5975.544884,5403.503377
960.450519,-296.082377,-5056.230287,5995.668130
960.450849,740.205942,-3294.210641,7846.182985
960.451178,148.041188,766.095498,10140.821405
960.451508,-3182.885551,3370.820191,11991.336260
960.451837,-5773.606348,5975.544884,12805.562797
960.452167,-6217.729913,5975.544884,12805.562797
960.452496,-5255.462188,3370.820191,12213.398043
960.452825,-3330.926739,-229.828649,10955.047942
960.453155,-2442.679609,-3677.258390,8290.306550
960.453484,-1702.473667,-4903.011187,5773.606348
960.453814,370.102971,-4826.401637,5477.523971
960.454143,2664.741391,-3370.820191,6883.915261
960.454473,3775.050304,-919.314598,8364.327145
960.454802,2294.638420,2834.553343,9770.718434
960.455132,-444.123565,5056.230287,11177.109724
960.455461,-2072.576638,7124.688131,12435.459826
960.455791,-3034.844362,6435.202183,13471.748144
960.456120,-3701.029710,4136.915689,12657.521608
960.456450,-3404.947333,306.438199,10140.821405
960.456779,-2442.679609,-2834.553343,7105.977043
960.457109,-1332.370696,-4673.182538,5699.585753
960.457438,444.123565,-4749.792088,5773.606348
960.457768,1332.370696,-2834.553343,7105.977043
960.458097,1258.350101,0.000000,9030.512492
960.458427,-888.247130,3294.210641,11251.130318
960.458756,-3627.009116,6205.373534,13101.645173
960.459086,-5181.441594,7967.393179,13619.789333
960.459415,-5477.523971,7277.907231,12953.603985
960.459745,-4071.132681,4213.525239,11103.089130
960.460074,-1776.494261,-766.095498,8660.409521
960.460404,0.000000,-3753.867940,6513.812290
960.460733,888.247130,-4519.963438,5477.523971
960.461063,2072.576638,-2987.772442,6735.874072
960.461392,3552.988522,0.000000,8438.347739
960.461722,3849.070898,3217.601092,9030.512492
960.462051,1480.411884,4596.572988,9474.636058
960.462381,-740.205942,6741.640382,10658.965565
960.462710,-1776.494261,7660.954980,11547.212695
960.463039,-1850.514855,6588.421283,12065.356855
960.463369,-2072.576638,3140.991542,10584.944971
960.463698,-2294.638420,-383.047749,7994.224174
960.464028,-1554.432478,-3677.258390,6661.853478
960.464357,-370.102971,-4596.572988,6587.832884
960.464687,740.205942,-2451.505594,7624.121203
960.465016,1776.494261,-689.485948,8290.306550
960.465346,1184.329507,1378.971896,8808.450710
960.465675,-1702.473667,3983.696590,10658.965565
960.466005,-3478.967927,6435.202183,11769.274478
960.466334,-4219.173869,6358.592633,11769.274478
960.466664,-4441.235652,4136.915689,11473.192101
960.466993,-3701.029710,612.876398,10066.800811
960.467323,-2812.782580,-2681.334243,8438.347739
960.467652,-1258.350101,-4673.182538,7254.018232
960.467982,518.144159,-4826.401637,7105.977043
960.468311,2590.720797,-2911.162892,7624.121203
960.468641,3923.091493,-383.047749,8734.430116
960.468970,2590.720797,1991.848295,10436.903782
960.469300,0.000000,4136.915689,12435.459826
960.469629,-2812.782580,6894.859482,13471.748144
960.469959,-4293.194464,6894.859482,13767.830521
960.470288,-4071.132681,4443.353888,12361.439231
960.470618,-3256.906145,-689.485948,9992.780217
960.470947,-1702.473667,-4673.182538,7698.141797
960.471277,-518.144159,-6665.030833,6143.709319
960.471606,-74.020594,-5669.106685,5921.647536
960.471936,1184.329507,-2834.553343,6365.771101
960.472265,1628.453072,-612.876398,8438.347739
960.472595,740.205942,1762.019645,10362.883188
960.472924,-2368.659014,4903.011187,11843.295072
960.473253,-4441.235652,6818.249932,12361.439231
960.473583,-4885.359217,6052.154434,12361.439231
960.473912,-4737.318029,3677.258390,11917.315666
960.474242,-3330.926739,-689.485948,10362.883188
960.474571,-2516.700203,-4519.963438,7624.121203
960.474901,-1332.370696,-6205.373534,6143.709319
960.475230,296.082377,-5056.230287,6291.750507
960.475560,2368.659014,-2757.943793,7920.203579
960.475889,2516.700203,459.657299,9252.574275
960.476219,740.205942,2681.334243,10066.800811
960.476548,-2146.597232,5592.497135,10955.047942
960.476878,-2886.803174,7507.735880,11843.295072
960.477207,-2516.700203,5822.325785,12879.583391
960.477537,-2590.720797,2757.943793,11547.212695
960.477866,-3108.864956,-536.266849,9030.512492
960.478196,-2368.659014,-3064.381992,6809.894666
960.478525,-1184.329507,-4519.963438,5995.668130
960.478855,0.000000,-3447.429741,6291.750507
960.479184,296.082377,-2145.067394,7476.080014
960.479514,74.020594,536.266849,9992.780217
960.479843,-1924.535449,3447.429741,12287.418637
960.480173,-4145.153275,6665.030833,13693.809927
960.480502,-4811.338623,7354.516781,13249.686362
960.480832,-3997.112087,5209.449386,11917.315666
960.481161,-2368.659014,1991.848295,10955.047942
960.481491,-370.102971,-1302.362347,8438.347739
960.481820,814.226536,-3064.381992,6513.812290
960.482150,2220.617826,-2834.553343,6069.688724
960.482479,3182.885551,-1608.800546,7254.018232
960.482809,4071.132681,306.438199,8142.265362
960.483138,3552.988522,2987.772442,8882.471304
960.483467,1110.308913,4749.792088,9548.656652
960.483797,-1924.535449,6281.983084,10658.965565
960.484126,-3404.947333,7201.297681,11843.295072
960.484456,-4071.132681,5286.058936,11621.233289
960.484785,-3923.091493,1762.019645,10658.965565
960.485115,-3478.967927,-1378.971896,7920.203579
960.485444,-2442.679609,-3830.477490,6365.771101
960.485774,-222.061783,-4213.525239,6143.709319
960.486103,1998.556043,-3064.381992,6883.915261
960.486433,2294.638420,-306.438199,7698.141797
960.486762,1036.288319,2757.943793,9104.533087
960.487092,-1332.370696,5209.449386,10955.047942
960.487421,-3182.885551,7048.078582,12213.398043
960.487751,-3997.112087,6588.421283,12139.377449
960.488080,-3627.009116,4213.525239,11473.192101
960.488410,-2146.597232,153.219100,10288.862594
960.488739,-148.041188,-3447.429741,8364.327145
960.489069,888.247130,-4673.182538,7105.977043
960.489398,1998.556043,-4290.134789,7179.997637
960.489728,3923.091493,-2298.286494,8438.347739
960.490057,3182.885551,995.924147,10140.821405
960.490387,1258.350101,3524.039291,11177.109724
960.490716,-1332.370696,5056.230287,11991.336260
960.491046,-2738.761985,5745.716235,12139.377449
960.491375,-3182.885551,4213.525239,12657.521608
960.491705,-3849.070898,1225.752797,11547.212695
960.492034,-3775.050304,-1608.800546,9770.718434
960.492364,-3478.967927,-3677.258390,8290.306550
960.492693,-2590.720797,-5286.058936,7031.956449
960.493023,-1036.288319,-4290.134789,6809.894666
960.493352,1554.432478,-1991.848295,6809.894666
960.493682,2516.700203,-306.438199,8364.327145
960.494011,666.185348,2604.724693,9622.677246
960.494341,-2664.741391,5362.668486,11251.130318
960.494671,-3997.112087,6588.421283,11991.336260
960.495000,-4737.318029,5515.887586,13619.789333
960.495330,-4885.359217,3370.820191,12509.480420
960.495660,-3330.926739,-1149.143247,9252.574275
960.495989,-888.247130,-5439.278036,6735.874072
960.496319,1036.288319,-6435.202183,5403.503377
960.496648,2368.659014,-4366.744339,5995.668130
960.496978,3108.864956,-1532.190996,8364.327145
960.497308,2220.617826,1915.238745,9918.759623
960.497637,-370.102971,4903.011187,10955.047942
960.497967,-2886.803174,6358.592633,11547.212695
960.498297,-3404.947333,6358.592633,12065.356855
960.498626,-3330.926739,4290.134789,11991.336260
960.498956,-3256.906145,536.266849,10288.862594
960.499285,-3182.885551,-2604.724693,8068.244768
960.499615,-2664.741391,-4136.915689,6661.853478
960.499945,-1184.329507,-4060.306139,5921.647536
960.500274,518.144159,-2604.724693,6883.915261
960.500604,2220.617826,-842.705048,9030.512492
960.500933,1702.473667,2068.457845,10955.047942
960.501263,-1554.432478,4826.401637,11991.336260
960.501593,-4293.194464,7124.688131,13249.686362
960.501922,-4737.318029,7660.954980,13767.830521
960.502252,-4071.132681,5592.497135,12953.603985
960.502582,-2886.803174,306.438199,10807.006753
960.502911,-1258.350101,-3753.867940,7846.182985
960.503241,296.082377,-4749.792088,5847.626942
960.503570,1850.514855,-4366.744339,5995.668130
960.503900,3330.926739,-2221.676944,7476.080014
960.504230,3701.029710,766.095498,8660.409521
960.504559,2516.700203,3524.039291,9696.697840
960.504889,0.000000,5515.887586,10807.006753
960.505219,-2146.597232,7584.345430,11621.233289
960.505548,-3034.844362,7354.516781,12213.398043
960.505878,-3552.988522,4290.134789,11843.295072
960.506207,-3330.926739,536.266849,9770.718434
960.506537,-2516.700203,-2451.505594,7105.977043
960.506867,-1332.370696,-4903.011187,5551.544565
960.507196,444.123565,-4596.572988,5773.606348
960.507526,2072.576638,-1991.848295,6883.915261
960.507856,2220.617826,612.876398,8142.265362
960.508185,592.164754,3600.648841,9400.615463
960.508515,-2220.617826,6588.421283,10732.986159
960.508844,-3034.844362,7354.516781,11843.295072
960.509174,-3627.009116,6435.202183,12065.356855
960.509504,-3701.029710,3064.381992,11399.171507
960.509833,-2812.782580,-536.266849,9178.553681
960.510163,-1924.535449,-4136.915689,7179.997637
960.510493,-592.164754,-5286.058936,7105.977043
960.510822,1036.288319,-3600.648841,8438.347739
960.511152,2664.741391,-1302.362347,9400.615463
960.511481,2590.720797,1532.190996,10288.862594
960.511811,814.226536,3907.087040,10881.027347
960.512141,-1628.453072,5669.106685,11769.274478
960.512470,-2368.659014,5975.544884,12435.459826
960.512800,-2442.679609,4136.915689,12361.439231
960.513130,-2738.761985,1915.238745,10732.986159
960.513459,-2516.700203,-1608.800546,8586.388927
960.513789,-1702.473667,-4596.572988,6957.935855
960.514118,-444.123565,-5209.449386,6217.729913
960.514448,1110.308913,-3830.477490,6809.894666
960.514778,2294.638420,-1302.362347,7994.224174
960.515107,1776.494261,1838.629195,9474.636058
960.515437,-592.164754,4060.306139,11029.068536
960.515767,-3404.947333,6588.421283,11695.253884
960.516096,-4515.256246,6665.030833,12953.603985
960.516426,-4737.318029,4903.011187,12361.439231
960.516755,-4145.153275,1072.533697,11177.109724
960.517085,-3404.947333,-2681.334243,8808.450710
960.517415,-2220.617826,-5592.497135,6587.832884
960.517744,-444.123565,-6052.154434,5773.606348
960.518074,1628.453072,-4136.915689,6587.832884
960.518404,3182.885551,-995.924147,8438.347739
960.518733,2886.803174,1378.971896,9548.656652
960.519063,0.000000,4136.915689,10436.903782
960.519392,-2368.659014,6971.469032,10807.006753
960.519722,-3330.926739,6358.592633,11843.295072
960.520052,-4071.132681,4060.306139,11695.253884
960.520381,-3849.070898,306.438199,10436.903782
960.520711,-3256.906145,-3753.867940,8512.368333
960.521041,-2146.597232,-6128.763984,7328.038826
960.521370,-370.102971,-4903.011187,6439.791695
960.521700,2072.576638,-3447.429741,7105.977043
960.522029,3256.906145,-1302.362347,8438.347739
960.522359,2664.741391,2451.505594,10214.842000
960.522689,74.020594,5439.278036,12139.377449
960.523018,-2294.638420,7814.174080,12805.562797
960.523348,-3923.091493,8120.612279,13249.686362
960.523678,-4293.194464,5515.887586,12953.603985
960.524007,-2886.803174,0.000000,10658.965565
960.524337,-1702.473667,-4366.744339,7994.224174
960.524666,-148.041188,-6128.763984,5625.565159
960.524996,1036.288319,-6281.983084,6069.688724
960.525326,2072.576638,-3217.601092,7698.141797
960.525655,2220.617826,612.876398,9548.656652
960.525985,222.061783,3370.820191,10436.903782
960.526315,-1480.411884,6818.249932,11473.192101
960.526644,-2738.761985,8580.269578,11991.336260
960.526974,-2886.803174,6971.469032,12361.439231
960.527303,-2368.659014,3753.867940,11177.109724
960.527633,-2146.597232,0.000000,8660.409521
960.527963,-1480.411884,-3064.381992,6957.935855
960.528292,-740.205942,-4136.915689,5107.421000
960.528622,444.123565,-2528.115143,4959.379811
960.528952,2812.782580,-1532.190996,6069.688724
960.529281,3478.967927,153.219100,8142.265362
960.529611,1332.370696,3753.867940,11103.089130
960.529940,-2590.720797,6894.859482,13101.645173
960.530270,-4737.318029,9422.974625,13323.706956
960.530600,-5255.462188,8197.221829,12731.542202
960.530929,-4145.153275,3064.381992,11325.150913
960.531259,-1998.556043,-2528.115143,8808.450710
960.531589,-370.102971,-4979.620737,6513.812290
960.531918,592.164754,-5515.887586,5477.523971
960.532248,2072.576638,-3907.087040,6735.874072
960.532577,2442.679609,-1302.362347,8142.265362
960.532907,2516.700203,1685.410096,9992.780217
960.533237,888.247130,3907.087040,11325.150913
960.533566,-1406.391290,7737.564530,11843.295072
960.533896,-2590.720797,7890.783629,12213.398043
960.534226,-2738.761985,4749.792088,12361.439231
960.534555,-2664.741391,1302.362347,11251.130318
960.534885,-2368.659014,-2068.457845,8956.491898
960.535214,-1258.350101,-3907.087040,7254.018232
960.535544,-296.082377,-4903.011187,6587.832884
960.535874,1184.329507,-3217.601092,6365.771101
960.536203,2812.782580,-2221.676944,7105.977043
960.536533,2886.803174,536.266849,9400.615463
960.536863,-222.061783,3677.258390,11251.130318
960.537192,-3182.885551,7277.907231,12213.398043
960.537522,-4663.297435,7124.688131,13027.624579
960.537851,-4811.338623,4290.134789,12509.480420
960.538181,-3849.070898,-153.219100,11177.109724
960.538511,-2442.679609,-3753.867940,8734.430116
960.538840,-962.267725,-5515.887586,7105.977043
960.539170,444.123565,-6205.373534,6883.915261
960.539500,1776.494261,-4443.353888,7698.141797
960.539829,2516.700203,-766.095498,8512.368333
960.540159,1924.535449,2298.286494,9252.574275
960.540488,-296.082377,3983.696590,10436.903782
960.540818,-2368.659014,7354.516781,11621.233289
960.541148,-3034.844362,6665.030833,12361.439231
960.541477,-3330.926739,3677.258390,11547.212695
960.541807,-3108.864956,-229.828649,9770.718434
960.542137,-2442.679609,-2757.943793,7698.141797
960.542466,-1924.535449,-5132.839837,5773.606348
960.542796,-814.226536,-4826.401637,4885.359217
960.543125,1258.350101,-2987.772442,6291.750507
960.543455,2294.638420,-1072.533697,8882.471304
960.543785,296.082377,2604.724693,11029.068536
960.544114,-3182.885551,5362.668486,13027.624579
960.544444,-5995.668130,7660.954980,13989.892304
960.544774,-6143.709319,6971.469032,13989.892304
960.545103,-5033.400406,3447.429741,12139.377449
960.545433,-2590.720797,-1838.629195,9252.574275
960.545762,-444.123565,-5362.668486,6809.894666
960.546092,888.247130,-6205.373534,6069.688724
960.546422,2220.617826,-4903.011187,6957.935855
960.546751,2664.741391,-1455.581446,8216.285956
960.547081,2516.700203,1838.629195,9844.739029
960.547411,1184.329507,5056.230287,10955.047942
960.547740,-444.123565,7431.126331,11399.171507
960.548070,-1628.453072,7890.783629,12435.459826
960.548399,-1998.556043,6358.592633,11991.336260
960.548729,-2146.597232,3447.429741,10881.027347
960.549059,-2072.576638,0.000000,8068.244768
960.549388,-1184.329507,-3294.210641,7402.059420
960.549718,-962.267725,-4213.525239,6217.729913
960.550048,0.000000,-2528.115143,6069.688724
960.550377,1702.473667,-1378.971896,7179.997637
960.550707,1998.556043,1378.971896,8734.430116
960.551036,-222.061783,4903.011187,10362.883188
960.551366,-3404.947333,7354.516781,11621.233289
960.551696,-4811.338623,7890.783629,11695.253884
960.552025,-5033.400406,5975.544884,11991.336260
960.552355,-3552.988522,2528.115143,11621.233289
960.552685,-1702.473667,-1685.410096,8660.409521
960.553014,148.041188,-5056.230287,6883.915261
960.553344,1332.370696,-5515.887586,6217.729913
960.553673,2960.823768,-3830.477490,7402.059420
960.554003,4071.132681,-1072.533697,9400.615463
960.554333,3330.926739,2451.505594,10288.862594
960.554662,814.226536,5439.278036,10584.944971
960.554992,-1554.432478,7737.564530,11325.150913
960.555322,-1184.329507,6665.030833,11695.253884
960.555651,-370.102971,4979.620737,11029.068536
960.555981,-518.144159,1225.752797,8734.430116
960.556310,-814.226536,-2528.115143,6587.832884
960.556640,-666.185348,-4443.353888,6587.832884
960.556970,-592.164754,-4443.353888,7402.059420
960.557299,-592.164754,-1915.238745,9326.594869
960.557629,-296.082377,383.047749,10436.903782
960.557959,-1332.370696,2757.943793,11251.130318
960.558288,-3552.988522,3370.820191,11473.192101
960.558618,-4811.338623,5056.230287,11621.233289
960.558947,-4885.359217,4213.525239,11843.295072
960.559277,-4737.318029,1762.019645,11621.233289
960.559607,-3775.050304,-995.924147,10140.821405
960.559936,-2368.659014,-3294.210641,8364.327145
960.560266,-370.102971,-5362.668486,7254.018232
960.560596,2220.617826,-5132.839837,6587.832884
960.560925,4737.318029,-3064.381992,7624.121203
960.561255,5107.421000,-229.828649,9252.574275
960.561584,3256.906145,3294.210641,10584.944971
960.561914,-1036.288319,6281.983084,11547.212695
960.562244,-3849.070898,7354.516781,12213.398043
960.562573,-4959.379811,6128.763984,12583.501014
960.562903,-4293.194464,2757.943793,11621.233289
960.563233,-2960.823768,-1685.410096,8956.491898
960.563562,-2146.597232,-5592.497135,6217.729913
960.563892,-1628.453072,-6205.373534,5107.421000
960.564221,-518.144159,-5056.230287,6143.709319
960.564551,888.247130,-2298.286494,7550.100608
960.564881,1332.370696,1762.019645,9030.512492
960.565210,-666.185348,4903.011187,10436.903782
960.565540,-3182.885551,6358.592633,11621.233289
960.565870,-4515.256246,7201.297681,12287.418637
960.566199,-4367.215058,5669.106685,11843.295072
960.566529,-3997.112087,1685.410096,10807.006753
960.566858,-3256.906145,-2451.505594,8586.388927
960.567188,-2442.679609,-4826.401637,7402.059420
960.567518,-814.226536,-5592.497135,7254.018232
960.567847,1036.288319,-3907.087040,7846.182985
960.568177,3034.844362,-612.876398,9030.512492
960.568507,3478.967927,2681.334243,9992.780217
960.568836,1406.391290,4979.620737,10658.965565
960.569166,-1110.308913,7048.078582,11399.171507
960.569495,-2294.638420,7354.516781,11917.315666
960.569825,-2442.679609,5515.887586,12435.459826
960.570155,-2812.782580,2911.162892,10732.986159
960.570484,-2516.700203,-459.657299,8512.368333
960.570814,-1480.411884,-3983.696590,6365.771101
960.571144,74.020594,-5056.230287,5477.523971
960.571473,2220.617826,-3140.991542,6587.832884
960.571803,2664.741391,-383.047749,8068.244768
960.572132,1332.370696,3447.429741,9400.615463
960.572462,-1776.494261,5898.935335,10510.924376
960.572792,-4145.153275,8350.440928,11399.171507
960.573121,-3849.070898,7584.345430,12287.418637
960.573451,-3182.885551,5286.058936,12065.356855
960.573781,-2368.659014,1608.800546,9918.759623
960.574110,-2072.576638,-2451.505594,7105.977043
960.574440,-1184.329507,-4826.401637,5773.606348
960.574769,592.164754,-5362.668486,6291.750507
960.575099,2294.638420,-2834.553343,8068.244768
960.575429,2886.803174,766.095498,9326.594869
960.575758,1776.494261,3217.601092,10288.862594
960.576088,-1184.329507,4826.401637,11325.150913
960.576418,-3034.844362,7201.297681,11695.253884
960.576747,-2812.782580,6511.811733,11917.315666
960.577077,-1702.473667,3524.039291,11547.212695
960.577406,-962.267725,383.047749,8734.430116
960.577736,-444.123565,-3064.381992,5995.668130
960.578066,444.123565,-5362.668486,5699.585753
960.578395,1406.391290,-4903.011187,6957.935855
960.578725,1924.535449,-1455.581446,9400.615463
960.579055,1554.432478,1838.629195,10510.924376
960.579384,-1332.370696,4060.306139,11769.274478
960.579714,-3701.029710,5439.278036,12361.439231
960.580043,-4737.318029,5669.106685,12287.418637
960.580373,-4441.235652,4826.401637,12731.542202
960.580703,-3552.988522,1685.410096,12287.418637
960.581032,-3256.906145,-1225.752797,9178.553681
960.581362,-3034.844362,-4673.182538,6587.832884
960.581692,-1110.308913,-6358.592633,6143.709319
960.582021,1702.473667,-5286.058936,7105.977043
960.582351,3108.864956,-2145.067394,8586.388927
960.582680,2738.761985,766.095498,9326.594869
960.583010,666.185348,3064.381992,10140.821405
960.583340,-1702.473667,4826.401637,11695.253884
960.583669,-2886.803174,5822.325785,12805.562797
960.583999,-3256.906145,5286.058936,13471.748144
960.584329,-3182.885551,2987.772442,11251.130318
960.584658,-2368.659014,-1608.800546,8216.285956
960.584988,-962.267725,-4443.353888,5921.647536
960.585317,592.164754,-5822.325785,5477.523971
960.585647,1924.535449,-4136.915689,6809.894666
960.585977,2072.576638,76.609550,8068.244768
960.586306,518.144159,2987.772442,9030.512492
960.586636,-2442.679609,4366.744339,10214.842000
960.586966,-4441.235652,5745.716235,11251.130318
960.587295,-5181.441594,5975.544884,11917.315666
960.587625,-4885.359217,3907.087040,12139.377449
960.587954,-4811.338623,995.924147,10362.883188
960.588284,-3849.070898,-2681.334243,7994.224174
960.588614,-2368.659014,-5745.716235,6439.791695
960.588943,0.000000,-5592.497135,6809.894666
960.589273,2220.617826,-2528.115143,8438.347739
960.589603,3108.864956,459.657299,9474.636058
960.589932,2368.659014,3140.991542,10584.944971
960.590262,-666.185348,5898.935335,11547.212695
960.590591,-2220.617826,7507.735880,11843.295072
960.590921,-2812.782580,6281.983084,12287.418637
960.591251,-2886.803174,3524.039291,11769.274478
960.591580,-2960.823768,1149.143247,9770.718434
960.591910,-2072.576638,-2987.772442,7994.224174
960.592239,-888.247130,-4826.401637,7105.977043
960.592569,444.123565,-3677.258390,6883.915261
960.592899,2146.597232,-1378.971896,7254.018232
960.593228,2886.803174,1072.533697,8882.471304
960.593558,740.205942,3447.429741,10658.965565
960.593887,-2738.761985,6971.469032,11769.274478
960.594217,-4441.235652,8350.440928,11991.336260
960.594546,-4663.297435,6665.030833,12435.459826
960.594876,-4663.297435,3524.039291,11473.192101
960.595205,-3701.029710,-1608.800546,9622.677246
960.595535,-2146.597232,-4290.134789,7179.997637
960.595865,-518.144159,-4596.572988,5699.585753
960.596194,1850.514855,-3830.477490,5847.626942
960.596524,3775.050304,-1455.581446,6883.915261
960.596853,4885.359217,766.095498,7772.162391
960.597183,2664.741391,3370.820191,9474.636058
960.597512,-222.061783,6894.859482,10881.027347
960.597842,-2368.659014,9193.145976,11843.295072
960.598172,-2812.782580,7354.516781,12139.377449
960.598501,-2886.803174,2604.724693,10214.842000
960.598831,-1998.556043,-1532.190996,7846.182985
960.599160,-962.267725,-4596.572988,6513.812290
960.599490,-148.041188,-5439.278036,6809.894666
960.599819,370.102971,-3600.648841,7994.224174
960.600149,592.164754,-689.485948,9474.636058
960.600478,444.123565,1838.629195,10288.862594
960.600808,-1776.494261,4366.744339,11695.253884
960.601138,-3256.906145,6281.983084,11917.315666
960.601467,-3330.926739,4903.011187,12879.583391
960.601797,-2812.782580,3294.210641,13397.727550
960.602126,-2516.700203,1072.533697,12509.480420
960.602456,-2738.761985,-1302.362347,9400.615463
960.602785,-1998.556043,-3983.696590,6143.709319
960.603115,592.164754,-4903.011187,5255.462188
960.603444,3182.885551,-4596.572988,6809.894666
960.603774,4219.173869,-1762.019645,8512.368333
960.604104,1480.411884,2068.457845,10066.800811
960.604433,-1628.453072,4673.182538,11991.336260
960.604763,-3627.009116,6435.202183,13397.727550
960.605092,-3849.070898,6281.983084,13619.789333
960.605422,-3330.926739,2374.896044,11843.295072
960.605751,-2442.679609,-306.438199,9474.636058
960.606081,-1110.308913,-2834.553343,7031.956449
960.606410,0.000000,-4366.744339,5625.565159
960.606740,814.226536,-4673.182538,5995.668130
960.607070,1406.391290,-2451.505594,7179.997637
960.607399,1850.514855,536.266849,8512.368333
960.607729,518.144159,3140.991542,9622.677246
960.608058,-2146.597232,4596.572988,10214.842000
960.608388,-4367.215058,5286.058936,10584.944971
960.608717,-4515.256246,3294.210641,11991.336260
960.609047,-4589.276840,1685.410096,12731.542202
960.609377,-5329.482782,536.266849,10881.027347
960.609706,-4737.318029,-2834.553343,8216.285956
960.610036,-2368.659014,-4903.011187,6365.771101
960.610365,962.267725,-4826.401637,6587.832884
960.610695,3404.947333,-2987.772442,7402.059420
960.611024,3775.050304,153.219100,8956.491898
960.611354,1036.288319,4213.525239,9992.780217
960.611683,-2368.659014,6665.030833,11769.274478
960.612013,-3923.091493,7354.516781,12657.521608
960.612343,-3701.029710,5745.716235,12509.480420
960.612672,-2886.803174,3064.381992,11103.089130
960.613002,-1998.556043,-995.924147,8808.450710
960.613331,-1036.288319,-4903.011187,7105.977043
960.613661,222.061783,-5515.887586,6587.832884
960.613990,1036.288319,-4060.306139,7476.080014
960.614320,1480.411884,-919.314598,8882.471304
960.614649,740.205942,3370.820191,10955.047942
960.614979,-1480.411884,5439.278036,11621.233289
960.615309,-3034.844362,7048.078582,11769.274478
960.615638,-3404.947333,6205.373534,11621.233289
960.615968,-3034.844362,4519.963438,11251.130318
960.616297,-2812.782580,612.876398,10955.047942
960.616627,-3404.947333,-2451.505594,9474.636058
960.616956,-3108.864956,-3140.991542,7476.080014
960.617286,-1332.370696,-3830.477490,6513.812290
960.617616,2220.617826,-2987.772442,7254.018232
960.617945,4663.297435,-383.047749,8068.244768
960.618275,4441.235652,2145.067394,8438.347739
960.618604,2220.617826,3753.867940,9548.656652
960.618934,-962.267725,6818.249932,10658.965565
960.619263,-2368.659014,9039.926876,11695.253884
960.619593,-2590.720797,6511.811733,11547.212695
960.619922,-2072.576638,2068.457845,9844.739029
960.620252,-1110.308913,-1608.800546,6809.894666
960.620582,74.020594,-4903.011187,5107.421000
960.620911,1258.350101,-5669.106685,5773.606348
960.621241,1850.514855,-2451.505594,7920.203579
960.621570,666.185348,612.876398,9400.615463
960.621900,-888.247130,3677.258390,10955.047942
960.622229,-2886.803174,5592.497135,11843.295072
960.622559,-3849.070898,5975.544884,12657.521608
960.622888,-3849.070898,4213.525239,13767.830521
960.623218,-3849.070898,2604.724693,13693.809927
960.623548,-3701.029710,612.876398,11177.109724
960.623877,-2590.720797,-2987.772442,8068.244768
960.624207,-444.123565,-5132.839837,5773.606348
960.624536,2442.679609,-5592.497135,5551.544565
960.624866,5181.441594,-2911.162892,6883.915261
960.625195,5699.585753,229.828649,8660.409521
960.625525,3182.885551,4519.963438,10288.862594
960.625854,-444.123565,6358.592633,11843.295072
960.626184,-2960.823768,7277.907231,12953.603985
960.626514,-4219.173869,6052.154434,12953.603985
960.626843,-3627.009116,3140.991542,12435.459826
960.627173,-2886.803174,-612.876398,10140.821405
960.627502,-2516.700203,-3907.087040,7402.059420
960.627832,-2146.597232,-6281.983084,5477.523971
960.628161,-370.102971,-6435.202183,5477.523971
960.628491,962.267725,-3217.601092,7254.018232
960.628821,444.123565,689.485948,9252.574275
960.629150,-2146.597232,3600.648841,10288.862594
960.629480,-4589.276840,6052.154434,10807.006753
960.629809,-4737.318029,5822.325785,11325.150913
960.630139,-3701.029710,3677.258390,11991.336260
960.630468,-3923.091493,1838.629195,11843.295072
960.630798,-3849.070898,-842.705048,9178.553681
960.631127,-2664.741391,-4213.525239,6365.771101
960.631457,0.000000,-5515.887586,5403.503377
960.631787,2812.782580,-5132.839837,6735.874072
960.632116,3701.029710,-2221.676944,9178.553681
960.632446,2812.782580,1915.238745,10362.883188
960.632775,-148.041188,5439.278036,10732.986159
960.633105,-2072.576638,7048.078582,11695.253884
960.633434,-2738.761985,6665.030833,12361.439231
960.633764,-2960.823768,5286.058936,11843.295072
960.634093,-3108.864956,1915.238745,10510.924376
960.634423,-2738.761985,-2298.286494,8512.368333
960.634753,-1850.514855,-4366.744339,7105.977043
960.635082,-1406.391290,-5515.887586,6587.832884
960.635412,-370.102971,-3217.601092,7402.059420
960.635741,296.082377,-842.705048,9474.636058
960.636071,74.020594,2528.115143,11029.068536
960.636400,-2220.617826,5132.839837,11177.109724
960.636730,-4219.173869,6205.373534,11843.295072
960.637059,-4293.194464,4443.353888,13101.645173
960.637389,-3404.947333,4060.306139,13915.871710
960.637719,-3108.864956,2068.457845,11843.295072
960.638048,-2220.617826,-1378.971896,7550.100608
960.638378,0.000000,-3830.477490,4441.235652
960.638707,3552.988522,-4826.401637,3997.112087
960.639037,6513.812290,-3217.601092,6291.750507
960.639366,7031.956449,459.657299,8068.244768
960.639696,3849.070898,5592.497135,9474.636058
960.640026,-888.247130,7277.907231,11399.171507
960.640355,-3108.864956,7737.564530,12657.521608
960.640685,-4515.256246,7431.126331,12657.521608
960.641014,-3627.009116,4673.182538,11473.192101
960.641344,-2590.720797,0.000000,8882.471304
960.641673,-1998.556043,-3677.258390,6291.750507
960.642003,-740.205942,-5515.887586,4663.297435
960.642332,888.247130,-5209.449386,5551.544565
960.642662,1998.556043,-1991.848295,7179.997637
960.642992,1702.473667,2298.286494,9474.636058
960.643321,-518.144159,4136.915689,11695.253884
960.643651,-3330.926739,6281.983084,12213.398043
960.643980,-4293.194464,7354.516781,11991.336260
960.644310,-4293.194464,4903.011187,12583.501014
960.644639,-4145.153275,2604.724693,12065.356855
960.644969,-3108.864956,-612.876398,9770.718434
960.645298,-1554.432478,-4596.572988,6661.853478
960.645628,888.247130,-6128.763984,5477.523971
960.645958,3034.844362,-4903.011187,6439.791695
960.646287,4515.256246,-1762.019645,8512.368333
960.646617,4293.194464,1762.019645,10510.924376
960.646946,1998.556043,4443.353888,12213.398043
960.647276,-1332.370696,6588.421283,13397.727550
960.647605,-2664.741391,7507.735880,13841.851115
960.647935,-3701.029710,6128.763984,12953.603985
960.648265,-3182.885551,1762.019645,10510.924376
960.648594,-1850.514855,-2834.553343,7624.121203
960.648924,-1110.308913,-5515.887586,5181.441594
960.649253,74.020594,-7584.345430,4737.318029
960.649583,222.061783,-4213.525239,6365.771101
960.649912,-222.061783,-536.266849,8734.430116
960.650242,-1184.329507,2681.334243,10140.821405
960.650571,-3034.844362,4290.134789,11251.130318
960.650901,-4811.338623,5515.887586,11473.192101
960.651231,-5033.400406,4826.401637,11917.315666
960.651560,-4515.256246,2604.724693,12657.521608
960.651890,-4367.215058,612.876398,11103.089130
960.652219,-3849.070898,-2451.505594,8512.368333
960.652549,-2368.659014,-5056.230287,6291.750507
960.652878,592.164754,-5592.497135,5477.523971
960.653208,3775.050304,-4290.134789,6143.709319
960.653537,5107.421000,-1225.752797,7550.100608
960.653867,3775.050304,2911.162892,9548.656652
960.654197,444.123565,4903.011187,11843.295072
960.654526,-2220.617826,7277.907231,13101.645173
960.654856,-3330.926739,7277.907231,13101.645173
960.655185,-3775.050304,5056.230287,11991.336260
960.655515,-2368.659014,0.000000,9622.677246
960.655844,-814.226536,-3677.258390,7105.977043
960.656174,-444.123565,-5975.544884,5403.503377
960.656503,370.102971,-5515.887586,5773.606348
960.656833,1110.308913,-2298.286494,8142.265362
960.657163,814.226536,1072.533697,10658.965565
960.657492,-666.185348,3524.039291,11991.336260
960.657822,-3182.885551,4979.620737,12879.583391
960.658151,-4293.194464,5439.278036,13323.706956
960.658481,-4663.297435,4290.134789,13545.768739
960.658810,-4293.194464,3370.820191,12583.501014
960.659140,-2590.720797,612.876398,10214.842000
960.659470,-740.205942,-2757.943793,6957.935855
960.659799,1554.432478,-4519.963438,4293.194464
960.660129,4145.153275,-4596.572988,4589.276840
960.660458,5773.606348,-1762.019645,6661.853478
960.660788,4663.297435,2681.334243,9030.512492
960.661117,1258.350101,6205.373534,11029.068536
960.661447,-1998.556043,7584.345430,12065.356855
960.661776,-3404.947333,8120.612279,12805.562797
960.662106,-4071.132681,6281.983084,12805.562797
960.662436,-3849.070898,3294.210641,11103.089130
960.662765,-2516.700203,0.000000,8142.265362
960.663095,-1036.288319,-3600.648841,5033.400406
960.663424,296.082377,-4979.620737,3849.070898
960.663754,2220.617826,-3677.258390,4885.359217
960.664083,2664.741391,-459.657299,7402.059420
960.664413,1554.432478,2987.772442,9770.718434
960.664742,-1776.494261,5132.839837,11251.130318
960.665072,-4219.173869,7124.688131,12361.439231
960.665402,-4515.256246,6818.249932,13545.768739
960.665731,-4219.173869,4826.401637,13323.706956
960.666061,-3775.050304,1532.190996,11399.171507
960.666390,-2368.659014,-1685.410096,8364.327145
960.666720,0.000000,-4749.792088,5403.503377
960.667049,1924.535449,-5362.668486,5255.462188
960.667379,3478.967927,-2528.115143,7105.977043
960.667708,4219.173869,229.828649,9400.615463
960.668038,2516.700203,3370.820191,11251.130318
960.668368,-1110.308913,5209.449386,11769.274478
960.668697,-3775.050304,6741.640382,12361.439231
960.669027,-4589.276840,5898.935335,13397.727550
960.669356,-4293.194464,3370.820191,13101.645173
960.669686,-3997.112087,0.000000,10436.903782
960.670015,-2664.741391,-3753.867940,7105.977043
960.670345,-814.226536,-6281.983084,4737.318029
960.670675,1110.308913,-7048.078582,5329.482782
960.671004,1924.535449,-3447.429741,7550.100608
960.671334,1554.432478,536.266849,9474.636058
960.671663,148.041188,3677.258390,10807.006753
960.671993,-2294.638420,4979.620737,11695.253884
960.672322,-3034.844362,5132.839837,12805.562797
960.672652,-3478.967927,4596.572988,13915.871710
960.672981,-3849.070898,2528.115143,12879.583391
960.673311,-3256.906145,-612.876398,9992.780217
960.673641,-1998.556043,-2528.115143,7476.080014
960.673970,592.164754,-4979.620737,5477.523971
960.674300,2738.761985,-5975.544884,5847.626942
960.674629,3923.091493,-3217.601092,6883.915261
960.674959,3627.009116,995.924147,8364.327145
960.675288,1258.350101,3753.867940,9918.759623
960.675618,-2294.638420,5362.668486,11251.130318
960.675947,-4811.338623,5975.544884,11991.336260
960.676277,-5699.585753,5362.668486,12953.603985
960.676607,-5107.421000,2451.505594,11473.192101
960.676936,-3478.967927,-1532.190996,8660.409521
960.677266,-1850.514855,-4979.620737,5847.626942
960.677595,-592.164754,-6818.249932,4663.297435
960.677925,1036.288319,-5056.230287,6291.750507
960.678254,1776.494261,-1072.533697,8808.450710
960.678584,814.226536,3217.601092,11029.068536
960.678914,-1258.350101,5132.839837,12065.356855
960.679243,-3182.885551,5286.058936,13471.748144
960.679573,-3404.947333,4826.401637,14582.057057
960.679902,-3552.988522,4903.011187,14063.912898
960.680232,-3034.844362,2068.457845,11325.150913
960.680561,-1924.535449,-689.485948,8142.265362
960.680891,296.082377,-3140.991542,5033.400406
960.681220,2812.782580,-5515.887586,4589.276840
960.681550,4663.297435,-3370.820191,6069.688724
960.681880,4885.359217,536.266849,7772.162391
960.682209,2960.823768,4519.963438,9992.780217
960.682539,-888.247130,5286.058936,11991.336260
960.682868,-4071.132681,6894.859482,13471.748144
960.683198,-5773.606348,7201.297681,13323.706956
960.683527,-5477.523971,4596.572988,12879.583391
960.683857,-3923.091493,1455.581446,10436.903782
960.684186,-2220.617826,-1991.848295,7254.018232
960.684516,222.061783,-5439.278036,4441.235652
960.684846,1554.432478,-4826.401637,3256.906145
960.685175,3256.906145,-1225.752797,4811.338623
960.685505,3034.844362,2298.286494,7402.059420
960.685834,370.102971,5362.668486,10214.842000
960.686164,-3552.988522,7890.783629,11029.068536
960.686493,-4293.194464,7354.516781,12361.439231
960.686823,-4367.215058,4519.963438,14434.015869
960.687152,-4219.173869,3064.381992,14285.974681
960.687482,-4367.215058,-383.047749,10881.027347
960.687812,-2368.659014,-4903.011187,6513.812290
960.688141,444.123565,-5132.839837,4441.235652
960.688471,3552.988522,-4826.401637,5477.523971
960.688800,5995.668130,-1915.238745,7254.018232
960.689130,5847.626942,1762.019645,8882.471304
960.689459,2886.803174,5669.106685,10436.903782
960.689789,0.000000,7431.126331,11621.233289
960.690119,-2590.720797,7431.126331,12731.542202
960.690448,-4737.318029,6435.202183,12879.583391
960.690778,-4663.297435,1838.629195,11917.315666
960.691107,-3552.988522,-1915.238745,10140.821405
960.691437,-2516.700203,-3907.087040,7476.080014
960.691766,-2368.659014,-7124.688131,6069.688724
960.692096,-1480.411884,-5975.544884,6735.874072
960.692425,-592.164754,-2298.286494,8808.450710
960.692755,-148.041188,1532.190996,10362.883188
960.693085,-1554.432478,3447.429741,10510.924376
960.693414,-3108.864956,4903.011187,11547.212695
960.693744,-4515.256246,4749.792088,13545.768739
960.694073,-4737.318029,3907.087040,14434.015869
960.694403,-4589.276840,2451.505594,13323.706956
960.694732,-3108.864956,-1149.143247,9622.677246
960.695062,-1332.370696,-4290.134789,5551.544565
960.695391,1924.535449,-6052.154434,3997.112087
960.695720,4885.359217,-5745.716235,4885.359217
960.696050,6439.791695,-2145.067394,7031.956449
960.696379,4589.276840,3600.648841,9030.512492
960.696709,444.123565,6588.421283,11325.150913
960.697038,-3330.926739,7737.564530,12361.439231
960.697368,-5181.441594,7277.907231,13323.706956
960.697697,-5107.421000,4366.744339,12731.542202
960.698027,-4811.338623,1072.533697,10288.862594
960.698356,-4293.194464,-2987.772442,7476.080014
960.698686,-2442.679609,-6588.421283,5477.523971
960.699015,-1110.308913,-7507.735880,4885.359217
960.699344,0.000000,-4596.572988,6217.729913
960.699674,592.164754,-306.438199,7920.203579
960.700003,222.061783,2757.943793,9770.718434
960.700333,-1184.329507,5515.887586,10584.944971
960.700662,-2368.659014,5975.544884,12139.377449
960.700992,-2738.761985,4749.792088,13767.830521
960.701321,-3404.947333,4749.792088,13989.892304
960.701651,-3404.947333,1762.019645,12139.377449
960.701980,-1332.370696,-1302.362347,9104.533087
960.702310,1036.288319,-4136.915689,6217.729913
960.702639,3923.091493,-5439.278036,4959.379811
960.702968,6217.729913,-4213.525239,5699.585753
960.703298,6439.791695,0.000000,8734.430116
960.703627,3997.112087,4903.011187,11251.130318
960.703957,-1036.288319,6971.469032,13027.624579
960.704286,-4589.276840,8580.269578,13915.871710
960.704616,-5699.585753,8120.612279,13767.830521
960.704945,-4737.318029,3830.477490,12139.377449
960.705275,-2516.700203,-459.657299,8734.430116
960.705604,-1332.370696,-4366.744339,5329.482782
960.705933,0.000000,-7048.078582,3034.844362
960.706263,222.061783,-5669.106685,4145.153275
960.706592,740.205942,-1378.971896,7179.997637
960.706922,1036.288319,2528.115143,10140.821405
960.707251,-370.102971,5822.325785,11103.089130
960.707581,-2294.638420,6588.421283,11325.150913
960.707910,-2738.761985,6665.030833,12509.480420
960.708240,-2960.823768,4979.620737,13471.748144
960.708569,-3108.864956,4060.306139,12287.418637
960.708899,-2664.741391,612.876398,9400.615463
960.709228,-1258.350101,-2451.505594,6957.935855
960.709557,814.226536,-4673.182538,5403.503377
960.709887,3404.947333,-4519.963438,5625.565159
960.710216,4589.276840,-2145.067394,6439.791695
960.710546,3997.112087,1608.800546,8364.327145
960.710875,1258.350101,5132.839837,10807.006753
960.711205,-2368.659014,6358.592633,12435.459826
960.711534,-4885.359217,7814.174080,13175.665768
960.711864,-5847.626942,6205.373534,13027.624579
960.712193,-5033.400406,2451.505594,11251.130318
960.712523,-2812.782580,-1378.971896,8808.450710
960.712852,-1332.370696,-5362.668486,5699.585753
960.713181,-518.144159,-7201.297681,4959.379811
960.713511,74.020594,-4903.011187,6291.750507
960.713840,296.082377,-1455.581446,8882.471304
960.714170,370.102971,2528.115143,11547.212695
960.714499,-1258.350101,5209.449386,11177.109724
960.714829,-2368.659014,5898.935335,12213.398043
960.715158,-2368.659014,3983.696590,13915.871710
960.715488,-3034.844362,4060.306139,14211.954086
960.715817,-3627.009116,2451.505594,12065.356855
960.716147,-2368.659014,-919.314598,9030.512492
960.716476,-592.164754,-4443.353888,7105.977043
960.716805,1332.370696,-5669.106685,6069.688724
960.717135,3627.009116,-4213.525239,6069.688724
960.717464,5181.441594,-1608.800546,6809.894666
960.717794,4441.235652,2834.553343,7698.141797
960.718123,592.164754,4673.182538,10584.944971
960.718453,-2516.700203,6358.592633,12731.542202
960.718782,-4959.379811,7431.126331,12953.603985
960.719112,-5625.565159,4903.011187,12065.356855
960.719441,-4811.338623,1225.752797,10140.821405
960.719770,-3701.029710,-2374.896044,7476.080014
960.720100,-2516.700203,-6128.763984,5255.462188
960.720429,-1258.350101,-6818.249932,4737.318029
960.720759,-444.123565,-3983.696590,6439.791695
960.721088,444.123565,-459.657299,8586.388927
960.721418,-592.164754,1608.800546,10214.842000
960.721747,-2442.679609,3677.258390,11621.233289
960.722077,-3849.070898,5975.544884,12509.480420
960.722406,-3182.885551,5669.106685,12805.562797
960.722736,-2368.659014,4366.744339,12065.356855
960.723065,-1702.473667,766.095498,10066.800811
960.723394,-444.123565,-2528.115143,7179.997637
960.723724,1406.391290,-3907.087040,5255.462188
960.724053,3330.926739,-4903.011187,6365.771101
960.724383,4515.256246,-1991.848295,8364.327145
960.724712,3701.029710,1608.800546,10214.842000
960.725042,1480.411884,3677.258390,11991.336260
960.725371,-1850.514855,4903.011187,13619.789333
960.725701,-4737.318029,6588.421283,14434.015869
960.726030,-5477.523971,5975.544884,14359.995275
960.726360,-4737.318029,2451.505594,12361.439231
960.726689,-3034.844362,-919.314598,8956.491898
960.727018,-1702.473667,-3600.648841,5107.421000
960.727348,444.123565,-5592.497135,2738.761985
960.727677,1628.453072,-4673.182538,3627.009116
960.728007,1850.514855,-1072.533697,6883.915261
960.728336,888.247130,2298.286494,9918.759623
960.728666,-1554.432478,5898.935335,11177.109724
960.728995,-4071.132681,7201.297681,11769.274478
960.729325,-4145.153275,5592.497135,13101.645173
960.729654,-3923.091493,3370.820191,14211.954086
960.729983,-3701.029710,1225.752797,12805.562797
960.730313,-2812.782580,-766.095498,9918.759623
960.730642,-1184.329507,-1915.238745,7328.038826
960.730972,1406.391290,-3524.039291,5477.523971
960.731301,4737.318029,-3370.820191,5181.441594
960.731631,7105.977043,-1225.752797,5773.606348
960.731960,6809.894666,2068.457845,6957.935855
960.732290,3182.885551,5439.278036,9474.636058
960.732619,-1702.473667,8044.002729,11843.295072
960.732949,-4589.276840,8656.879127,13101.645173
960.733278,-5773.606348,6281.983084,12879.583391
960.733607,-4737.318029,2068.457845,10807.006753
960.733937,-2886.803174,-2528.115143,7624.121203
960.734266,-1998.556043,-5822.325785,5403.503377
960.734596,-1406.391290,-6358.592633,4959.379811
960.734925,-814.226536,-4213.525239,6883.915261
960.735255,-370.102971,0.000000,9252.574275
960.735584,-1702.473667,3217.601092,11103.089130
960.735914,-3923.091493,4826.401637,12731.542202
960.736243,-4663.297435,5898.935335,13619.789333
960.736573,-4145.153275,4903.011187,14137.933492
960.736902,-3478.967927,3217.601092,13101.645173
960.737231,-2590.720797,842.705048,10140.821405
960.737561,-962.267725,-2451.505594,7476.080014
960.737890,1258.350101,-4443.353888,5477.523971
960.738220,3627.009116,-4443.353888,5403.503377
960.738549,5477.523971,-2221.676944,6513.812290
960.738879,6143.709319,919.314598,8142.265362
960.739208,3997.112087,4213.525239,10362.883188
960.739538,-444.123565,5898.935335,12657.521608
960.739867,-3849.070898,7048.078582,13767.830521
960.740196,-5921.647536,6052.154434,14211.954086
960.740526,-6587.832884,2834.553343,12583.501014
960.740855,-5625.565159,-766.095498,9992.780217
960.741185,-4219.173869,-4366.744339,6735.874072
960.741514,-2220.617826,-6818.249932,3775.050304
960.741844,592.164754,-7431.126331,4071.132681
960.742173,1480.411884,-3677.258390,5773.606348
960.742503,1036.288319,689.485948,8290.306550
960.742832,-1628.453072,4136.915689,10066.800811
960.743162,-4293.194464,6588.421283,11029.068536
960.743491,-4737.318029,6894.859482,12805.562797
960.743820,-4441.235652,4596.572988,14137.933492
960.744150,-4145.153275,2681.334243,12953.603985
960.744479,-3552.988522,-995.924147,9696.697840
960.744809,-1480.411884,-4213.525239,6957.935855
960.745138,1036.288319,-5975.544884,5699.585753
960.745468,3552.988522,-4673.182538,6513.812290
960.745797,5255.462188,-2221.676944,7920.203579
960.746127,4663.297435,1762.019645,9696.697840
960.746456,2220.617826,5286.058936,11769.274478
960.746786,-1406.391290,6894.859482,13101.645173
960.747115,-3701.029710,7507.735880,14211.954086
960.747444,-4663.297435,6818.249932,13323.706956
960.747774,-3775.050304,2298.286494,11029.068536
960.748103,-2516.700203,-1991.848295,7846.182985
960.748433,-1258.350101,-4903.011187,5699.585753
960.748762,-296.082377,-6588.421283,4737.318029
960.749092,518.144159,-4213.525239,5995.668130
960.749421,1110.308913,-459.657299,7254.018232
960.749751,888.247130,2451.505594,9696.697840
960.750080,-1628.453072,4060.306139,11769.274478
960.750410,-4367.215058,6588.421283,12805.562797
960.750739,-4811.338623,7354.516781,14137.933492
960.751068,-4145.153275,6128.763984,14211.954086
960.751398,-3034.844362,2681.334243,11695.253884
960.751727,-1776.494261,-1225.752797,7994.224174
960.752057,666.185348,-4443.353888,5255.462188
960.752386,3404.947333,-4826.401637,4219.173869
960.752716,5551.544565,-2528.115143,5551.544565
960.753045,6439.791695,0.000000,7105.977043
960.753375,3701.029710,3983.696590,9474.636058
960.753704,-370.102971,5975.544884,11325.150913
960.754033,-3552.988522,8120.612279,12583.501014
960.754363,-4663.297435,8197.221829,12953.603985
960.754692,-4441.235652,4979.620737,11621.233289
960.755022,-3552.988522,0.000000,9030.512492
960.755351,-2072.576638,-3370.820191,6365.771101
960.755681,-962.267725,-5209.449386,4737.318029
960.756010,0.000000,-5286.058936,5403.503377
960.756340,740.205942,-1762.019645,7402.059420
960.756669,592.164754,1685.410096,9474.636058
960.756999,-592.164754,3677.258390,10881.027347
960.757328,-2368.659014,5515.887586,11917.315666
960.757657,-3627.009116,5975.544884,12805.562797
960.757987,-4515.256246,4903.011187,13767.830521
960.758316,-4737.318029,3140.991542,13397.727550
960.758646,-4219.173869,-306.438199,11029.068536
960.758975,-2368.659014,-3600.648841,8068.244768
960.759305,-222.061783,-5745.716235,6217.729913
960.759634,2516.700203,-5132.839837,5477.523971
960.759964,5329.482782,-2911.162892,6365.771101
960.760293,6143.709319,-306.438199,8216.285956
960.760623,2886.803174,3524.039291,10584.944971
960.760952,-1554.432478,6358.592633,12953.603985
960.761281,-4367.215058,8044.002729,14285.974681
960.761611,-5699.585753,6741.640382,14656.077652
960.761940,-5329.482782,3064.381992,12657.521608
960.762270,-3256.906145,-1532.190996,9178.553681
960.762599,-1702.473667,-5669.106685,5847.626942
960.762929,-444.123565,-7354.516781,3701.029710
960.763258,814.226536,-5822.325785,4811.338623
960.763588,1184.329507,-2757.943793,6735.874072
960.763917,222.061783,1455.581446,9178.553681
960.764246,-2220.617826,4213.525239,11103.089130
960.764576,-4219.173869,5822.325785,12065.356855
960.764905,-4515.256246,5975.544884,12731.542202
960.765235,-3552.988522,5132.839837,13101.645173
960.765564,-3404.947333,2451.505594,11621.233289
960.765894,-2368.659014,-1608.800546,8290.306550
960.766223,-1184.329507,-4366.744339,5995.668130
960.766553,740.205942,-5286.058936,5329.482782
960.766882,2590.720797,-3294.210641,7031.956449
960.767212,3997.112087,-1762.019645,7994.224174
960.767541,2812.782580,1455.581446,10214.842000
960.767870,222.061783,3370.820191,11991.336260
960.768200,-2960.823768,5898.935335,13397.727550
960.768529,-4219.173869,6511.811733,14211.954086
960.768859,-3849.070898,5592.497135,13397.727550
960.769188,-3256.906145,1762.019645,10288.862594
960.769518,-1258.350101,-1685.410096,6661.853478
960.769847,740.205942,-4519.963438,4219.173869
960.770177,2368.659014,-5056.230287,4071.132681
960.770506,2664.741391,-1915.238745,6883.915261
960.770836,1332.370696,689.485948,9400.615463
960.771165,-1110.308913,4903.011187,11103.089130
960.771494,-3701.029710,5898.935335,12361.439231
960.771824,-4663.297435,5132.839837,13915.871710
960.772153,-4959.379811,4596.572988,14952.160028
960.772483,-4885.359217,3524.039291,13693.809927
960.772812,-3701.029710,76.609550,10658.965565
960.773142,-1702.473667,-2451.505594,7402.059420
960.773471,1110.308913,-3600.648841,5255.462188
960.773801,4145.153275,-3524.039291,4367.215058
960.774130,6439.791695,-1608.800546,4959.379811
960.774460,7179.997637,2221.676944,6587.832884
960.774789,4737.318029,5439.278036,8956.491898
960.775118,296.082377,7277.907231,11325.150913
960.775448,-3404.947333,8733.488677,13027.624579
960.775777,-5181.441594,7201.297681,13619.789333
960.776107,-4515.256246,3907.087040,12583.501014
960.776436,-3849.070898,-459.657299,9178.553681
960.776766,-3108.864956,-4060.306139,6217.729913
960.777095,-1850.514855,-5898.935335,4885.359217
960.777425,-370.102971,-4749.792088,5477.523971
960.777754,1110.308913,-1302.362347,7624.121203
960.778083,592.164754,1838.629195,9326.594869
960.778413,-1628.453072,3217.601092,10732.986159
960.778742,-3849.070898,4903.011187,12287.418637
960.779072,-4663.297435,5975.544884,13397.727550
960.779401,-4737.318029,5592.497135,13471.748144
960.779731,-3849.070898,2528.115143,11991.336260
960.780060,-2294.638420,-1378.971896,8882.471304
960.780390,148.041188,-4366.744339,6439.791695
960.780719,2738.761985,-6052.154434,5625.565159
960.781049,4293.194464,-4290.134789,5773.606348
960.781378,4737.318029,-536.266849,8364.327145
960.781707,3627.009116,2528.115143,11177.109724
960.782037,592.164754,4903.011187,13397.727550
960.782366,-3034.844362,6818.249932,14211.954086
960.782696,-5033.400406,6665.030833,14285.974681
960.783025,-5329.482782,4749.792088,13323.706956
960.783355,-4589.276840,153.219100,11325.150913
960.783684,-3330.926739,-3600.648841,7772.162391
960.784014,-2516.700203,-6052.154434,4441.235652
960.784343,-666.185348,-7048.078582,3627.009116
960.784673,592.164754,-4519.963438,4811.338623
960.785002,1036.288319,-919.314598,7476.080014
960.785331,592.164754,2757.943793,9400.615463
960.785661,-1480.411884,4366.744339,9992.780217
960.785990,-3182.885551,6205.373534,10584.944971
960.786320,-3701.029710,5822.325785,12213.398043
960.786649,-3775.050304,3064.381992,13915.871710
960.786979,-4293.194464,842.705048,12509.480420
960.787308,-3701.029710,-1225.752797,9474.636058
960.787638,-2072.576638,-4519.963438,7105.977043
960.787967,1406.391290,-5592.497135,5847.626942
960.788296,4293.194464,-3983.696590,6143.709319
960.788626,5995.668130,-1072.533697,7179.997637
960.788955,4367.215058,2681.334243,8808.450710
960.789285,962.267725,5669.106685,11103.089130
960.789614,-2220.617826,7967.393179,12805.562797
960.789944,-4293.194464,7354.516781,13693.809927
960.790273,-4441.235652,4903.011187,13175.665768
960.790603,-2960.823768,1225.752797,10214.842000
960.790932,-1554.432478,-3447.429741,7179.997637
960.791262,-148.041188,-6281.983084,4737.318029
960.791591,888.247130,-6511.811733,5033.400406
960.791920,1998.556043,-2987.772442,7624.121203
960.792250,1480.411884,1532.190996,10214.842000
960.792579,-518.144159,4979.620737,12065.356855
960.792909,-2516.700203,6435.202183,13249.686362
960.793238,-3775.050304,6511.811733,13767.830521
960.793568,-4293.194464,5898.935335,13767.830521
960.793897,-3775.050304,3830.477490,12731.542202
960.794227,-2442.679609,459.657299,9992.780217
960.794556,-1184.329507,-2451.505594,6513.812290
960.794886,962.267725,-4903.011187,4071.132681
960.795215,3627.009116,-4673.182538,4663.297435
960.795544,5551.544565,-1455.581446,6069.688724
960.795874,5329.482782,2145.067394,7772.162391
960.796203,2220.617826,4903.011187,9548.656652
960.796533,-1628.453072,7354.516781,11621.233289
960.796862,-3552.988522,7814.174080,13323.706956
960.797192,-4737.318029,7048.078582,13471.748144
960.797521,-5107.421000,3370.820191,11473.192101
960.797851,-3997.112087,-766.095498,8364.327145
960.798180,-2146.597232,-4596.572988,5477.523971
960.798510,-370.102971,-6205.373534,3923.091493
960.798839,1406.391290,-4290.134789,5033.400406
960.799169,1776.494261,-1532.190996,7254.018232
960.799498,888.247130,2221.676944,9400.615463
960.799828,-1998.556043,5056.230287,11325.150913
960.800157,-3701.029710,7277.907231,11917.315666
960.800487,-4071.132681,6894.859482,13249.686362
960.800816,-4145.153275,4290.134789,13397.727550
960.801146,-3701.029710,1225.752797,12583.501014
960.801475,-2960.823768,-2145.067394,9770.718434
960.801805,-1332.370696,-4596.572988,6957.935855
960.802134,666.185348,-6128.763984,5699.585753
960.802464,3256.906145,-4749.792088,7105.977043
960.802793,4959.379811,-2221.676944,8808.450710
960.803123,4071.132681,919.314598,11325.150913
960.803452,444.123565,4903.011187,13397.727550
960.803782,-2738.761985,7507.735880,13915.871710
960.804111,-4441.235652,7431.126331,14063.912898
960.804441,-3849.070898,5132.839837,12953.603985
960.804770,-2812.782580,612.876398,9622.677246
960.805100,-1480.411884,-3294.210641,6143.709319
960.805429,0.000000,-5822.325785,3701.029710
960.805759,1702.473667,-5898.935335,3330.926739
960.806088,2294.638420,-3753.867940,5477.523971
960.806418,2368.659014,-459.657299,8290.306550
960.806747,74.020594,3677.258390,9770.718434
960.807077,-2812.782580,4979.620737,11325.150913
960.807406,-4589.276840,5286.058936,12805.562797
960.807736,-5033.400406,4826.401637,15322.262999
960.808066,-6143.709319,3140.991542,14730.098246
960.808395,-5847.626942,-229.828649,11917.315666
960.808725,-4219.173869,-3064.381992,8068.244768
960.809054,-740.205942,-5286.058936,5403.503377
960.809384,2812.782580,-8120.612279,3627.009116
960.809713,5847.626942,-5056.230287,4441.235652
960.810043,6957.935855,-306.438199,6735.874072
960.810372,4959.379811,3447.429741,9918.759623
960.810702,666.185348,7201.297681,12435.459826
960.811031,-3034.844362,9806.022374,13397.727550
960.811361,-5033.400406,8810.098227,13471.748144
960.811690,-4293.194464,4136.915689,11917.315666
960.812020,-2960.823768,-689.485948,9918.759623
960.812349,-2368.659014,-4903.011187,8068.244768
960.812679,-2072.576638,-6665.030833,5995.668130
960.813008,-1406.391290,-6052.154434,6439.791695
960.813338,0.000000,-3524.039291,8290.306550
960.813667,296.082377,153.219100,10066.800811
960.813997,-740.205942,2604.724693,11843.295072
960.814326,-2368.659014,5515.887586,13545.768739
960.814656,-3182.885551,7584.345430,13175.665768
960.814985,-3182.885551,7048.078582,13249.686362
960.815315,-2516.700203,3907.087040,12435.459826
960.815644,-1628.453072,0.000000,9252.574275
960.815974,-296.082377,-2145.067394,5995.668130
960.816303,2368.659014,-4290.134789,4293.194464
960.816633,4293.194464,-3983.696590,5181.441594
960.816962,5329.482782,-995.924147,7105.977043
960.817292,4071.132681,1608.800546,8808.450710
960.817621,518.144159,4749.792088,10510.924376
960.817951,-3330.926739,7431.126331,11843.295072
960.818280,-5033.400406,8810.098227,13545.768739
960.818610,-5773.606348,7048.078582,13397.727550
960.818939,-5107.421000,2681.334243,11399.171507
960.819269,-2886.803174,-1762.019645,7772.162391
960.819598,-1480.411884,-4673.182538,4589.276840
960.819928,518.144159,-5669.106685,3330.926739
960.820257,1258.350101,-4213.525239,4293.194464
960.820587,2072.576638,-1532.190996,6883.915261
960.820916,1406.391290,2757.943793,9474.636058
960.821246,-1554.432478,4903.011187,11547.212695
960.821575,-3404.947333,8044.002729,12583.501014
960.821905,-4145.153275,7354.516781,13545.768739
960.822234,-2960.823768,4366.744339,13323.706956
960.822564,-1924.535449,766.095498,12065.356855
960.822893,-1110.308913,-1991.848295,9030.512492
960.823223,74.020594,-4213.525239,6735.874072
960.823552,1776.494261,-5056.230287,7105.977043
960.823882,3330.926739,-2987.772442,8068.244768
960.824211,4293.194464,-153.219100,9548.656652
960.824541,2516.700203,1838.629195,10881.027347
960.824870,-740.205942,4826.401637,12213.398043
960.825200,-3182.885551,6205.373534,12657.521608
960.825529,-4515.256246,5975.544884,13323.706956
960.825859,-4737.318029,3677.258390,11843.295072
960.826188,-3552.988522,-229.828649,9326.594869
960.826518,-1776.494261,-3524.039291,6661.853478
960.826847,296.082377,-5439.278036,4737.318029
960.827177,1480.411884,-5822.325785,4885.359217
960.827506,2072.576638,-3217.601092,6661.853478
960.827836,1480.411884,0.000000,8364.327145
960.828165,-370.102971,2911.162892,10732.986159
960.828495,-3330.926739,4749.792088,12953.603985
960.828824,-5403.503377,6665.030833,14285.974681
960.829154,-6217.729913,5822.325785,14582.057057
960.829483,-5329.482782,2604.724693,12879.583391
960.829813,-2960.823768,-689.485948,9622.677246
960.830142,-1480.411884,-3447.429741,5921.647536
960.830472,666.185348,-6052.154434,3256.906145
960.830801,3034.844362,-5515.887586,3775.050304
960.831131,4589.276840,-2068.457845,6217.729913
960.831460,3701.029710,1608.800546,8438.347739
960.831790,740.205942,4673.182538,10881.027347
960.832119,-3034.844362,6894.859482,12657.521608
960.832449,-5181.441594,6971.469032,13545.768739
960.832778,-5329.482782,4749.792088,13471.748144
960.833108,-4663.297435,1685.410096,11695.253884
960.833437,-3552.988522,-2068.457845,8882.471304
960.833767,-1480.411884,-5056.230287,7031.956449
960.834096,-222.061783,-5822.325785,5551.544565
960.834426,1258.350101,-4290.134789,6661.853478
960.834755,2368.659014,-1378.971896,8068.244768
960.835085,1628.453072,2145.067394,10288.862594
960.835414,-666.185348,5056.230287,11991.336260
960.835744,-2960.823768,6971.469032,13841.851115
960.836073,-4219.173869,6205.373534,14434.015869
960.836403,-3997.112087,5209.449386,14359.995275
960.836732,-3256.906145,2374.896044,12065.356855
960.837062,-2146.597232,-1149.143247,8068.244768
960.837391,0.000000,-3907.087040,4737.318029
960.837721,2738.761985,-5592.497135,3775.050304
960.838050,4885.359217,-3753.867940,5403.503377
960.838380,5181.441594,-229.828649,7846.182985
960.838709,2738.761985,3830.477490,10066.800811
960.839039,-666.185348,6435.202183,11547.212695
960.839368,-3627.009116,7890.783629,12435.459826
960.839698,-4441.235652,7277.907231,13471.748144
960.840027,-4145.153275,4749.792088,12805.562797
960.840357,-3034.844362,1302.362347,9548.656652
960.840686,-1702.473667,-1685.410096,5699.585753
960.841016,296.082377,-4903.011187,3478.967927
960.841345,1554.432478,-5286.058936,4367.215058
960.841675,2294.638420,-2221.676944,6661.853478
960.842004,2368.659014,1378.971896,8364.327145
960.842334,444.123565,4443.353888,9992.780217
960.842663,-2442.679609,5209.449386,11769.274478
960.842993,-4367.215058,6665.030833,13471.748144
960.843323,-4885.359217,5515.887586,14359.995275
960.843652,-4959.379811,3524.039291,13693.809927
960.843982,-3701.029710,459.657299,10288.862594
960.844311,-1628.453072,-3294.210641,7105.977043
960.844641,1036.288319,-5286.058936,5625.565159
960.844970,2960.823768,-4979.620737,5921.647536
960.845300,4441.235652,-2374.896044,7402.059420
960.845629,3923.091493,1455.581446,9770.718434
960.845959,1258.350101,4979.620737,11843.295072
960.846288,-2368.659014,6435.202183,13693.809927
960.846618,-4885.359217,6818.249932,13989.892304
960.846947,-5477.523971,5669.106685,13249.686362
960.847277,-4071.132681,2451.505594,10881.027347
960.847606,-2220.617826,-1455.581446,7476.080014
960.847936,-666.185348,-4903.011187,4811.338623
960.848265,370.102971,-6588.421283,4071.132681
960.848595,1406.391290,-4903.011187,5847.626942
960.848924,1776.494261,-919.314598,7846.182985
960.849254,666.185348,2911.162892,9696.697840
960.849583,-1184.329507,3294.210641,11843.295072
960.849913,-3552.988522,4136.915689,13323.706956
960.850242,-4811.338623,5286.058936,15026.180623
960.850572,-5329.482782,4519.963438,14656.077652
960.850901,-4515.256246,1685.410096,12287.418637
960.851231,-2812.782580,-1378.971896,8734.430116
960.851560,74.020594,-3830.477490,4885.359217
960.851890,2664.741391,-5745.716235,2886.803174
960.852219,5181.441594,-3294.210641,2960.823768
960.852549,5403.503377,0.000000,5181.441594
960.852878,2664.741391,2911.162892,8512.368333
960.853208,-1924.535449,5286.058936,11843.295072
960.853537,-5625.565159,7201.297681,14211.954086
960.853867,-7624.121203,5975.544884,14878.139434
960.854196,-7772.162391,3370.820191,14211.954086
960.854526,-5995.668130,-1149.143247,11029.068536
960.854855,-3256.906145,-6205.373534,7698.141797
960.855185,-592.164754,-7048.078582,5033.400406
960.855514,1628.453072,-5592.497135,4663.297435
960.855844,3552.988522,-2374.896044,5995.668130
960.856173,4515.256246,689.485948,8512.368333
960.856503,2886.803174,3753.867940,10436.903782
960.856832,222.061783,6358.592633,12509.480420
960.857162,-2590.720797,7124.688131,13915.871710
960.857491,-4293.194464,6358.592633,15174.221811
960.857821,-4441.235652,4136.915689,14656.077652
960.858150,-3849.070898,919.314598,11621.233289
960.858480,-2442.679609,-2757.943793,7550.100608
960.858809,74.020594,-5898.935335,4589.276840
960.859139,2442.679609,-5822.325785,4441.235652
960.859468,3849.070898,-2757.943793,6291.750507
960.859798,3627.009116,1225.752797,8364.327145
960.860127,740.205942,4673.182538,10436.903782
960.860457,-3034.844362,7354.516781,12287.418637
960.860786,-5403.503377,8427.050478,13471.748144
960.861116,-5921.647536,6665.030833,13915.871710
960.861445,-5255.462188,3064.381992,12213.398043
960.861775,-3034.844362,-612.876398,8142.265362
960.862104,-1110.308913,-4060.306139,4293.194464
960.862434,888.247130,-5822.325785,2812.782580
960.862763,2368.659014,-4443.353888,4145.153275
960.863093,3552.988522,-612.876398,6587.832884
960.863422,3627.009116,3600.648841,8438.347739
960.863752,962.267725,5669.106685,11103.089130
960.864081,-2146.597232,7431.126331,12879.583391
960.864411,-4737.318029,7201.297681,14582.057057
960.864740,-5699.585753,6052.154434,14434.015869
960.865070,-4959.379811,3140.991542,12953.603985
960.865399,-2812.782580,-1225.752797,9178.553681
960.865729,-1184.329507,-4903.011187,5847.626942
960.866058,1036.288319,-6511.811733,4219.173869
960.866388,3404.947333,-5209.449386,5403.503377
960.866717,4145.153275,-1378.971896,6957.935855
960.867047,3701.029710,3064.381992,9400.615463
960.867376,222.061783,5439.278036,11843.295072
960.867706,-3552.988522,7277.907231,13323.706956
960.868035,-5403.503377,7354.516781,14137.933492
960.868365,-5403.503377,5056.230287,13767.830521
960.868694,-3701.029710,842.705048,11991.336260
960.869024,-2368.659014,-2145.067394,7698.141797
960.869353,-1184.329507,-6205.373534,4737.318029
960.869683,740.205942,-7737.564530,4145.153275
960.870012,2368.659014,-4903.011187,5921.647536
960.870342,2886.803174,-383.047749,8512.368333
960.870671,1924.535449,3677.258390,10214.842000
960.871001,-962.267725,5132.839837,12287.418637
960.871330,-3034.844362,6358.592633,13323.706956
960.871660,-3923.091493,5898.935335,14582.057057
960.871989,-4145.153275,3677.258390,14137.933492
960.872319,-3775.050304,919.314598,11843.295072
960.872648,-2442.679609,-2221.676944,7920.203579
960.872978,-666.185348,-5822.325785,5107.421000
960.873307,2072.576638,-6971.469032,4737.318029
960.873637,3923.091493,-3983.696590,5847.626942
960.873966,4663.297435,153.219100,7105.977043
960.874296,2738.761985,2987.772442,8808.450710
960.874625,-666.185348,4903.011187,10807.006753
960.874955,-3627.009116,6818.249932,12731.542202
960.875284,-5551.544565,6358.592633,13915.871710
960.875614,-6291.750507,4519.963438,13397.727550
960.875943,-5403.503377,383.047749,10066.800811
960.876273,-3108.864956,-4366.744339,7550.100608
960.876602,-1628.453072,-7201.297681,5255.462188
960.876932,74.020594,-6971.469032,4737.318029
960.877261,1702.473667,-3370.820191,6069.688724
960.877591,2590.720797,153.219100,8216.285956
960.877920,1036.288319,3140.991542,11621.233289
960.878250,-2220.617826,6281.983084,13101.645173
960.878579,-4219.173869,7354.516781,14285.974681
960.878909,-4515.256246,6588.421283,14359.995275
960.879239,-3923.091493,3830.477490,13471.748144
960.879568,-2738.761985,229.828649,10732.986159
960.879898,-592.164754,-3524.039291,7105.977043
960.880227,1332.370696,-6281.983084,4885.359217
960.880557,3182.885551,-4979.620737,5551.544565
960.880886,3997.112087,-1225.752797,7402.059420
960.881216,3701.029710,2451.505594,9400.615463
960.881545,888.247130,5056.230287,11029.068536
960.881875,-2960.823768,7354.516781,11843.295072
960.882204,-4515.256246,7660.954980,13027.624579
960.882534,-5255.462188,6588.421283,13471.748144
960.882863,-5033.400406,3830.477490,11473.192101
960.883193,-4515.256246,0.000000,7550.100608
960.883522,-2294.638420,-4136.915689,4737.318029
960.883852,0.000000,-5592.497135,3627.009116
960.884181,1850.514855,-3983.696590,4441.235652
960.884511,2664.741391,-2068.457845,6365.771101
960.884840,2442.679609,2604.724693,8660.409521
960.885170,-518.144159,5209.449386,11399.171507
960.885499,-3256.906145,7431.126331,13619.789333
960.885829,-4589.276840,7814.174080,15026.180623
960.886158,-4589.276840,6511.811733,14211.954086
960.886488,-3552.988522,2068.457845,11695.253884
960.886817,-1776.494261,-1608.800546,8364.327145
960.887147,592.164754,-4443.353888,5477.523971
960.887476,2738.761985,-5745.716235,4293.194464
960.887806,4145.153275,-3447.429741,5403.503377
960.888135,4885.359217,229.828649,7846.182985
960.888465,2886.803174,3447.429741,10288.862594
960.888794,-296.082377,5822.325785,11473.192101
960.889124,-3330.926739,7584.345430,12287.418637
960.889453,-4515.256246,6818.249932,13175.665768
960.889783,-4145.153275,3983.696590,12213.398043
960.890112,-3997.112087,383.047749,10214.842000
960.890442,-3404.947333,-3830.477490,7624.121203
960.890771,-2220.617826,-5898.935335,5773.606348
960.891101,-222.061783,-6665.030833,5921.647536
960.891430,1702.473667,-4136.915689,7402.059420
960.891760,2664.741391,-1149.143247,9326.594869
960.892089,1776.494261,1762.019645,11843.295072
960.892419,-666.185348,4136.915689,13397.727550
960.892748,-2960.823768,6665.030833,14211.954086
960.893078,-4441.235652,7048.078582,14211.954086
960.893407,-3478.967927,5132.839837,12731.542202
960.893737,-2516.700203,766.095498,9474.636058
960.894066,-1480.411884,-3677.258390,6143.709319
960.894396,74.020594,-6894.859482,4515.256246
960.894725,1924.535449,-6358.592633,5181.441594
960.895055,2590.720797,-2757.943793,7254.018232
960.895384,2516.700203,536.266849,8808.450710
960.895714,148.041188,2451.505594,10436.903782
960.896043,-2220.617826,4060.306139,11991.336260
960.896373,-4145.153275,5975.544884,13841.851115
960.896702,-5033.400406,7124.688131,14211.954086
960.897032,-5033.400406,4596.572988,12065.356855
960.897361,-3775.050304,-459.657299,8364.327145
960.897691,-2220.617826,-4519.963438,5033.400406
960.898020,148.041188,-6205.373534,3627.009116
960.898350,2146.597232,-6741.640382,4737.318029
960.898679,2738.761985,-3370.820191,7179.997637
960.899009,1332.370696,2528.115143,8808.450710
960.899338,-1110.308913,4290.134789,10881.027347
960.899668,-3108.864956,5515.887586,12953.603985
960.899997,-4885.359217,6741.640382,14582.057057
960.900327,-5551.544565,6205.373534,14730.098246
960.900656,-4885.359217,3064.381992,13027.624579
960.900986,-3775.050304,0.000000,10140.821405
960.901315,-2072.576638,-3830.477490,7105.977043
960.901645,592.164754,-6588.421283,5403.503377
960.901974,2960.823768,-4673.182538,5699.585753
960.902304,4219.173869,-766.095498,7179.997637
960.902633,3997.112087,2298.286494,8734.430116
960.902963,1258.350101,4749.792088,10807.006753
960.903292,-1850.514855,7277.907231,12583.501014
960.903622,-3701.029710,7660.954980,13693.809927
960.903951,-3997.112087,6894.859482,12953.603985
960.904281,-3330.926739,3447.429741,10732.986159
960.904610,-1776.494261,-1072.533697,7624.121203
960.904940,-444.123565,-4443.353888,5477.523971
960.905269,1036.288319,-5132.839837,4737.318029
960.905599,2146.597232,-3370.820191,5403.503377
960.905928,2442.679609,0.000000,7550.100608
960.906258,1332.370696,3064.381992,9770.718434
960.906587,-1702.473667,4673.182538,11917.315666
960.906917,-4367.215058,6435.202183,12953.603985
960.907246,-5181.441594,6818.249932,13767.830521
960.907576,-4737.318029,4366.744339,13323.706956
960.907905,-3108.864956,1532.190996,10807.006753
960.908235,-1480.411884,-1915.238745,7624.121203
960.908564,962.267725,-5132.839837,4737.318029
960.908894,3108.864956,-5515.887586,3849.070898
960.909223,4737.318029,-2451.505594,5551.544565
960.909553,5329.482782,229.828649,8586.388927
960.909882,2960.823768,3677.258390,10807.006753
960.910212,-962.267725,6052.154434,11769.274478
960.910541,-3182.885551,7277.907231,13027.624579
960.910871,-3997.112087,5745.716235,13693.809927
960.911200,-3997.112087,3677.258390,12435.459826
960.911530,-3701.029710,76.609550,9992.780217
960.911859,-2368.659014,-3753.867940,6957.935855
960.912189,-666.185348,-5822.325785,4885.359217
960.912518,740.205942,-5362.668486,5847.626942
960.912848,1554.432478,-2604.724693,7328.038826
960.913177,1184.329507,0.000000,9252.574275
960.913507,-740.205942,2681.334243,10732.986159
960.913836,-3478.967927,4443.353888,12583.501014
960.914166,-5181.441594,5745.716235,14582.057057
960.914495,-5847.626942,5132.839837,14656.077652
960.914825,-4885.359217,2604.724693,13323.706956
960.915154,-3330.926739,-689.485948,9252.574275
960.915484,-814.226536,-3983.696590,6217.729913
960.915813,2368.659014,-6511.811733,4811.338623
960.916143,4441.235652,-5439.278036,5255.462188
960.916472,5403.503377,-1455.581446,7105.977043
960.916802,3701.029710,2221.676944,9474.636058
960.917131,888.247130,4826.401637,11473.192101
960.917461,-2368.659014,6741.640382,12731.542202
960.917790,-4959.379811,6435.202183,13989.892304
960.918120,-5625.565159,5362.668486,13397.727550
960.918449,-4589.276840,1991.848295,10881.027347
960.918779,-3256.906145,-2221.676944,7179.997637
960.919108,-1924.535449,-5745.716235,4737.318029
960.919438,-370.102971,-6818.249932,3775.050304
960.919767,888.247130,-4136.915689,4737.318029
960.920097,1998.556043,0.000000,7031.956449
960.920426,1258.350101,2987.772442,9400.615463
960.920756,-888.247130,4366.744339,11621.233289
960.921085,-3478.967927,5745.716235,12953.603985
960.921415,-4811.338623,6511.811733,14508.036463
960.921744,-5033.400406,5822.325785,14211.954086
960.922074,-3775.050304,2145.067394,11917.315666
960.922403,-1924.535449,-1608.800546,8660.409521
960.922733,888.247130,-4979.620737,6069.688724
960.923062,3627.009116,-6205.373534,5107.421000
960.923392,5477.523971,-3677.258390,5847.626942
960.923721,5477.523971,766.095498,7994.224174
960.924051,3256.906145,4060.306139,10214.842000
960.924381,-518.144159,5669.106685,12435.459826
960.924710,-3627.009116,7814.174080,13767.830521
960.925040,-5033.400406,7584.345430,14434.015869
960.925369,-4293.194464,5209.449386,13323.706956
960.925699,-3552.988522,919.314598,9622.677246
960.926028,-2072.576638,-3600.648841,6291.750507
960.926358,-370.102971,-6281.983084,3923.091493
960.926687,1110.308913,-5515.887586,4367.215058
960.927017,2220.617826,-1991.848295,6513.812290
960.927346,2072.576638,1455.581446,8882.471304
960.927676,444.123565,3907.087040,10584.944971
960.928005,-2516.700203,5056.230287,12583.501014
960.928335,-4515.256246,6741.640382,13989.892304
960.928664,-5773.606348,6511.811733,14656.077652
960.928994,-5329.482782,3983.696590,14137.933492
960.929323,-3849.070898,459.657299,10584.944971
960.929653,-1258.350101,-2911.162892,6291.750507
960.929982,1998.556043,-5898.935335,4145.153275
960.930312,4737.318029,-5132.839837,3849.070898
960.930641,5625.565159,-1378.971896,5255.462188
960.930971,4885.359217,1991.848295,7550.100608
960.931300,2220.617826,5056.230287,9918.759623
960.931630,-1776.494261,7584.345430,12139.377449
960.931959,-4219.173869,7660.954980,13989.892304
960.932289,-5625.565159,5669.106685,13841.851115
960.932618,-4811.338623,2834.553343,12213.398043
960.932948,-3478.967927,-2068.457845,8956.491898
960.933277,-2072.576638,-5592.497135,7031.956449
960.933607,-518.144159,-6435.202183,5625.565159
960.933936,962.267725,-4290.134789,5773.606348
960.934266,1554.432478,-2298.286494,7772.162391
960.934595,1776.494261,1149.143247,10140.821405
960.934925,-370.102971,4060.306139,11843.295072
960.935254,-3552.988522,6511.811733,12435.459826
960.935584,-4811.338623,7124.688131,12361.439231
960.935913,-4515.256246,5745.716235,12583.501014
960.936243,-3552.988522,1685.410096,11843.295072
960.936572,-2220.617826,-1225.752797,9474.636058
960.936902,-814.226536,-4060.306139,6661.853478
960.937231,1554.432478,-6358.592633,5773.606348
960.937561,3182.885551,-4366.744339,6513.812290
960.937890,4441.235652,-995.924147,8882.471304
960.938220,3849.070898,1685.410096,10436.903782
960.938549,518.144159,3907.087040,11991.336260
960.938879,-2738.761985,7354.516781,12953.603985
960.939208,-4663.297435,7201.297681,13175.665768
960.939538,-4219.173869,4903.011187,13027.624579
960.939867,-3182.885551,1608.800546,10066.800811
960.940197,-1776.494261,-1685.410096,5995.668130
960.940526,-148.041188,-5669.106685,3404.947333
960.940856,1924.535449,-6358.592633,3330.926739
960.941185,1924.535449,-3217.601092,5699.585753
960.941515,1480.411884,306.438199,8364.327145
960.941844,-222.061783,3524.039291,10436.903782
960.942174,-2960.823768,5669.106685,12287.418637
960.942503,-5181.441594,6358.592633,13471.748144
960.942833,-6439.791695,5209.449386,14211.954086
960.943162,-6217.729913,3907.087040,14211.954086
960.943492,-4737.318029,459.657299,11621.233289
960.943821,-2960.823768,-2834.553343,7772.162391
960.944151,-592.164754,-5286.058936,5329.482782
960.944480,2960.823768,-5745.716235,4885.359217
960.944810,5033.400406,-3294.210641,6291.750507
960.945139,5699.585753,995.924147,8216.285956
960.945469,3404.947333,4213.525239,10140.821405
960.945798,-370.102971,6205.373534,11917.315666
960.946128,-3108.864956,7814.174080,13693.809927
960.946457,-4737.318029,7814.174080,14137.933492
960.946787,-4145.153275,5209.449386,12953.603985
960.947116,-2590.720797,306.438199,9030.512492
960.947446,-1628.453072,-3907.087040,5921.647536
960.947775,-518.144159,-6588.421283,4737.318029
960.948105,962.267725,-5209.449386,5625.565159
960.948434,1332.370696,-2221.676944,7550.100608
960.948764,814.226536,1608.800546,9326.594869
960.949093,-1258.350101,3753.867940,11473.192101
960.949423,-3627.009116,5362.668486,13101.645173
960.949752,-4811.338623,5975.544884,13989.892304
960.950082,-4885.359217,5515.887586,13915.871710
960.950411,-4071.132681,2911.162892,12065.356855
960.950741,-2442.679609,0.000000,8734.430116
960.951070,-296.082377,-3447.429741,5699.585753
960.951400,2294.638420,-5209.449386,4515.256246
960.951729,5033.400406,-4826.401637,4145.153275
960.952059,6291.750507,-1149.143247,6661.853478
960.952388,4885.359217,2298.286494,9178.553681
960.952718,1110.308913,4826.401637,11399.171507
960.953047,-2368.659014,7507.735880,12657.521608
960.953377,-4441.235652,7431.126331,13693.809927
960.953706,-4737.318029,6281.983084,13619.789333
960.954036,-3849.070898,2451.505594,11251.130318
960.954365,-2220.617826,-1991.848295,7920.203579
960.954695,-888.247130,-5439.278036,5107.421000
960.955024,740.205942,-6435.202183,4515.256246
960.955354,1480.411884,-3830.477490,5773.606348
960.955683,2072.576638,-612.876398,7994.224174
960.956013,740.205942,2145.067394,10140.821405
960.956342,-2220.617826,3830.477490,12139.377449
960.956672,-4737.318029,5439.278036,13397.727550
960.957001,-5921.647536,5515.887586,14804.118840
960.957331,-5625.565159,4443.353888,14804.118840
960.957660,-4071.132681,1378.971896,11843.295072
960.957990,-2220.617826,-2145.067394,7476.080014
960.958319,1110.308913,-5132.839837,4737.318029
960.958649,4071.132681,-5439.278036,4663.297435
960.958978,5625.565159,-2834.553343,6143.709319
960.959308,5329.482782,1302.362347,8142.265362
960.959637,3330.926739,3907.087040,10214.842000
960.959967,-666.185348,6128.763984,12065.356855
960.960296,-3330.926739,7201.297681,13471.748144
960.960626,-5255.462188,5822.325785,14211.954086
960.960955,-5329.482782,3064.381992,13101.645173
960.961285,-4219.173869,-306.438199,9992.780217
960.961614,-3034.844362,-4060.306139,6735.874072
960.961944,-1110.308913,-6281.983084,4293.194464
960.962273,666.185348,-6741.640382,4145.153275
960.962603,1924.535449,-3064.381992,5551.544565
960.962932,2220.617826,1225.752797,7994.224174
960.963262,518.144159,3370.820191,10362.883188
960.963591,-2442.679609,5592.497135,11917.315666
960.963921,-4589.276840,5975.544884,13249.686362
960.964250,-5181.441594,6052.154434,14285.974681
960.964580,-4589.276840,3753.867940,13841.851115
960.964909,-3256.906145,229.828649,10288.862594
960.965239,-1776.494261,-3524.039291,6365.771101
960.965568,1258.350101,-6511.811733,4959.379811
960.965898,4441.235652,-5362.668486,5921.647536
960.966227,4885.359217,-2298.286494,7328.038826
960.966557,3775.050304,1991.848295,8956.491898
960.966886,444.123565,4826.401637,10436.903782
960.967216,-2220.617826,6128.763984,12287.418637
960.967545,-4589.276840,6511.811733,13915.871710
960.967875,-5477.523971,5209.449386,14063.912898
960.968204,-5403.503377,3064.381992,11325.150913
960.968534,-2960.823768,-1302.362347,8068.244768
960.968863,-1184.329507,-5669.106685,5403.503377
960.969193,592.164754,-7354.516781,4219.173869
960.969522,1850.514855,-4749.792088,5773.606348
960.969852,2294.638420,-1378.971896,7920.203579
960.970181,1184.329507,2604.724693,10732.986159
960.970511,-2146.597232,5515.887586,13323.706956
960.970840,-3997.112087,7354.516781,14137.933492
960.971170,-5699.585753,6741.640382,14582.057057
960.971499,-5181.441594,5132.839837,13323.706956
960.971829,-3108.864956,1455.581446,10881.027347
960.972158,-1036.288319,-2987.772442,7179.997637
960.972488,962.267725,-5669.106685,4145.153275
960.972817,2812.782580,-5745.716235,3404.947333
960.973147,4219.173869,-2298.286494,5477.523971
960.973476,4959.379811,1225.752797,7550.100608
960.973806,3404.947333,3983.696590,9400.615463
960.974135,-222.061783,6358.592633,11103.089130
960.974465,-2590.720797,7354.516781,12583.501014
960.974794,-4293.194464,6894.859482,14063.912898
960.975124,-4959.379811,4826.401637,13693.809927
960.975453,-4885.359217,1608.800546,10881.027347
960.975783,-4071.132681,-2221.676944,7179.997637
960.976112,-1628.453072,-6281.983084,4737.318029
960.976442,888.247130,-6128.763984,4737.318029
960.976771,2664.741391,-3830.477490,6513.812290
960.977101,3182.885551,-689.485948,7994.224174
960.977431,1628.453072,2834.553343,10140.821405
960.977760,-1702.473667,5898.935335,12287.418637
960.978090,-3108.864956,8197.221829,13619.789333
960.978419,-4589.276840,7890.783629,13545.768739
960.978749,-3923.091493,4979.620737,12213.398043
960.979078,-2738.761985,612.876398,9104.533087
960.979408,-1332.370696,-3983.696590,6587.832884
960.979737,740.205942,-6358.592633,5699.585753
960.980067,2220.617826,-5669.106685,7105.977043
960.980396,2442.679609,-2221.676944,8512.368333
960.980726,2516.700203,612.876398,9844.739029
960.981055,888.247130,2451.505594,11547.212695
960.981385,-1332.370696,4749.792088,12953.603985
960.981714,-3330.926739,6511.811733,13989.892304
960.982044,-4441.235652,6358.592633,13249.686362
960.982373,-4145.153275,3753.867940,11325.150913
960.982703,-2590.720797,-919.314598,8364.327145
960.983032,-518.144159,-3983.696590,5255.462188
960.983362,814.226536,-6358.592633,3404.947333
960.983691,1998.556043,-5515.887586,4885.359217
960.984021,2812.782580,-2221.676944,7476.080014
960.984350,1998.556043,2374.896044,9548.656652
960.984680,-1036.288319,4366.744339,11103.089130
960.985009,-4293.194464,6052.154434,12657.521608
960.985339,-6069.688724,6358.592633,14582.057057
960.985668,-6513.812290,5362.668486,14804.118840
960.985998,-5551.544565,1915.238745,12879.583391
960.986327,-3775.050304,-1838.629195,9400.615463
960.986657,-1406.391290,-5132.839837,5995.668130
960.986986,1110.308913,-7660.954980,4145.153275
960.987316,3108.864956,-5286.058936,4737.318029
960.987645,4293.194464,-995.924147,6735.874072
960.987975,3701.029710,2911.162892,8882.471304
960.988304,962.267725,6128.763984,11177.109724
960.988634,-1998.556043,7814.174080,12213.398043
960.988963,-4293.194464,7431.126331,13471.748144
960.989293,-4737.318029,5975.544884,13323.706956
960.989622,-4145.153275,2221.676944,11399.171507
960.989952,-2812.782580,-1762.019645,8216.285956
960.990281,-1776.494261,-5745.716235,6291.750507
960.990611,-444.123565,-7354.516781,5477.523971
960.990940,1110.308913,-4826.401637,6957.935855
960.991270,1924.535449,-995.924147,8808.450710
960.991599,1036.288319,2451.505594,10584.944971
960.991929,-1554.432478,4443.353888,12065.356855
960.992258,-3701.029710,7048.078582,13397.727550
960.992588,-4515.256246,7431.126331,13989.892304
960.992917,-3997.112087,5669.106685,13249.686362
960.993247,-2590.720797,2374.896044,10510.924376
960.993576,-370.102971,-1608.800546,7105.977043
960.993906,1332.370696,-5132.839837,5033.400406
960.994235,3182.885551,-5132.839837,4293.194464
960.994565,4219.173869,-2604.724693,5699.585753
960.994894,4367.215058,383.047749,7698.141797
960.995224,2368.659014,2681.334243,9992.780217
960.995553,-1036.288319,5822.325785,11843.295072
960.995883,-3775.050304,7660.954980,13545.768739
960.996212,-5625.565159,7431.126331,14434.015869
960.996542,-4737.318029,5056.230287,13249.686362
960.996871,-3701.029710,919.314598,9844.739029
960.997201,-1924.535449,-3140.991542,5995.668130
960.997534,0.000000,-5898.935335,3775.050304
960.997864,1850.514855,-5515.887586,4293.194464
960.998193,2738.761985,-2451.505594,6217.729913
960.998522,2516.700203,536.266849,8290.306550
960.998852,444.123565,3524.039291,11029.068536
960.999181,-3034.844362,6128.763984,12953.603985
960.999511,-5255.462188,7354.516781,14211.954086
960.999840,-5403.503377,6052.154434,14508.036463
961.000170,-4145.153275,3524.039291,12879.583391
961.000499,-2368.659014,229.828649,9326.594869
961.000829,-296.082377,-3753.867940,6217.729913
961.001158,1924.535449,-6128.763984,5107.421000
961.001488,3404.947333,-4903.011187,5921.647536
961.001817,3701.029710,-1149.143247,7698.141797
961.002146,2590.720797,1685.410096,9548.656652
961.002476,0.000000,4290.134789,11399.171507
961.002805,-3256.906145,6128.763984,12879.583391
961.003135,-5477.523971,6588.421283,13323.706956
961.003464,-5255.462188,4903.011187,13101.645173
961.003794,-4441.235652,1838.629195,11621.233289
961.004123,-3108.864956,-1532.190996,8142.265362
961.004453,-2294.638420,-4596.572988,5255.462188
961.004782,-740.205942,-6435.202183,4071.132681
961.005112,1184.329507,-4290.134789,5847.626942
961.005441,2072.576638,-919.314598,7920.203579
961.005770,1554.432478,1915.238745,9918.759623
961.006100,-1406.391290,3217.601092,11621.233289
961.006429,-4219.173869,5286.058936,12953.603985
961.006759,-5699.585753,6128.763984,14508.036463
961.007088,-5551.544565,5056.230287,14211.954086
961.007418,-4219.173869,1685.410096,11843.295072
961.007747,-2072.576638,-2451.505594,7920.203579
961.008077,-370.102971,-5056.230287,4811.338623
961.008406,2590.720797,-6588.421283,4515.256246
961.008735,4663.297435,-4060.306139,5921.647536
961.009065,4145.153275,-153.219100,7624.121203
961.009394,2442.679609,4136.915689,9474.636058
961.009724,-444.123565,4979.620737,12139.377449
961.010053,-3330.926739,6971.469032,13249.686362
961.010383,-5921.647536,6741.640382,14211.954086
961.010712,-6513.812290,4519.963438,13841.851115
961.011042,-6217.729913,1532.190996,11177.109724
961.011371,-4811.338623,-2757.943793,7624.121203
961.011701,-3256.906145,-6052.154434,5477.523971
961.012030,-814.226536,-6435.202183,4811.338623
961.012359,888.247130,-3830.477490,5847.626942
961.012689,1850.514855,0.000000,7624.121203
961.013018,296.082377,3217.601092,9696.697840
961.013348,-2368.659014,5669.106685,12213.398043
961.013677,-5033.400406,7431.126331,14063.912898
961.014007,-7105.977043,7354.516781,14952.160028
961.014336,-7254.018232,5592.497135,13471.748144
961.014666,-5329.482782,1762.019645,10436.903782
961.014995,-2664.741391,-3447.429741,6291.750507
961.015324,-148.041188,-5592.497135,4589.276840
961.015654,1702.473667,-5745.716235,4219.173869
961.015983,2886.803174,-2604.724693,5995.668130
961.016313,2664.741391,1685.410096,7846.182985
961.016642,888.247130,5898.935335,9918.759623
961.016972,-1998.556043,7048.078582,11769.274478
961.017301,-4441.235652,6435.202183,14211.954086
961.017631,-7772.162391,5822.325785,15766.386565
961.017960,-10658.965565,5132.839837,14878.139434
961.018290,-11029.068536,2145.067394,11029.068536
961.018619,-8956.491898,-2451.505594,6513.812290
961.018948,-4885.359217,-7584.345430,3330.926739
961.019278,-666.185348,-8963.317327,2368.659014
961.019607,1480.411884,-5209.449386,3330.926739
961.019937,1776.494261,842.705048,4737.318029
961.020266,888.247130,5132.839837,8068.244768
961.020596,-1184.329507,9269.755526,11103.089130
961.020925,-2886.803174,10648.727422,13027.624579
961.021255,-5773.606348,8733.488677,14063.912898
961.021584,-8438.347739,4596.572988,13767.830521
961.021913,-10214.842000,153.219100,14656.077652
961.022243,-11547.212695,-3677.258390,14211.954086
961.022572,-11177.109724,-6511.811733,11769.274478
961.022902,-8660.409521,-7277.907231,7402.059420
961.023231,-3404.947333,-7660.954980,4145.153275
961.023561,2738.761985,-5745.716235,3552.988522
961.023890,5773.606348,-919.314598,5329.482782
961.024220,5773.606348,5209.449386,7550.100608
961.024549,4071.132681,10648.727422,9770.718434
961.024879,1480.411884,12257.527968,12435.459826
961.025208,-1998.556043,10878.556072,14211.954086
961.025537,-5329.482782,4903.011187,15544.324782
961.025867,-9178.553681,153.219100,14063.912898
961.026196,-11399.171507,-3370.820191,11769.274478
961.026526,-11547.212695,-7354.516781,8808.450710
961.026855,-9696.697840,-8580.269578,6143.709319
961.027185,-7105.977043,-8120.612279,5403.503377
961.027514,-4293.194464,-6052.154434,4811.338623
961.027844,-1702.473667,-306.438199,5847.626942
961.028173,0.000000,5515.887586,7105.977043
961.028502,296.082377,9652.803275,9030.512492
961.028832,-666.185348,10418.898773,11177.109724
961.029161,-2886.803174,8580.269578,11917.315666
961.029491,-4811.338623,5132.839837,13027.624579
961.029820,-7624.121203,1302.362347,12435.459826
961.030150,-10140.821405,-1608.800546,11103.089130
961.030479,-10436.903782,-5515.887586,9622.677246
961.030809,-7624.121203,-8120.612279,9030.512492
961.031138,-4441.235652,-6052.154434,8142.265362
961.031468,-1258.350101,-2451.505594,6143.709319
961.031797,1776.494261,153.219100,5477.523971
961.032126,3775.050304,2834.553343,7772.162391
961.032456,3330.926739,7584.345430,9918.759623
961.032785,1850.514855,9652.803275,12139.377449
961.033115,-1702.473667,7354.516781,13989.892304
961.033444,-4885.359217,4979.620737,15174.221811
961.033774,-8660.409521,2911.162892,14508.036463
961.034103,-9918.759623,-153.219100,11695.253884
961.034433,-9474.636058,-4903.011187,7476.080014
961.034762,-7105.977043,-7354.516781,4737.318029
961.035091,-3701.029710,-6435.202183,4589.276840
961.035421,-1850.514855,-3677.258390,5329.482782
961.035750,-740.205942,1225.752797,6513.812290
961.036080,-888.247130,6205.373534,7328.038826
961.036409,-1184.329507,9193.145976,9178.553681
961.036739,-1850.514855,10189.070123,11177.109724
961.037068,-3478.967927,7967.393179,12435.459826
961.037398,-5107.421000,4749.792088,13249.686362
961.037727,-6809.894666,919.314598,12657.521608
961.038057,-8142.265362,-1225.752797,12657.521608
961.038386,-9030.512492,-3294.210641,11399.171507
961.038715,-7402.059420,-4596.572988,9178.553681
961.039045,-4515.256246,-2604.724693,7105.977043
961.039374,-222.061783,-306.438199,5477.523971
961.039704,2812.782580,1072.533697,5921.647536
961.040033,3849.070898,4366.744339,7254.018232
961.040363,2294.638420,7737.564530,8438.347739
961.040692,592.164754,8656.879127,9770.718434
961.041022,-1702.473667,7048.078582,10955.047942
961.041351,-3330.926739,4596.572988,11917.315666
961.041680,-5033.400406,2451.505594,11769.274478
961.042010,-5477.523971,-459.657299,10214.842000
961.042339,-5181.441594,-2681.334243,8734.430116
961.042669,-4367.215058,-2757.943793,7772.162391
961.042998,-3627.009116,-842.705048,8068.244768
961.043328,-3182.885551,1608.800546,8438.347739
961.043657,-2886.803174,3447.429741,9474.636058
961.043987,-2368.659014,5439.278036,10288.862594
961.044316,-1924.535449,6818.249932,10955.047942
961.044646,-1332.370696,6741.640382,11325.150913
961.044975,-1850.514855,5209.449386,11251.130318
961.045304,-1480.411884,3370.820191,10881.027347
961.045634,-888.247130,2451.505594,9770.718434
961.045963,-666.185348,1378.971896,8808.450710
961.046293,-518.144159,919.314598,8734.430116
961.046622,0.000000,1762.019645,8882.471304
961.046952,888.247130,3753.867940,9548.656652
961.047281,296.082377,6358.592633,10362.883188
961.047611,-1184.329507,8044.002729,10362.883188
961.047940,-2294.638420,7890.783629,9696.697840
961.048269,-2812.782580,6894.859482,9400.615463
961.048599,-2960.823768,5975.544884,9104.533087
961.048928,-2664.741391,3907.087040,7698.141797
961.049258,-2220.617826,1838.629195,5921.647536
961.049587,-1258.350101,0.000000,5551.544565
961.049917,-888.247130,-229.828649,6735.874072
961.050246,-2072.576638,1302.362347,7698.141797
961.050576,-2960.823768,4213.525239,8586.388927
961.050905,-3256.906145,6052.154434,9918.759623
961.051235,-2960.823768,7048.078582,11029.068536
961.051564,-1998.556043,7431.126331,11103.089130
961.051893,-740.205942,6511.811733,10288.862594
961.052223,0.000000,4903.011187,9770.718434
961.052552,74.020594,3983.696590,9844.739029
961.052882,-222.061783,2911.162892,9844.739029
961.053211,-370.102971,2451.505594,9548.656652
961.053541,-222.061783,1991.848295,8882.471304
961.053870,0.000000,2451.505594,9326.594869
961.054200,814.226536,2987.772442,9622.677246
961.054529,888.247130,2834.553343,10436.903782
961.054858,-222.061783,4519.963438,10732.986159
961.055188,-1628.453072,5209.449386,10881.027347
961.055517,-1554.432478,5975.544884,11399.171507
961.055847,-1036.288319,5132.839837,11695.253884
961.056176,-1110.308913,4443.353888,10881.027347
961.056506,-1110.308913,3677.258390,9770.718434
961.056835,-1184.329507,3983.696590,9474.636058
961.057165,-888.247130,4290.134789,9474.636058
961.057494,-888.247130,4596.572988,8734.430116
961.057824,-370.102971,3830.477490,7550.100608
961.058153,148.041188,2528.115143,6809.894666
961.058482,0.000000,1608.800546,6365.771101
961.058812,0.000000,1991.848295,7328.038826
961.059141,-1924.535449,2451.505594,8290.306550
961.059471,-3256.906145,3064.381992,9400.615463
961.059800,-3552.988522,3524.039291,10436.903782
961.060130,-2442.679609,3983.696590,11325.150913
961.060459,-1554.432478,4060.306139,11029.068536
961.060789,-962.267725,4979.620737,10214.842000
961.061118,-370.102971,5592.497135,9548.656652
961.061447,370.102971,6052.154434,9770.718434
961.061777,888.247130,6205.373534,9548.656652
961.062106,74.020594,5975.544884,8364.327145
961.062436,-740.205942,4826.401637,7105.977043
961.062765,-1184.329507,3294.210641,6365.771101
961.063095,-1332.370696,1149.143247,6143.709319
961.063424,-1332.370696,-229.828649,6809.894666
961.063754,-1554.432478,-612.876398,7698.141797
961.064083,-2368.659014,0.000000,9400.615463
961.064413,-2886.803174,1302.362347,11473.192101
961.064742,-2590.720797,3524.039291,12953.603985
961.065071,-1998.556043,5286.058936,13471.748144
961.065401,-962.267725,6052.154434,13249.686362
961.065730,0.000000,6128.763984,13101.645173
961.066060,74.020594,7124.688131,11843.295072
961.066389,74.020594,5286.058936,10066.800811
961.066719,0.000000,3294.210641,8660.409521
961.067048,-444.123565,1838.629195,7550.100608
961.067378,-888.247130,1225.752797,7402.059420
961.067707,-1702.473667,1302.362347,7254.018232
961.068037,-1258.350101,229.828649,6735.874072
961.068366,-814.226536,-306.438199,6957.935855
961.068695,-148.041188,689.485948,8808.450710
961.069025,296.082377,2528.115143,9918.759623
961.069354,-296.082377,4290.134789,11029.068536
961.069684,-1184.329507,4903.011187,11177.109724
961.070013,-1628.453072,5439.278036,11769.274478
961.070343,-1406.391290,5745.716235,12139.377449
961.070672,-1332.370696,5286.058936,12139.377449
961.071002,-2072.576638,4366.744339,10955.047942
961.071331,-2738.761985,3064.381992,7772.162391
961.071660,-2294.638420,1685.410096,5403.503377
961.071990,-444.123565,536.266849,4811.338623
961.072319,1184.329507,689.485948,4737.318029
961.072649,1406.391290,536.266849,4071.132681
961.072978,1998.556043,536.266849,5033.400406
961.073308,1110.308913,1072.533697,7846.182985
961.073637,-1110.308913,2451.505594,11029.068536
961.073967,-3997.112087,3830.477490,13175.665768
961.074296,-5033.400406,3370.820191,15248.242405
961.074626,-5847.626942,2451.505594,15026.180623
961.074955,-6291.750507,2298.286494,14508.036463
961.075284,-5625.565159,919.314598,12213.398043
961.075614,-2960.823768,-766.095498,8808.450710
961.075943,-222.061783,-842.705048,5255.462188
961.076273,3404.947333,-995.924147,3849.070898
961.076602,5995.668130,-919.314598,4219.173869
961.076932,6365.771101,383.047749,5551.544565
961.077261,4515.256246,2298.286494,7846.182985
961.077591,888.247130,3600.648841,10955.047942
961.077920,-2294.638420,4749.792088,14656.077652
961.078249,-4589.276840,4060.306139,18061.024985
961.078579,-6809.894666,2911.162892,18357.107362
961.078908,-8438.347739,1838.629195,15174.221811
961.079238,-7105.977043,-1378.971896,11103.089130
961.079567,-3108.864956,-4213.525239,7179.997637
961.079897,0.000000,-4903.011187,3997.112087
961.080226,2664.741391,-3830.477490,2812.782580
961.080556,4663.297435,-1762.019645,2738.761985
961.080885,5107.421000,766.095498,4071.132681
961.081215,3108.864956,3140.991542,6365.771101
961.081544,0.000000,4596.572988,10140.821405
961.081873,-2442.679609,4366.744339,14285.974681
961.082203,-5107.421000,4290.134789,16654.633695
961.082532,-6809.894666,3370.820191,16580.613101
961.082862,-6735.874072,919.314598,14434.015869
961.083191,-4441.235652,-1608.800546,10584.944971
961.083521,-1036.288319,-4290.134789,7105.977043
961.083850,2072.576638,-4060.306139,4367.215058
961.084180,4219.173869,-2911.162892,3256.906145
961.084509,5033.400406,-383.047749,3997.112087
961.084838,3849.070898,2145.067394,5255.462188
961.085168,1036.288319,4443.353888,8068.244768
961.085497,-1776.494261,4903.011187,11769.274478
961.085827,-3701.029710,4290.134789,14434.015869
961.086156,-5107.421000,3524.039291,15470.304188
961.086486,-5625.565159,1378.971896,14359.995275
961.086815,-4367.215058,-1532.190996,11177.109724
961.087145,-1554.432478,-4060.306139,8142.265362
961.087474,1036.288319,-4749.792088,6513.812290
961.087804,1776.494261,-1685.410096,6291.750507
961.088133,1554.432478,2298.286494,6661.853478
961.088462,1776.494261,2298.286494,6957.935855
961.088792,814.226536,2911.162892,9030.512492
961.089121,-1332.370696,4673.182538,11547.212695
961.089451,-3701.029710,5515.887586,13323.706956
961.089780,-5033.400406,3830.477490,13619.789333
961.090110,-4441.235652,2298.286494,12435.459826
961.090439,-2294.638420,-306.438199,11103.089130
961.090769,-518.144159,-1608.800546,9474.636058
961.091098,962.267725,-2068.457845,7328.038826
961.091427,1924.535449,-842.705048,5773.606348
961.091757,2368.659014,689.485948,5921.647536
961.092086,2590.720797,3140.991542,7550.100608
961.092416,222.061783,4903.011187,10214.842000
961.092745,-2516.700203,5745.716235,11251.130318
961.093075,-4441.235652,5439.278036,11325.150913
961.093404,-4737.318029,3524.039291,11103.089130
961.093734,-3849.070898,1149.143247,9844.739029
961.094063,-1850.514855,-919.314598,8882.471304
961.094393,296.082377,-1608.800546,7994.224174
961.094722,962.267725,-1455.581446,7031.956449
961.095051,740.205942,-459.657299,6587.832884
961.095381,592.164754,0.000000,7550.100608
961.095710,-296.082377,2145.067394,10066.800811
961.096040,-1480.411884,4903.011187,11621.233289
961.096369,-2738.761985,4749.792088,11177.109724
961.096699,-3330.926739,2987.772442,10436.903782
961.097028,-3552.988522,1302.362347,9474.636058
961.097357,-2294.638420,766.095498,9696.697840
961.097687,148.041188,-306.438199,8956.491898
961.098016,2072.576638,-1149.143247,7772.162391
961.098346,2146.597232,-995.924147,7550.100608
961.098675,888.247130,229.828649,8290.306550
961.099005,296.082377,1302.362347,9844.739029
961.099334,-222.061783,1915.238745,11547.212695
961.099663,-2072.576638,2604.724693,12583.501014
961.099993,-4071.132681,2604.724693,12139.377449
961.100322,-5255.462188,1685.410096,11547.212695
961.100652,-4145.153275,-229.828649,9992.780217
961.100981,-1850.514855,-1762.019645,8438.347739
961.101311,296.082377,-1608.800546,7698.141797
961.101640,1776.494261,-1072.533697,7179.997637
961.101969,1850.514855,-536.266849,7105.977043
961.102299,1776.494261,229.828649,7550.100608
961.102628,962.267725,1225.752797,8956.491898
961.102958,0.000000,1991.848295,11547.212695
961.103287,-2442.679609,2451.505594,13175.665768
961.103617,-4737.318029,2221.676944,13323.706956
961.103946,-5477.523971,1149.143247,11843.295072
961.104275,-3923.091493,-459.657299,10362.883188
961.104605,-1776.494261,-2145.067394,8068.244768
961.104934,740.205942,-2757.943793,7624.121203
961.105264,2072.576638,-2068.457845,7105.977043
961.105593,1850.514855,-153.219100,7105.977043
961.105922,1184.329507,1762.019645,7402.059420
961.106252,888.247130,2068.457845,8882.471304
961.106581,-518.144159,2145.067394,11473.192101
961.106911,-2664.741391,2834.553343,13249.686362
961.107240,-4441.235652,2298.286494,12805.562797
961.107570,-5329.482782,459.657299,11177.109724
961.107899,-4293.194464,-1455.581446,9474.636058
961.108228,-1184.329507,-2221.676944,8882.471304
961.108558,1184.329507,-1991.848295,8364.327145
961.108887,1924.535449,-689.485948,6883.915261
961.109217,1776.494261,229.828649,5921.647536
961.109546,1850.514855,1378.971896,6809.894666
961.109876,1184.329507,2528.115143,10066.800811
961.110205,0.000000,3370.820191,12065.356855
961.110534,-2442.679609,3294.210641,12213.398043
961.110864,-4441.235652,2221.676944,11843.295072
961.111193,-4737.318029,689.485948,11251.130318
961.111523,-4071.132681,-612.876398,10658.965565
961.111852,-1554.432478,-842.705048,9474.636058
961.112182,814.226536,-536.266849,7772.162391
961.112511,2146.597232,-153.219100,6291.750507
961.112840,2368.659014,536.266849,5551.544565
961.113170,2664.741391,1685.410096,7179.997637
961.113499,1332.370696,3064.381992,9474.636058
961.113829,-1110.308913,4290.134789,11177.109724
961.114158,-3478.967927,4519.963438,12139.377449
961.114487,-4885.359217,2834.553343,12435.459826
961.114817,-4959.379811,1991.848295,11547.212695
961.115146,-3701.029710,-229.828649,9400.615463
961.115476,-1036.288319,-1838.629195,7846.182985
961.115805,1110.308913,-1302.362347,7105.977043
961.116135,1554.432478,0.000000,6809.894666
961.116464,1110.308913,1302.362347,6809.894666
961.116793,888.247130,2604.724693,8068.244768
961.117123,74.020594,3830.477490,9770.718434
961.117452,-1554.432478,4596.572988,11695.253884
961.117782,-3182.885551,4060.306139,12287.418637
961.118111,-4737.318029,2911.162892,11695.253884
961.118441,-4515.256246,919.314598,10510.924376
961.118770,-2738.761985,-689.485948,9326.594869
961.119099,-592.164754,-1225.752797,8734.430116
961.119429,740.205942,-842.705048,8068.244768
961.119758,1258.350101,383.047749,7328.038826
961.120088,1332.370696,536.266849,6883.915261
961.120417,1184.329507,1225.752797,8438.347739
961.120747,518.144159,2451.505594,10436.903782
961.121076,-1480.411884,2834.553343,11843.295072
961.121405,-3552.988522,2681.334243,11843.295072
961.121735,-4219.173869,1072.533697,11547.212695
961.122064,-3330.926739,-689.485948,9918.759623
961.122394,-1480.411884,-1991.848295,9252.574275
961.122723,740.205942,-2451.505594,8660.409521
961.123052,2072.576638,-1991.848295,7698.141797
961.123382,1850.514855,-1149.143247,6587.832884
961.123711,1480.411884,-383.047749,7476.080014
961.124041,1184.329507,153.219100,9474.636058
961.124370,148.041188,1685.410096,11917.315666
961.124700,-2294.638420,1378.971896,13175.665768
961.125029,-4293.194464,1762.019645,12731.542202
961.125358,-5033.400406,536.266849,11843.295072
961.125688,-4071.132681,-1685.410096,10881.027347
961.126017,-1776.494261,-2451.505594,9918.759623
961.126347,518.144159,-2068.457845,8660.409521
961.126676,1480.411884,-1838.629195,7402.059420
961.127006,1258.350101,-1072.533697,6957.935855
961.127335,666.185348,0.000000,7550.100608
961.127664,0.000000,1378.971896,9770.718434
961.127994,-1480.411884,1991.848295,11695.253884
961.128323,-3256.906145,2451.505594,12139.377449
961.128653,-4737.318029,919.314598,11325.150913
961.128982,-4145.153275,-919.314598,10214.842000
961.129312,-2516.700203,-1991.848295,9474.636058
961.129641,-148.041188,-1838.629195,9030.512492
961.129970,1406.391290,-766.095498,7846.182985
961.130300,2220.617826,229.828649,7031.956449
961.130629,2368.659014,766.095498,6809.894666
961.130959,2294.638420,1838.629195,8068.244768
961.131288,1702.473667,2911.162892,9770.718434
961.131618,-296.082377,3447.429741,11325.150913
961.131947,-3108.864956,2604.724693,11695.253884
961.132276,-5255.462188,2374.896044,11547.212695
961.132606,-5551.544565,1072.533697,11251.130318
