#time,accel_x,accel_y,accel_z
1017.600790,-962.267725,689.485948,9696.697840
1017.601119,-1110.308913,1149.143247,9474.636058
1017.601449,-1110.308913,689.485948,9770.718434
1017.601778,-962.267725,1225.752797,9474.636058
1017.602108,-1258.350101,919.314598,9252.574275
1017.602438,-1184.329507,842.705048,9400.615463
1017.602767,-962.267725,842.705048,9400.615463
1017.603097,-1184.329507,919.314598,9548.656652
1017.603426,-740.205942,1072.533697,9326.594869
1017.603756,-1110.308913,1072.533697,9622.677246
1017.604085,-962.267725,842.705048,9622.677246
1017.604415,-1036.288319,1149.143247,9474.636058
1017.604744,-1110.308913,919.314598,9474.636058
1017.605074,-740.205942,689.485948,9548.656652
1017.605404,-740.205942,612.876398,9178.553681
1017.605733,-1184.329507,766.095498,9474.636058
1017.606063,-1184.329507,842.705048,9474.636058
1017.606392,-1036.288319,919.314598,9622.677246
1017.606722,-740.205942,1072.533697,9474.636058
1017.607051,-962.267725,1225.752797,9770.718434
1017.607381,-1036.288319,842.705048,9474.636058
1017.607710,-888.247130,766.095498,9548.656652
1017.608040,-888.247130,1072.533697,9770.718434
1017.608369,-962.267725,995.924147,9474.636058
1017.608699,-1036.288319,919.314598,9400.615463
1017.609029,-1036.288319,842.705048,9474.636058
1017.609358,-1036.288319,766.095498,9548.656652
1017.609688,-888.247130,766.095498,9622.677246
1017.610017,-1036.288319,919.314598,9474.636058
1017.610347,-814.226536,842.705048,9400.615463
1017.610676,-962.267725,1225.752797,9622.677246
1017.611006,-1036.288319,1072.533697,9622.677246
1017.611335,-1184.329507,842.705048,9474.636058
1017.611665,-1036.288319,689.485948,9474.636058
1017.611995,-1110.308913,689.485948,9548.656652
1017.612324,-1110.308913,1302.362347,9474.636058
1017.612654,-962.267725,842.705048,9622.677246
1017.612983,-888.247130,919.314598,9474.636058
1017.613313,-1184.329507,995.924147,9548.656652
1017.613642,-962.267725,766.095498,9622.677246
1017.613972,-814.226536,536.266849,9326.594869
1017.614301,-962.267725,842.705048,9474.636058
1017.614631,-1184.329507,995.924147,9400.615463
1017.614961,-962.267725,1072.533697,9622.677246
1017.615290,-814.226536,766.095498,9696.697840
1017.615620,-1036.288319,1149.143247,9622.677246
1017.615949,-1036.288319,842.705048,9474.636058
1017.616279,-1036.288319,766.095498,9622.677246
1017.616608,-1110.308913,995.924147,9770.718434
1017.616938,-1184.329507,919.314598,9622.677246
1017.617267,-1036.288319,919.314598,9770.718434
1017.617597,-1184.329507,1225.752797,9844.739029
1017.617927,-1036.288319,995.924147,9548.656652
1017.618256,-1110.308913,842.705048,9400.615463
1017.618586,-1036.288319,842.705048,9474.636058
1017.618915,-1036.288319,919.314598,9622.677246
1017.619245,-888.247130,1455.581446,9474.636058
1017.619574,-1036.288319,766.095498,9548.656652
1017.619904,-962.267725,995.924147,9474.636058
1017.620233,-962.267725,766.095498,9622.677246
1017.620563,-888.247130,995.924147,9622.677246
1017.620893,-1258.350101,995.924147,9474.636058
1017.621222,-1110.308913,766.095498,9548.656652
1017.621552,-962.267725,766.095498,9548.656652
1017.621881,-1184.329507,842.705048,9400.615463
1017.622211,-962.267725,842.705048,9622.677246
1017.622540,-962.267725,766.095498,9400.615463
1017.622870,-1184.329507,1072.533697,9104.533087
1017.623199,-1332.370696,995.924147,9326.594869
1017.623529,-1036.288319,842.705048,9326.594869
1017.623858,-370.102971,1149.143247,9178.553681
1017.624188,296.082377,689.485948,9030.512492
1017.624518,1036.288319,229.828649,9474.636058
1017.624847,962.267725,459.657299,9252.574275
1017.625177,592.164754,689.485948,9622.677246
1017.625506,148.041188,842.705048,9844.739029
1017.625836,-518.144159,919.314598,10510.924376
1017.626165,-740.205942,1149.143247,10955.047942
1017.626495,-518.144159,383.047749,10214.842000
1017.626824,-148.041188,0.000000,9622.677246
1017.627154,518.144159,0.000000,9326.594869
1017.627484,1702.473667,0.000000,9178.553681
1017.627813,2812.782580,0.000000,8808.450710
1017.628143,3256.906145,1302.362347,8438.347739
1017.628472,3478.967927,1532.190996,9104.533087
1017.628802,3627.009116,1838.629195,9400.615463
1017.629131,3478.967927,1838.629195,9918.759623
1017.629461,3034.844362,689.485948,10214.842000
1017.629790,2516.700203,612.876398,10584.944971
1017.630120,1406.391290,842.705048,10584.944971
1017.630450,1184.329507,229.828649,10732.986159
1017.630779,1554.432478,-383.047749,10436.903782
1017.631109,1924.535449,-153.219100,9770.718434
1017.631438,2442.679609,-383.047749,8882.471304
1017.631768,3849.070898,0.000000,9178.553681
1017.632097,4145.153275,919.314598,9326.594869
1017.632427,3923.091493,2451.505594,9548.656652
1017.632756,3034.844362,2834.553343,10140.821405
1017.633086,1850.514855,2834.553343,9992.780217
1017.633416,0.000000,3140.991542,9918.759623
1017.633745,-1554.432478,2374.896044,9918.759623
1017.634075,-1924.535449,1302.362347,9030.512492
1017.634404,-888.247130,-153.219100,8068.244768
1017.634734,740.205942,-1378.971896,7105.977043
1017.635063,2220.617826,-1225.752797,6291.750507
1017.635393,3701.029710,-306.438199,6735.874072
1017.635722,4293.194464,612.876398,7328.038826
1017.636052,3775.050304,2451.505594,9252.574275
1017.636382,2516.700203,4213.525239,11325.150913
1017.636711,1332.370696,4596.572988,12435.459826
1017.637041,518.144159,3600.648841,13027.624579
1017.637370,-370.102971,1838.629195,12583.501014
1017.637700,-888.247130,-383.047749,11621.233289
1017.638029,-666.185348,-1455.581446,10658.965565
1017.638359,0.000000,-2528.115143,8956.491898
1017.638688,962.267725,-1915.238745,8216.285956
1017.639018,2368.659014,-1225.752797,7550.100608
1017.639347,4071.132681,-459.657299,7254.018232
1017.639677,4737.318029,766.095498,7254.018232
1017.640007,4441.235652,2757.943793,7846.182985
1017.640336,3997.112087,4060.306139,8660.409521
1017.640666,2960.823768,3753.867940,10140.821405
1017.640995,2368.659014,3524.039291,11251.130318
1017.641325,1332.370696,2068.457845,11621.233289
1017.641654,222.061783,689.485948,11473.192101
1017.641984,-814.226536,-153.219100,11325.150913
1017.642313,-814.226536,-1762.019645,10732.986159
1017.642643,-592.164754,-2068.457845,10732.986159
1017.642973,0.000000,-1838.629195,10584.944971
1017.643302,666.185348,-919.314598,10066.800811
1017.643632,1406.391290,995.924147,9252.574275
1017.643961,2442.679609,612.876398,8290.306550
1017.644291,3701.029710,1072.533697,8290.306550
1017.644620,4737.318029,919.314598,8142.265362
1017.644950,5107.421000,1072.533697,8068.244768
1017.645279,4737.318029,1532.190996,8586.388927
1017.645609,3404.947333,1455.581446,9400.615463
1017.645939,2368.659014,1302.362347,10584.944971
1017.646268,962.267725,1762.019645,10955.047942
1017.646598,444.123565,1991.848295,11029.068536
1017.646927,666.185348,1838.629195,10658.965565
1017.647257,740.205942,2145.067394,9918.759623
1017.647586,1110.308913,842.705048,8512.368333
1017.647916,1998.556043,229.828649,7550.100608
1017.648245,2516.700203,383.047749,7105.977043
1017.648575,2516.700203,459.657299,7772.162391
1017.648905,2220.617826,1149.143247,8586.388927
1017.649234,1332.370696,1225.752797,9474.636058
1017.649564,444.123565,1149.143247,10066.800811
1017.649893,518.144159,842.705048,11029.068536
1017.650223,370.102971,842.705048,11695.253884
1017.650552,222.061783,459.657299,11843.295072
1017.650882,-962.267725,689.485948,11103.089130
1017.651211,-666.185348,689.485948,9696.697840
1017.651541,370.102971,536.266849,8734.430116
1017.651871,2220.617826,306.438199,8216.285956
1017.652200,3701.029710,1225.752797,7994.224174
1017.652530,5329.482782,2528.115143,7846.182985
1017.652859,7105.977043,2374.896044,8068.244768
1017.653189,6957.935855,3447.429741,9104.533087
1017.653518,5477.523971,3677.258390,9474.636058
1017.653848,4293.194464,3907.087040,11029.068536
1017.654177,3256.906145,2221.676944,12657.521608
1017.654507,1036.288319,1685.410096,14359.995275
1017.654837,-3034.844362,689.485948,13545.768739
1017.655166,-6365.771101,-689.485948,11843.295072
1017.655496,-6439.791695,-2068.457845,10362.883188
1017.655825,-4811.338623,-2068.457845,7402.059420
1017.656155,-222.061783,-2374.896044,3478.967927
1017.656484,5847.626942,-3677.258390,1184.329507
1017.656814,9770.718434,-3294.210641,1702.473667
1017.657143,10214.842000,1685.410096,4515.256246
1017.657473,8216.285956,5975.544884,7772.162391
1017.657802,6809.894666,8963.317327,11177.109724
1017.658132,3627.009116,10112.460574,13249.686362
1017.658462,-518.144159,7431.126331,15396.283594
1017.658791,-3404.947333,1532.190996,17024.736666
1017.659121,-5551.544565,-2145.067394,15692.365970
1017.659450,-6883.915261,-2298.286494,13101.645173
1017.659780,-5107.421000,-4060.306139,10807.006753
1017.660109,-1850.514855,-6741.640382,8882.471304
1017.660439,3034.844362,-6281.983084,4885.359217
1017.660768,7550.100608,-4060.306139,740.205942
1017.661098,11769.274478,-1302.362347,1998.556043
1017.661428,13767.830521,3064.381992,6291.750507
1017.661757,10066.800811,7584.345430,10807.006753
1017.662087,3552.988522,8120.612279,13027.624579
1017.662416,-1924.535449,8503.660028,14582.057057
1017.662746,-3775.050304,6281.983084,15988.448347
1017.663075,-3256.906145,1378.971896,15470.304188
1017.663405,-3182.885551,-4749.792088,11843.295072
1017.663734,-2072.576638,-8044.002729,6809.894666
1017.664064,1184.329507,-7967.393179,4145.153275
1017.664394,3404.947333,-6971.469032,6217.729913
1017.664723,2960.823768,-1762.019645,8438.347739
1017.665053,518.144159,2987.772442,8586.388927
1017.665382,-518.144159,5592.497135,9474.636058
1017.665712,740.205942,7354.516781,11399.171507
1017.666041,1036.288319,5669.106685,12361.439231
1017.666371,592.164754,2374.896044,11769.274478
1017.666700,-1258.350101,-1072.533697,9770.718434
1017.667030,-2516.700203,-2298.286494,9918.759623
1017.667360,-2960.823768,-2145.067394,9770.718434
1017.667689,-2664.741391,-3677.258390,8586.388927
1017.668019,-2146.597232,-3600.648841,6513.812290
1017.668348,222.061783,-2451.505594,5995.668130
1017.668678,4367.215058,-1302.362347,7772.162391
1017.669007,6587.832884,3140.991542,8660.409521
1017.669337,6069.688724,5898.935335,7994.224174
1017.669666,4219.173869,5209.449386,9474.636058
1017.669996,1332.370696,5745.716235,12583.501014
1017.670326,-2590.720797,6665.030833,14730.098246
1017.670655,-5181.441594,5056.230287,14582.057057
1017.670985,-7031.956449,842.705048,13027.624579
1017.671314,-7476.080014,-1991.848295,10732.986159
1017.671644,-6143.709319,-5439.278036,8290.306550
1017.671973,-2960.823768,-6894.859482,6217.729913
1017.672303,-1036.288319,-4213.525239,5107.421000
1017.672633,-296.082377,-1225.752797,6439.791695
1017.672962,-444.123565,2604.724693,8438.347739
1017.673292,0.000000,5898.935335,8586.388927
1017.673622,1924.535449,6435.202183,7920.203579
1017.673952,3330.926739,5056.230287,8142.265362
1017.674281,3775.050304,4519.963438,10362.883188
1017.674611,2590.720797,3830.477490,11843.295072
1017.674941,814.226536,2528.115143,12213.398043
1017.675270,-2072.576638,2298.286494,11917.315666
1017.675600,-3775.050304,2145.067394,10955.047942
1017.675930,-3256.906145,1455.581446,10807.006753
1017.676259,-1406.391290,-306.438199,9474.636058
1017.676589,-370.102971,0.000000,8068.244768
1017.676919,0.000000,1455.581446,6587.832884
1017.677248,296.082377,1762.019645,6291.750507
1017.677578,370.102971,1608.800546,7624.121203
1017.677908,-1332.370696,1838.629195,9252.574275
1017.678237,-2516.700203,3294.210641,10288.862594
1017.678567,-2886.803174,2604.724693,9474.636058
1017.678897,-2368.659014,229.828649,8216.285956
1017.679226,-1110.308913,-1072.533697,7550.100608
1017.679556,1332.370696,-2221.676944,7624.121203
1017.679886,3108.864956,-2145.067394,8364.327145
1017.680216,3256.906145,459.657299,10066.800811
1017.680545,888.247130,3294.210641,10362.883188
1017.680875,-1406.391290,4443.353888,11399.171507
1017.681205,-1480.411884,3064.381992,11917.315666
1017.681534,-1036.288319,1991.848295,13027.624579
1017.681864,-1924.535449,1455.581446,12583.501014
1017.682194,-2516.700203,0.000000,10436.903782
1017.682523,-2220.617826,-2145.067394,8808.450710
1017.682853,-2812.782580,-4519.963438,9030.512492
1017.683183,-4441.235652,-3753.867940,8808.450710
1017.683512,-4293.194464,-1915.238745,9178.553681
1017.683842,-1628.453072,-1149.143247,9326.594869
1017.684172,0.000000,-1225.752797,8808.450710
1017.684501,74.020594,842.705048,7254.018232
1017.684831,296.082377,1685.410096,6735.874072
1017.685161,1776.494261,842.705048,8364.327145
1017.685491,740.205942,1532.190996,11843.295072
1017.685820,-2960.823768,4673.182538,14063.912898
1017.686150,-5921.647536,3600.648841,13693.809927
1017.686480,-5847.626942,-536.266849,11991.336260
1017.686809,-4515.256246,-3753.867940,11103.089130
1017.687139,-2960.823768,-3753.867940,9474.636058
1017.687469,-1184.329507,-3217.601092,9178.553681
1017.687798,296.082377,-1991.848295,8660.409521
1017.688128,0.000000,153.219100,8882.471304
1017.688458,-1480.411884,3524.039291,8142.265362
1017.688787,-592.164754,3524.039291,7105.977043
1017.689117,1850.514855,1991.848295,7179.997637
1017.689447,2664.741391,2834.553343,7624.121203
1017.689776,2368.659014,3600.648841,8512.368333
1017.690106,2368.659014,1225.752797,8586.388927
1017.690436,1480.411884,1072.533697,9548.656652
1017.690765,-1554.432478,2451.505594,11177.109724
1017.691095,-3256.906145,4596.572988,12213.398043
1017.691425,-3330.926739,3907.087040,11251.130318
1017.691755,-2368.659014,2221.676944,9622.677246
1017.692084,-2146.597232,1302.362347,7179.997637
1017.692414,-1406.391290,689.485948,7031.956449
1017.692744,1110.308913,766.095498,7920.203579
1017.693073,666.185348,536.266849,8438.347739
1017.693403,-2146.597232,2451.505594,8660.409521
1017.693733,-3478.967927,3294.210641,8142.265362
1017.694062,-1480.411884,1072.533697,8364.327145
1017.694392,1850.514855,153.219100,8956.491898
1017.694722,2738.761985,536.266849,8956.491898
1017.695051,3330.926739,1915.238745,9622.677246
1017.695381,3923.091493,2374.896044,9326.594869
1017.695711,3404.947333,2528.115143,10362.883188
1017.696040,1628.453072,3524.039291,12139.377449
1017.696370,-888.247130,4366.744339,12583.501014
1017.696700,-2072.576638,2987.772442,12731.542202
1017.697030,-2368.659014,1532.190996,11843.295072
1017.697359,-2516.700203,-153.219100,10436.903782
1017.697689,-1998.556043,-1762.019645,8808.450710
1017.698019,-1480.411884,-3064.381992,7772.162391
1017.698348,-2294.638420,-3064.381992,7846.182985
1017.698678,-4071.132681,-919.314598,8290.306550
1017.699008,-4589.276840,-766.095498,8364.327145
1017.699337,-3478.967927,-1302.362347,9178.553681
1017.699667,-2146.597232,0.000000,9474.636058
1017.699997,-1554.432478,2374.896044,8808.450710
1017.700326,814.226536,1608.800546,7328.038826
1017.700656,2812.782580,76.609550,7624.121203
1017.700986,2072.576638,919.314598,9770.718434
1017.701315,-740.205942,1762.019645,12139.377449
1017.701645,-3552.988522,2528.115143,13693.809927
1017.701975,-5181.441594,2298.286494,12953.603985
1017.702305,-5329.482782,459.657299,11769.274478
1017.702634,-4145.153275,-3140.991542,10955.047942
1017.702964,-1110.308913,-3677.258390,10584.944971
1017.703294,0.000000,-2451.505594,9548.656652
1017.703623,-1480.411884,-1378.971896,8290.306550
1017.703953,-3849.070898,-229.828649,7105.977043
1017.704283,-3108.864956,306.438199,7031.956449
1017.704612,-518.144159,-383.047749,7920.203579
1017.704942,592.164754,842.705048,8142.265362
1017.705272,2072.576638,2604.724693,7179.997637
1017.705601,3256.906145,1072.533697,7476.080014
1017.705931,2812.782580,0.000000,9474.636058
1017.706261,666.185348,1685.410096,11695.253884
1017.706590,-2146.597232,4366.744339,13249.686362
1017.706920,-3108.864956,4903.011187,12953.603985
1017.707250,-3034.844362,3907.087040,11769.274478
1017.707579,-2368.659014,612.876398,9622.677246
1017.707909,-1258.350101,-1455.581446,7920.203579
1017.708239,296.082377,-1302.362347,8068.244768
1017.708569,148.041188,536.266849,8808.450710
1017.708898,-2072.576638,2068.457845,9178.553681
1017.709228,-3404.947333,1302.362347,8068.244768
1017.709558,-2368.659014,229.828649,7105.977043
1017.709887,370.102971,0.000000,7772.162391
1017.710217,2886.803174,1762.019645,8734.430116
1017.710547,3997.112087,2604.724693,7772.162391
1017.710876,4885.359217,2757.943793,7846.182985
1017.711206,3775.050304,2221.676944,8956.491898
1017.711536,1776.494261,3140.991542,11399.171507
1017.711865,-666.185348,5745.716235,12805.562797
1017.712195,-2368.659014,5362.668486,12583.501014
1017.712525,-2590.720797,2911.162892,11843.295072
1017.712854,-2516.700203,153.219100,10436.903782
1017.713184,-1406.391290,-1608.800546,9104.533087
1017.713514,-592.164754,-2298.286494,8290.306550
1017.713844,-1554.432478,-995.924147,7920.203579
1017.714173,-3775.050304,1302.362347,8142.265362
1017.714503,-5773.606348,689.485948,6587.832884
1017.714833,-4737.318029,-1149.143247,7031.956449
1017.715162,-3034.844362,-1532.190996,8734.430116
1017.715492,-2368.659014,383.047749,10436.903782
1017.715822,-888.247130,1838.629195,9548.656652
1017.716151,296.082377,1225.752797,8512.368333
1017.716481,814.226536,-1072.533697,9474.636058
1017.716811,-370.102971,0.000000,10955.047942
1017.717140,-1406.391290,2068.457845,12509.480420
1017.717470,-2146.597232,3064.381992,13545.768739
1017.717800,-2368.659014,2987.772442,13619.789333
1017.718129,-2220.617826,1302.362347,12361.439231
1017.718459,-814.226536,-1378.971896,9918.759623
1017.718789,0.000000,-2757.943793,9178.553681
1017.719118,-1332.370696,0.000000,9030.512492
1017.719448,-3256.906145,306.438199,8586.388927
1017.719778,-3775.050304,-919.314598,8142.265362
1017.720108,-2886.803174,-995.924147,7105.977043
1017.720437,-1998.556043,-995.924147,6513.812290
1017.720767,74.020594,-536.266849,6661.853478
1017.721097,2368.659014,689.485948,7402.059420
1017.721426,2368.659014,842.705048,8734.430116
1017.721756,0.000000,2068.457845,10658.965565
1017.722086,-2886.803174,4136.915689,11695.253884
1017.722415,-3627.009116,4826.401637,11843.295072
1017.722745,-2738.761985,2451.505594,11843.295072
1017.723075,-2738.761985,689.485948,11399.171507
1017.723404,-2072.576638,383.047749,9326.594869
1017.723734,-296.082377,-1149.143247,7402.059420
1017.724064,1110.308913,-2068.457845,7105.977043
1017.724393,-296.082377,-306.438199,7328.038826
1017.724723,-1924.535449,1072.533697,8660.409521
1017.725053,-1332.370696,1608.800546,9474.636058
1017.725383,-296.082377,2451.505594,9400.615463
1017.725712,888.247130,2911.162892,8512.368333
1017.726042,2812.782580,1685.410096,7624.121203
1017.726372,4219.173869,919.314598,8586.388927
1017.726701,3256.906145,1608.800546,10140.821405
1017.727031,518.144159,3140.991542,11029.068536
1017.727361,-2220.617826,4136.915689,11029.068536
1017.727690,-3701.029710,2451.505594,11251.130318
1017.728020,-3997.112087,229.828649,11991.336260
1017.728350,-3256.906145,153.219100,12509.480420
1017.728679,-2368.659014,-153.219100,10584.944971
1017.729009,-1480.411884,-1302.362347,8290.306550
1017.729339,-1850.514855,-1608.800546,7550.100608
1017.729668,-3034.844362,-612.876398,7994.224174
1017.729998,-3256.906145,153.219100,8956.491898
1017.730328,-2368.659014,306.438199,9474.636058
1017.730657,-1332.370696,919.314598,9178.553681
1017.730987,0.000000,1455.581446,8364.327145
1017.731317,1332.370696,919.314598,7772.162391
1017.731647,2812.782580,459.657299,7698.141797
1017.731976,1480.411884,1149.143247,9622.677246
1017.732306,-666.185348,3064.381992,11769.274478
1017.732636,-3182.885551,4136.915689,12509.480420
1017.732965,-4071.132681,2681.334243,12657.521608
1017.733295,-3404.947333,306.438199,12361.439231
1017.733625,-2812.782580,-1072.533697,11695.253884
1017.733954,-1924.535449,-1991.848295,9474.636058
1017.734284,-1258.350101,-2528.115143,8364.327145
1017.734614,-2294.638420,-2451.505594,8290.306550
1017.734943,-3330.926739,153.219100,8216.285956
1017.735273,-2886.803174,919.314598,7476.080014
1017.735603,-814.226536,306.438199,7550.100608
1017.735932,592.164754,1072.533697,7105.977043
1017.736262,1406.391290,1455.581446,7105.977043
1017.736592,2886.803174,612.876398,7476.080014
1017.736922,2442.679609,1225.752797,9770.718434
1017.737251,740.205942,2987.772442,11917.315666
1017.737581,-2368.659014,4903.011187,13027.624579
1017.737911,-4663.297435,3830.477490,12435.459826
1017.738240,-4515.256246,1838.629195,12213.398043
1017.738570,-3701.029710,1302.362347,11473.192101
1017.738900,-1998.556043,153.219100,9326.594869
1017.739229,0.000000,-1302.362347,7698.141797
1017.739559,518.144159,-2451.505594,7105.977043
1017.739889,-962.267725,-536.266849,7031.956449
1017.740218,-2294.638420,1149.143247,7772.162391
1017.740548,-1258.350101,2068.457845,9030.512492
1017.740878,296.082377,2834.553343,9474.636058
1017.741207,1332.370696,2911.162892,8956.491898
1017.741537,2886.803174,1991.848295,7920.203579
1017.741867,4145.153275,1378.971896,8438.347739
1017.742196,3182.885551,2068.457845,9844.739029
1017.742526,74.020594,4290.134789,12287.418637
1017.742856,-3182.885551,5822.325785,12435.459826
1017.743186,-3775.050304,3677.258390,11473.192101
1017.743515,-2590.720797,383.047749,11251.130318
1017.743845,-1554.432478,-1225.752797,11695.253884
1017.744175,-2220.617826,153.219100,10066.800811
1017.744504,-2738.761985,76.609550,7624.121203
1017.744834,-3627.009116,-1608.800546,6587.832884
1017.745164,-4885.359217,-1072.533697,7105.977043
1017.745493,-4293.194464,0.000000,7550.100608
1017.745823,-2738.761985,-919.314598,9030.512492
1017.746153,-1480.411884,-229.828649,9696.697840
1017.746482,-814.226536,1762.019645,8364.327145
1017.746812,1480.411884,153.219100,7550.100608
1017.747142,3849.070898,-1685.410096,9104.533087
1017.747471,2738.761985,1915.238745,11399.171507
1017.747801,222.061783,4596.572988,12509.480420
1017.748131,-1332.370696,4903.011187,12065.356855
1017.748461,-1184.329507,2681.334243,11399.171507
1017.748790,-1480.411884,536.266849,10881.027347
1017.749120,-1702.473667,-1532.190996,10658.965565
1017.749450,-1776.494261,-1685.410096,9992.780217
1017.749779,-2294.638420,-995.924147,9474.636058
1017.750109,-3701.029710,-1072.533697,9474.636058
1017.750439,-5403.503377,-1149.143247,8660.409521
1017.750768,-4885.359217,-1225.752797,7920.203579
1017.751098,-3330.926739,-1149.143247,7772.162391
1017.751428,-1554.432478,383.047749,7920.203579
1017.751757,-444.123565,1302.362347,7476.080014
1017.752087,888.247130,306.438199,7994.224174
1017.752417,1480.411884,306.438199,9474.636058
1017.752746,-666.185348,2374.896044,11103.089130
1017.753076,-2368.659014,4596.572988,12509.480420
1017.753406,-3034.844362,4136.915689,13249.686362
1017.753735,-2664.741391,2451.505594,12435.459826
1017.754065,-2664.741391,1302.362347,10288.862594
1017.754395,-296.082377,306.438199,8438.347739
1017.754725,1628.453072,-1149.143247,7994.224174
1017.755054,1628.453072,-919.314598,8142.265362
1017.755384,-888.247130,1302.362347,8364.327145
1017.755714,-1998.556043,2834.553343,7328.038826
1017.756043,-962.267725,2757.943793,7476.080014
1017.756373,518.144159,1685.410096,7624.121203
1017.756703,1332.370696,2451.505594,7920.203579
1017.757032,2072.576638,2221.676944,7994.224174
1017.757362,2442.679609,1455.581446,8068.244768
1017.757692,2072.576638,2298.286494,9548.656652
1017.758021,-518.144159,4290.134789,10881.027347
1017.758351,-2960.823768,4060.306139,11621.233289
1017.758681,-3627.009116,2451.505594,12065.356855
1017.759010,-4071.132681,1838.629195,11769.274478
1017.759340,-3182.885551,1378.971896,11251.130318
1017.759670,-2294.638420,-306.438199,9252.574275
1017.760000,-1554.432478,-995.924147,8734.430116
1017.760329,-2072.576638,-1455.581446,8512.368333
1017.760659,-3034.844362,-383.047749,8660.409521
1017.760989,-3182.885551,536.266849,8438.347739
1017.761318,-1850.514855,766.095498,7846.182985
1017.761648,-296.082377,-153.219100,8438.347739
1017.761978,1406.391290,0.000000,8808.450710
1017.762307,2590.720797,459.657299,8586.388927
1017.762637,3404.947333,689.485948,9696.697840
1017.762967,1628.453072,2374.896044,11103.089130
1017.763296,-814.226536,4443.353888,11917.315666
1017.763626,-2516.700203,3600.648841,12065.356855
1017.763956,-2442.679609,919.314598,11695.253884
1017.764285,-2294.638420,-459.657299,11325.150913
1017.764615,-2368.659014,-766.095498,10807.006753
1017.764945,-2220.617826,-1532.190996,10214.842000
1017.765274,-2368.659014,-2528.115143,9326.594869
1017.765604,-3701.029710,-2374.896044,8512.368333
1017.765934,-4885.359217,-383.047749,8216.285956
1017.766264,-4071.132681,0.000000,7994.224174
1017.766593,-1998.556043,-459.657299,7772.162391
1017.766923,-296.082377,-842.705048,7550.100608
1017.767253,666.185348,0.000000,7402.059420
1017.767582,1776.494261,306.438199,7994.224174
1017.767912,2072.576638,536.266849,10436.903782
1017.768242,444.123565,2451.505594,13471.748144
1017.768571,-2368.659014,5056.230287,13397.727550
1017.768901,-3182.885551,3753.867940,12213.398043
1017.769231,-1628.453072,1302.362347,10881.027347
1017.769560,-296.082377,-1149.143247,10140.821405
1017.769890,814.226536,-995.924147,9696.697840
1017.770220,1110.308913,-766.095498,7846.182985
1017.770549,888.247130,-766.095498,8068.244768
1017.770879,-666.185348,1378.971896,8290.306550
1017.771209,-2072.576638,2604.724693,7476.080014
1017.771539,-1184.329507,1455.581446,7550.100608
1017.771868,592.164754,1072.533697,7624.121203
1017.772198,1850.514855,1991.848295,8142.265362
1017.772528,1702.473667,2528.115143,8068.244768
1017.772857,1850.514855,1915.238745,9252.574275
1017.773187,444.123565,2911.162892,10658.965565
1017.773517,-2072.576638,4673.182538,11325.150913
1017.773846,-2960.823768,4673.182538,11769.274478
1017.774176,-2812.782580,2834.553343,11917.315666
1017.774506,-3330.926739,1378.971896,11473.192101
1017.774836,-4589.276840,1149.143247,9474.636058
1017.775165,-3627.009116,536.266849,7476.080014
1017.775495,-2072.576638,-1302.362347,7624.121203
1017.775825,-1332.370696,-536.266849,9030.512492
1017.776155,-2738.761985,306.438199,8512.368333
1017.776485,-2664.741391,995.924147,7772.162391
1017.776814,-888.247130,-459.657299,7550.100608
1017.777144,814.226536,536.266849,8290.306550
1017.777474,2072.576638,1762.019645,8586.388927
1017.777804,3256.906145,1838.629195,9326.594869
1017.778133,3404.947333,2374.896044,10584.944971
1017.778463,1924.535449,3370.820191,11917.315666
1017.778793,-1258.350101,4136.915689,11843.295072
1017.779123,-2590.720797,3600.648841,12213.398043
1017.779453,-3330.926739,995.924147,11843.295072
1017.779782,-3627.009116,-459.657299,11399.171507
1017.780112,-3775.050304,-1455.581446,9918.759623
1017.780442,-3108.864956,-2604.724693,8438.347739
1017.780772,-2590.720797,-3217.601092,7920.203579
1017.781101,-3404.947333,-2528.115143,8438.347739
1017.781431,-3923.091493,-383.047749,8438.347739
1017.781761,-2812.782580,-229.828649,8512.368333
1017.782091,-1554.432478,0.000000,7772.162391
1017.782421,0.000000,995.924147,7624.121203
1017.782750,1776.494261,459.657299,7624.121203
1017.783080,3404.947333,229.828649,8586.388927
1017.783410,2738.761985,766.095498,10955.047942
1017.783740,0.000000,2145.067394,13175.665768
1017.784069,-2442.679609,3524.039291,13619.789333
1017.784399,-2960.823768,2987.772442,12953.603985
1017.784729,-2072.576638,919.314598,11695.253884
1017.785059,-1184.329507,-1302.362347,9548.656652
1017.785389,0.000000,-2528.115143,8364.327145
1017.785718,666.185348,-1762.019645,8512.368333
1017.786048,444.123565,-1072.533697,9178.553681
1017.786378,-2072.576638,1762.019645,9252.574275
1017.786708,-3182.885551,2451.505594,8438.347739
1017.787037,-1850.514855,766.095498,7402.059420
1017.787367,740.205942,76.609550,7550.100608
1017.787697,2072.576638,536.266849,7328.038826
1017.788027,2664.741391,1685.410096,7772.162391
1017.788357,2812.782580,1915.238745,8364.327145
1017.788686,1406.391290,2604.724693,9696.697840
1017.789016,-740.205942,3983.696590,11177.109724
1017.789346,-2368.659014,4749.792088,11399.171507
1017.789676,-2368.659014,4060.306139,11325.150913
1017.790005,-2146.597232,2451.505594,10955.047942
1017.790335,-1998.556043,1455.581446,9918.759623
1017.790665,-1332.370696,153.219100,9104.533087
1017.790995,-1036.288319,-842.705048,8512.368333
1017.791325,-2368.659014,0.000000,8808.450710
1017.791654,-4293.194464,1762.019645,8956.491898
1017.791984,-4145.153275,1838.629195,8438.347739
1017.792314,-2368.659014,0.000000,7846.182985
1017.792644,-518.144159,-229.828649,7994.224174
1017.792973,814.226536,306.438199,7846.182985
1017.793303,1776.494261,1608.800546,8068.244768
1017.793633,2220.617826,2145.067394,9326.594869
1017.793963,814.226536,2681.334243,11103.089130
1017.794293,-1924.535449,3830.477490,11843.295072
1017.794622,-3034.844362,4213.525239,11843.295072
1017.794952,-2590.720797,2145.067394,12287.418637
1017.795282,-2368.659014,229.828649,12287.418637
1017.795612,-2812.782580,0.000000,9918.759623
1017.795941,-2368.659014,-1762.019645,8142.265362
1017.796271,-1702.473667,-3294.210641,7550.100608
1017.796601,-2590.720797,-2298.286494,8068.244768
1017.796931,-4515.256246,306.438199,9030.512492
1017.797261,-4145.153275,1685.410096,8364.327145
1017.797590,-1924.535449,689.485948,7476.080014
1017.797920,-222.061783,0.000000,7920.203579
1017.798250,1036.288319,-766.095498,8586.388927
1017.798580,1480.411884,0.000000,9992.780217
1017.798909,962.267725,612.876398,12731.542202
1017.799239,-1480.411884,2911.162892,14211.954086
1017.799569,-4071.132681,4903.011187,12287.418637
1017.799899,-3404.947333,1991.848295,9992.780217
1017.800229,-222.061783,-2451.505594,9326.594869
1017.800558,1110.308913,-3140.991542,10066.800811
1017.800888,962.267725,-1378.971896,9992.780217
1017.801218,444.123565,-229.828649,8734.430116
1017.801548,74.020594,306.438199,7254.018232
1017.801877,-370.102971,0.000000,7698.141797
1017.802207,0.000000,459.657299,8364.327145
1017.802537,814.226536,1302.362347,9030.512492
1017.802867,1480.411884,2451.505594,9030.512492
1017.803197,1110.308913,2911.162892,8882.471304
1017.803526,1406.391290,2834.553343,8586.388927
1017.803856,2220.617826,766.095498,8290.306550
1017.804186,2220.617826,0.000000,10362.883188
1017.804516,-518.144159,3140.991542,11621.233289
1017.804845,-3997.112087,5669.106685,11029.068536
1017.805175,-4515.256246,3447.429741,9844.739029
1017.805505,-3775.050304,-459.657299,9548.656652
1017.805835,-2664.741391,-612.876398,9770.718434
1017.806165,-962.267725,-766.095498,9252.574275
1017.806494,444.123565,-995.924147,8956.491898
1017.806824,-444.123565,0.000000,8216.285956
1017.807154,-1850.514855,689.485948,7920.203579
1017.807484,-1702.473667,995.924147,8216.285956
1017.807813,148.041188,1455.581446,9844.739029
1017.808143,1702.473667,3064.381992,10658.965565
1017.808473,1924.535449,4060.306139,9622.677246
1017.808803,2738.761985,2145.067394,7698.141797
1017.809133,3627.009116,-306.438199,8364.327145
1017.809462,1628.453072,536.266849,10658.965565
1017.809792,-2294.638420,3830.477490,12065.356855
1017.810122,-4293.194464,4060.306139,12731.542202
1017.810452,-4663.297435,1455.581446,11769.274478
1017.810782,-4811.338623,0.000000,10140.821405
1017.811111,-4145.153275,-2681.334243,8586.388927
1017.811441,-2516.700203,-3294.210641,8290.306550
1017.811771,-2368.659014,-1838.629195,8290.306550
1017.812101,-3997.112087,-306.438199,8512.368333
1017.812430,-5329.482782,1072.533697,7698.141797
1017.812760,-3997.112087,-459.657299,8290.306550
1017.813090,-1702.473667,-842.705048,9696.697840
1017.813420,-888.247130,995.924147,9400.615463
1017.813750,222.061783,2604.724693,7624.121203
1017.814079,3034.844362,-383.047749,7328.038826
1017.814409,4441.235652,-1072.533697,9696.697840
1017.814739,1924.535449,1838.629195,12287.418637
1017.815069,-1480.411884,4136.915689,13175.665768
1017.815398,-3256.906145,4060.306139,13249.686362
1017.815728,-4293.194464,3524.039291,12583.501014
1017.816058,-2886.803174,1149.143247,10214.842000
1017.816388,-740.205942,-2451.505594,8586.388927
1017.816718,1258.350101,-3370.820191,7698.141797
1017.817047,444.123565,-2374.896044,7772.162391
1017.817377,-2368.659014,-459.657299,8216.285956
1017.817707,-4589.276840,1225.752797,8364.327145
1017.818037,-3256.906145,1149.143247,8438.347739
1017.818366,-814.226536,766.095498,9104.533087
1017.818696,1258.350101,1378.971896,8808.450710
1017.819026,3256.906145,2068.457845,8438.347739
1017.819356,4293.194464,612.876398,7402.059420
1017.819686,3552.988522,1455.581446,9178.553681
1017.820015,592.164754,3753.867940,10955.047942
1017.820345,-1776.494261,5592.497135,12583.501014
1017.820675,-2294.638420,4596.572988,12657.521608
1017.821005,-1998.556043,2451.505594,10955.047942
1017.821334,-1036.288319,612.876398,9030.512492
1017.821664,370.102971,-1072.533697,7476.080014
1017.821994,1036.288319,-1915.238745,7624.121203
1017.822324,-518.144159,0.000000,8438.347739
1017.822654,-2664.741391,2681.334243,8734.430116
1017.822983,-3627.009116,2757.943793,8290.306550
1017.823313,-2146.597232,1225.752797,7624.121203
1017.823643,74.020594,919.314598,8586.388927
1017.823973,1924.535449,1225.752797,9326.594869
1017.824302,2368.659014,1915.238745,9326.594869
1017.824632,1332.370696,1685.410096,9104.533087
1017.824962,0.000000,2298.286494,10362.883188
1017.825292,-1702.473667,3447.429741,11917.315666
1017.825622,-2590.720797,2987.772442,12657.521608
1017.825951,-2812.782580,1532.190996,12361.439231
1017.826281,-3108.864956,383.047749,10955.047942
1017.826611,-2368.659014,-995.924147,9474.636058
1017.826941,-1776.494261,-1915.238745,8290.306550
1017.827270,-1110.308913,-1838.629195,8364.327145
1017.827600,-1776.494261,-766.095498,8734.430116
1017.827930,-3108.864956,612.876398,8438.347739
1017.828260,-3627.009116,536.266849,7550.100608
1017.828590,-2442.679609,-919.314598,9030.512492
1017.828919,-1480.411884,-153.219100,10510.924376
1017.829249,-814.226536,1915.238745,10807.006753
1017.829579,222.061783,1149.143247,9992.780217
1017.829909,962.267725,-306.438199,9104.533087
1017.830238,-148.041188,306.438199,9548.656652
1017.830568,-1628.453072,1225.752797,10288.862594
1017.830898,-1998.556043,995.924147,11251.130318
1017.831228,-1702.473667,1378.971896,11769.274478
1017.831558,-1998.556043,1072.533697,10436.903782
1017.831887,-1628.453072,229.828649,8882.471304
1017.832217,-592.164754,-1532.190996,7772.162391
1017.832547,0.000000,-1991.848295,8512.368333
1017.832877,-1776.494261,0.000000,9326.594869
1017.833206,-2812.782580,1072.533697,9178.553681
1017.833536,-1998.556043,459.657299,8808.450710
1017.833866,-962.267725,-612.876398,8956.491898
1017.834196,-518.144159,459.657299,8808.450710
1017.834526,222.061783,1225.752797,8956.491898
1017.834855,1702.473667,1378.971896,9252.574275
1017.835185,1110.308913,2374.896044,9548.656652
1017.835515,-1110.308913,2528.115143,10658.965565
1017.835845,-2738.761985,3140.991542,10807.006753
1017.836174,-1776.494261,2451.505594,10955.047942
1017.836504,-666.185348,1149.143247,10955.047942
1017.836834,222.061783,1149.143247,9992.780217
1017.837164,1554.432478,1149.143247,8216.285956
1017.837494,2368.659014,-1072.533697,7550.100608
1017.837823,2368.659014,0.000000,8438.347739
1017.838153,666.185348,3447.429741,9548.656652
1017.838483,0.000000,3983.696590,8660.409521
1017.838813,0.000000,2298.286494,8290.306550
1017.839142,592.164754,1838.629195,7846.182985
1017.839472,1110.308913,2145.067394,8512.368333
1017.839802,2220.617826,919.314598,9400.615463
1017.840132,1850.514855,995.924147,10732.986159
1017.840462,-1110.308913,2221.676944,11399.171507
1017.840791,-3627.009116,2528.115143,11621.233289
1017.841121,-4737.318029,1915.238745,11473.192101
1017.841451,-4737.318029,1149.143247,10955.047942
1017.841781,-4071.132681,76.609550,10214.842000
1017.842110,-2738.761985,842.705048,8808.450710
1017.842440,-666.185348,-383.047749,7105.977043
1017.842770,0.000000,-1762.019645,6291.750507
1017.843100,-1998.556043,-1378.971896,7105.977043
1017.843430,-3849.070898,766.095498,8882.471304
1017.843759,-3849.070898,2068.457845,10658.965565
1017.844089,-3108.864956,1991.848295,10807.006753
1017.844419,-1850.514855,612.876398,9770.718434
1017.844749,-222.061783,-306.438199,9326.594869
1017.845078,1480.411884,-995.924147,9474.636058
1017.845408,1776.494261,153.219100,10584.944971
1017.845738,222.061783,1685.410096,11473.192101
1017.846068,-2368.659014,3447.429741,11029.068536
1017.846398,-2812.782580,2145.067394,10881.027347
1017.846727,-2516.700203,229.828649,10955.047942
1017.847057,-2368.659014,-153.219100,10436.903782
1017.847387,-1258.350101,-459.657299,9400.615463
1017.847717,-518.144159,-1915.238745,8364.327145
1017.848046,-1998.556043,-1608.800546,8586.388927
1017.848376,-4293.194464,-612.876398,8734.430116
1017.848706,-4737.318029,-383.047749,8956.491898
1017.849036,-3256.906145,-689.485948,9252.574275
1017.849366,-2294.638420,383.047749,9474.636058
1017.849695,-1406.391290,1149.143247,8660.409521
1017.850025,592.164754,153.219100,7846.182985
1017.850355,2738.761985,0.000000,8290.306550
1017.850685,2738.761985,1302.362347,10436.903782
1017.851014,222.061783,4060.306139,11473.192101
1017.851344,-2220.617826,4749.792088,10510.924376
1017.851674,-1998.556043,2451.505594,10436.903782
1017.852004,-814.226536,383.047749,11325.150913
1017.852334,-296.082377,229.828649,11473.192101
1017.852663,666.185348,689.485948,9844.739029
1017.852993,740.205942,-1072.533697,8364.327145
1017.853323,148.041188,-383.047749,7698.141797
1017.853653,-1258.350101,1149.143247,7476.080014
1017.853982,-666.185348,1532.190996,7476.080014
1017.854312,592.164754,2451.505594,7846.182985
1017.854642,1554.432478,3753.867940,8438.347739
1017.854972,1998.556043,3907.087040,7994.224174
1017.855302,2886.803174,1991.848295,7624.121203
1017.855631,2590.720797,1149.143247,9178.553681
1017.855961,-296.082377,2451.505594,11843.295072
1017.856291,-3552.988522,4826.401637,13323.706956
1017.856621,-5403.503377,4519.963438,12805.562797
1017.856950,-5181.441594,1991.848295,10955.047942
1017.857280,-3701.029710,-612.876398,9548.656652
1017.857610,-1850.514855,-2068.457845,8438.347739
1017.857940,-518.144159,-1838.629195,7624.121203
1017.858270,-518.144159,-383.047749,7402.059420
1017.858599,-2590.720797,766.095498,7550.100608
1017.858929,-4071.132681,2451.505594,8142.265362
1017.859259,-2960.823768,1532.190996,9252.574275
1017.859589,-962.267725,459.657299,10066.800811
1017.859918,296.082377,842.705048,10066.800811
1017.860248,888.247130,1378.971896,9252.574275
1017.860578,1924.535449,-383.047749,8586.388927
1017.860908,1998.556043,-1225.752797,10288.862594
1017.861238,222.061783,459.657299,12731.542202
1017.861567,-2146.597232,3907.087040,13249.686362
1017.861897,-3256.906145,3524.039291,12583.501014
1017.862227,-3182.885551,842.705048,11251.130318
1017.862557,-2368.659014,-1378.971896,10584.944971
1017.862886,-888.247130,-2451.505594,9992.780217
1017.863216,740.205942,-2604.724693,8734.430116
1017.863546,-814.226536,-1302.362347,7772.162391
1017.863876,-4071.132681,536.266849,6439.791695
1017.864206,-5181.441594,229.828649,5699.585753
1017.864535,-3775.050304,-1838.629195,7105.977043
1017.864865,-1850.514855,-1685.410096,9770.718434
1017.865195,-1184.329507,1072.533697,10510.924376
1017.865525,-814.226536,1991.848295,9326.594869
1017.865854,296.082377,383.047749,8660.409521
1017.866184,740.205942,766.095498,9548.656652
1017.866514,296.082377,2451.505594,10362.883188
1017.866844,-666.185348,3370.820191,10881.027347
1017.867174,-666.185348,3294.210641,12361.439231
1017.867503,-1110.308913,2145.067394,12731.542202
1017.867833,-1850.514855,689.485948,11399.171507
1017.868163,-592.164754,-689.485948,9030.512492
1017.868493,1776.494261,-1302.362347,8290.306550
1017.868822,1702.473667,-766.095498,7698.141797
1017.869152,444.123565,842.705048,7550.100608
1017.869482,-518.144159,2451.505594,6587.832884
1017.869812,0.000000,1838.629195,6587.832884
1017.870142,888.247130,2528.115143,7476.080014
1017.870471,2368.659014,4443.353888,8808.450710
1017.870801,2368.659014,3294.210641,9400.615463
1017.871131,1406.391290,2528.115143,10214.842000
1017.871461,-1480.411884,2911.162892,11547.212695
1017.871791,-3849.070898,4136.915689,11991.336260
1017.872120,-5107.421000,3830.477490,12139.377449
1017.872450,-5403.503377,1915.238745,12065.356855
1017.872780,-5477.523971,1225.752797,9992.780217
1017.873110,-3552.988522,-766.095498,8068.244768
1017.873439,-1258.350101,-2374.896044,6883.915261
1017.873769,-592.164754,-1149.143247,7476.080014
1017.874099,-2294.638420,919.314598,7994.224174
1017.874429,-3330.926739,2221.676944,8364.327145
1017.874758,-2960.823768,2528.115143,8512.368333
1017.875088,-1850.514855,2221.676944,8512.368333
1017.875418,0.000000,919.314598,8808.450710
1017.875748,1628.453072,1072.533697,9548.656652
1017.876077,2664.741391,383.047749,9992.780217
1017.876407,1850.514855,229.828649,10658.965565
1017.876737,-888.247130,689.485948,11473.192101
1017.877067,-2368.659014,2681.334243,12657.521608
1017.877396,-2960.823768,2298.286494,12731.542202
1017.877726,-2442.679609,995.924147,12731.542202
1017.878056,-2516.700203,383.047749,11103.089130
1017.878385,-1332.370696,-1149.143247,8956.491898
1017.878715,-222.061783,-3064.381992,7624.121203
1017.879045,-1258.350101,-2987.772442,7105.977043
1017.879375,-2738.761985,-842.705048,8660.409521
1017.879704,-3701.029710,306.438199,8216.285956
1017.880034,-3256.906145,-153.219100,7328.038826
1017.880364,-1776.494261,-1149.143247,7994.224174
1017.880694,74.020594,0.000000,9400.615463
1017.881023,1628.453072,76.609550,9326.594869
1017.881353,1998.556043,919.314598,9548.656652
1017.881683,444.123565,1532.190996,10214.842000
1017.882013,-2072.576638,2298.286494,11399.171507
1017.882342,-3034.844362,1838.629195,12731.542202
1017.882672,-3182.885551,1915.238745,13619.789333
1017.883002,-3627.009116,1455.581446,12509.480420
1017.883332,-2368.659014,0.000000,9992.780217
1017.883661,0.000000,-1072.533697,7994.224174
1017.883991,1702.473667,-2451.505594,6883.915261
1017.884321,1776.494261,-1378.971896,7031.956449
1017.884651,222.061783,919.314598,6735.874072
1017.884980,-296.082377,3983.696590,7031.956449
1017.885310,296.082377,2987.772442,7550.100608
1017.885640,962.267725,2298.286494,8734.430116
1017.885970,1702.473667,3064.381992,9178.553681
1017.886299,1924.535449,2374.896044,9252.574275
1017.886629,1480.411884,2221.676944,9918.759623
1017.886959,-1110.308913,2681.334243,11991.336260
1017.887289,-4071.132681,3294.210641,13101.645173
1017.887618,-5921.647536,3217.601092,12213.398043
1017.887948,-5847.626942,1915.238745,10807.006753
1017.888278,-4885.359217,1225.752797,10288.862594
1017.888608,-3627.009116,689.485948,9030.512492
1017.888937,-2368.659014,0.000000,7402.059420
1017.889267,-1924.535449,-383.047749,6513.812290
1017.889597,-3182.885551,612.876398,6735.874072
1017.889927,-3849.070898,3064.381992,7846.182985
1017.890256,-3330.926739,2604.724693,8512.368333
1017.890586,-2146.597232,1072.533697,8956.491898
1017.890916,-1036.288319,1302.362347,8660.409521
1017.891246,814.226536,1455.581446,7994.224174
1017.891575,2590.720797,459.657299,8586.388927
1017.891905,2368.659014,919.314598,10807.006753
1017.892235,-148.041188,2451.505594,11917.315666
1017.892564,-1998.556043,2987.772442,12287.418637
1017.892894,-2220.617826,1991.848295,11991.336260
1017.893224,-1924.535449,689.485948,12731.542202
1017.893554,-2220.617826,0.000000,11991.336260
1017.893883,-740.205942,-1455.581446,11029.068536
1017.894213,518.144159,-1991.848295,8586.388927
1017.894543,0.000000,-1915.238745,7105.977043
1017.894873,-2294.638420,-1149.143247,5847.626942
1017.895202,-3108.864956,536.266849,6217.729913
1017.895532,-2146.597232,-536.266849,7698.141797
1017.895862,-592.164754,-1685.410096,9474.636058
1017.896192,-444.123565,459.657299,9696.697840
1017.896521,0.000000,1991.848295,9326.594869
1017.896851,1628.453072,-306.438199,9548.656652
1017.897181,1480.411884,-919.314598,10807.006753
1017.897511,148.041188,0.000000,13027.624579
1017.897840,-1850.514855,1762.019645,13619.789333
1017.898170,-2812.782580,2298.286494,13249.686362
1017.898500,-1998.556043,689.485948,11917.315666
1017.898830,-370.102971,-842.705048,10732.986159
1017.899159,2146.597232,-995.924147,8364.327145
1017.899489,3775.050304,-2068.457845,6291.750507
1017.899819,3404.947333,-1302.362347,5921.647536
1017.900149,592.164754,2068.457845,6587.832884
1017.900478,-296.082377,3907.087040,7402.059420
1017.900808,148.041188,1838.629195,8290.306550
1017.901138,370.102971,1838.629195,8882.471304
1017.901468,222.061783,2987.772442,9474.636058
1017.901797,1406.391290,1685.410096,9400.615463
1017.902127,518.144159,153.219100,10510.924376
1017.902457,-2516.700203,1378.971896,11991.336260
1017.902787,-4737.318029,3140.991542,12953.603985
1017.903116,-5403.503377,3294.210641,12435.459826
1017.903446,-5255.462188,2911.162892,10955.047942
1017.903776,-4959.379811,1991.848295,9326.594869
1017.904106,-3182.885551,842.705048,8364.327145
1017.904435,-1036.288319,-459.657299,6661.853478
1017.904765,74.020594,229.828649,6809.894666
1017.905095,-1184.329507,2221.676944,7328.038826
1017.905425,-3182.885551,3447.429741,7402.059420
1017.905754,-3182.885551,2145.067394,8438.347739
1017.906084,-1924.535449,2145.067394,9178.553681
1017.906414,-666.185348,2681.334243,9474.636058
1017.906743,962.267725,2145.067394,9326.594869
1017.907073,2146.597232,995.924147,9474.636058
1017.907403,1628.453072,1072.533697,9474.636058
1017.907733,-518.144159,995.924147,10658.965565
1017.908062,-2368.659014,2604.724693,12065.356855
1017.908392,-3701.029710,3907.087040,13101.645173
1017.908722,-4737.318029,2451.505594,11917.315666
1017.909052,-4145.153275,1225.752797,10732.986159
1017.909381,-2072.576638,-689.485948,8808.450710
1017.909711,518.144159,-2834.553343,7476.080014
1017.910041,0.000000,-3447.429741,7179.997637
1017.910371,-2442.679609,-766.095498,7254.018232
1017.910700,-3849.070898,1608.800546,7550.100608
1017.911030,-3108.864956,0.000000,8364.327145
1017.911360,-888.247130,-536.266849,9770.718434
1017.911690,444.123565,919.314598,9918.759623
1017.912019,1998.556043,689.485948,9326.594869
1017.912349,3108.864956,-229.828649,8734.430116
1017.912679,1998.556043,306.438199,9770.718434
1017.913009,-296.082377,383.047749,12435.459826
1017.913338,-2294.638420,1378.971896,13989.892304
1017.913668,-3034.844362,2068.457845,13915.871710
1017.913998,-3034.844362,612.876398,12287.418637
1017.914328,-888.247130,-1072.533697,10140.821405
1017.914657,1332.370696,-2145.067394,8364.327145
1017.914987,2738.761985,-2911.162892,7402.059420
1017.915317,1998.556043,-1762.019645,7698.141797
1017.915647,0.000000,2298.286494,7772.162391
1017.915976,-1480.411884,4366.744339,6883.915261
1017.916306,-296.082377,1455.581446,7550.100608
1017.916636,888.247130,689.485948,8142.265362
1017.916966,1702.473667,1838.629195,8290.306550
1017.917295,2442.679609,612.876398,8142.265362
1017.917625,1850.514855,383.047749,9104.533087
1017.917955,-1628.453072,1685.410096,10807.006753
1017.918285,-3923.091493,2604.724693,12509.480420
1017.918614,-3849.070898,2911.162892,12953.603985
1017.918944,-3256.906145,2221.676944,11991.336260
1017.919274,-2738.761985,1838.629195,10584.944971
1017.919604,-2590.720797,689.485948,9474.636058
1017.919933,-962.267725,-383.047749,8734.430116
1017.920263,-592.164754,459.657299,8364.327145
1017.920593,-2146.597232,2221.676944,7920.203579
1017.920922,-3923.091493,2374.896044,6809.894666
1017.921252,-2664.741391,1685.410096,6513.812290
1017.921582,-1110.308913,766.095498,6957.935855
1017.921912,296.082377,229.828649,7328.038826
1017.922241,1406.391290,1378.971896,8586.388927
1017.922571,1628.453072,2451.505594,9696.697840
1017.922901,74.020594,2528.115143,11029.068536
1017.923231,-2368.659014,2987.772442,11251.130318
1017.923560,-3330.926739,3524.039291,12065.356855
1017.923890,-2738.761985,1532.190996,13249.686362
1017.924220,-3404.947333,995.924147,13989.892304
1017.924550,-4367.215058,842.705048,12213.398043
1017.924879,-3034.844362,-306.438199,9400.615463
1017.925209,-1480.411884,-2221.676944,6513.812290
1017.925539,-1184.329507,-2528.115143,5551.544565
1017.925869,-1850.514855,0.000000,5773.606348
1017.926198,-2146.597232,-383.047749,6735.874072
1017.926528,-1924.535449,919.314598,8438.347739
1017.926858,-2072.576638,1838.629195,9474.636058
1017.927188,-1480.411884,2145.067394,9770.718434
1017.927517,962.267725,842.705048,9474.636058
1017.927847,2664.741391,0.000000,10066.800811
1017.928177,2146.597232,229.828649,10066.800811
1017.928507,444.123565,306.438199,10436.903782
1017.928836,-1332.370696,-153.219100,12657.521608
1017.929166,-2368.659014,1455.581446,14804.118840
1017.929496,-3478.967927,1302.362347,14434.015869
1017.929826,-2368.659014,-153.219100,11769.274478
1017.930155,148.041188,-1532.190996,8438.347739
1017.930485,2960.823768,-2834.553343,7105.977043
1017.930815,3108.864956,-2757.943793,7328.038826
1017.931145,1184.329507,229.828649,7179.997637
1017.931474,-370.102971,3370.820191,6883.915261
1017.931804,222.061783,2987.772442,7772.162391
1017.932134,1184.329507,1991.848295,8290.306550
1017.932464,1924.535449,2681.334243,7920.203579
1017.932793,2590.720797,612.876398,7476.080014
1017.933123,2590.720797,0.000000,9104.533087
1017.933453,444.123565,2451.505594,12213.398043
1017.933783,-3330.926739,3830.477490,13693.809927
1017.934112,-5551.544565,3064.381992,12509.480420
1017.934442,-5699.585753,1608.800546,11325.150913
1017.934772,-4367.215058,383.047749,10881.027347
1017.935101,-1776.494261,919.314598,9696.697840
1017.935431,222.061783,0.000000,7698.141797
1017.935761,1258.350101,-919.314598,6809.894666
1017.936091,-222.061783,536.266849,6439.791695
1017.936420,-1998.556043,2911.162892,7476.080014
1017.936750,-2368.659014,4060.306139,7994.224174
1017.937080,-1628.453072,2911.162892,8734.430116
1017.937410,-666.185348,3294.210641,9326.594869
1017.937739,740.205942,1838.629195,9030.512492
1017.938069,1776.494261,0.000000,8808.450710
1017.938399,814.226536,306.438199,10510.924376
1017.938729,-2294.638420,1838.629195,12287.418637
1017.939058,-5107.421000,3753.867940,12879.583391
1017.939388,-5403.503377,3677.258390,11843.295072
1017.939718,-4293.194464,1455.581446,11177.109724
1017.940048,-2664.741391,-383.047749,10214.842000
1017.940377,-1332.370696,-1302.362347,8660.409521
1017.940707,0.000000,-1685.410096,7254.018232
1017.941037,-814.226536,-1685.410096,7476.080014
1017.941367,-3330.926739,383.047749,7402.059420
1017.941696,-4589.276840,2374.896044,7994.224174
1017.942026,-2812.782580,153.219100,9252.574275
1017.942356,-814.226536,-229.828649,9844.739029
1017.942686,0.000000,1225.752797,9326.594869
1017.943015,1332.370696,766.095498,8364.327145
1017.943345,2664.741391,-306.438199,9252.574275
1017.943675,1628.453072,612.876398,10658.965565
1017.944005,-814.226536,2451.505594,11621.233289
1017.944334,-2442.679609,2221.676944,12509.480420
1017.944664,-2664.741391,1685.410096,12805.562797
1017.944994,-3256.906145,229.828649,12213.398043
1017.945324,-2516.700203,-1302.362347,11547.212695
1017.945653,74.020594,-1685.410096,9548.656652
1017.945983,1184.329507,-2374.896044,7994.224174
1017.946313,518.144159,-1838.629195,6661.853478
1017.946643,0.000000,306.438199,6291.750507
1017.946972,222.061783,1838.629195,6883.915261
1017.947302,1480.411884,1991.848295,7994.224174
1017.947632,2294.638420,2528.115143,8660.409521
1017.947961,1628.453072,3600.648841,8364.327145
1017.948291,2294.638420,1991.848295,8290.306550
1017.948621,2442.679609,689.485948,10436.903782
1017.948951,222.061783,1915.238745,11991.336260
1017.949280,-2442.679609,2298.286494,12583.501014
1017.949610,-3997.112087,1608.800546,12065.356855
1017.949940,-4515.256246,306.438199,11843.295072
1017.950270,-3923.091493,-306.438199,11177.109724
1017.950599,-2442.679609,76.609550,9992.780217
1017.950929,0.000000,-383.047749,8216.285956
1017.951259,814.226536,0.000000,6661.853478
1017.951589,222.061783,919.314598,6291.750507
1017.951918,-592.164754,2451.505594,6735.874072
1017.952248,-888.247130,2757.943793,7105.977043
1017.952578,0.000000,2451.505594,8512.368333
1017.952908,-666.185348,3217.601092,9400.615463
1017.953237,148.041188,2604.724693,10140.821405
1017.953567,370.102971,919.314598,9770.718434
1017.953897,-666.185348,919.314598,9770.718434
1017.954227,-2146.597232,1149.143247,12139.377449
1017.954556,-3478.967927,1225.752797,13767.830521
1017.954886,-5033.400406,1378.971896,13693.809927
1017.955216,-5847.626942,1378.971896,11991.336260
1017.955546,-4663.297435,766.095498,10066.800811
1017.955875,-2220.617826,229.828649,7624.121203
1017.956205,370.102971,306.438199,5255.462188
1017.956535,1184.329507,-1991.848295,5181.441594
1017.956865,-444.123565,-1225.752797,6883.915261
1017.957194,-2812.782580,2221.676944,8068.244768
1017.957524,-3775.050304,2298.286494,9696.697840
1017.957854,-2664.741391,1072.533697,10807.006753
1017.958184,-1332.370696,1072.533697,10955.047942
1017.958513,1110.308913,919.314598,9844.739029
1017.958843,3034.844362,-1378.971896,8586.388927
1017.959173,2220.617826,-1608.800546,9770.718434
1017.959503,-444.123565,1302.362347,12213.398043
1017.959832,-2220.617826,2757.943793,13619.789333
1017.960162,-2886.803174,1915.238745,12879.583391
1017.960492,-2886.803174,1455.581446,10658.965565
1017.960822,-1110.308913,0.000000,9252.574275
1017.961151,1480.411884,-2298.286494,7994.224174
1017.961481,2368.659014,-2911.162892,7105.977043
1017.961811,592.164754,-766.095498,7994.224174
1017.962140,-1184.329507,1685.410096,7624.121203
1017.962470,-2294.638420,2221.676944,7772.162391
1017.962800,-1110.308913,1149.143247,7920.203579
1017.963130,518.144159,842.705048,8512.368333
1017.963459,2294.638420,1762.019645,9178.553681
1017.963789,3478.967927,1991.848295,9326.594869
1017.964119,2590.720797,1455.581446,10214.842000
1017.964449,370.102971,1685.410096,11843.295072
1017.964778,-3108.864956,3140.991542,12361.439231
1017.965108,-3775.050304,2911.162892,12657.521608
1017.965438,-2960.823768,1915.238745,11917.315666
1017.965768,-2146.597232,842.705048,10955.047942
1017.966097,-740.205942,0.000000,8882.471304
1017.966427,740.205942,-1455.581446,7105.977043
1017.966757,962.267725,-1608.800546,6365.771101
1017.967087,0.000000,1225.752797,7105.977043
1017.967416,-1850.514855,3294.210641,7402.059420
1017.967746,-1702.473667,3600.648841,7105.977043
1017.968076,0.000000,1838.629195,7550.100608
1017.968406,888.247130,1225.752797,8438.347739
1017.968735,1924.535449,1991.848295,9474.636058
1017.969065,1332.370696,2451.505594,10362.883188
1017.969395,-222.061783,1991.848295,11547.212695
1017.969725,-2738.761985,2528.115143,12879.583391
1017.970054,-4663.297435,2757.943793,13027.624579
1017.970384,-4737.318029,1838.629195,12361.439231
1017.970714,-4737.318029,1072.533697,11547.212695
1017.971044,-4293.194464,306.438199,10066.800811
1017.971373,-2146.597232,-612.876398,8142.265362
1017.971703,-740.205942,-1915.238745,5921.647536
1017.972033,-444.123565,-1149.143247,5699.585753
1017.972363,-1776.494261,0.000000,6883.915261
1017.972692,-2516.700203,1149.143247,7550.100608
1017.973022,-2590.720797,612.876398,8512.368333
1017.973352,-1998.556043,689.485948,9548.656652
1017.973682,-444.123565,1302.362347,10584.944971
1017.974011,1332.370696,1685.410096,10658.965565
1017.974341,1998.556043,766.095498,10436.903782
1017.974671,814.226536,76.609550,10658.965565
1017.975001,-740.205942,689.485948,11547.212695
1017.975330,-1924.535449,1532.190996,12953.603985
1017.975660,-2368.659014,1378.971896,13693.809927
1017.975989,-3256.906145,842.705048,12583.501014
1017.976319,-2738.761985,0.000000,9918.759623
1017.976649,-444.123565,-2145.067394,7920.203579
1017.976978,1628.453072,-3140.991542,7254.018232
1017.977308,814.226536,-1991.848295,7254.018232
1017.977637,-1850.514855,306.438199,6661.853478
1017.977967,-2664.741391,1762.019645,6957.935855
1017.978297,-1850.514855,1149.143247,7624.121203
1017.978626,-296.082377,1378.971896,8586.388927
1017.978956,1628.453072,1685.410096,8808.450710
1017.979285,3256.906145,1225.752797,8512.368333
1017.979615,3034.844362,842.705048,9844.739029
1017.979945,814.226536,1149.143247,11843.295072
1017.980274,-2368.659014,2757.943793,13471.748144
1017.980604,-4367.215058,3983.696590,13545.768739
1017.980933,-4145.153275,2451.505594,12953.603985
1017.981263,-2368.659014,919.314598,11843.295072
1017.981593,-296.082377,0.000000,9178.553681
1017.981922,1850.514855,-1838.629195,5921.647536
1017.982252,2368.659014,-2068.457845,4885.359217
1017.982581,740.205942,1532.190996,5477.523971
1017.982911,-222.061783,3983.696590,6069.688724
1017.983241,-1110.308913,3294.210641,7254.018232
1017.983570,-1036.288319,2911.162892,8068.244768
1017.983900,-962.267725,2911.162892,9252.574275
1017.984229,518.144159,1991.848295,9918.759623
1017.984559,1480.411884,1225.752797,11103.089130
1017.984889,296.082377,306.438199,13175.665768
1017.985218,-3182.885551,1915.238745,13841.851115
1017.985548,-5995.668130,4136.915689,12583.501014
1017.985877,-5847.626942,3140.991542,10658.965565
1017.986207,-3997.112087,1225.752797,9474.636058
1017.986537,-2368.659014,-153.219100,8660.409521
1017.986866,-1184.329507,-1149.143247,7402.059420
1017.987196,-444.123565,-1378.971896,6069.688724
1017.987525,-962.267725,-459.657299,6661.853478
1017.987855,-2664.741391,919.314598,7624.121203
1017.988185,-2960.823768,1149.143247,7994.224174
1017.988514,-2368.659014,153.219100,9030.512492
1017.988844,-1110.308913,689.485948,9696.697840
1017.989173,0.000000,1225.752797,9548.656652
1017.989503,1628.453072,229.828649,9696.697840
1017.989833,1850.514855,-1455.581446,11029.068536
1017.990162,-518.144159,229.828649,13101.645173
1017.990492,-3182.885551,2604.724693,12879.583391
1017.990821,-3849.070898,1838.629195,11695.253884
1017.991151,-3330.926739,612.876398,11103.089130
1017.991481,-2072.576638,-306.438199,10881.027347
1017.991810,-592.164754,-1532.190996,9696.697840
1017.992140,1406.391290,-2374.896044,8068.244768
1017.992470,1332.370696,-2145.067394,7328.038826
1017.992799,-1110.308913,-459.657299,7846.182985
1017.993129,-3256.906145,919.314598,7994.224174
1017.993458,-2664.741391,1685.410096,8586.388927
1017.993788,-666.185348,689.485948,9104.533087
1017.994118,0.000000,919.314598,9178.553681
1017.994447,592.164754,842.705048,8734.430116
1017.994777,1702.473667,-919.314598,9474.636058
1017.995106,1332.370696,-459.657299,10584.944971
1017.995436,-666.185348,1838.629195,12213.398043
1017.995766,-2146.597232,2987.772442,12435.459826
1017.996095,-2590.720797,2451.505594,11843.295072
1017.996425,-1924.535449,1532.190996,11399.171507
1017.996754,-814.226536,1072.533697,9770.718434
1017.997084,962.267725,919.314598,9178.553681
1017.997414,2442.679609,536.266849,7476.080014
1017.997743,1776.494261,153.219100,6439.791695
1017.998073,-296.082377,536.266849,6513.812290
1017.998402,-592.164754,2221.676944,6883.915261
1017.998732,222.061783,2298.286494,7994.224174
1017.999062,-222.061783,3064.381992,8438.347739
1017.999391,-666.185348,3600.648841,8660.409521
1017.999721,222.061783,2068.457845,9400.615463
1018.000050,1258.350101,842.705048,10066.800811
1018.000380,0.000000,1762.019645,11325.150913
1018.000710,-2960.823768,3600.648841,12213.398043
1018.001039,-4441.235652,4290.134789,12139.377449
1018.001369,-4737.318029,2757.943793,11325.150913
1018.001698,-4293.194464,1302.362347,10584.944971
1018.002028,-3108.864956,612.876398,8956.491898
1018.002358,-1406.391290,0.000000,7698.141797
1018.002687,0.000000,229.828649,7031.956449
1018.003017,-962.267725,-612.876398,7031.956449
1018.003346,-2220.617826,0.000000,7105.977043
1018.003676,-2442.679609,1685.410096,7328.038826
1018.004006,-2960.823768,1915.238745,8586.388927
1018.004335,-1702.473667,1762.019645,10140.821405
1018.004665,-592.164754,1608.800546,10510.924376
1018.004994,814.226536,919.314598,9252.574275
1018.005324,1332.370696,-1838.629195,9104.533087
1018.005654,296.082377,-689.485948,11695.253884
1018.005983,-1998.556043,2451.505594,13323.706956
1018.006313,-3701.029710,3064.381992,13101.645173
1018.006642,-3849.070898,1378.971896,11843.295072
1018.006972,-3552.988522,459.657299,10584.944971
1018.007302,-2294.638420,-1149.143247,9770.718434
1018.007631,0.000000,-2068.457845,8364.327145
1018.007961,74.020594,-2374.896044,7476.080014
1018.008290,-1184.329507,-229.828649,7550.100608
1018.008620,-2072.576638,536.266849,7624.121203
1018.008950,-2368.659014,0.000000,7254.018232
1018.009279,-1110.308913,153.219100,8660.409521
1018.009609,-666.185348,153.219100,9770.718434
1018.009939,370.102971,1149.143247,9918.759623
1018.010268,1480.411884,1072.533697,9548.656652
1018.010598,1998.556043,-229.828649,10214.842000
1018.010927,296.082377,0.000000,11843.295072
1018.011257,-2146.597232,2145.067394,13101.645173
1018.011587,-2590.720797,3217.601092,13027.624579
1018.011916,-2072.576638,2298.286494,12287.418637
1018.012246,-1184.329507,1072.533697,10881.027347
1018.012575,444.123565,842.705048,7994.224174
1018.012905,2368.659014,-1302.362347,5995.668130
1018.013235,3182.885551,-1838.629195,5773.606348
1018.013564,1184.329507,612.876398,6661.853478
1018.013894,-1036.288319,3140.991542,7105.977043
1018.014223,-1554.432478,3370.820191,7846.182985
1018.014553,-666.185348,1378.971896,8734.430116
1018.014883,592.164754,1225.752797,10288.862594
1018.015212,1924.535449,2451.505594,10436.903782
1018.015542,1628.453072,2528.115143,9326.594869
1018.015871,-148.041188,2911.162892,9030.512492
1018.016201,-1776.494261,2911.162892,10436.903782
1018.016531,-3404.947333,2681.334243,12139.377449
1018.016860,-4663.297435,2604.724693,12879.583391
1018.017190,-5033.400406,1762.019645,11843.295072
1018.017519,-3997.112087,1378.971896,10658.965565
1018.017849,-1628.453072,-459.657299,8216.285956
1018.018179,148.041188,-2298.286494,6661.853478
1018.018508,370.102971,-2298.286494,7105.977043
1018.018838,-1480.411884,1225.752797,8068.244768
1018.019167,-2590.720797,4290.134789,8586.388927
1018.019497,-1998.556043,2528.115143,8808.450710
1018.019827,-1184.329507,995.924147,8364.327145
1018.020156,0.000000,766.095498,8660.409521
1018.020486,1036.288319,766.095498,9252.574275
1018.020815,1776.494261,612.876398,10732.986159
1018.021145,-148.041188,1302.362347,11769.274478
1018.021475,-3627.009116,2221.676944,11843.295072
1018.021804,-5033.400406,995.924147,12065.356855
1018.022134,-4663.297435,0.000000,12805.562797
1018.022463,-3923.091493,459.657299,12065.356855
1018.022793,-3108.864956,0.000000,9622.677246
1018.023123,-1184.329507,-1685.410096,7402.059420
1018.023452,0.000000,-2757.943793,7254.018232
1018.023782,-444.123565,-1532.190996,7624.121203
1018.024111,-2146.597232,689.485948,7624.121203
1018.024441,-2664.741391,1915.238745,7402.059420
1018.024771,-1628.453072,536.266849,8068.244768
1018.025100,370.102971,153.219100,9326.594869
1018.025430,1776.494261,153.219100,9474.636058
1018.025759,2664.741391,766.095498,8734.430116
1018.026089,2442.679609,-153.219100,9474.636058
1018.026419,222.061783,0.000000,12287.418637
1018.026748,-2146.597232,1991.848295,14063.912898
1018.027078,-4293.194464,2834.553343,13841.851115
1018.027407,-3997.112087,1608.800546,12139.377449
1018.027737,-2516.700203,536.266849,11251.130318
1018.028067,0.000000,-536.266849,8956.491898
1018.028396,2294.638420,-2451.505594,6809.894666
1018.028726,2738.761985,-2911.162892,5773.606348
1018.029056,666.185348,383.047749,5625.565159
1018.029385,-518.144159,3677.258390,6439.791695
1018.029715,-296.082377,2911.162892,8068.244768
1018.030044,444.123565,2221.676944,8956.491898
1018.030374,148.041188,2604.724693,9104.533087
1018.030704,1406.391290,2681.334243,9252.574275
1018.031033,2072.576638,1225.752797,10214.842000
1018.031363,592.164754,1455.581446,12361.439231
1018.031692,-2368.659014,1991.848295,12953.603985
1018.032022,-4071.132681,3217.601092,12287.418637
1018.032352,-4441.235652,2068.457845,11325.150913
1018.032681,-3478.967927,1838.629195,10881.027347
1018.033011,-2368.659014,689.485948,10214.842000
1018.033340,-962.267725,842.705048,7550.100608
1018.033670,444.123565,306.438199,6513.812290
1018.034000,222.061783,0.000000,6513.812290
1018.034329,-1702.473667,1991.848295,6661.853478
1018.034659,-3404.947333,2757.943793,7402.059420
1018.034988,-3034.844362,1225.752797,8808.450710
1018.035318,-2146.597232,1608.800546,9696.697840
1018.035648,-1258.350101,2451.505594,9474.636058
1018.035977,370.102971,1378.971896,8808.450710
1018.036307,1036.288319,-153.219100,9326.594869
1018.036636,-222.061783,919.314598,10658.965565
1018.036966,-2072.576638,2528.115143,11251.130318
1018.037296,-3849.070898,2451.505594,11843.295072
1018.037625,-4515.256246,1915.238745,12213.398043
1018.037955,-5181.441594,995.924147,12139.377449
1018.038284,-3997.112087,-306.438199,11029.068536
1018.038614,-962.267725,-1915.238745,8586.388927
1018.038944,0.000000,-3217.601092,6513.812290
1018.039273,-814.226536,-2145.067394,5995.668130
1018.039603,-2146.597232,-689.485948,7105.977043
1018.039932,-2220.617826,689.485948,8216.285956
1018.040262,-1332.370696,1225.752797,9474.636058
1018.040592,74.020594,1915.238745,9918.759623
1018.040921,888.247130,2528.115143,9770.718434
1018.041251,1850.514855,1378.971896,9474.636058
1018.041580,1850.514855,0.000000,10881.027347
1018.041910,-444.123565,383.047749,12953.603985
1018.042240,-3034.844362,2221.676944,13619.789333
1018.042569,-4959.379811,1455.581446,12657.521608
1018.042899,-4441.235652,-383.047749,11917.315666
1018.043228,-3108.864956,-1225.752797,10807.006753
1018.043558,-148.041188,-1302.362347,8808.450710
1018.043888,2368.659014,-2374.896044,6587.832884
1018.044217,3108.864956,-1838.629195,5477.523971
1018.044547,1998.556043,995.924147,6809.894666
1018.044876,962.267725,2757.943793,7328.038826
1018.045206,444.123565,2911.162892,7698.141797
1018.045536,370.102971,3370.820191,7105.977043
1018.045865,370.102971,3830.477490,7402.059420
1018.046195,2146.597232,1149.143247,9030.512492
1018.046525,2368.659014,-306.438199,10807.006753
1018.046854,-592.164754,306.438199,12065.356855
1018.047184,-3478.967927,2145.067394,13027.624579
1018.047513,-4515.256246,2757.943793,12879.583391
1018.047843,-3108.864956,1608.800546,12139.377449
1018.048173,-2220.617826,153.219100,11029.068536
1018.048502,-1036.288319,459.657299,9252.574275
1018.048832,666.185348,1225.752797,7698.141797
1018.049161,2516.700203,1225.752797,7698.141797
1018.049491,1850.514855,1225.752797,7846.182985
1018.049821,-1036.288319,2528.115143,6809.894666
1018.050150,-2516.700203,2451.505594,6439.791695
1018.050480,-1258.350101,995.924147,7994.224174
1018.050809,-592.164754,1455.581446,9696.697840
1018.051139,-962.267725,1532.190996,9696.697840
1018.051469,-592.164754,842.705048,9548.656652
1018.051798,-444.123565,-383.047749,9992.780217
1018.052128,-1332.370696,459.657299,12361.439231
1018.052457,-3627.009116,2604.724693,13175.665768
1018.052787,-5033.400406,3064.381992,11917.315666
1018.053117,-4737.318029,1532.190996,11325.150913
1018.053446,-3701.029710,153.219100,10732.986159
1018.053776,-2294.638420,459.657299,9844.739029
1018.054105,-666.185348,-1072.533697,7624.121203
1018.054435,-592.164754,-2451.505594,6217.729913
1018.054765,-1258.350101,-306.438199,6513.812290
1018.055094,-2516.700203,919.314598,7402.059420
1018.055424,-1554.432478,459.657299,8660.409521
1018.055753,-1036.288319,689.485948,9252.574275
1018.056083,-1184.329507,2681.334243,9622.677246
1018.056413,444.123565,2451.505594,9474.636058
1018.056742,2220.617826,1608.800546,9548.656652
1018.057072,2294.638420,536.266849,9178.553681
1018.057401,74.020594,0.000000,10881.027347
1018.057731,-2738.761985,536.266849,12879.583391
1018.058061,-4515.256246,2451.505594,14137.933492
1018.058390,-4515.256246,842.705048,13027.624579
1018.058720,-4071.132681,-536.266849,11029.068536
1018.059049,-1702.473667,-459.657299,8660.409521
1018.059379,1554.432478,-2374.896044,6587.832884
1018.059709,2886.803174,-3370.820191,5995.668130
1018.060038,1850.514855,383.047749,6143.709319
1018.060368,-222.061783,4136.915689,6809.894666
1018.060697,-296.082377,3140.991542,7624.121203
1018.061027,74.020594,2528.115143,9400.615463
1018.061357,740.205942,3370.820191,9992.780217
1018.061686,2072.576638,1991.848295,9622.677246
1018.062016,2664.741391,229.828649,9770.718434
1018.062345,1110.308913,229.828649,11325.150913
1018.062675,-1554.432478,1302.362347,12435.459826
1018.063005,-3701.029710,1838.629195,12435.459826
1018.063334,-3256.906145,2068.457845,11399.171507
1018.063664,-2516.700203,1608.800546,10732.986159
1018.063994,-1036.288319,1302.362347,9548.656652
1018.064323,814.226536,536.266849,7846.182985
1018.064653,1702.473667,-919.314598,6661.853478
1018.064982,296.082377,306.438199,6587.832884
1018.065312,-2072.576638,2451.505594,7698.141797
1018.065642,-2886.803174,3447.429741,8734.430116
1018.065971,-3034.844362,2221.676944,8586.388927
1018.066301,-2072.576638,1225.752797,9030.512492
1018.066630,-592.164754,995.924147,9622.677246
1018.066960,666.185348,1378.971896,9992.780217
1018.067290,518.144159,76.609550,10584.944971
1018.067619,-888.247130,842.705048,11251.130318
1018.067949,-2886.803174,2681.334243,11917.315666
1018.068278,-4071.132681,2987.772442,11843.295072
1018.068608,-3701.029710,1838.629195,11473.192101
1018.068938,-3330.926739,1685.410096,10436.903782
1018.069267,-1850.514855,612.876398,8956.491898
1018.069597,370.102971,-1685.410096,7179.997637
1018.069926,888.247130,-2221.676944,6513.812290
1018.070256,-1554.432478,-459.657299,6957.935855
1018.070586,-3108.864956,766.095498,7772.162391
1018.070915,-3330.926739,1762.019645,7994.224174
1018.071245,-2072.576638,1378.971896,9844.739029
1018.071574,-666.185348,842.705048,10584.944971
1018.071904,222.061783,1838.629195,10658.965565
1018.072234,1628.453072,766.095498,10658.965565
1018.072563,1258.350101,-919.314598,11473.192101
1018.072893,-1184.329507,1072.533697,12361.439231
1018.073222,-3849.070898,2987.772442,11991.336260
1018.073552,-3923.091493,1225.752797,11473.192101
1018.073882,-2368.659014,383.047749,10510.924376
1018.074213,-1702.473667,229.828649,9548.656652
1018.074543,148.041188,-995.924147,7920.203579
1018.074872,1850.514855,-2145.067394,6513.812290
1018.075202,1628.453072,-1072.533697,6957.935855
1018.075531,370.102971,76.609550,8438.347739
1018.075861,-1036.288319,2451.505594,9326.594869
1018.076190,-1258.350101,3140.991542,8956.491898
1018.076520,-518.144159,1838.629195,8364.327145
1018.076849,814.226536,1455.581446,8438.347739
1018.077179,1924.535449,1225.752797,9030.512492
1018.077508,2590.720797,0.000000,9918.759623
1018.077838,740.205942,536.266849,11103.089130
1018.078168,-2368.659014,2298.286494,11621.233289
1018.078497,-3478.967927,2757.943793,11917.315666
1018.078827,-2368.659014,1149.143247,11695.253884
1018.079156,-1332.370696,1072.533697,11103.089130
1018.079486,0.000000,842.705048,9622.677246
1018.079815,1258.350101,612.876398,7920.203579
1018.080145,1850.514855,536.266849,7105.977043
1018.080474,666.185348,0.000000,7031.956449
1018.080804,-444.123565,1378.971896,7624.121203
1018.081134,-962.267725,2834.553343,8586.388927
1018.081463,-666.185348,1532.190996,9030.512492
1018.081793,-666.185348,995.924147,9474.636058
1018.082122,-296.082377,1455.581446,9844.739029
1018.082452,1480.411884,459.657299,10658.965565
1018.082781,814.226536,0.000000,11399.171507
1018.083111,-1184.329507,1608.800546,12139.377449
1018.083440,-3034.844362,2834.553343,12065.356855
1018.083770,-3849.070898,1762.019645,11621.233289
1018.084099,-3701.029710,1072.533697,10732.986159
1018.084429,-3182.885551,1225.752797,9622.677246
1018.084759,-1258.350101,0.000000,8364.327145
1018.085088,74.020594,-766.095498,6661.853478
1018.085418,0.000000,-1149.143247,6143.709319
1018.085747,-1924.535449,-919.314598,6883.915261
1018.086077,-3330.926739,766.095498,7624.121203
1018.086406,-3627.009116,919.314598,8808.450710
1018.086736,-2812.782580,919.314598,10140.821405
1018.087065,-1702.473667,536.266849,10658.965565
1018.087395,-444.123565,766.095498,10288.862594
1018.087725,1258.350101,0.000000,9474.636058
1018.088054,1036.288319,-306.438199,10066.800811
1018.088384,-296.082377,995.924147,12361.439231
1018.088713,-2516.700203,2604.724693,12657.521608
1018.089043,-3256.906145,2298.286494,11399.171507
1018.089372,-2664.741391,383.047749,10436.903782
1018.089702,-1924.535449,-612.876398,9622.677246
1018.090031,-296.082377,-689.485948,8660.409521
1018.090361,592.164754,-1532.190996,7846.182985
1018.090691,296.082377,-1072.533697,7772.162391
1018.091020,-1702.473667,612.876398,7698.141797
1018.091350,-2738.761985,1225.752797,7920.203579
1018.091679,-1998.556043,1225.752797,8586.388927
1018.092009,-1184.329507,1378.971896,9622.677246
1018.092338,-74.020594,1608.800546,10288.862594
1018.092668,1110.308913,2145.067394,10066.800811
1018.092997,2146.597232,1838.629195,10066.800811
1018.093327,888.247130,1225.752797,9844.739029
1018.093656,-444.123565,1915.238745,11029.068536
1018.093986,-1480.411884,2528.115143,11399.171507
1018.094316,-1184.329507,2451.505594,10732.986159
1018.094645,-1480.411884,1455.581446,10436.903782
1018.094975,-814.226536,1378.971896,9252.574275
1018.095304,1036.288319,1149.143247,8586.388927
1018.095634,2220.617826,0.000000,7402.059420
1018.095963,1406.391290,306.438199,6957.935855
1018.096293,-444.123565,1762.019645,6883.915261
1018.096622,-1554.432478,2681.334243,7402.059420
1018.096952,-1110.308913,2068.457845,8808.450710
1018.097282,-1258.350101,1838.629195,9844.739029
1018.097611,-1036.288319,2604.724693,9844.739029
1018.097941,74.020594,1225.752797,9104.533087
1018.098270,740.205942,306.438199,9548.656652
1018.098600,-444.123565,1072.533697,10732.986159
1018.098929,-2442.679609,1915.238745,11843.295072
1018.099259,-4145.153275,2451.505594,11547.212695
1018.099588,-4293.194464,1915.238745,10658.965565
1018.099918,-3330.926739,1685.410096,10510.924376
1018.100247,-740.205942,0.000000,9474.636058
1018.100577,740.205942,-1149.143247,7550.100608
1018.100907,296.082377,-2145.067394,6735.874072
1018.101236,-1998.556043,-1302.362347,8068.244768
1018.101566,-3478.967927,1225.752797,9548.656652
1018.101895,-4293.194464,2145.067394,9918.759623
1018.102225,-3330.926739,536.266849,10214.842000
1018.102554,-1554.432478,-689.485948,10214.842000
1018.102884,370.102971,0.000000,9474.636058
1018.103213,2368.659014,-383.047749,9030.512492
1018.103543,2294.638420,-383.047749,9844.739029
1018.103873,148.041188,1072.533697,11325.150913
1018.104202,-2368.659014,3524.039291,12065.356855
1018.104532,-3182.885551,2987.772442,11991.336260
1018.104861,-3256.906145,842.705048,11769.274478
1018.105191,-2812.782580,76.609550,11251.130318
1018.105520,-2072.576638,-995.924147,9770.718434
1018.105850,-888.247130,-2834.553343,8438.347739
1018.106179,-888.247130,-2834.553343,7994.224174
1018.106509,-2960.823768,-842.705048,7328.038826
1018.106839,-4219.173869,1302.362347,6513.812290
1018.107168,-3478.967927,1302.362347,6661.853478
1018.107498,-1924.535449,459.657299,7920.203579
1018.107827,-1184.329507,2068.457845,9992.780217
1018.108157,-888.247130,2757.943793,9622.677246
1018.108486,-148.041188,2374.896044,8956.491898
1018.108816,-148.041188,1762.019645,9548.656652
1018.109145,-1480.411884,2145.067394,10881.027347
1018.109475,-2590.720797,2298.286494,11843.295072
1018.109804,-3997.112087,1608.800546,11399.171507
1018.110134,-5033.400406,1225.752797,11547.212695
1018.110464,-4737.318029,1378.971896,11473.192101
1018.110793,-3330.926739,536.266849,10214.842000
1018.111123,-740.205942,-229.828649,7846.182985
1018.111452,0.000000,-842.705048,5403.503377
1018.111782,-444.123565,0.000000,5329.482782
1018.112111,-888.247130,1991.848295,7179.997637
1018.112441,-2072.576638,2681.334243,9030.512492
1018.112770,-2812.782580,3830.477490,10362.883188
1018.113100,-3627.009116,3983.696590,10510.924376
1018.113430,-2220.617826,2681.334243,10732.986159
1018.113759,-1554.432478,689.485948,10140.821405
1018.114089,-2368.659014,229.828649,10066.800811
1018.114418,-4219.173869,1608.800546,10732.986159
1018.114748,-6365.771101,1762.019645,12361.439231
1018.115077,-8586.388927,2681.334243,12583.501014
1018.115407,-9918.759623,2298.286494,11251.130318
1018.115736,-8660.409521,1072.533697,9548.656652
1018.116066,-5847.626942,-459.657299,8290.306550
1018.116396,-2812.782580,-995.924147,6365.771101
1018.116725,-1184.329507,-995.924147,5033.400406
1018.117055,-666.185348,-842.705048,5625.565159
1018.117384,-1554.432478,689.485948,8216.285956
1018.117714,-4145.153275,2451.505594,10436.903782
1018.118043,-6735.874072,3447.429741,11547.212695
1018.118373,-6883.915261,2911.162892,11917.315666
1018.118702,-5921.647536,1532.190996,11917.315666
1018.119032,-4145.153275,-306.438199,11103.089130
1018.119361,-2812.782580,-1838.629195,9252.574275
1018.119691,-1184.329507,-2068.457845,7698.141797
1018.120021,-1036.288319,-919.314598,7994.224174
1018.120350,-1332.370696,842.705048,9918.759623
1018.120680,-2072.576638,2681.334243,11251.130318
1018.121009,-4219.173869,3524.039291,11177.109724
1018.121339,-5699.585753,2068.457845,10140.821405
1018.121668,-6957.935855,1378.971896,10066.800811
1018.121998,-7105.977043,229.828649,9992.780217
1018.122327,-6735.874072,-2145.067394,9474.636058
1018.122657,-6217.729913,-3064.381992,8438.347739
1018.122987,-5255.462188,-2451.505594,7624.121203
1018.123316,-3478.967927,-1455.581446,6883.915261
1018.123646,-444.123565,-1302.362347,7550.100608
1018.123975,962.267725,459.657299,8512.368333
1018.124305,296.082377,2451.505594,9548.656652
1018.124634,-1702.473667,4213.525239,10732.986159
1018.124964,-4663.297435,5056.230287,11991.336260
1018.125293,-7105.977043,4290.134789,13471.748144
1018.125623,-8290.306550,3447.429741,13619.789333
1018.125952,-7624.121203,1149.143247,11473.192101
1018.126282,-4737.318029,-1915.238745,8364.327145
1018.126612,-1480.411884,-4519.963438,5625.565159
1018.126941,148.041188,-4136.915689,4959.379811
1018.127271,666.185348,-1072.533697,5477.523971
1018.127600,296.082377,1608.800546,7254.018232
1018.127930,-814.226536,5362.668486,9696.697840
1018.128259,-2368.659014,7967.393179,11177.109724
1018.128589,-4441.235652,6894.859482,11769.274478
1018.128918,-6365.771101,4443.353888,12065.356855
1018.129248,-8142.265362,1838.629195,12287.418637
1018.129578,-8882.471304,-459.657299,11991.336260
1018.129907,-9252.574275,-1532.190996,10584.944971
1018.130237,-7846.182985,-2451.505594,8586.388927
1018.130566,-4737.318029,-2987.772442,6735.874072
1018.130896,-888.247130,-1915.238745,5773.606348
1018.131225,2590.720797,919.314598,5921.647536
1018.131555,4145.153275,4213.525239,6735.874072
1018.131884,3478.967927,6511.811733,8142.265362
1018.132214,740.205942,8503.660028,10807.006753
1018.132544,-2812.782580,8273.831378,12805.562797
1018.132873,-5921.647536,5898.935335,13619.789333
1018.133203,-9104.533087,1915.238745,13693.809927
1018.133532,-10732.986159,-1378.971896,12731.542202
1018.133862,-11695.253884,-4290.134789,10955.047942
1018.134191,-9474.636058,-5975.544884,7920.203579
1018.134521,-6217.729913,-6818.249932,5181.441594
1018.134850,-2442.679609,-5209.449386,3923.091493
1018.135180,444.123565,-995.924147,4589.276840
1018.135509,2368.659014,1915.238745,6439.791695
1018.135839,1850.514855,6128.763984,8734.430116
1018.136169,296.082377,9499.584175,10214.842000
1018.136498,-1776.494261,9193.145976,11769.274478
1018.136828,-4293.194464,5515.887586,12657.521608
1018.137157,-6957.935855,1991.848295,12879.583391
1018.137487,-9622.677246,-1608.800546,11769.274478
1018.137816,-11473.192101,-4979.620737,10807.006753
1018.138146,-11103.089130,-6588.421283,10436.903782
1018.138475,-9474.636058,-6358.592633,9548.656652
1018.138805,-6365.771101,-4979.620737,7476.080014
1018.139135,-1998.556043,-2987.772442,6069.688724
1018.139464,1480.411884,-459.657299,6217.729913
1018.139794,3182.885551,2911.162892,7254.018232
1018.140123,2664.741391,5822.325785,9400.615463
1018.140453,666.185348,7048.078582,11473.192101
1018.140782,-2442.679609,6281.983084,13619.789333
1018.141112,-5477.523971,3983.696590,14211.954086
1018.141441,-7698.141797,306.438199,13767.830521
1018.141771,-8808.450710,-2911.162892,11917.315666
1018.142100,-8882.471304,-5592.497135,9326.594869
1018.142430,-6513.812290,-6205.373534,7698.141797
1018.142760,-4071.132681,-4366.744339,6587.832884
1018.143089,-1776.494261,-1149.143247,6439.791695
1018.143419,0.000000,842.705048,6439.791695
1018.143748,370.102971,4213.525239,7550.100608
1018.144078,222.061783,7584.345430,9252.574275
1018.144407,-1258.350101,8886.707777,10658.965565
1018.144737,-3108.864956,7048.078582,11843.295072
1018.145066,-4885.359217,4826.401637,12361.439231
1018.145396,-6809.894666,1685.410096,12361.439231
1018.145726,-7772.162391,-612.876398,11547.212695
1018.146055,-8364.327145,-1685.410096,10362.883188
1018.146385,-7328.038826,-2298.286494,8438.347739
1018.146714,-4885.359217,-1072.533697,7698.141797
1018.147044,-1924.535449,1149.143247,7031.956449
1018.147373,444.123565,2451.505594,6439.791695
1018.147703,1258.350101,4826.401637,6661.853478
1018.148032,518.144159,7048.078582,7994.224174
1018.148362,-296.082377,7584.345430,9770.718434
1018.148692,-1628.453072,6435.202183,11103.089130
1018.149021,-2812.782580,5209.449386,11251.130318
1018.149351,-3404.947333,3524.039291,10214.842000
1018.149680,-3330.926739,689.485948,9474.636058
1018.150010,-2812.782580,-766.095498,8438.347739
1018.150339,-2442.679609,-536.266849,8364.327145
1018.150669,-1628.453072,1225.752797,8586.388927
1018.150998,-1850.514855,3064.381992,9104.533087
1018.151328,-2220.617826,4443.353888,9696.697840
1018.151657,-2368.659014,5669.106685,10436.903782
1018.151987,-2368.659014,5898.935335,10658.965565
1018.152317,-2072.576638,5898.935335,10807.006753
1018.152646,-2220.617826,5132.839837,10881.027347
1018.152976,-2146.597232,3064.381992,10066.800811
1018.153305,-2146.597232,2068.457845,9992.780217
1018.153635,-2220.617826,1685.410096,9474.636058
1018.153964,-1924.535449,1455.581446,9252.574275
1018.154294,-1332.370696,2604.724693,9622.677246
1018.154623,-1332.370696,4290.134789,10066.800811
1018.154953,-1628.453072,6128.763984,10510.924376
1018.155283,-2220.617826,6511.811733,10214.842000
1018.155612,-2368.659014,6358.592633,9622.677246
1018.155942,-2442.679609,6052.154434,8882.471304
1018.156271,-2146.597232,4826.401637,7772.162391
1018.156601,-1554.432478,2374.896044,7031.956449
1018.156930,-962.267725,919.314598,5995.668130
1018.157260,-518.144159,153.219100,6365.771101
1018.157589,-1258.350101,1072.533697,7476.080014
1018.157919,-2368.659014,2604.724693,8808.450710
1018.158248,-2886.803174,4366.744339,9474.636058
1018.158578,-2886.803174,5362.668486,10436.903782
1018.158908,-2294.638420,6128.763984,11029.068536
1018.159237,-1406.391290,6358.592633,10807.006753
1018.159567,-296.082377,4903.011187,10140.821405
1018.159896,296.082377,4443.353888,10214.842000
1018.160226,-592.164754,3983.696590,9918.759623
1018.160555,-888.247130,3217.601092,9474.636058
1018.160885,-962.267725,2451.505594,9104.533087
1018.161214,-518.144159,1915.238745,8734.430116
1018.161544,74.020594,1915.238745,8956.491898
1018.161874,0.000000,1915.238745,9770.718434
1018.162203,-740.205942,2451.505594,10436.903782
1018.162533,-1850.514855,4060.306139,11325.150913
1018.162862,-2442.679609,5209.449386,11917.315666
1018.163192,-1480.411884,5669.106685,12065.356855
1018.163521,-1110.308913,4673.182538,11769.274478
1018.163851,-814.226536,4519.963438,10732.986159
1018.164180,-666.185348,4596.572988,9844.739029
1018.164510,0.000000,4673.182538,9178.553681
1018.164840,740.205942,4903.011187,8364.327145
1018.165169,444.123565,4903.011187,7105.977043
1018.165499,740.205942,3907.087040,6143.709319
1018.165828,962.267725,2451.505594,5773.606348
1018.166158,444.123565,1838.629195,6661.853478
1018.166487,-814.226536,2451.505594,8438.347739
1018.166817,-2368.659014,3524.039291,9548.656652
1018.167146,-3627.009116,3677.258390,10658.965565
1018.167476,-3701.029710,4213.525239,11473.192101
1018.167805,-3034.844362,5056.230287,12065.356855
1018.168135,-2368.659014,5592.497135,11251.130318
1018.168465,-1554.432478,5592.497135,9696.697840
1018.168794,-444.123565,5515.887586,9178.553681
1018.169124,-370.102971,5669.106685,8808.450710
1018.169453,-518.144159,5745.716235,8068.244768
1018.169783,-1110.308913,5362.668486,6809.894666
1018.170112,-1332.370696,3677.258390,5773.606348
1018.170442,-888.247130,1991.848295,5625.565159
1018.170771,-1406.391290,919.314598,6069.688724
1018.171101,-1776.494261,0.000000,7254.018232
1018.171431,-1998.556043,0.000000,9178.553681
1018.171760,-2146.597232,1685.410096,11029.068536
1018.172090,-1850.514855,3907.087040,12583.501014
1018.172419,-1184.329507,4366.744339,13323.706956
1018.172749,0.000000,4749.792088,13471.748144
1018.173078,222.061783,6665.030833,13471.748144
1018.173408,148.041188,7507.735880,12287.418637
1018.173737,592.164754,5515.887586,10732.986159
1018.174067,740.205942,4673.182538,9844.739029
1018.174396,148.041188,3677.258390,9178.553681
1018.174726,-1480.411884,2987.772442,8142.265362
1018.175056,-2368.659014,2221.676944,7698.141797
1018.175385,-2368.659014,1455.581446,8142.265362
1018.175715,-1628.453072,1378.971896,8512.368333
1018.176044,-1332.370696,2145.067394,9030.512492
1018.176374,-814.226536,2145.067394,9178.553681
1018.176703,-592.164754,2451.505594,9696.697840
1018.177033,-888.247130,4366.744339,11029.068536
1018.177362,-1998.556043,6358.592633,11843.295072
1018.177692,-1924.535449,7431.126331,12583.501014
1018.178021,-1554.432478,6894.859482,11991.336260
1018.178351,-2146.597232,6741.640382,10881.027347
1018.178680,-2590.720797,6358.592633,8734.430116
1018.179010,-1924.535449,4826.401637,5921.647536
1018.179339,222.061783,2987.772442,3849.070898
1018.179669,1702.473667,2451.505594,3701.029710
1018.179998,2664.741391,1991.848295,4515.256246
1018.180328,2220.617826,2221.676944,6217.729913
1018.180658,0.000000,2911.162892,7698.141797
1018.180987,-2590.720797,4979.620737,9252.574275
1018.181317,-4515.256246,5669.106685,12361.439231
1018.181646,-4811.338623,6128.763984,15026.180623
1018.181976,-5033.400406,5822.325785,15100.201217
1018.182305,-5107.421000,4903.011187,13249.686362
1018.182635,-4145.153275,4290.134789,11029.068536
1018.182964,-2146.597232,2911.162892,8956.491898
1018.183294,740.205942,2221.676944,6661.853478
1018.183623,3552.988522,2068.457845,5329.482782
1018.183953,5107.421000,2757.943793,5181.441594
1018.184282,5033.400406,3677.258390,5995.668130
1018.184612,2368.659014,4826.401637,7550.100608
1018.184941,-1184.329507,5439.278036,10510.924376
1018.185271,-3627.009116,7354.516781,13471.748144
1018.185600,-4737.318029,6665.030833,14434.015869
1018.185930,-4367.215058,3830.477490,13471.748144
1018.186259,-2590.720797,-459.657299,11473.192101
1018.186589,-1850.514855,-1915.238745,8734.430116
1018.186918,-1702.473667,-995.924147,7031.956449
1018.187248,-1110.308913,536.266849,7698.141797
1018.187577,-296.082377,2604.724693,8512.368333
1018.187907,-518.144159,3677.258390,8438.347739
1018.188237,-1036.288319,4060.306139,6735.874072
1018.188566,-222.061783,2757.943793,6883.915261
1018.188896,666.185348,842.705048,8660.409521
1018.189225,148.041188,1378.971896,11399.171507
1018.189555,-2368.659014,3064.381992,12583.501014
1018.189884,-2738.761985,3600.648841,13323.706956
1018.190214,-2886.803174,2681.334243,12657.521608
1018.190543,-2072.576638,2298.286494,12139.377449
1018.190873,-1332.370696,2221.676944,9696.697840
1018.191202,0.000000,919.314598,6291.750507
1018.191532,1776.494261,-1685.410096,4589.276840
1018.191861,2368.659014,-3064.381992,5033.400406
1018.192191,1110.308913,-1915.238745,7105.977043
1018.192520,-740.205942,919.314598,9326.594869
1018.192850,-2812.782580,2221.676944,11473.192101
1018.193179,-3997.112087,3140.991542,13323.706956
1018.193509,-4219.173869,4290.134789,14137.933492
1018.193838,-2886.803174,2145.067394,12435.459826
1018.194168,-1110.308913,0.000000,10436.903782
1018.194497,74.020594,-766.095498,9252.574275
1018.194827,1110.308913,153.219100,8586.388927
1018.195156,962.267725,766.095498,8586.388927
1018.195486,0.000000,2374.896044,9474.636058
1018.195815,-962.267725,3753.867940,10510.924376
1018.196145,-1998.556043,3830.477490,9474.636058
1018.196475,-1776.494261,1532.190996,7476.080014
1018.196804,-296.082377,-689.485948,7179.997637
1018.197134,-148.041188,-2451.505594,8586.388927
1018.197463,-740.205942,-1225.752797,10881.027347
1018.197793,-1628.453072,1455.581446,12065.356855
1018.198122,-2590.720797,3753.867940,12287.418637
1018.198452,-2368.659014,4979.620737,11843.295072
1018.198781,-1554.432478,4903.011187,11399.171507
1018.199111,-222.061783,3524.039291,9622.677246
1018.199440,740.205942,1915.238745,7105.977043
1018.199770,1110.308913,0.000000,5921.647536
1018.200099,740.205942,306.438199,6439.791695
1018.200429,-814.226536,1915.238745,8512.368333
1018.200758,-2368.659014,3140.991542,9474.636058
1018.201088,-2886.803174,3447.429741,9400.615463
1018.201417,-2664.741391,4060.306139,8660.409521
1018.201747,-962.267725,2757.943793,7328.038826
1018.202076,592.164754,-306.438199,6069.688724
1018.202406,1406.391290,-1608.800546,6587.832884
1018.202735,518.144159,-459.657299,8290.306550
1018.203065,-962.267725,1762.019645,10140.821405
1018.203394,-2294.638420,3064.381992,11621.233289
1018.203724,-3108.864956,2528.115143,11843.295072
1018.204053,-3034.844362,2374.896044,10955.047942
1018.204383,-1776.494261,153.219100,9252.574275
1018.204713,370.102971,-1838.629195,8808.450710
1018.205042,1110.308913,-2221.676944,8882.471304
1018.205372,148.041188,-229.828649,9622.677246
1018.205701,-518.144159,1225.752797,10881.027347
1018.206031,-1776.494261,2528.115143,12805.562797
1018.206360,-2072.576638,3830.477490,13027.624579
1018.206690,-1702.473667,2834.553343,11251.130318
1018.207019,0.000000,-1455.581446,9104.533087
1018.207349,1628.453072,-4290.134789,8586.388927
1018.207678,888.247130,-4673.182538,8586.388927
1018.208008,-740.205942,-3064.381992,9400.615463
1018.208337,-1628.453072,-1608.800546,10881.027347
1018.208667,-2146.597232,306.438199,12953.603985
1018.208996,-2590.720797,2451.505594,13249.686362
1018.209326,-2368.659014,2911.162892,10955.047942
1018.209655,-592.164754,459.657299,9030.512492
1018.209985,1036.288319,-1455.581446,8068.244768
1018.210314,888.247130,-1378.971896,8586.388927
1018.210644,0.000000,-153.219100,9400.615463
1018.210973,-1110.308913,919.314598,10436.903782
1018.211303,-2516.700203,2068.457845,10140.821405
1018.211632,-3108.864956,2604.724693,9252.574275
1018.211962,-2146.597232,919.314598,7698.141797
1018.212291,148.041188,-1608.800546,6957.935855
1018.212621,1628.453072,-2221.676944,7105.977043
1018.212951,740.205942,-766.095498,7402.059420
1018.213280,-370.102971,766.095498,8438.347739
1018.213610,-1110.308913,1532.190996,10510.924376
1018.213939,-2368.659014,4366.744339,12731.542202
1018.214269,-2886.803174,6588.421283,12213.398043
1018.214598,-2442.679609,4903.011187,9474.636058
1018.214928,0.000000,1149.143247,8216.285956
1018.215257,888.247130,-1072.533697,7328.038826
1018.215587,222.061783,459.657299,7254.018232
1018.215916,-444.123565,2145.067394,7846.182985
1018.216246,-1332.370696,3217.601092,9252.574275
1018.216575,-2960.823768,4136.915689,10658.965565
1018.216905,-3923.091493,5132.839837,10362.883188
1018.217234,-2738.761985,3217.601092,9030.512492
1018.217564,-962.267725,0.000000,7698.141797
1018.217893,592.164754,-1378.971896,7846.182985
1018.218223,222.061783,-229.828649,8512.368333
1018.218552,-296.082377,383.047749,10214.842000
1018.218882,-1110.308913,2451.505594,11991.336260
1018.219211,-2368.659014,5745.716235,12879.583391
1018.219541,-2368.659014,6052.154434,11621.233289
1018.219870,-296.082377,2757.943793,9622.677246
1018.220200,1554.432478,76.609550,8216.285956
1018.220529,2220.617826,-1685.410096,7550.100608
1018.220859,1998.556043,-1149.143247,7772.162391
1018.221189,370.102971,842.705048,9326.594869
1018.221518,-1406.391290,1915.238745,10362.883188
1018.221848,-3108.864956,3140.991542,10955.047942
1018.222177,-3182.885551,1991.848295,9770.718434
1018.222507,-1258.350101,-612.876398,8512.368333
1018.222836,296.082377,-2298.286494,7402.059420
1018.223166,666.185348,-2298.286494,6957.935855
1018.223495,0.000000,-2298.286494,7476.080014
1018.223825,-666.185348,-2221.676944,9918.759623
1018.224154,-2368.659014,536.266849,12879.583391
1018.224484,-4737.318029,3447.429741,13101.645173
1018.224813,-5107.421000,2987.772442,11177.109724
1018.225143,-2368.659014,-1302.362347,9178.553681
1018.225472,296.082377,-3983.696590,8660.409521
1018.225802,1036.288319,-3524.039291,8364.327145
1018.226131,888.247130,-2145.067394,8734.430116
1018.226461,296.082377,-383.047749,9548.656652
1018.226790,-370.102971,1378.971896,11177.109724
1018.227120,-1184.329507,2834.553343,11843.295072
1018.227449,-444.123565,2374.896044,10584.944971
1018.227779,1110.308913,-842.705048,9030.512492
1018.228108,2368.659014,-2987.772442,8660.409521
1018.228438,1554.432478,-2451.505594,9178.553681
1018.228767,222.061783,-1838.629195,10732.986159
1018.229097,-1480.411884,0.000000,12213.398043
1018.229427,-3256.906145,2528.115143,13101.645173
1018.229756,-4071.132681,4290.134789,11991.336260
1018.230086,-2442.679609,2221.676944,10362.883188
1018.230415,-296.082377,-995.924147,7846.182985
1018.230745,444.123565,-1991.848295,6809.894666
1018.231074,0.000000,0.000000,7105.977043
1018.231404,-1110.308913,1608.800546,7994.224174
1018.231733,-1924.535449,2451.505594,9474.636058
1018.232063,-2960.823768,3600.648841,10658.965565
1018.232392,-3256.906145,4060.306139,9696.697840
1018.232722,-1924.535449,1838.629195,7550.100608
1018.233051,148.041188,-766.095498,6587.832884
1018.233381,1332.370696,-1762.019645,6735.874072
1018.233710,814.226536,0.000000,7920.203579
1018.234040,222.061783,1762.019645,10066.800811
1018.234369,-1036.288319,3907.087040,11621.233289
1018.234699,-2146.597232,6358.592633,11769.274478
1018.235028,-2442.679609,6128.763984,10584.944971
1018.235358,-666.185348,3217.601092,9178.553681
1018.235687,962.267725,459.657299,7624.121203
1018.236017,1480.411884,-919.314598,6661.853478
1018.236346,666.185348,-229.828649,7179.997637
1018.236676,-814.226536,1302.362347,8586.388927
1018.237005,-2590.720797,2145.067394,10658.965565
1018.237335,-3775.050304,3447.429741,11177.109724
1018.237665,-3701.029710,2911.162892,10807.006753
1018.237994,-2294.638420,383.047749,8956.491898
1018.238324,-444.123565,-2145.067394,8438.347739
1018.238653,444.123565,-2757.943793,8882.471304
1018.238983,-148.041188,-1455.581446,9252.574275
1018.239312,-222.061783,-536.266849,11473.192101
1018.239642,-1628.453072,1838.629195,13767.830521
1018.239971,-3404.947333,4290.134789,14211.954086
1018.240301,-3182.885551,3677.258390,12287.418637
1018.240630,-444.123565,536.266849,9696.697840
1018.240960,1776.494261,-3217.601092,7698.141797
1018.241289,2516.700203,-3370.820191,7402.059420
1018.241619,1850.514855,-2451.505594,8216.285956
1018.241948,296.082377,-536.266849,9400.615463
1018.242278,-1110.308913,2068.457845,11177.109724
1018.242607,-1480.411884,2834.553343,11177.109724
1018.242937,-1258.350101,2068.457845,9548.656652
1018.243266,222.061783,-1455.581446,7994.224174
1018.243596,1332.370696,-3983.696590,7402.059420
1018.243925,1258.350101,-3753.867940,7920.203579
1018.244255,518.144159,-1455.581446,9992.780217
1018.244584,-1628.453072,766.095498,11621.233289
1018.244914,-3552.988522,3524.039291,12509.480420
1018.245243,-4219.173869,4749.792088,11843.295072
1018.245573,-2516.700203,2757.943793,9622.677246
1018.245903,-444.123565,0.000000,7179.997637
1018.246232,370.102971,-2451.505594,5847.626942
1018.246562,0.000000,-2145.067394,6661.853478
1018.246891,-1480.411884,0.000000,8290.306550
1018.247221,-2960.823768,2451.505594,9918.759623
1018.247550,-3923.091493,3753.867940,11103.089130
1018.247880,-3478.967927,3524.039291,10362.883188
1018.248209,-2220.617826,1455.581446,9030.512492
1018.248539,0.000000,-1225.752797,8068.244768
1018.248868,666.185348,-2451.505594,7328.038826
1018.249198,814.226536,-766.095498,8808.450710
1018.249527,444.123565,383.047749,11029.068536
1018.249857,-1036.288319,3294.210641,13175.665768
1018.250186,-2442.679609,6205.373534,13767.830521
1018.250516,-2516.700203,6358.592633,11769.274478
1018.250845,-962.267725,2987.772442,9104.533087
1018.251175,1628.453072,-153.219100,7920.203579
1018.251504,2368.659014,-1378.971896,7328.038826
1018.251834,1406.391290,-229.828649,7624.121203
1018.252163,-370.102971,1455.581446,8512.368333
1018.252493,-2442.679609,2757.943793,10140.821405
1018.252822,-4293.194464,3907.087040,11251.130318
1018.253152,-4441.235652,3600.648841,10732.986159
1018.253481,-3404.947333,536.266849,8586.388927
1018.253811,-1110.308913,-2451.505594,6883.915261
1018.254141,148.041188,-3064.381992,6439.791695
1018.254470,814.226536,-2451.505594,7920.203579
1018.254800,296.082377,-306.438199,10066.800811
1018.255129,-1628.453072,2528.115143,12065.356855
1018.255459,-2886.803174,5515.887586,13101.645173
1018.255788,-3034.844362,4903.011187,11695.253884
1018.256118,-888.247130,1149.143247,9400.615463
1018.256447,1850.514855,-2145.067394,7846.182985
1018.256777,2516.700203,-2528.115143,7179.997637
1018.257106,1776.494261,-1685.410096,7402.059420
1018.257436,222.061783,-306.438199,8956.491898
1018.257765,-888.247130,689.485948,11325.150913
1018.258095,-2442.679609,3217.601092,11547.212695
1018.258424,-1702.473667,2757.943793,9844.739029
1018.258754,296.082377,-1302.362347,7920.203579
1018.259083,1924.535449,-3677.258390,7698.141797
1018.259413,888.247130,-2987.772442,8882.471304
1018.259742,-740.205942,-766.095498,10510.924376
1018.260072,-2516.700203,766.095498,12731.542202
1018.260401,-4219.173869,3524.039291,13841.851115
1018.260731,-5403.503377,4519.963438,12953.603985
1018.261060,-4589.276840,1991.848295,10288.862594
1018.261390,-1998.556043,-1532.190996,8068.244768
1018.261719,666.185348,-2834.553343,7105.977043
1018.262049,222.061783,-1455.581446,7179.997637
1018.262379,-888.247130,689.485948,8142.265362
1018.262708,-1332.370696,2374.896044,9992.780217
1018.263038,-1776.494261,4366.744339,10881.027347
1018.263367,-2220.617826,4979.620737,9622.677246
1018.263697,-222.061783,2528.115143,7624.121203
1018.264026,1702.473667,-919.314598,7402.059420
1018.264356,2072.576638,-1915.238745,7846.182985
1018.264685,814.226536,-306.438199,8512.368333
1018.265015,0.000000,1302.362347,10288.862594
1018.265344,-888.247130,2528.115143,11769.274478
1018.265674,-2664.741391,5592.497135,12361.439231
1018.266003,-3182.885551,6205.373534,11177.109724
1018.266333,-1554.432478,3524.039291,8586.388927
1018.266662,370.102971,919.314598,6661.853478
1018.266992,888.247130,459.657299,6069.688724
1018.267321,0.000000,689.485948,6291.750507
1018.267651,-1332.370696,995.924147,7402.059420
1018.267980,-2590.720797,1685.410096,9770.718434
1018.268310,-4145.153275,3294.210641,10955.047942
1018.268639,-5107.421000,3600.648841,10214.842000
1018.268969,-3552.988522,919.314598,8808.450710
1018.269298,-1776.494261,-2298.286494,8290.306550
1018.269628,-592.164754,-2221.676944,8734.430116
1018.269958,74.020594,-612.876398,9918.759623
1018.270287,518.144159,229.828649,11103.089130
1018.270617,-444.123565,2911.162892,12953.603985
1018.270946,-2368.659014,4136.915689,13471.748144
1018.271276,-1998.556043,4366.744339,12361.439231
1018.271605,74.020594,919.314598,9992.780217
1018.271935,1850.514855,-1838.629195,9104.533087
1018.272264,2146.597232,-1378.971896,8956.491898
1018.272594,1480.411884,-1378.971896,8734.430116
1018.272923,444.123565,-383.047749,9844.739029
1018.273253,-888.247130,995.924147,11251.130318
1018.273582,-2368.659014,3447.429741,11621.233289
1018.273912,-2072.576638,2451.505594,9622.677246
1018.274241,-222.061783,-1915.238745,7179.997637
1018.274571,592.164754,-3753.867940,7254.018232
1018.274900,0.000000,-3217.601092,7920.203579
1018.275230,-1258.350101,-1532.190996,9548.656652
1018.275560,-2294.638420,459.657299,11843.295072
1018.275889,-3997.112087,3140.991542,12583.501014
1018.276219,-5107.421000,4366.744339,11251.130318
1018.276548,-3701.029710,2068.457845,9178.553681
1018.276878,-962.267725,-689.485948,7624.121203
1018.277208,814.226536,-1838.629195,7105.977043
1018.277537,592.164754,0.000000,6809.894666
1018.277867,0.000000,1302.362347,8290.306550
1018.278196,-888.247130,2604.724693,9696.697840
1018.278526,-1998.556043,4979.620737,10436.903782
1018.278856,-2294.638420,5209.449386,9178.553681
1018.279185,-666.185348,1532.190996,7328.038826
1018.279515,1332.370696,-1608.800546,7179.997637
1018.279844,1332.370696,-1762.019645,7772.162391
1018.280174,370.102971,0.000000,9178.553681
1018.280504,-1480.411884,1149.143247,10436.903782
1018.280833,-2886.803174,3064.381992,12287.418637
1018.281163,-3849.070898,5898.935335,13471.748144
1018.281493,-4145.153275,5822.325785,12213.398043
1018.281822,-2516.700203,3294.210641,9548.656652
1018.282152,-296.082377,459.657299,7772.162391
1018.282481,592.164754,-536.266849,7105.977043
1018.282811,-222.061783,1149.143247,7846.182985
1018.283141,-1036.288319,1991.848295,8808.450710
1018.283470,-2294.638420,3370.820191,10436.903782
1018.283800,-3627.009116,4596.572988,11177.109724
1018.284129,-3108.864956,4290.134789,10436.903782
1018.284459,-1406.391290,612.876398,8364.327145
1018.284789,222.061783,-1838.629195,7550.100608
1018.285118,814.226536,-2068.457845,7624.121203
1018.285448,592.164754,-536.266849,9400.615463
1018.285777,-296.082377,842.705048,10732.986159
1018.286107,-1110.308913,3064.381992,11917.315666
1018.286437,-2146.597232,4519.963438,12287.418637
1018.286766,-1850.514855,3830.477490,10732.986159
1018.287096,-148.041188,919.314598,8734.430116
1018.287425,1628.453072,-1149.143247,7772.162391
1018.287755,1628.453072,-1685.410096,6883.915261
1018.288085,740.205942,-612.876398,7328.038826
1018.288414,-370.102971,306.438199,9474.636058
1018.288744,-2146.597232,2221.676944,11177.109724
1018.289074,-3404.947333,3524.039291,11399.171507
1018.289403,-2886.803174,1838.629195,9548.656652
1018.289733,-814.226536,-2374.896044,7698.141797
1018.290062,296.082377,-4443.353888,7698.141797
1018.290392,-148.041188,-3294.210641,9030.512492
1018.290722,-1850.514855,-1302.362347,10436.903782
1018.291051,-3108.864956,306.438199,11843.295072
1018.291381,-3775.050304,2298.286494,13027.624579
1018.291710,-3923.091493,3983.696590,12435.459826
1018.292040,-2664.741391,2068.457845,10066.800811
1018.292370,0.000000,-1302.362347,7994.224174
1018.292699,1332.370696,-2911.162892,7105.977043
1018.293029,1110.308913,-1532.190996,7920.203579
1018.293358,222.061783,306.438199,9770.718434
1018.293688,-1110.308913,2451.505594,11473.192101
1018.294018,-2590.720797,4443.353888,11695.253884
1018.294347,-2590.720797,4519.963438,10510.924376
1018.294677,-1036.288319,1302.362347,8512.368333
1018.295007,1036.288319,-2298.286494,7550.100608
1018.295336,1036.288319,-2528.115143,7846.182985
1018.295666,148.041188,0.000000,9104.533087
1018.295995,-1406.391290,1762.019645,9622.677246
1018.296325,-2590.720797,2451.505594,10955.047942
1018.296655,-2812.782580,4673.182538,11991.336260
1018.296984,-3478.967927,5515.887586,10881.027347
1018.297314,-1628.453072,3600.648841,8142.265362
1018.297643,296.082377,76.609550,6143.709319
1018.297973,888.247130,-1149.143247,5847.626942
1018.298303,148.041188,153.219100,7105.977043
1018.298632,-1480.411884,2298.286494,9178.553681
1018.298962,-2368.659014,4136.915689,10658.965565
1018.299291,-3552.988522,5592.497135,10732.986159
1018.299621,-3034.844362,4060.306139,9400.615463
1018.299951,-1036.288319,689.485948,7846.182985
1018.300280,1110.308913,-1838.629195,7254.018232
1018.300610,1406.391290,-1608.800546,7476.080014
1018.300940,518.144159,306.438199,9104.533087
1018.301269,-444.123565,1685.410096,11251.130318
1018.301599,-2368.659014,3677.258390,13175.665768
1018.301928,-3627.009116,5439.278036,12953.603985
1018.302258,-2516.700203,4749.792088,10584.944971
1018.302588,-222.061783,689.485948,8734.430116
1018.302917,1480.411884,-2451.505594,7624.121203
1018.303247,1036.288319,-2681.334243,7846.182985
1018.303576,-296.082377,-919.314598,8512.368333
1018.303906,-1406.391290,689.485948,9992.780217
1018.304236,-2368.659014,2451.505594,11991.336260
1018.304565,-3256.906145,3447.429741,12509.480420
1018.304895,-2664.741391,1149.143247,10510.924376
1018.305224,-444.123565,-2221.676944,8882.471304
1018.305554,666.185348,-3907.087040,8068.244768
1018.305884,0.000000,-2451.505594,9326.594869
1018.306213,-1628.453072,-766.095498,10510.924376
1018.306543,-2442.679609,842.705048,11991.336260
1018.306872,-3330.926739,2911.162892,12953.603985
1018.307202,-3256.906145,3983.696590,11843.295072
1018.307532,-1554.432478,1991.848295,8956.491898
1018.307861,148.041188,-1762.019645,6957.935855
1018.308191,1184.329507,-3370.820191,6439.791695
1018.308521,592.164754,-1608.800546,7179.997637
1018.308850,-296.082377,842.705048,8734.430116
1018.309180,-1036.288319,1991.848295,10362.883188
1018.309509,-2516.700203,3753.867940,11621.233289
1018.309839,-2664.741391,4136.915689,10140.821405
1018.310169,-1332.370696,1378.971896,8364.327145
1018.310498,1184.329507,-1838.629195,7179.997637
1018.310828,1554.432478,-2604.724693,7328.038826
1018.311157,296.082377,-1225.752797,8364.327145
1018.311487,-1332.370696,1225.752797,9548.656652
1018.311817,-2368.659014,3830.477490,11325.150913
1018.312146,-3404.947333,6435.202183,11917.315666
1018.312476,-3330.926739,5745.716235,10140.821405
1018.312805,-1628.453072,1608.800546,7772.162391
1018.313135,666.185348,-1608.800546,7105.977043
1018.313465,740.205942,-1378.971896,6957.935855
1018.313794,-814.226536,536.266849,7846.182985
1018.314124,-2072.576638,1762.019645,9622.677246
1018.314454,-3034.844362,3294.210641,11843.295072
1018.314783,-4145.153275,5362.668486,12583.501014
1018.315113,-3256.906145,4749.792088,11177.109724
1018.315442,-1332.370696,536.266849,8216.285956
1018.315772,814.226536,-2987.772442,6587.832884
1018.316102,1628.453072,-3294.210641,6957.935855
1018.316431,1184.329507,-1455.581446,9326.594869
1018.316761,-592.164754,1378.971896,12065.356855
1018.317090,-2220.617826,4673.182538,13841.851115
1018.317420,-3775.050304,6511.811733,13545.768739
1018.317750,-2590.720797,4443.353888,11399.171507
1018.318079,444.123565,0.000000,9252.574275
1018.318409,2072.576638,-2374.896044,7402.059420
1018.318738,1406.391290,-2528.115143,6883.915261
1018.319068,74.020594,-1532.190996,7624.121203
1018.319398,-1480.411884,0.000000,9400.615463
1018.319727,-2738.761985,1378.971896,10955.047942
1018.320057,-3849.070898,2451.505594,11325.150913
1018.320387,-2516.700203,1072.533697,9326.594869
1018.320716,-592.164754,-2987.772442,7105.977043
1018.321046,1036.288319,-5592.497135,6661.853478
1018.321375,888.247130,-4443.353888,7994.224174
1018.321705,-518.144159,-1225.752797,10658.965565
1018.322035,-2368.659014,2298.286494,12509.480420
1018.322364,-3849.070898,4903.011187,13693.809927
1018.322694,-3701.029710,4826.401637,12583.501014
1018.323023,-1924.535449,1838.629195,9770.718434
1018.323353,518.144159,-2298.286494,6735.874072
1018.323683,1776.494261,-4443.353888,5773.606348
1018.324012,1184.329507,-2911.162892,6661.853478
1018.324342,-592.164754,0.000000,8438.347739
1018.324671,-1998.556043,1455.581446,10362.883188
1018.325001,-2738.761985,3064.381992,11991.336260
1018.325331,-3330.926739,4213.525239,11251.130318
1018.325660,-1924.535449,1685.410096,9104.533087
1018.325990,518.144159,-2834.553343,7920.203579
1018.326319,1480.411884,-3600.648841,8142.265362
1018.326649,296.082377,-919.314598,9252.574275
1018.326979,-1258.350101,1685.410096,11177.109724
1018.327308,-2960.823768,4213.525239,12805.562797
1018.327638,-3997.112087,6358.592633,13175.665768
1018.327968,-3478.967927,5822.325785,11695.253884
1018.328297,-1036.288319,2987.772442,8808.450710
1018.328627,1406.391290,-766.095498,6217.729913
1018.328956,1776.494261,-1072.533697,5477.523971
1018.329286,1184.329507,-383.047749,6883.915261
1018.329616,-592.164754,2221.676944,9104.533087
1018.329945,-2368.659014,4903.011187,11103.089130
1018.330275,-3849.070898,6435.202183,11325.150913
1018.330604,-3182.885551,4519.963438,9770.718434
1018.330934,-1184.329507,842.705048,7846.182985
1018.331264,666.185348,-2068.457845,6513.812290
1018.331593,1406.391290,-2681.334243,6883.915261
1018.331923,592.164754,-536.266849,8142.265362
1018.332252,-666.185348,2451.505594,10658.965565
1018.332582,-2368.659014,5439.278036,12361.439231
1018.332912,-3182.885551,6358.592633,11917.315666
1018.333241,-2220.617826,4519.963438,10288.862594
1018.333571,444.123565,2068.457845,8290.306550
1018.333901,1924.535449,-1455.581446,7105.977043
1018.334230,1184.329507,-2604.724693,6883.915261
1018.334560,-222.061783,-1532.190996,8216.285956
1018.334889,-2220.617826,229.828649,10436.903782
1018.335219,-3478.967927,2221.676944,12287.418637
1018.335549,-3997.112087,2681.334243,12287.418637
1018.335878,-2960.823768,459.657299,10140.821405
1018.336208,-666.185348,-3140.991542,8216.285956
1018.336537,1036.288319,-4749.792088,8068.244768
1018.336867,1332.370696,-3217.601092,9178.553681
1018.337197,0.000000,-919.314598,10214.842000
1018.337526,-1480.411884,995.924147,12361.439231
1018.337856,-2664.741391,3370.820191,14211.954086
1018.338185,-3108.864956,4366.744339,13693.809927
1018.338515,-1702.473667,2068.457845,10955.047942
1018.338845,444.123565,-1991.848295,7846.182985
1018.339174,1406.391290,-4443.353888,7105.977043
1018.339504,1184.329507,-3677.258390,8068.244768
1018.339833,-518.144159,-1149.143247,9030.512492
1018.340163,-2072.576638,306.438199,10214.842000
1018.340493,-2368.659014,2068.457845,11547.212695
1018.340822,-2368.659014,3064.381992,10510.924376
1018.341152,-1036.288319,766.095498,8586.388927
1018.341482,962.267725,-2987.772442,6883.915261
1018.341811,1702.473667,-2911.162892,7031.956449
1018.342141,814.226536,-689.485948,8364.327145
1018.342470,-666.185348,1532.190996,10362.883188
1018.342800,-2220.617826,3447.429741,11991.336260
1018.343130,-3552.988522,5132.839837,12139.377449
1018.343459,-3330.926739,5132.839837,10436.903782
1018.343789,-1258.350101,1838.629195,8142.265362
1018.344118,666.185348,-995.924147,6809.894666
1018.344448,1258.350101,-1225.752797,6957.935855
1018.344778,-222.061783,1149.143247,7402.059420
1018.345107,-1332.370696,2757.943793,8808.450710
1018.345437,-2072.576638,3753.867940,10436.903782
1018.345766,-3256.906145,5132.839837,10436.903782
1018.346096,-2738.761985,4290.134789,9252.574275
1018.346426,-814.226536,766.095498,7772.162391
1018.346755,592.164754,-1991.848295,7254.018232
1018.347085,518.144159,-1532.190996,8068.244768
1018.347415,-444.123565,306.438199,9992.780217
1018.347744,-1332.370696,2145.067394,11473.192101
1018.348074,-2442.679609,4366.744339,13175.665768
1018.348403,-2886.803174,6358.592633,13101.645173
1018.348733,-2220.617826,5056.230287,10807.006753
1018.349063,444.123565,1302.362347,8956.491898
1018.349392,2516.700203,-1225.752797,7624.121203
1018.349722,1776.494261,-689.485948,7550.100608
1018.350051,222.061783,766.095498,8660.409521
1018.350381,-1406.391290,1225.752797,9770.718434
1018.350711,-2442.679609,1991.848295,11769.274478
1018.351040,-3256.906145,3447.429741,11769.274478
1018.351370,-2960.823768,919.314598,9400.615463
1018.351699,-1110.308913,-2834.553343,7031.956449
1018.352029,518.144159,-4903.011187,6957.935855
1018.352359,148.041188,-3370.820191,8586.388927
1018.352688,-962.267725,229.828649,10066.800811
1018.353018,-1628.453072,2068.457845,11769.274478
1018.353348,-2590.720797,3294.210641,11991.336260
1018.353677,-2516.700203,3983.696590,11177.109724
1018.354007,-1036.288319,1685.410096,9252.574275
1018.354336,1036.288319,-1838.629195,7698.141797
1018.354666,1998.556043,-2987.772442,7105.977043
1018.354996,592.164754,-1532.190996,7994.224174
1018.355325,-1184.329507,383.047749,9548.656652
1018.355655,-2220.617826,1072.533697,11325.150913
1018.355984,-2812.782580,2451.505594,11695.253884
1018.356314,-2590.720797,2451.505594,9992.780217
1018.356644,-888.247130,-919.314598,8216.285956
1018.356973,666.185348,-2987.772442,7920.203579
1018.357303,1110.308913,-3217.601092,8068.244768
1018.357632,0.000000,-1302.362347,9252.574275
1018.357962,-1184.329507,1378.971896,11325.150913
1018.358292,-2072.576638,4366.744339,13027.624579
1018.358621,-3182.885551,6128.763984,12139.377449
1018.358951,-2146.597232,3907.087040,10436.903782
1018.359280,222.061783,1072.533697,8660.409521
1018.359610,1480.411884,-766.095498,7476.080014
1018.359940,1036.288319,229.828649,7031.956449
1018.360269,-666.185348,1225.752797,7550.100608
1018.360599,-1406.391290,1455.581446,9400.615463
1018.360929,-2368.659014,3677.258390,11547.212695
1018.361258,-3256.906145,5439.278036,11399.171507
1018.361588,-2368.659014,3524.039291,8586.388927
1018.361917,-814.226536,-153.219100,6513.812290
1018.362247,962.267725,-2451.505594,6735.874072
1018.362577,1184.329507,-766.095498,8734.430116
1018.362906,-370.102971,1532.190996,10362.883188
1018.363236,-1628.453072,3600.648841,11621.233289
1018.363565,-2886.803174,5822.325785,12509.480420
1018.363895,-3552.988522,5822.325785,12361.439231
1018.364225,-1702.473667,3753.867940,10362.883188
1018.364554,296.082377,766.095498,7698.141797
1018.364884,1480.411884,-1302.362347,6661.853478
1018.365213,740.205942,-536.266849,7179.997637
1018.365543,-444.123565,1302.362347,8734.430116
1018.365873,-1332.370696,2221.676944,9992.780217
1018.366202,-2368.659014,3064.381992,11251.130318
1018.366532,-2516.700203,4290.134789,10362.883188
1018.366862,-1110.308913,1302.362347,7698.141797
1018.367191,740.205942,-3140.991542,6513.812290
1018.367521,1406.391290,-4366.744339,7031.956449
1018.367850,74.020594,-1991.848295,8734.430116
1018.368180,-962.267725,-612.876398,10436.903782
1018.368510,-2368.659014,1072.533697,12731.542202
1018.368839,-3108.864956,3140.991542,12879.583391
1018.369169,-3256.906145,3830.477490,12065.356855
1018.369498,-814.226536,1149.143247,9918.759623
1018.369828,1480.411884,-1915.238745,8216.285956
1018.370158,2146.597232,-2681.334243,7476.080014
1018.370487,518.144159,-766.095498,8734.430116
1018.370817,-740.205942,766.095498,10584.944971
1018.371146,-1850.514855,2145.067394,11769.274478
1018.371476,-2812.782580,2834.553343,11473.192101
1018.371806,-2664.741391,1455.581446,9474.636058
1018.372135,-592.164754,-2681.334243,7772.162391
1018.372465,1036.288319,-4903.011187,7254.018232
1018.372795,814.226536,-3600.648841,8660.409521
1018.373124,-666.185348,-766.095498,9474.636058
1018.373454,-1998.556043,919.314598,11103.089130
1018.373783,-2368.659014,3370.820191,12805.562797
1018.374113,-3034.844362,5056.230287,12657.521608
1018.374443,-1998.556043,4979.620737,10732.986159
1018.374772,0.000000,1915.238745,7698.141797
1018.375102,1776.494261,-1225.752797,6587.832884
1018.375431,1554.432478,-1532.190996,7328.038826
1018.375761,-148.041188,1072.533697,8586.388927
1018.376090,-1850.514855,3140.991542,9844.739029
1018.376420,-2590.720797,4060.306139,10881.027347
1018.376750,-3256.906145,4903.011187,10362.883188
1018.377079,-2368.659014,3217.601092,8660.409521
1018.377409,-814.226536,-153.219100,6587.832884
1018.377738,962.267725,-2451.505594,6809.894666
1018.378068,740.205942,-383.047749,8142.265362
1018.378398,-666.185348,2068.457845,9918.759623
1018.378727,-2072.576638,3140.991542,11399.171507
1018.379057,-3108.864956,5515.887586,11843.295072
1018.379386,-3108.864956,6588.421283,11621.233289
1018.379716,-1924.535449,4903.011187,9696.697840
1018.380046,592.164754,842.705048,7476.080014
1018.380375,2146.597232,-1838.629195,6587.832884
1018.380705,1258.350101,-459.657299,7105.977043
1018.381034,-444.123565,2374.896044,8660.409521
1018.381364,-1776.494261,3830.477490,10658.965565
1018.381694,-3404.947333,4826.401637,11251.130318
1018.382023,-3997.112087,3524.039291,10066.800811
1018.382353,-1850.514855,536.266849,8734.430116
1018.382682,962.267725,-2604.724693,7476.080014
1018.383012,1702.473667,-3600.648841,7105.977043
1018.383342,740.205942,-2757.943793,8438.347739
1018.383671,-518.144159,-306.438199,11103.089130
1018.384001,-1998.556043,2834.553343,13841.851115
1018.384330,-2960.823768,5439.278036,14582.057057
1018.384660,-2886.803174,4749.792088,12731.542202
1018.384990,-740.205942,1302.362347,9696.697840
1018.385319,1332.370696,-2911.162892,7920.203579
1018.385649,2220.617826,-4213.525239,7698.141797
1018.385978,740.205942,-2528.115143,8660.409521
1018.386308,-962.267725,76.609550,10288.862594
1018.386637,-2886.803174,2374.896044,11695.253884
1018.386967,-3701.029710,2757.943793,11843.295072
1018.387297,-2664.741391,1149.143247,9622.677246
1018.387626,-296.082377,-1532.190996,7550.100608
1018.387956,1480.411884,-3370.820191,6513.812290
1018.388285,1702.473667,-3600.648841,6957.935855
1018.388615,-370.102971,-1532.190996,8586.388927
1018.388945,-2146.597232,995.924147,10881.027347
1018.389274,-3478.967927,3370.820191,12509.480420
1018.389604,-4441.235652,4979.620737,12361.439231
1018.389933,-3330.926739,4290.134789,10436.903782
1018.390263,-1110.308913,-536.266849,7994.224174
1018.390593,666.185348,-3140.991542,6883.915261
1018.390922,592.164754,-1685.410096,6587.832884
1018.391252,-222.061783,1302.362347,7846.182985
1018.391581,-814.226536,3294.210641,9252.574275
1018.391911,-1702.473667,4366.744339,11103.089130
1018.392241,-2220.617826,5056.230287,10510.924376
1018.392570,-1184.329507,3064.381992,9030.512492
1018.392900,592.164754,0.000000,6957.935855
1018.393229,1924.535449,-2221.676944,7031.956449
1018.393559,1406.391290,-1991.848295,7920.203579
1018.393889,0.000000,612.876398,10362.883188
1018.394218,-2072.576638,3064.381992,12435.459826
1018.394548,-3256.906145,5745.716235,13693.809927
1018.394877,-3701.029710,6971.469032,12583.501014
1018.395207,-2072.576638,4519.963438,10140.821405
1018.395537,296.082377,153.219100,7402.059420
1018.395866,1924.535449,-2298.286494,6809.894666
1018.396196,1406.391290,-306.438199,7179.997637
1018.396525,-592.164754,2068.457845,8808.450710
1018.396855,-1998.556043,3524.039291,10807.006753
1018.397184,-3404.947333,4290.134789,12287.418637
1018.397514,-3775.050304,4519.963438,11325.150913
1018.397844,-1924.535449,1762.019645,9030.512492
1018.398173,370.102971,-2221.676944,7328.038826
1018.398503,1480.411884,-3447.429741,6735.874072
1018.398832,1036.288319,-1991.848295,7772.162391
1018.399162,-592.164754,229.828649,10214.842000
1018.399492,-1776.494261,3064.381992,12435.459826
1018.399821,-3034.844362,5515.887586,12583.501014
1018.400151,-2886.803174,4519.963438,10658.965565
1018.400480,-962.267725,1072.533697,8142.265362
1018.400810,1036.288319,-2834.553343,6883.915261
1018.401140,1406.391290,-3217.601092,6661.853478
1018.401469,0.000000,-1532.190996,7994.224174
1018.401799,-1406.391290,536.266849,10066.800811
1018.402128,-2664.741391,1762.019645,11473.192101
1018.402458,-3108.864956,2604.724693,11843.295072
1018.402788,-2664.741391,1149.143247,9474.636058
1018.403117,-814.226536,-2068.457845,7550.100608
1018.403447,1480.411884,-3677.258390,7550.100608
1018.403776,1258.350101,-3294.210641,7994.224174
1018.404106,74.020594,-1991.848295,9400.615463
1018.404436,-1184.329507,76.609550,11251.130318
1018.404765,-2368.659014,1762.019645,13249.686362
1018.405095,-3256.906145,3907.087040,13767.830521
1018.405424,-2886.803174,3524.039291,11695.253884
1018.405754,0.000000,0.000000,9252.574275
1018.406084,1258.350101,-2911.162892,8586.388927
1018.406413,962.267725,-2145.067394,8956.491898
1018.406743,-814.226536,459.657299,9770.718434
1018.407072,-2072.576638,2068.457845,10214.842000
1018.407402,-2664.741391,2911.162892,10658.965565
1018.407731,-2738.761985,3294.210641,10510.924376
1018.408061,-1776.494261,2451.505594,9252.574275
1018.408391,-222.061783,-766.095498,7328.038826
1018.408720,888.247130,-2298.286494,6883.915261
1018.409050,148.041188,-995.924147,7698.141797
1018.409379,-444.123565,1608.800546,9992.780217
1018.409709,-1998.556043,2834.553343,11621.233289
1018.410039,-3330.926739,4749.792088,12287.418637
1018.410368,-3330.926739,6205.373534,11325.150913
1018.410698,-2368.659014,3983.696590,8882.471304
1018.411027,-370.102971,306.438199,6883.915261
1018.411357,518.144159,-1225.752797,6143.709319
1018.411687,296.082377,0.000000,6587.832884
1018.412016,-444.123565,1838.629195,8142.265362
1018.412346,-1554.432478,2604.724693,9622.677246
1018.412675,-2442.679609,4596.572988,9992.780217
1018.413005,-3256.906145,4290.134789,9622.677246
1018.413335,-1554.432478,1762.019645,8290.306550
1018.413664,666.185348,-1302.362347,7994.224174
1018.413994,1332.370696,-1991.848295,8216.285956
1018.414323,296.082377,-689.485948,8956.491898
1018.414653,-518.144159,0.000000,10881.027347
1018.414983,-1332.370696,1762.019645,12731.542202
1018.415312,-2960.823768,4596.572988,13693.809927
