#time,accel_x,accel_y,accel_z
795.048960,-666.185348,919.314598,9178.553681
795.049290,-1110.308913,995.924147,9400.615463
795.049619,-888.247130,919.314598,9400.615463
795.049948,-1110.308913,842.705048,9548.656652
795.050277,-888.247130,842.705048,9252.574275
795.050606,-666.185348,995.924147,9844.739029
795.050935,-1110.308913,842.705048,9326.594869
795.051264,-1036.288319,995.924147,9474.636058
795.051593,-888.247130,1225.752797,9622.677246
795.051923,-888.247130,919.314598,9548.656652
795.052252,-1110.308913,1378.971896,9474.636058
795.052581,-740.205942,919.314598,9548.656652
795.052910,-962.267725,842.705048,9622.677246
795.053239,-1036.288319,919.314598,9400.615463
795.053568,-962.267725,689.485948,9770.718434
795.053897,-740.205942,1149.143247,9696.697840
795.054226,-888.247130,766.095498,9696.697840
795.054555,-962.267725,842.705048,9696.697840
795.054885,-962.267725,995.924147,9622.677246
795.055214,-962.267725,1149.143247,9622.677246
795.055543,-1184.329507,536.266849,9622.677246
795.055872,-666.185348,842.705048,9474.636058
795.056201,-814.226536,1072.533697,9696.697840
795.056530,-1110.308913,842.705048,9548.656652
795.056859,-1036.288319,842.705048,9622.677246
795.057188,-1110.308913,995.924147,9474.636058
795.057518,-666.185348,919.314598,9474.636058
795.057847,-888.247130,995.924147,9548.656652
795.058176,-1036.288319,1072.533697,9474.636058
795.058505,-888.247130,1072.533697,9400.615463
795.058834,-1110.308913,995.924147,9474.636058
795.059163,-1110.308913,612.876398,9104.533087
795.059492,-888.247130,1072.533697,9400.615463
795.059821,-962.267725,995.924147,9548.656652
795.060150,-1110.308913,842.705048,9474.636058
795.060480,-962.267725,689.485948,9400.615463
795.060809,-1036.288319,689.485948,9252.574275
795.061138,-888.247130,1149.143247,9104.533087
795.061467,-1110.308913,1072.533697,9474.636058
795.061796,-962.267725,1149.143247,9548.656652
795.062125,-888.247130,995.924147,9696.697840
795.062454,-1036.288319,919.314598,9548.656652
795.062783,-962.267725,612.876398,9252.574275
795.063112,-962.267725,919.314598,9696.697840
795.063442,-888.247130,919.314598,9622.677246
795.063771,-1110.308913,842.705048,9474.636058
795.064100,-1036.288319,919.314598,9474.636058
795.064429,-1184.329507,689.485948,9400.615463
795.064758,-814.226536,842.705048,9548.656652
795.065087,-1036.288319,995.924147,9770.718434
795.065416,-1110.308913,995.924147,9770.718434
795.065745,-1110.308913,842.705048,9548.656652
795.066075,-666.185348,919.314598,9252.574275
795.066404,-1036.288319,1302.362347,9548.656652
795.066733,-1110.308913,842.705048,9622.677246
795.067062,-1110.308913,689.485948,9474.636058
795.067391,-1184.329507,995.924147,9474.636058
795.067720,-962.267725,1149.143247,9696.697840
795.068049,-814.226536,842.705048,9548.656652
795.068378,-1110.308913,1072.533697,9400.615463
795.068707,-1110.308913,995.924147,9622.677246
795.069037,-1036.288319,842.705048,9474.636058
795.069366,-1110.308913,689.485948,9474.636058
795.069695,-962.267725,459.657299,9030.512492
795.070024,-1332.370696,1302.362347,9474.636058
795.070353,-1184.329507,1072.533697,9326.594869
795.070682,-962.267725,1072.533697,9474.636058
795.071011,-1110.308913,1072.533697,9474.636058
795.071340,-888.247130,1072.533697,9474.636058
795.071670,-1036.288319,842.705048,9400.615463
795.071999,-962.267725,1072.533697,9326.594869
795.072328,-518.144159,1072.533697,8956.491898
795.072657,222.061783,536.266849,9030.512492
795.072986,814.226536,153.219100,9400.615463
795.073315,1110.308913,536.266849,9030.512492
795.073644,444.123565,536.266849,9474.636058
795.073973,74.020594,536.266849,10140.821405
795.074302,-518.144159,1378.971896,10510.924376
795.074632,-814.226536,1149.143247,10658.965565
795.074961,0.000000,459.657299,9992.780217
795.075290,0.000000,0.000000,9474.636058
795.075619,518.144159,0.000000,9326.594869
795.075948,1554.432478,153.219100,9178.553681
795.076277,2368.659014,459.657299,8956.491898
795.076606,2960.823768,919.314598,8660.409521
795.076935,3627.009116,1225.752797,9400.615463
795.077265,3701.029710,1915.238745,9474.636058
795.077594,3404.947333,1685.410096,9844.739029
795.077923,2886.803174,842.705048,10510.924376
795.078252,2072.576638,995.924147,10658.965565
795.078581,1258.350101,842.705048,10807.006753
795.078910,1036.288319,0.000000,10955.047942
795.079239,1406.391290,-383.047749,10436.903782
795.079568,1998.556043,-459.657299,9548.656652
795.079897,2590.720797,-536.266849,9104.533087
795.080227,3404.947333,612.876398,8734.430116
795.080556,3775.050304,1225.752797,9104.533087
795.080885,3627.009116,2451.505594,9252.574275
795.081214,2812.782580,2987.772442,9474.636058
795.081543,1998.556043,2911.162892,9770.718434
795.081872,222.061783,2834.553343,9622.677246
795.082201,-1332.370696,2681.334243,9918.759623
795.082530,-3330.926739,1762.019645,9474.636058
795.082860,-4071.132681,766.095498,8808.450710
795.083189,-3627.009116,-383.047749,7920.203579
795.083518,-2368.659014,-766.095498,7105.977043
795.083847,-518.144159,-995.924147,5625.565159
795.084176,1036.288319,-153.219100,5847.626942
795.084505,2294.638420,383.047749,7105.977043
795.084834,2368.659014,2068.457845,9104.533087
795.085163,1184.329507,3907.087040,11399.171507
795.085492,-888.247130,4826.401637,12361.439231
795.085822,-2442.679609,4060.306139,13175.665768
795.086151,-3552.988522,1838.629195,12435.459826
795.086480,-3478.967927,-1072.533697,11843.295072
795.086809,-2960.823768,-2834.553343,10807.006753
795.087138,-2072.576638,-3140.991542,9252.574275
795.087467,-962.267725,-3447.429741,7994.224174
795.087796,1036.288319,-2221.676944,8512.368333
795.088125,1924.535449,-306.438199,8290.306550
795.088455,2590.720797,1455.581446,8586.388927
795.088784,2738.761985,3217.601092,9400.615463
795.089113,2368.659014,4443.353888,9400.615463
795.089442,1850.514855,4596.572988,10362.883188
795.089771,0.000000,3140.991542,10510.924376
795.090100,-1998.556043,2145.067394,10436.903782
795.090429,-3108.864956,459.657299,10584.944971
795.090758,-3701.029710,-383.047749,10362.883188
795.091087,-4663.297435,-1608.800546,9622.677246
795.091417,-3997.112087,-2221.676944,9178.553681
795.091746,-2442.679609,-2451.505594,8734.430116
795.092075,-1036.288319,-1455.581446,8512.368333
795.092404,74.020594,459.657299,8512.368333
795.092733,222.061783,2068.457845,8956.491898
795.093062,148.041188,2451.505594,9918.759623
795.093391,-148.041188,2911.162892,10955.047942
795.093720,-1258.350101,2757.943793,11251.130318
795.094049,-2368.659014,2604.724693,10732.986159
795.094379,-2294.638420,689.485948,9770.718434
795.094708,-1258.350101,-995.924147,8512.368333
795.095037,444.123565,-1608.800546,7698.141797
795.095366,2220.617826,-1149.143247,6883.915261
795.095695,3701.029710,-229.828649,6439.791695
795.096024,4515.256246,1838.629195,7105.977043
795.096353,4145.153275,4213.525239,9104.533087
795.096682,2442.679609,5132.839837,10732.986159
795.097012,1184.329507,5592.497135,11843.295072
795.097341,-1036.288319,4826.401637,11917.315666
795.097670,-3478.967927,3447.429741,11917.315666
795.097999,-5107.421000,536.266849,11251.130318
795.098328,-5699.585753,-2298.286494,10436.903782
795.098657,-6513.812290,-3907.087040,9696.697840
795.098986,-6513.812290,-3140.991542,9178.553681
795.099315,-5403.503377,-2451.505594,8068.244768
795.099644,-2960.823768,-1762.019645,7550.100608
795.099974,-592.164754,-536.266849,6883.915261
795.100303,888.247130,1532.190996,6735.874072
795.100632,2294.638420,3447.429741,7402.059420
795.100961,3182.885551,4519.963438,8660.409521
795.101290,2072.576638,4673.182538,9992.780217
795.101619,74.020594,4749.792088,11769.274478
795.101948,-1702.473667,3907.087040,13249.686362
795.102277,-3034.844362,2374.896044,13027.624579
795.102607,-3701.029710,383.047749,11843.295072
795.102936,-3404.947333,-1991.848295,10510.924376
795.103265,-2368.659014,-3064.381992,9770.718434
795.103594,-1924.535449,-2911.162892,8882.471304
795.103923,-1628.453072,-1149.143247,8956.491898
795.104252,-2072.576638,1225.752797,8512.368333
795.104581,-2442.679609,2374.896044,8438.347739
795.104910,-2146.597232,2374.896044,8290.306550
795.105239,-1776.494261,1762.019645,7698.141797
795.105569,-814.226536,766.095498,8068.244768
795.105898,-444.123565,536.266849,7624.121203
795.106227,-370.102971,-306.438199,7772.162391
795.106556,-222.061783,0.000000,8216.285956
795.106885,-148.041188,0.000000,9770.718434
795.107214,74.020594,995.924147,11177.109724
795.107543,222.061783,2145.067394,11843.295072
795.107872,74.020594,2068.457845,11769.274478
795.108202,740.205942,1762.019645,11177.109724
795.108531,1110.308913,1378.971896,10658.965565
795.108860,518.144159,1149.143247,11103.089130
795.109189,0.000000,995.924147,10658.965565
795.109518,-740.205942,842.705048,10140.821405
795.109847,-1036.288319,0.000000,9178.553681
795.110176,-370.102971,-612.876398,8438.347739
795.110505,148.041188,-1072.533697,7105.977043
795.110834,962.267725,-1225.752797,6661.853478
795.111164,1406.391290,-459.657299,6809.894666
795.111493,1036.288319,1378.971896,7254.018232
795.111822,962.267725,2451.505594,8438.347739
795.112151,0.000000,3064.381992,9844.739029
795.112480,-1258.350101,3753.867940,10881.027347
795.112809,-2146.597232,3524.039291,11473.192101
795.113138,-2368.659014,2068.457845,11621.233289
795.113467,-3034.844362,1532.190996,11473.192101
795.113797,-3108.864956,0.000000,10510.924376
795.114126,-2960.823768,-689.485948,10436.903782
795.114455,-2960.823768,-612.876398,10140.821405
795.114784,-3108.864956,0.000000,9918.759623
795.115113,-2960.823768,612.876398,9844.739029
795.115442,-3034.844362,919.314598,9178.553681
795.115771,-1850.514855,1455.581446,8364.327145
795.116100,-592.164754,1072.533697,7179.997637
795.116429,518.144159,383.047749,6957.935855
795.116759,1332.370696,612.876398,6957.935855
795.117088,2072.576638,1378.971896,7328.038826
795.117417,1628.453072,1532.190996,9030.512492
795.117746,814.226536,2528.115143,10807.006753
795.118075,-222.061783,2528.115143,11843.295072
795.118404,-1036.288319,2528.115143,12583.501014
795.118733,-1702.473667,2834.553343,12731.542202
795.119062,-1998.556043,1838.629195,12213.398043
795.119392,-2442.679609,1225.752797,11399.171507
795.119721,-2738.761985,459.657299,10732.986159
795.120050,-3108.864956,229.828649,9770.718434
795.120379,-3330.926739,0.000000,8586.388927
795.120708,-2812.782580,-306.438199,6957.935855
795.121038,-1702.473667,-1149.143247,6365.771101
795.121367,-888.247130,-842.705048,5551.544565
795.121696,74.020594,-306.438199,5107.421000
795.122025,1110.308913,-306.438199,6069.688724
795.122355,1184.329507,842.705048,7994.224174
795.122684,444.123565,2681.334243,10288.862594
795.123013,-1110.308913,3524.039291,12139.377449
795.123342,-1924.535449,3677.258390,13027.624579
795.123672,-1998.556043,2757.943793,13101.645173
795.124001,-1924.535449,1455.581446,12139.377449
795.124330,-1406.391290,-459.657299,11103.089130
795.124659,-296.082377,-1302.362347,10288.862594
795.124989,-370.102971,-1225.752797,9696.697840
795.125318,-740.205942,0.000000,9622.677246
795.125647,-1628.453072,459.657299,9770.718434
795.125976,-1924.535449,1455.581446,9104.533087
795.126306,-1258.350101,1378.971896,8882.471304
795.126635,-444.123565,842.705048,8216.285956
795.126964,148.041188,229.828649,7624.121203
795.127293,740.205942,-229.828649,7254.018232
795.127623,518.144159,-153.219100,7402.059420
795.127952,370.102971,536.266849,8512.368333
795.128281,0.000000,1532.190996,10288.862594
795.128610,-296.082377,2145.067394,11399.171507
795.128940,-1036.288319,2221.676944,11547.212695
795.129269,-1332.370696,1685.410096,11251.130318
795.129598,-1036.288319,1378.971896,11547.212695
795.129927,-1480.411884,1455.581446,10955.047942
795.130257,-1702.473667,842.705048,10732.986159
795.130586,-2146.597232,766.095498,10288.862594
795.130915,-2146.597232,612.876398,9400.615463
795.131244,-1628.453072,766.095498,8586.388927
795.131574,-518.144159,0.000000,7476.080014
795.131903,518.144159,-383.047749,6809.894666
795.132232,1036.288319,-229.828649,6217.729913
795.132561,1110.308913,612.876398,6439.791695
795.132891,962.267725,1685.410096,7179.997637
795.133220,-222.061783,1991.848295,8808.450710
795.133549,-962.267725,2604.724693,10362.883188
795.133878,-1850.514855,3294.210641,11399.171507
795.134208,-2368.659014,2374.896044,11695.253884
795.134537,-2442.679609,1455.581446,11251.130318
795.134866,-2368.659014,766.095498,11177.109724
795.135195,-2220.617826,0.000000,11029.068536
795.135525,-2368.659014,0.000000,10732.986159
795.135854,-2368.659014,459.657299,10807.006753
795.136183,-2812.782580,1149.143247,10140.821405
795.136512,-3108.864956,1225.752797,9326.594869
795.136842,-2812.782580,1378.971896,8882.471304
795.137171,-1850.514855,612.876398,7698.141797
795.137500,-666.185348,-229.828649,6883.915261
795.137829,-148.041188,-536.266849,6439.791695
795.138158,148.041188,-689.485948,6957.935855
795.138488,1036.288319,-229.828649,8142.265362
795.138817,1036.288319,766.095498,9844.739029
795.139146,740.205942,2374.896044,11325.150913
795.139475,592.164754,2451.505594,12213.398043
795.139805,222.061783,2374.896044,12731.542202
795.140134,74.020594,2374.896044,12879.583391
795.140463,-814.226536,2451.505594,11991.336260
795.140792,-1406.391290,1378.971896,10955.047942
795.141122,-1998.556043,153.219100,10140.821405
795.141451,-2516.700203,-536.266849,9622.677246
795.141780,-2738.761985,-383.047749,8512.368333
795.142109,-2812.782580,-995.924147,7698.141797
795.142439,-2220.617826,-1455.581446,6661.853478
795.142768,-740.205942,-1608.800546,6217.729913
795.143097,222.061783,-1225.752797,6439.791695
795.143426,962.267725,0.000000,7179.997637
795.143756,1110.308913,1685.410096,8438.347739
795.144085,444.123565,2987.772442,9252.574275
795.144414,-518.144159,3524.039291,10955.047942
795.144743,-1258.350101,3830.477490,11843.295072
795.145073,-1776.494261,2757.943793,11769.274478
795.145402,-2368.659014,536.266849,11473.192101
795.145731,-2516.700203,536.266849,11029.068536
795.146060,-2516.700203,-383.047749,10510.924376
795.146390,-2442.679609,-842.705048,10436.903782
795.146719,-2664.741391,-383.047749,10066.800811
795.147048,-3256.906145,76.609550,9548.656652
795.147377,-2960.823768,612.876398,8882.471304
795.147707,-2146.597232,612.876398,8364.327145
795.148036,-814.226536,229.828649,7698.141797
795.148365,592.164754,-536.266849,7179.997637
795.148694,1332.370696,76.609550,7550.100608
795.149024,1480.411884,612.876398,7994.224174
795.149353,1406.391290,1072.533697,9252.574275
795.149682,962.267725,1762.019645,10436.903782
795.150011,888.247130,2221.676944,11547.212695
795.150341,370.102971,2834.553343,11991.336260
795.150670,-518.144159,2528.115143,11695.253884
795.150999,-1184.329507,1762.019645,11917.315666
795.151328,-1480.411884,1455.581446,11399.171507
795.151658,-1998.556043,1149.143247,10955.047942
795.151987,-2516.700203,919.314598,10066.800811
795.152316,-2812.782580,689.485948,9400.615463
795.152645,-2812.782580,459.657299,8142.265362
795.152975,-1850.514855,-306.438199,6587.832884
795.153304,-666.185348,-1685.410096,6069.688724
795.153633,222.061783,-1149.143247,6143.709319
795.153962,0.000000,153.219100,6513.812290
795.154292,666.185348,995.924147,7846.182985
795.154621,0.000000,2298.286494,9326.594869
795.154950,-444.123565,3294.210641,10214.842000
795.155279,-370.102971,3447.429741,11177.109724
795.155609,-222.061783,2681.334243,11399.171507
795.155938,-148.041188,2374.896044,11547.212695
795.156267,-814.226536,1685.410096,11103.089130
795.156596,-1258.350101,689.485948,10881.027347
795.156926,-1480.411884,689.485948,11103.089130
795.157255,-1998.556043,919.314598,11103.089130
795.157584,-2812.782580,842.705048,10436.903782
795.157913,-4071.132681,459.657299,9548.656652
795.158243,-3404.947333,153.219100,8364.327145
795.158572,-2368.659014,-536.266849,7624.121203
795.158901,-1258.350101,-919.314598,7254.018232
795.159230,0.000000,-689.485948,7105.977043
795.159560,518.144159,-536.266849,6809.894666
795.159889,1258.350101,76.609550,7994.224174
795.160218,1480.411884,1225.752797,9622.677246
795.160547,1332.370696,2604.724693,11029.068536
795.160877,1110.308913,3217.601092,12065.356855
795.161206,370.102971,2911.162892,12435.459826
795.161535,-666.185348,2604.724693,12879.583391
795.161864,-1554.432478,2068.457845,12361.439231
795.162194,-2442.679609,1149.143247,11843.295072
795.162523,-3256.906145,689.485948,10584.944971
795.162852,-2886.803174,0.000000,9844.739029
795.163181,-3478.967927,-842.705048,8512.368333
795.163511,-2812.782580,-1455.581446,7105.977043
795.163840,-1998.556043,-1991.848295,5773.606348
795.164169,-740.205942,-1532.190996,5773.606348
795.164498,74.020594,0.000000,5995.668130
795.164828,740.205942,1302.362347,6143.709319
795.165157,1184.329507,1455.581446,7550.100608
795.165486,666.185348,2298.286494,9400.615463
795.165815,-296.082377,3294.210641,11325.150913
795.166145,-1776.494261,3677.258390,12657.521608
795.166474,-2960.823768,3294.210641,12731.542202
795.166803,-3256.906145,1762.019645,12657.521608
795.167132,-2960.823768,0.000000,11843.295072
795.167462,-2368.659014,-919.314598,11177.109724
795.167791,-1924.535449,-306.438199,10436.903782
795.168120,-2294.638420,-459.657299,9770.718434
795.168449,-2738.761985,153.219100,9326.594869
795.168779,-2886.803174,1072.533697,8438.347739
795.169108,-2146.597232,842.705048,7402.059420
795.169437,-296.082377,229.828649,7031.956449
795.169766,1258.350101,612.876398,6957.935855
795.170096,1702.473667,306.438199,7105.977043
795.170425,1628.453072,536.266849,8216.285956
795.170754,1332.370696,1072.533697,9474.636058
795.171083,962.267725,2221.676944,11325.150913
795.171413,0.000000,2834.553343,12065.356855
795.171742,-370.102971,2757.943793,12287.418637
795.172071,-740.205942,2221.676944,11991.336260
795.172400,-592.164754,1915.238745,11399.171507
795.172729,-814.226536,1225.752797,10732.986159
795.173059,-1036.288319,766.095498,9918.759623
795.173388,-1924.535449,995.924147,9548.656652
795.173717,-2738.761985,459.657299,8660.409521
795.174046,-2442.679609,459.657299,7994.224174
795.174376,-1850.514855,-306.438199,7105.977043
795.174705,-666.185348,-612.876398,6439.791695
795.175034,222.061783,-766.095498,6291.750507
795.175363,296.082377,0.000000,6957.935855
795.175693,296.082377,1225.752797,7846.182985
795.176022,0.000000,2068.457845,9030.512492
795.176351,-370.102971,2451.505594,10510.924376
795.176680,-1036.288319,3370.820191,10955.047942
795.177010,-740.205942,3907.087040,11325.150913
795.177339,-740.205942,2145.067394,11029.068536
795.177668,-814.226536,1302.362347,11103.089130
795.177997,-1184.329507,766.095498,10955.047942
795.178327,-1850.514855,919.314598,11029.068536
795.178656,-2664.741391,1532.190996,10807.006753
795.178985,-3627.009116,842.705048,10362.883188
795.179314,-4219.173869,459.657299,9696.697840
795.179644,-3627.009116,0.000000,8808.450710
795.179973,-2664.741391,-612.876398,7920.203579
795.180302,-1406.391290,-1685.410096,6735.874072
795.180631,-666.185348,-1608.800546,6735.874072
795.180961,148.041188,-995.924147,7105.977043
795.181290,814.226536,153.219100,8364.327145
795.181619,1332.370696,1685.410096,10066.800811
795.181948,1406.391290,2604.724693,11251.130318
795.182278,296.082377,2911.162892,12213.398043
795.182607,-296.082377,2987.772442,12731.542202
795.182936,-814.226536,2681.334243,12879.583391
795.183265,-1480.411884,2145.067394,12287.418637
795.183595,-2294.638420,1149.143247,11103.089130
795.183924,-2590.720797,536.266849,10140.821405
795.184253,-3034.844362,0.000000,8956.491898
795.184582,-2960.823768,-995.924147,7698.141797
795.184912,-2368.659014,-1225.752797,7031.956449
795.185241,-1332.370696,-1225.752797,5699.585753
795.185570,-740.205942,-536.266849,5625.565159
795.185899,0.000000,-306.438199,5995.668130
795.186229,592.164754,536.266849,7105.977043
795.186558,296.082377,1915.238745,8438.347739
795.186887,-148.041188,2987.772442,10214.842000
795.187216,-666.185348,3370.820191,11029.068536
795.187546,-1480.411884,3983.696590,11473.192101
795.187875,-1850.514855,1915.238745,11991.336260
795.188204,-1998.556043,995.924147,11473.192101
795.188533,-1850.514855,536.266849,11177.109724
795.188863,-1332.370696,0.000000,10658.965565
795.189192,-1850.514855,306.438199,10066.800811
795.189521,-2146.597232,0.000000,9844.739029
795.189850,-2442.679609,229.828649,9622.677246
795.190180,-2516.700203,1072.533697,9326.594869
795.190509,-1924.535449,842.705048,8364.327145
795.190838,-888.247130,0.000000,7994.224174
795.191167,0.000000,-306.438199,7402.059420
795.191497,592.164754,0.000000,7179.997637
795.191826,1184.329507,-153.219100,8290.306550
795.192155,1554.432478,919.314598,9474.636058
795.192484,1184.329507,2145.067394,10807.006753
795.192814,518.144159,2911.162892,11695.253884
795.193143,74.020594,2604.724693,12065.356855
795.193472,-444.123565,2451.505594,11843.295072
795.193801,-592.164754,2145.067394,11547.212695
795.194131,-962.267725,1072.533697,10881.027347
795.194460,-1628.453072,766.095498,10658.965565
795.194789,-2442.679609,919.314598,9696.697840
795.195118,-2960.823768,0.000000,8808.450710
795.195448,-2886.803174,153.219100,7846.182985
795.195777,-1924.535449,-536.266849,6809.894666
795.196106,-1036.288319,-1532.190996,5773.606348
795.196435,0.000000,-919.314598,5921.647536
795.196765,370.102971,0.000000,6587.832884
795.197094,148.041188,1225.752797,7846.182985
795.197423,-148.041188,2528.115143,9474.636058
795.197752,-814.226536,3370.820191,10658.965565
795.198082,-962.267725,3064.381992,10881.027347
795.198411,-1036.288319,3064.381992,11547.212695
795.198740,-1110.308913,1838.629195,11399.171507
795.199069,-1258.350101,995.924147,10955.047942
795.199399,-962.267725,306.438199,10584.944971
795.199728,-1850.514855,689.485948,10732.986159
795.200057,-2516.700203,612.876398,10807.006753
795.200386,-3404.947333,459.657299,10436.903782
795.200716,-3701.029710,689.485948,9548.656652
795.201045,-3034.844362,0.000000,8660.409521
795.201374,-2072.576638,0.000000,7698.141797
795.201703,-666.185348,-1149.143247,7105.977043
795.202033,0.000000,-1378.971896,7105.977043
795.202362,666.185348,-383.047749,7772.162391
795.202691,814.226536,306.438199,9104.533087
795.203020,1332.370696,1915.238745,10807.006753
795.203350,666.185348,2451.505594,11399.171507
795.203679,222.061783,2528.115143,12287.418637
795.204008,-296.082377,2604.724693,12657.521608
795.204337,-666.185348,2451.505594,11991.336260
795.204667,-1110.308913,1762.019645,11251.130318
795.204996,-1554.432478,536.266849,10732.986159
795.205325,-2590.720797,612.876398,10436.903782
795.205654,-3034.844362,383.047749,9104.533087
795.205984,-2812.782580,-459.657299,7920.203579
795.206313,-1998.556043,-1149.143247,6513.812290
795.206642,-1110.308913,-1302.362347,5847.626942
795.206971,-222.061783,-1302.362347,5773.606348
795.207301,296.082377,0.000000,6365.771101
795.207630,370.102971,1225.752797,7402.059420
795.207959,0.000000,2221.676944,8808.450710
795.208288,-296.082377,3677.258390,10066.800811
795.208617,-592.164754,3217.601092,11473.192101
795.208947,-1184.329507,2987.772442,11991.336260
795.209276,-1628.453072,1838.629195,11547.212695
795.209605,-1776.494261,766.095498,11251.130318
795.209934,-1554.432478,459.657299,10881.027347
795.210264,-1406.391290,-229.828649,10807.006753
795.210593,-1998.556043,306.438199,10658.965565
795.210922,-2368.659014,612.876398,10214.842000
795.211251,-2812.782580,766.095498,9622.677246
795.211581,-2590.720797,689.485948,8882.471304
795.211910,-2294.638420,1072.533697,7550.100608
795.212239,-592.164754,-306.438199,7402.059420
795.212568,0.000000,-459.657299,7179.997637
795.212898,296.082377,-229.828649,7476.080014
795.213227,444.123565,612.876398,8438.347739
795.213556,444.123565,1225.752797,9622.677246
795.213885,370.102971,1991.848295,11103.089130
795.214215,0.000000,2451.505594,11917.315666
795.214544,-666.185348,2374.896044,11917.315666
795.214873,-962.267725,2451.505594,11991.336260
795.215202,-1110.308913,1991.848295,11325.150913
795.215532,-1036.288319,766.095498,10955.047942
795.215861,-1554.432478,689.485948,10732.986159
795.216190,-2072.576638,383.047749,9770.718434
795.216519,-2294.638420,153.219100,8660.409521
795.216849,-1776.494261,-612.876398,7476.080014
795.217178,-666.185348,-1225.752797,6291.750507
795.217507,518.144159,-1302.362347,6069.688724
795.217836,1480.411884,-689.485948,6513.812290
795.218166,1480.411884,612.876398,7179.997637
795.218495,666.185348,1915.238745,8290.306550
795.218824,0.000000,2681.334243,9474.636058
795.219153,-370.102971,2987.772442,10732.986159
795.219483,-814.226536,3140.991542,11769.274478
795.219812,-1554.432478,2298.286494,11769.274478
795.220141,-2072.576638,1378.971896,11399.171507
795.220470,-1998.556043,536.266849,11399.171507
795.220800,-2220.617826,0.000000,10436.903782
795.221129,-2516.700203,383.047749,10658.965565
795.221458,-3478.967927,766.095498,10140.821405
795.221787,-3923.091493,383.047749,9844.739029
795.222117,-3997.112087,689.485948,9030.512492
795.222446,-3034.844362,383.047749,8438.347739
795.222775,-1776.494261,-229.828649,7550.100608
795.223104,-740.205942,-689.485948,7105.977043
795.223433,222.061783,-766.095498,7105.977043
795.223763,740.205942,-229.828649,7920.203579
795.224092,1184.329507,689.485948,9844.739029
795.224421,1776.494261,2451.505594,10807.006753
795.224750,1258.350101,3140.991542,11843.295072
795.225079,1036.288319,3140.991542,12139.377449
795.225409,444.123565,2834.553343,12213.398043
795.225738,-296.082377,2374.896044,11769.274478
795.226067,-1036.288319,2221.676944,11325.150913
795.226396,-1850.514855,1378.971896,10881.027347
795.226725,-2738.761985,1302.362347,9992.780217
795.227054,-3552.988522,153.219100,8438.347739
795.227384,-3404.947333,-919.314598,7105.977043
795.227713,-2294.638420,-1991.848295,6217.729913
795.228042,-1702.473667,-1915.238745,5477.523971
795.228371,-518.144159,-995.924147,6069.688724
795.228700,-370.102971,0.000000,6661.853478
795.229030,-296.082377,1072.533697,7846.182985
795.229359,-592.164754,3064.381992,8882.471304
795.229688,-888.247130,3064.381992,9992.780217
795.230017,-1110.308913,3447.429741,10881.027347
795.230346,-1110.308913,2834.553343,11473.192101
795.230676,-1480.411884,1608.800546,11325.150913
795.231005,-1702.473667,919.314598,10955.047942
795.231334,-1924.535449,383.047749,11177.109724
795.231663,-2072.576638,229.828649,10955.047942
795.231992,-2368.659014,306.438199,10881.027347
795.232322,-2590.720797,229.828649,10362.883188
795.232651,-2516.700203,229.828649,9474.636058
795.232980,-1998.556043,536.266849,8512.368333
795.233309,-740.205942,0.000000,8290.306550
795.233638,0.000000,-459.657299,7994.224174
795.233968,444.123565,-842.705048,7772.162391
795.234297,888.247130,0.000000,8068.244768
795.234626,1628.453072,612.876398,8882.471304
795.234955,1406.391290,1455.581446,9696.697840
795.235284,1036.288319,2221.676944,11103.089130
795.235614,444.123565,2221.676944,11843.295072
795.235943,-296.082377,2451.505594,11917.315666
795.236272,-1184.329507,1838.629195,11843.295072
795.236601,-1332.370696,1455.581446,11399.171507
795.236930,-1998.556043,1149.143247,11103.089130
795.237259,-2368.659014,1149.143247,10214.842000
795.237589,-2664.741391,383.047749,9252.574275
795.237918,-2738.761985,-383.047749,7624.121203
795.238247,-2072.576638,-612.876398,7105.977043
795.238576,-962.267725,-1455.581446,6069.688724
795.238905,0.000000,-919.314598,6513.812290
795.239235,296.082377,76.609550,6661.853478
795.239564,518.144159,919.314598,7328.038826
795.239893,962.267725,1608.800546,8512.368333
795.240222,814.226536,1838.629195,10066.800811
795.240551,0.000000,3140.991542,11103.089130
795.240881,-370.102971,3217.601092,11473.192101
795.241210,-962.267725,2374.896044,11473.192101
795.241539,-1184.329507,1455.581446,11325.150913
795.241868,-1184.329507,842.705048,11325.150913
795.242197,-1258.350101,383.047749,11251.130318
795.242527,-2220.617826,1072.533697,11177.109724
795.242856,-3478.967927,919.314598,10436.903782
795.243185,-4071.132681,766.095498,9844.739029
795.243514,-3701.029710,995.924147,8734.430116
795.243843,-3034.844362,-153.219100,8216.285956
795.244173,-1702.473667,-383.047749,7402.059420
795.244502,-888.247130,-1072.533697,6809.894666
795.244831,74.020594,-766.095498,6735.874072
795.245160,666.185348,0.000000,7698.141797
795.245489,1332.370696,995.924147,9474.636058
795.245818,1184.329507,2451.505594,11177.109724
795.246148,814.226536,3064.381992,12583.501014
795.246477,518.144159,3217.601092,13027.624579
795.246806,74.020594,3140.991542,12435.459826
795.247135,-222.061783,2374.896044,11621.233289
795.247464,-814.226536,1532.190996,11177.109724
795.247794,-1554.432478,995.924147,10510.924376
795.248123,-2294.638420,459.657299,9918.759623
795.248452,-2960.823768,0.000000,8512.368333
795.248781,-3108.864956,-383.047749,7031.956449
795.249110,-2072.576638,-1455.581446,6291.750507
795.249440,-1258.350101,-1608.800546,5995.668130
795.249769,-740.205942,-842.705048,6217.729913
795.250098,0.000000,0.000000,7105.977043
795.250427,-296.082377,919.314598,8068.244768
795.250756,-592.164754,2068.457845,9474.636058
795.251086,-1332.370696,3370.820191,10732.986159
795.251415,-1480.411884,3370.820191,11325.150913
795.251744,-1258.350101,1991.848295,11473.192101
795.252073,-1332.370696,1532.190996,11621.233289
795.252402,-1924.535449,842.705048,11103.089130
795.252732,-1480.411884,0.000000,11103.089130
795.253061,-2072.576638,383.047749,10955.047942
795.253390,-2220.617826,383.047749,10881.027347
795.253719,-2368.659014,153.219100,10288.862594
795.254048,-2516.700203,0.000000,9104.533087
795.254378,-1924.535449,383.047749,8660.409521
795.254707,-888.247130,153.219100,8364.327145
795.255036,74.020594,-153.219100,7846.182985
795.255365,740.205942,-306.438199,7550.100608
795.255694,962.267725,229.828649,7624.121203
795.256023,1258.350101,536.266849,8734.430116
795.256353,1110.308913,1838.629195,10140.821405
795.256682,1036.288319,2298.286494,11621.233289
795.257011,222.061783,2604.724693,11843.295072
795.257340,-592.164754,2604.724693,11991.336260
795.257669,-962.267725,2374.896044,11547.212695
795.257999,-1554.432478,1762.019645,11325.150913
795.258328,-1998.556043,1149.143247,10732.986159
795.258657,-2220.617826,1225.752797,10140.821405
795.258986,-2664.741391,536.266849,8956.491898
795.259315,-2368.659014,0.000000,8068.244768
795.259645,-1924.535449,-306.438199,7031.956449
795.259974,-1184.329507,-842.705048,6513.812290
795.260303,-296.082377,-919.314598,6143.709319
795.260632,148.041188,-153.219100,6513.812290
795.260961,444.123565,459.657299,6883.915261
795.261291,962.267725,1762.019645,8586.388927
795.261620,148.041188,2604.724693,9770.718434
795.261949,-148.041188,3217.601092,10881.027347
795.262278,-444.123565,3140.991542,11547.212695
795.262607,-888.247130,2298.286494,11251.130318
795.262937,-740.205942,1608.800546,11177.109724
795.263266,-814.226536,842.705048,11177.109724
795.263595,-1184.329507,383.047749,11399.171507
795.263924,-1924.535449,1072.533697,11251.130318
795.264253,-3034.844362,1072.533697,10658.965565
795.264583,-4071.132681,1225.752797,9622.677246
795.264912,-3849.070898,689.485948,8956.491898
795.265241,-3034.844362,0.000000,8068.244768
795.265570,-1924.535449,-919.314598,7328.038826
795.265899,-962.267725,-1302.362347,6957.935855
795.266228,-370.102971,-1532.190996,7031.956449
795.266558,296.082377,-995.924147,8142.265362
795.266887,370.102971,689.485948,9992.780217
795.267216,0.000000,2298.286494,11695.253884
795.267545,0.000000,2834.553343,12509.480420
795.267874,-296.082377,3140.991542,12583.501014
795.268204,-222.061783,2374.896044,12657.521608
795.268533,-148.041188,2145.067394,11621.233289
795.268862,-296.082377,1302.362347,10732.986159
795.269191,-888.247130,995.924147,10140.821405
795.269520,-1998.556043,995.924147,9252.574275
795.269850,-2220.617826,536.266849,8364.327145
795.270179,-2220.617826,-459.657299,7402.059420
795.270508,-1332.370696,-1225.752797,6291.750507
795.270837,-370.102971,-1608.800546,6069.688724
795.271166,-148.041188,-919.314598,6291.750507
795.271496,-296.082377,153.219100,6883.915261
795.271825,-592.164754,1302.362347,7772.162391
795.272154,-1258.350101,2374.896044,9474.636058
795.272483,-1924.535449,3064.381992,11103.089130
795.272812,-2220.617826,3064.381992,11843.295072
795.273142,-2516.700203,2145.067394,11843.295072
795.273471,-2886.803174,1225.752797,11251.130318
795.273800,-2442.679609,0.000000,11251.130318
795.274129,-1924.535449,-306.438199,10955.047942
795.274458,-1850.514855,76.609550,10584.944971
795.274787,-2294.638420,536.266849,10140.821405
795.275117,-1924.535449,306.438199,10066.800811
795.275446,-1702.473667,306.438199,9400.615463
795.275775,-1036.288319,536.266849,8956.491898
795.276104,296.082377,306.438199,8512.368333
795.276433,1258.350101,153.219100,7994.224174
795.276763,1776.494261,459.657299,7550.100608
795.277092,2368.659014,306.438199,8438.347739
795.277421,1924.535449,1149.143247,9548.656652
795.277750,1406.391290,2221.676944,10732.986159
795.278079,888.247130,2604.724693,11695.253884
795.278409,0.000000,2451.505594,11769.274478
795.278738,-666.185348,2374.896044,11473.192101
795.279067,-1406.391290,1838.629195,11325.150913
795.279396,-2146.597232,1455.581446,10658.965565
795.279725,-2664.741391,1149.143247,10436.903782
795.280055,-3034.844362,842.705048,9474.636058
795.280384,-3552.988522,383.047749,8512.368333
795.280713,-3256.906145,-153.219100,7550.100608
795.281042,-2072.576638,-842.705048,6809.894666
795.281371,-962.267725,-1072.533697,6069.688724
795.281701,74.020594,-995.924147,6217.729913
795.282030,518.144159,0.000000,6735.874072
795.282359,370.102971,1685.410096,8068.244768
795.282688,444.123565,2221.676944,9252.574275
795.283017,444.123565,2681.334243,10214.842000
795.283347,0.000000,3677.258390,11103.089130
795.283676,0.000000,3064.381992,11621.233289
795.284005,0.000000,1991.848295,11547.212695
795.284334,-518.144159,1302.362347,11473.192101
795.284663,-888.247130,229.828649,11029.068536
795.284992,-1628.453072,536.266849,11103.089130
795.285322,-2738.761985,766.095498,10881.027347
795.285651,-3330.926739,919.314598,10140.821405
795.285980,-4293.194464,306.438199,9474.636058
795.286309,-4071.132681,-153.219100,8956.491898
795.286638,-3034.844362,-612.876398,8364.327145
795.286968,-2220.617826,-995.924147,7846.182985
795.287297,-1332.370696,-842.705048,6587.832884
795.287626,-370.102971,-766.095498,7402.059420
795.287955,148.041188,0.000000,8586.388927
795.288284,518.144159,1378.971896,10436.903782
795.288614,592.164754,2451.505594,11621.233289
795.288943,740.205942,2757.943793,12139.377449
795.289272,0.000000,2834.553343,12435.459826
795.289601,-592.164754,2528.115143,12361.439231
795.289930,-740.205942,1991.848295,11695.253884
795.290260,-962.267725,1302.362347,10881.027347
795.290589,-1332.370696,689.485948,10066.800811
795.290918,-1554.432478,612.876398,9030.512492
795.291247,-2146.597232,-306.438199,7476.080014
795.291576,-1554.432478,-1149.143247,6513.812290
795.291906,-814.226536,-1378.971896,5995.668130
795.292235,-518.144159,-536.266849,6069.688724
795.292564,-296.082377,-306.438199,5921.647536
795.292893,444.123565,689.485948,7105.977043
795.293222,-370.102971,2145.067394,7994.224174
795.293551,-888.247130,2528.115143,9696.697840
795.293881,-1110.308913,2834.553343,11029.068536
795.294210,-1628.453072,2451.505594,11473.192101
795.294539,-2664.741391,2068.457845,11769.274478
795.294868,-2886.803174,995.924147,11473.192101
795.295197,-2516.700203,76.609550,11029.068536
795.295527,-2294.638420,0.000000,10955.047942
795.295856,-2442.679609,0.000000,10881.027347
795.296185,-2442.679609,536.266849,10066.800811
795.296514,-2664.741391,689.485948,9548.656652
795.296843,-2294.638420,612.876398,8956.491898
795.297173,-1184.329507,536.266849,8512.368333
795.297502,74.020594,153.219100,8142.265362
795.297831,1258.350101,229.828649,7846.182985
795.298160,1554.432478,459.657299,7920.203579
795.298489,1850.514855,766.095498,8734.430116
795.298819,1998.556043,1532.190996,9918.759623
795.299148,1480.411884,2374.896044,11399.171507
795.299477,592.164754,2834.553343,11769.274478
795.299806,0.000000,3294.210641,12287.418637
795.300135,-740.205942,2068.457845,11473.192101
795.300465,-1184.329507,1608.800546,11177.109724
795.300794,-1628.453072,1225.752797,10584.944971
795.301123,-2368.659014,995.924147,10140.821405
795.301452,-3034.844362,1302.362347,8882.471304
795.301781,-3108.864956,536.266849,7698.141797
795.302111,-2738.761985,-459.657299,7105.977043
795.302440,-2368.659014,-766.095498,6513.812290
795.302769,-1258.350101,-842.705048,6439.791695
795.303098,-518.144159,-153.219100,6217.729913
795.303427,-444.123565,536.266849,6587.832884
795.303756,-222.061783,1072.533697,7476.080014
795.304086,0.000000,1608.800546,9326.594869
795.304415,-370.102971,2451.505594,10881.027347
795.304744,-740.205942,3140.991542,11251.130318
795.305073,-962.267725,2681.334243,11991.336260
795.305402,-666.185348,1455.581446,11843.295072
795.305732,-518.144159,612.876398,11547.212695
795.306061,-518.144159,229.828649,11547.212695
795.306390,-962.267725,995.924147,11177.109724
795.306719,-1702.473667,995.924147,10955.047942
795.307048,-2516.700203,689.485948,10066.800811
795.307378,-3182.885551,612.876398,9326.594869
795.307707,-2664.741391,0.000000,8956.491898
795.308036,-2146.597232,0.000000,8216.285956
795.308365,-1332.370696,-229.828649,7328.038826
795.308694,-888.247130,-383.047749,7031.956449
795.309024,0.000000,-536.266849,7476.080014
795.309353,296.082377,0.000000,8956.491898
795.309682,222.061783,1915.238745,10436.903782
795.310011,74.020594,3600.648841,11769.274478
795.310340,-222.061783,3294.210641,12065.356855
795.310670,-740.205942,2681.334243,12065.356855
795.310999,-666.185348,2221.676944,11695.253884
795.311328,-962.267725,1532.190996,11029.068536
795.311657,-1184.329507,995.924147,10288.862594
795.311986,-1480.411884,1302.362347,9326.594869
795.312316,-1998.556043,76.609550,8216.285956
795.312645,-1924.535449,-612.876398,7328.038826
795.312974,-1332.370696,-1072.533697,6587.832884
795.313303,-444.123565,-1149.143247,6513.812290
795.313632,222.061783,-306.438199,6143.709319
795.313961,592.164754,-153.219100,6513.812290
795.314291,444.123565,766.095498,7846.182985
795.314620,0.000000,1991.848295,9474.636058
795.314949,-814.226536,3064.381992,10955.047942
795.315278,-1332.370696,3447.429741,11473.192101
795.315607,-1850.514855,2834.553343,11399.171507
795.315937,-2368.659014,1072.533697,10807.006753
795.316266,-1998.556043,76.609550,10955.047942
795.316595,-1702.473667,-383.047749,11103.089130
795.316924,-2146.597232,-306.438199,10732.986159
795.317253,-2738.761985,383.047749,10584.944971
795.317583,-3108.864956,536.266849,10510.924376
795.317912,-3404.947333,536.266849,10066.800811
795.318241,-2886.803174,919.314598,9622.677246
795.318570,-2146.597232,689.485948,8808.450710
795.318899,-1036.288319,0.000000,8290.306550
795.319229,74.020594,-536.266849,7920.203579
795.319558,814.226536,0.000000,8216.285956
795.319887,1184.329507,76.609550,9030.512492
795.320216,1332.370696,1225.752797,10066.800811
795.320545,1406.391290,2987.772442,10732.986159
795.320875,1036.288319,2757.943793,11325.150913
795.321204,592.164754,2451.505594,11325.150913
795.321533,518.144159,2221.676944,11325.150913
795.321863,-444.123565,1915.238745,10658.965565
795.322192,-1184.329507,1685.410096,10584.944971
795.322522,-1850.514855,1532.190996,9992.780217
795.322851,-2368.659014,1455.581446,9178.553681
795.323180,-2812.782580,229.828649,8364.327145
795.323510,-2664.741391,-383.047749,7254.018232
795.323839,-1924.535449,-766.095498,6661.853478
795.324168,-1554.432478,-536.266849,6143.709319
795.324498,-962.267725,-536.266849,6143.709319
795.324827,-592.164754,459.657299,6883.915261
795.325156,-444.123565,1302.362347,7994.224174
795.325486,-592.164754,2068.457845,9178.553681
795.325815,-370.102971,2681.334243,10955.047942
795.326145,-740.205942,3370.820191,10955.047942
795.326474,-592.164754,2451.505594,11177.109724
795.326803,-592.164754,1302.362347,11029.068536
795.327133,-222.061783,842.705048,11251.130318
795.327462,0.000000,229.828649,11399.171507
795.327791,-666.185348,995.924147,11843.295072
795.328121,-1776.494261,1455.581446,11177.109724
795.328450,-2590.720797,1072.533697,10436.903782
795.328780,-2738.761985,766.095498,9770.718434
795.329109,-2294.638420,306.438199,9104.533087
795.329438,-1406.391290,153.219100,8512.368333
795.329768,-962.267725,-1225.752797,7550.100608
795.330097,-444.123565,-1302.362347,7254.018232
795.330426,0.000000,-689.485948,7846.182985
795.330756,296.082377,383.047749,9178.553681
795.331085,0.000000,2145.067394,10658.965565
795.331414,0.000000,2757.943793,11029.068536
795.331744,-444.123565,2681.334243,11621.233289
795.332073,-962.267725,2221.676944,11547.212695
795.332403,-1110.308913,1915.238745,11177.109724
795.332732,-1258.350101,1302.362347,11029.068536
795.333061,-1850.514855,612.876398,10436.903782
795.333391,-2516.700203,689.485948,9622.677246
795.333720,-2812.782580,-229.828649,8586.388927
795.334049,-2368.659014,-842.705048,7624.121203
795.334379,-1480.411884,-1072.533697,6735.874072
795.334708,-740.205942,-919.314598,6143.709319
795.335038,0.000000,-229.828649,6365.771101
795.335367,740.205942,229.828649,6809.894666
795.335696,666.185348,1378.971896,7994.224174
795.336026,74.020594,2298.286494,9178.553681
795.336355,-518.144159,3064.381992,10510.924376
795.336684,-1036.288319,3677.258390,11917.315666
795.337014,-2146.597232,3064.381992,11621.233289
795.337343,-2368.659014,1225.752797,11029.068536
795.337672,-2368.659014,0.000000,10807.006753
795.338002,-2146.597232,-612.876398,10881.027347
795.338331,-2294.638420,-306.438199,10732.986159
795.338661,-3330.926739,-229.828649,10510.924376
795.338990,-3552.988522,459.657299,10288.862594
795.339319,-3330.926739,536.266849,9844.739029
795.339649,-2516.700203,612.876398,9178.553681
795.339978,-1702.473667,229.828649,8216.285956
795.340307,-370.102971,-306.438199,7698.141797
795.340637,222.061783,-536.266849,7772.162391
795.340966,666.185348,76.609550,8364.327145
795.341296,888.247130,536.266849,9326.594869
795.341625,1110.308913,1608.800546,10140.821405
795.341954,1258.350101,2451.505594,11325.150913
795.342284,518.144159,2298.286494,11103.089130
795.342613,592.164754,1685.410096,11251.130318
795.342942,222.061783,1608.800546,11029.068536
795.343272,0.000000,1072.533697,11029.068536
795.343601,-592.164754,766.095498,10807.006753
795.343930,-1480.411884,1072.533697,10658.965565
795.344260,-2146.597232,536.266849,9474.636058
795.344589,-2146.597232,306.438199,8586.388927
795.344919,-1406.391290,-229.828649,7476.080014
795.345248,-740.205942,-612.876398,6513.812290
795.345577,0.000000,-153.219100,5921.647536
795.345907,0.000000,0.000000,5995.668130
795.346236,0.000000,919.314598,6957.935855
795.346565,-518.144159,1685.410096,8216.285956
795.346895,-888.247130,3140.991542,9992.780217
795.347224,-1554.432478,3294.210641,11029.068536
795.347553,-1850.514855,3064.381992,11177.109724
795.347883,-1998.556043,1915.238745,10955.047942
795.348212,-1702.473667,612.876398,10807.006753
795.348542,-1480.411884,306.438199,10732.986159
795.348871,-1628.453072,153.219100,10732.986159
795.349200,-2294.638420,1149.143247,10732.986159
795.349530,-2812.782580,842.705048,10584.944971
795.349859,-3108.864956,766.095498,10436.903782
795.350188,-3182.885551,612.876398,9770.718434
795.350518,-2368.659014,1455.581446,9030.512492
795.350847,-1036.288319,-229.828649,8216.285956
795.351177,-370.102971,-459.657299,7772.162391
795.351506,518.144159,-383.047749,7402.059420
795.351835,1036.288319,0.000000,8142.265362
795.352165,1480.411884,995.924147,9400.615463
795.352494,1036.288319,2374.896044,10288.862594
795.352823,740.205942,2834.553343,11399.171507
795.353153,148.041188,2528.115143,11843.295072
795.353482,-518.144159,2681.334243,11843.295072
795.353811,-1258.350101,2145.067394,11547.212695
795.354141,-1850.514855,1225.752797,11473.192101
795.354470,-2738.761985,1149.143247,10510.924376
795.354800,-3701.029710,0.000000,9326.594869
795.355129,-3701.029710,-842.705048,7920.203579
795.355458,-3108.864956,-1532.190996,7179.997637
795.355788,-2368.659014,-1608.800546,6291.750507
795.356117,-1554.432478,-1302.362347,5625.565159
795.356446,-444.123565,-612.876398,5847.626942
795.356776,444.123565,306.438199,6661.853478
795.357105,592.164754,1532.190996,7772.162391
795.357435,370.102971,2451.505594,9178.553681
795.357764,74.020594,3524.039291,10510.924376
795.358093,-740.205942,3140.991542,11547.212695
795.358423,-1184.329507,2145.067394,11621.233289
795.358752,-1480.411884,842.705048,11621.233289
795.359081,-1406.391290,0.000000,11399.171507
795.359411,-1110.308913,0.000000,11103.089130
795.359740,-1628.453072,0.000000,10658.965565
795.360069,-1924.535449,229.828649,10658.965565
795.360399,-2368.659014,229.828649,10436.903782
795.360728,-2368.659014,689.485948,9844.739029
795.361058,-2220.617826,1455.581446,8956.491898
795.361387,-1480.411884,383.047749,8216.285956
795.361716,-888.247130,0.000000,8290.306550
795.362046,-518.144159,-306.438199,7846.182985
795.362375,0.000000,0.000000,8364.327145
795.362704,296.082377,306.438199,9326.594869
795.363034,222.061783,1302.362347,9992.780217
795.363363,148.041188,1991.848295,11177.109724
795.363693,-222.061783,2451.505594,11695.253884
795.364022,0.000000,2221.676944,11695.253884
795.364351,-222.061783,2298.286494,11251.130318
795.364681,-222.061783,2145.067394,11103.089130
795.365010,-518.144159,1532.190996,10362.883188
795.365339,-1554.432478,1532.190996,9918.759623
795.365669,-1998.556043,919.314598,8808.450710
795.365998,-2146.597232,229.828649,8142.265362
795.366327,-1554.432478,76.609550,7179.997637
795.366657,-1332.370696,-766.095498,6883.915261
795.366986,-962.267725,-919.314598,6291.750507
795.367316,-444.123565,0.000000,6661.853478
795.367645,0.000000,689.485948,7179.997637
795.367974,-296.082377,2145.067394,8290.306550
795.368304,-148.041188,2681.334243,9622.677246
795.368633,-1036.288319,3294.210641,10732.986159
795.368962,-1036.288319,2987.772442,10955.047942
795.369292,-962.267725,1915.238745,10732.986159
795.369621,-888.247130,1302.362347,10732.986159
795.369951,-962.267725,766.095498,10510.924376
795.370280,-1184.329507,536.266849,11029.068536
795.370609,-1628.453072,689.485948,11177.109724
795.370939,-2738.761985,919.314598,10807.006753
795.371268,-3478.967927,842.705048,10288.862594
795.371597,-2812.782580,229.828649,9252.574275
795.371927,-1924.535449,0.000000,8586.388927
795.372256,-962.267725,-459.657299,7994.224174
795.372585,0.000000,-766.095498,7550.100608
795.372915,740.205942,-842.705048,7550.100608
795.373244,1332.370696,229.828649,8734.430116
795.373574,1258.350101,1225.752797,10288.862594
795.373903,1110.308913,2451.505594,11177.109724
795.374232,444.123565,2604.724693,11769.274478
795.374562,296.082377,2374.896044,12139.377449
795.374891,-444.123565,2145.067394,11991.336260
795.375220,-1184.329507,1915.238745,11399.171507
795.375550,-1924.535449,995.924147,11103.089130
795.375879,-2590.720797,689.485948,10362.883188
795.376208,-3256.906145,153.219100,9326.594869
795.376538,-3330.926739,-383.047749,8364.327145
795.376867,-2516.700203,-1225.752797,7254.018232
795.377197,-1924.535449,-1762.019645,6143.709319
795.377526,-1184.329507,-919.314598,5995.668130
795.377855,-370.102971,-229.828649,6513.812290
795.378185,74.020594,536.266849,7105.977043
795.378514,0.000000,1532.190996,8068.244768
795.378843,-296.082377,2834.553343,9548.656652
795.379173,-740.205942,3294.210641,10436.903782
795.379502,-888.247130,2604.724693,11029.068536
795.379832,-1184.329507,1532.190996,11103.089130
795.380161,-1480.411884,842.705048,11177.109724
795.380490,-1480.411884,536.266849,11177.109724
795.380820,-1850.514855,0.000000,11399.171507
795.381149,-1850.514855,153.219100,11177.109724
795.381478,-2072.576638,536.266849,10807.006753
795.381808,-2516.700203,766.095498,10288.862594
795.382137,-2516.700203,1685.410096,9474.636058
795.382466,-1850.514855,919.314598,8882.471304
795.382796,-1184.329507,306.438199,8438.347739
795.383125,-592.164754,-229.828649,7624.121203
795.383455,74.020594,-229.828649,7624.121203
795.383784,444.123565,0.000000,7920.203579
795.384113,740.205942,919.314598,9104.533087
795.384443,814.226536,1991.848295,10510.924376
795.384772,666.185348,2528.115143,11399.171507
795.385101,74.020594,2834.553343,11621.233289
795.385431,0.000000,2681.334243,11621.233289
795.385760,-148.041188,2528.115143,11103.089130
795.386090,-222.061783,2145.067394,10658.965565
795.386419,-814.226536,1608.800546,10362.883188
795.386748,-1554.432478,1072.533697,9844.739029
795.387078,-1924.535449,612.876398,8956.491898
795.387407,-1924.535449,766.095498,8068.244768
795.387736,-1776.494261,-153.219100,6883.915261
795.388066,-962.267725,-612.876398,6365.771101
795.388395,-296.082377,-995.924147,6069.688724
795.388724,0.000000,0.000000,6365.771101
795.389054,296.082377,766.095498,7402.059420
795.389383,-74.020594,1991.848295,8734.430116
795.389713,-962.267725,3064.381992,10362.883188
795.390042,-1406.391290,3370.820191,10732.986159
795.390371,-1332.370696,2604.724693,10955.047942
795.390701,-962.267725,1532.190996,10955.047942
795.391030,-666.185348,842.705048,11103.089130
795.391359,-1184.329507,383.047749,10807.006753
795.391689,-1554.432478,383.047749,11029.068536
795.392018,-2220.617826,689.485948,11103.089130
795.392348,-2960.823768,842.705048,10881.027347
795.392677,-3404.947333,1532.190996,10214.842000
795.393006,-2664.741391,0.000000,9474.636058
795.393336,-1776.494261,-536.266849,8586.388927
795.393665,-740.205942,-842.705048,7698.141797
795.393994,74.020594,-1072.533697,7328.038826
795.394324,518.144159,0.000000,7402.059420
795.394653,1332.370696,0.000000,8438.347739
795.394982,888.247130,1532.190996,9992.780217
795.395312,1036.288319,2451.505594,11325.150913
795.395641,370.102971,2681.334243,11991.336260
795.395971,-222.061783,2221.676944,12139.377449
795.396300,-962.267725,1838.629195,11547.212695
795.396629,-1702.473667,1762.019645,11473.192101
795.396959,-2072.576638,842.705048,10955.047942
795.397288,-2886.803174,306.438199,10140.821405
795.397617,-3404.947333,-229.828649,9252.574275
795.397947,-3627.009116,-229.828649,7846.182985
795.398276,-2368.659014,-459.657299,7105.977043
795.398606,-1702.473667,-1302.362347,6143.709319
795.398935,-888.247130,-1225.752797,5921.647536
795.399264,-296.082377,-383.047749,6291.750507
795.399594,0.000000,1762.019645,6883.915261
795.399923,0.000000,2451.505594,7994.224174
795.400252,-148.041188,2757.943793,9696.697840
795.400582,-814.226536,3140.991542,10881.027347
795.400911,-1184.329507,2604.724693,11621.233289
795.401240,-1480.411884,1608.800546,11769.274478
795.401570,-1628.453072,919.314598,11325.150913
795.401899,-1702.473667,612.876398,11177.109724
795.402229,-1406.391290,0.000000,11547.212695
795.402558,-1702.473667,459.657299,11029.068536
795.402887,-2072.576638,919.314598,10510.924376
795.403217,-2072.576638,612.876398,9844.739029
795.403546,-2072.576638,1149.143247,9326.594869
795.403875,-1628.453072,919.314598,8660.409521
795.404205,-740.205942,229.828649,7920.203579
795.404534,0.000000,-536.266849,7476.080014
795.404864,518.144159,0.000000,7476.080014
795.405193,962.267725,76.609550,8068.244768
795.405522,814.226536,689.485948,9770.718434
795.405852,962.267725,1915.238745,10955.047942
795.406181,296.082377,2834.553343,11843.295072
795.406510,-148.041188,3064.381992,11769.274478
795.406840,0.000000,2757.943793,11843.295072
795.407169,0.000000,1991.848295,11177.109724
795.407498,-370.102971,1608.800546,10732.986159
795.407828,-1184.329507,1685.410096,10362.883188
795.408157,-1850.514855,1302.362347,9548.656652
795.408487,-2072.576638,459.657299,8068.244768
795.408816,-1776.494261,0.000000,7254.018232
795.409145,-1332.370696,-459.657299,6735.874072
795.409475,-518.144159,-995.924147,6217.729913
795.409804,74.020594,-536.266849,6143.709319
795.410133,-370.102971,153.219100,6735.874072
795.410463,370.102971,1149.143247,7624.121203
795.410792,-444.123565,2374.896044,9178.553681
795.411121,-888.247130,2834.553343,10658.965565
795.411451,-1480.411884,3140.991542,11177.109724
795.411780,-1258.350101,2528.115143,11103.089130
795.412110,-1036.288319,919.314598,11029.068536
795.412439,-1184.329507,229.828649,11103.089130
795.412768,-1184.329507,0.000000,11251.130318
795.413098,-2072.576638,612.876398,11325.150913
795.413427,-2738.761985,766.095498,11177.109724
795.413756,-3552.988522,689.485948,10214.842000
795.414086,-3923.091493,766.095498,9844.739029
795.414415,-3108.864956,0.000000,8956.491898
795.414745,-1850.514855,-612.876398,8290.306550
795.415074,-1184.329507,-919.314598,7698.141797
795.415403,-222.061783,-689.485948,6883.915261
795.415733,1036.288319,-1149.143247,7920.203579
795.416062,888.247130,383.047749,9178.553681
795.416391,888.247130,1532.190996,10436.903782
795.416721,592.164754,2451.505594,11695.253884
795.417050,148.041188,2528.115143,12213.398043
795.417379,0.000000,2221.676944,12583.501014
795.417709,-666.185348,2145.067394,11917.315666
795.418038,-888.247130,1685.410096,11695.253884
795.418368,-1850.514855,1225.752797,10881.027347
795.418697,-2664.741391,842.705048,9918.759623
795.419026,-3256.906145,0.000000,8512.368333
795.419356,-2812.782580,-689.485948,7624.121203
795.419685,-2368.659014,-1455.581446,6661.853478
795.420014,-1776.494261,-1532.190996,5995.668130
795.420344,-1110.308913,-1072.533697,5773.606348
795.420673,-592.164754,-459.657299,5921.647536
795.421003,0.000000,1302.362347,7179.997637
795.421332,-296.082377,2298.286494,8512.368333
795.421661,-592.164754,3217.601092,9696.697840
795.421991,-814.226536,3370.820191,10584.944971
795.422320,-888.247130,2911.162892,11177.109724
795.422649,-1258.350101,2145.067394,11177.109724
795.422979,-1628.453072,1378.971896,11251.130318
795.423308,-1406.391290,306.438199,11399.171507
795.423637,-1628.453072,612.876398,11325.150913
795.423967,-1850.514855,842.705048,11103.089130
795.424296,-2072.576638,536.266849,10214.842000
795.424625,-2368.659014,459.657299,9548.656652
795.424954,-2146.597232,1072.533697,9030.512492
795.425284,-1406.391290,1149.143247,8586.388927
795.425613,-444.123565,153.219100,7994.224174
795.425942,222.061783,0.000000,7254.018232
795.426272,518.144159,0.000000,7402.059420
795.426601,888.247130,76.609550,8364.327145
795.426930,1184.329507,1225.752797,9696.697840
795.427260,962.267725,2068.457845,11029.068536
795.427589,74.020594,2681.334243,11843.295072
795.427918,-518.144159,2757.943793,12065.356855
795.428247,-592.164754,2374.896044,11843.295072
795.428577,-814.226536,1991.848295,11547.212695
795.428906,-1258.350101,1685.410096,11029.068536
795.429235,-1850.514855,1225.752797,10510.924376
795.429565,-2146.597232,919.314598,9696.697840
795.429894,-2664.741391,0.000000,8586.388927
795.430223,-2590.720797,-153.219100,7254.018232
795.430553,-1850.514855,-919.314598,6661.853478
795.430882,-962.267725,-1149.143247,6217.729913
795.431211,-148.041188,-919.314598,6143.709319
795.431541,518.144159,229.828649,6957.935855
795.431870,222.061783,1302.362347,7846.182985
795.432199,-296.082377,2221.676944,9400.615463
795.432528,-888.247130,3294.210641,10807.006753
795.432858,-814.226536,3294.210641,11473.192101
795.433187,-888.247130,2374.896044,11399.171507
795.433516,-1110.308913,1455.581446,11399.171507
795.433846,-962.267725,229.828649,11177.109724
795.434175,-1110.308913,383.047749,11325.150913
795.434504,-1776.494261,766.095498,11399.171507
795.434834,-2516.700203,1302.362347,11177.109724
795.435163,-3552.988522,229.828649,10066.800811
795.435492,-3330.926739,383.047749,9326.594869
795.435821,-2738.761985,0.000000,8586.388927
795.436151,-1628.453072,-689.485948,7920.203579
795.436480,-296.082377,-689.485948,7254.018232
795.436809,-296.082377,-766.095498,7105.977043
795.437139,592.164754,-459.657299,7772.162391
795.437468,740.205942,766.095498,9326.594869
795.437797,814.226536,2145.067394,10732.986159
795.438127,740.205942,2451.505594,11843.295072
795.438456,518.144159,2757.943793,12361.439231
795.438785,0.000000,2374.896044,12213.398043
795.439114,-518.144159,2145.067394,11917.315666
795.439444,-962.267725,1685.410096,11325.150913
795.439773,-1406.391290,1302.362347,10807.006753
795.440102,-2072.576638,1302.362347,9770.718434
795.440432,-2516.700203,383.047749,9030.512492
795.440761,-2738.761985,-383.047749,7328.038826
795.441090,-2146.597232,-1072.533697,6587.832884
795.441420,-1406.391290,-1149.143247,6069.688724
795.441749,-888.247130,-536.266849,6069.688724
795.442078,-592.164754,-689.485948,6513.812290
795.442407,-370.102971,919.314598,7550.100608
795.442737,-740.205942,1991.848295,8956.491898
795.443066,-1332.370696,3064.381992,10732.986159
795.443395,-1702.473667,3217.601092,11547.212695
795.443725,-1628.453072,2068.457845,11399.171507
795.444054,-1628.453072,1455.581446,11621.233289
795.444383,-1554.432478,689.485948,11177.109724
795.444713,-1332.370696,229.828649,11103.089130
795.445042,-1332.370696,306.438199,11103.089130
795.445371,-1776.494261,612.876398,10807.006753
795.445700,-2146.597232,995.924147,10436.903782
795.446030,-2294.638420,766.095498,9770.718434
795.446359,-1998.556043,766.095498,8956.491898
795.446688,-962.267725,306.438199,7994.224174
795.447018,296.082377,0.000000,7624.121203
795.447347,666.185348,0.000000,7328.038826
795.447676,888.247130,0.000000,7772.162391
795.448006,888.247130,153.219100,9030.512492
795.448335,666.185348,1608.800546,10436.903782
795.448664,222.061783,2681.334243,11325.150913
795.448993,-222.061783,2757.943793,10955.047942
795.449323,-518.144159,2374.896044,11547.212695
795.449652,-518.144159,1838.629195,11547.212695
795.449981,-962.267725,1762.019645,11251.130318
795.450311,-1480.411884,1532.190996,10955.047942
795.450640,-2220.617826,1149.143247,9918.759623
795.450969,-2590.720797,689.485948,9104.533087
795.451299,-2590.720797,76.609550,8290.306550
795.451628,-2072.576638,0.000000,7402.059420
795.451957,-1184.329507,-612.876398,6587.832884
795.452286,-370.102971,-919.314598,6069.688724
795.452616,444.123565,0.000000,6217.729913
795.452945,592.164754,229.828649,7105.977043
795.453274,444.123565,1608.800546,8438.347739
795.453604,-444.123565,2911.162892,9844.739029
795.453933,-888.247130,3294.210641,10807.006753
795.454262,-888.247130,3447.429741,11325.150913
795.454592,-666.185348,1915.238745,11103.089130
795.454921,-666.185348,995.924147,11473.192101
795.455250,-1036.288319,689.485948,11251.130318
795.455580,-1332.370696,612.876398,11177.109724
795.455909,-1924.535449,919.314598,11103.089130
795.456238,-2590.720797,1378.971896,11103.089130
795.456567,-3627.009116,842.705048,9844.739029
795.456897,-3404.947333,306.438199,9178.553681
795.457226,-2368.659014,-306.438199,8068.244768
795.457555,-1110.308913,-689.485948,7476.080014
795.457885,-740.205942,-383.047749,7328.038826
795.458214,-222.061783,-536.266849,7402.059420
795.458543,74.020594,153.219100,8290.306550
795.458873,666.185348,1302.362347,9696.697840
795.459202,444.123565,2528.115143,11325.150913
795.459531,222.061783,2757.943793,11991.336260
795.459860,0.000000,2757.943793,11843.295072
795.460190,-222.061783,2604.724693,11695.253884
795.460519,-444.123565,2451.505594,11251.130318
795.460848,-740.205942,1378.971896,11029.068536
795.461178,-1480.411884,1378.971896,10510.924376
795.461507,-2590.720797,459.657299,9400.615463
795.461836,-2886.803174,76.609550,8364.327145
795.462166,-2664.741391,-459.657299,7254.018232
795.462495,-1924.535449,-1455.581446,6439.791695
795.462824,-1110.308913,-1915.238745,5773.606348
795.463153,-666.185348,0.000000,6143.709319
795.463483,-148.041188,0.000000,7031.956449
795.463812,-666.185348,1149.143247,7994.224174
795.464141,-1332.370696,2145.067394,9548.656652
795.464471,-1776.494261,2911.162892,10881.027347
795.464800,-1406.391290,3524.039291,11399.171507
795.465129,-1924.535449,1838.629195,11029.068536
795.465459,-1776.494261,766.095498,10955.047942
795.465788,-1628.453072,0.000000,10955.047942
795.466117,-1258.350101,-612.876398,11029.068536
795.466446,-1332.370696,229.828649,10584.944971
795.466776,-1850.514855,766.095498,10658.965565
795.467105,-2368.659014,995.924147,10510.924376
795.467434,-1776.494261,229.828649,9918.759623
795.467764,-1258.350101,229.828649,9030.512492
795.468093,-148.041188,153.219100,8068.244768
795.468422,666.185348,-612.876398,8364.327145
795.468752,1110.308913,-153.219100,7624.121203
795.469081,1184.329507,0.000000,8364.327145
795.469410,1184.329507,229.828649,9326.594869
795.469739,888.247130,1685.410096,10584.944971
795.470069,962.267725,2681.334243,11029.068536
795.470398,74.020594,2451.505594,11473.192101
795.470727,-592.164754,2298.286494,11695.253884
795.471057,-1036.288319,1762.019645,11399.171507
795.471386,-1480.411884,1685.410096,11177.109724
795.471715,-1998.556043,1685.410096,10436.903782
795.472045,-2886.803174,1455.581446,10066.800811
795.472374,-2960.823768,842.705048,9030.512492
795.472703,-2812.782580,383.047749,7920.203579
795.473032,-1998.556043,-306.438199,6883.915261
795.473362,-962.267725,-689.485948,5995.668130
795.473691,0.000000,-612.876398,5477.523971
795.474020,148.041188,153.219100,6513.812290
795.474350,296.082377,1072.533697,7105.977043
795.474679,0.000000,1991.848295,8364.327145
795.475008,0.000000,2911.162892,9844.739029
795.475338,-222.061783,3447.429741,10807.006753
795.475667,-518.144159,2911.162892,11325.150913
795.475996,-740.205942,2068.457845,11103.089130
795.476326,-592.164754,1072.533697,11103.089130
795.476655,-740.205942,612.876398,10955.047942
795.476984,-1258.350101,536.266849,10881.027347
795.477313,-1924.535449,1149.143247,11029.068536
795.477643,-3108.864956,1302.362347,10584.944971
795.477972,-3627.009116,919.314598,9844.739029
795.478301,-3404.947333,459.657299,9178.553681
795.478631,-2368.659014,306.438199,8438.347739
795.478960,-1480.411884,-536.266849,7550.100608
795.479289,-962.267725,-1149.143247,7254.018232
795.479619,-370.102971,-842.705048,7254.018232
795.479948,444.123565,-229.828649,8512.368333
795.480277,740.205942,995.924147,9696.697840
795.480606,666.185348,2604.724693,11029.068536
795.480936,444.123565,2451.505594,11769.274478
795.481265,0.000000,2528.115143,11843.295072
795.481594,0.000000,2145.067394,12065.356855
795.481924,-666.185348,1532.190996,11621.233289
795.482253,-1554.432478,612.876398,11177.109724
795.482582,-2146.597232,689.485948,10658.965565
795.482912,-2886.803174,0.000000,9474.636058
795.483241,-2960.823768,-689.485948,8364.327145
795.483570,-2368.659014,-1455.581446,7328.038826
795.483899,-1258.350101,-1838.629195,6513.812290
795.484229,-814.226536,-2145.067394,6291.750507
795.484558,0.000000,-459.657299,6217.729913
795.484887,-222.061783,459.657299,7105.977043
795.485217,-592.164754,1455.581446,8290.306550
795.485546,-1184.329507,2757.943793,9474.636058
795.485875,-1110.308913,3370.820191,10732.986159
795.486205,-1628.453072,2451.505594,11103.089130
795.486534,-1924.535449,1608.800546,11177.109724
795.486863,-2146.597232,689.485948,10881.027347
795.487192,-2072.576638,0.000000,11251.130318
795.487522,-1554.432478,0.000000,11399.171507
795.487851,-1924.535449,76.609550,11177.109724
795.488180,-2368.659014,919.314598,10436.903782
795.488510,-2368.659014,689.485948,9918.759623
795.488839,-1998.556043,995.924147,9548.656652
795.489168,-888.247130,689.485948,9030.512492
795.489498,-444.123565,689.485948,7698.141797
795.489827,222.061783,459.657299,7550.100608
795.490156,666.185348,153.219100,7402.059420
795.490485,814.226536,153.219100,8290.306550
795.490815,888.247130,995.924147,9400.615463
795.491144,666.185348,1915.238745,10732.986159
795.491473,370.102971,2757.943793,11325.150913
795.491803,0.000000,2987.772442,11325.150913
795.492132,-370.102971,2604.724693,11399.171507
795.492461,-518.144159,2451.505594,10807.006753
795.492791,-814.226536,1762.019645,10510.924376
795.493120,-1554.432478,1685.410096,10288.862594
795.493449,-2368.659014,1225.752797,9622.677246
795.493778,-2590.720797,842.705048,8660.409521
795.494108,-2368.659014,0.000000,7476.080014
795.494437,-2146.597232,0.000000,6661.853478
795.494766,-296.082377,-766.095498,6217.729913
795.495096,-370.102971,-306.438199,6217.729913
795.495425,74.020594,306.438199,6809.894666
795.495754,0.000000,1149.143247,7624.121203
795.496084,0.000000,1762.019645,9030.512492
795.496413,-444.123565,2987.772442,9770.718434
795.496742,-518.144159,2987.772442,10807.006753
795.497071,-666.185348,2604.724693,11029.068536
795.497401,-444.123565,1608.800546,10881.027347
795.497730,-518.144159,766.095498,10955.047942
795.498059,-814.226536,306.438199,10807.006753
795.498389,-1332.370696,766.095498,11325.150913
795.498718,-2294.638420,1072.533697,11325.150913
795.499047,-3404.947333,689.485948,10732.986159
795.499377,-4145.153275,689.485948,9844.739029
795.499706,-3330.926739,0.000000,9400.615463
795.500035,-2220.617826,-536.266849,8808.450710
795.500365,-1184.329507,-842.705048,7994.224174
795.500694,-740.205942,-919.314598,7402.059420
795.501023,0.000000,-1149.143247,7476.080014
795.501352,666.185348,-229.828649,8808.450710
795.501682,1258.350101,1608.800546,10510.924376
795.502011,592.164754,2451.505594,11621.233289
795.502340,222.061783,2528.115143,11917.315666
795.502670,0.000000,2145.067394,11843.295072
795.502999,-296.082377,2145.067394,11843.295072
795.503328,-888.247130,1762.019645,10807.006753
795.503658,-1406.391290,766.095498,10436.903782
795.503987,-2294.638420,612.876398,10066.800811
795.504316,-2738.761985,0.000000,9326.594869
795.504645,-2812.782580,-383.047749,7846.182985
795.504975,-2516.700203,-1072.533697,6661.853478
795.505304,-1480.411884,-766.095498,6513.812290
795.505633,-962.267725,-919.314598,6217.729913
795.505963,-518.144159,0.000000,6365.771101
795.506292,-296.082377,766.095498,7105.977043
795.506621,-740.205942,1762.019645,8512.368333
795.506951,-1184.329507,3370.820191,9770.718434
795.507280,-1702.473667,3677.258390,10955.047942
795.507609,-2072.576638,2451.505594,11029.068536
795.507938,-1850.514855,1455.581446,11103.089130
795.508268,-1776.494261,766.095498,11103.089130
795.508597,-1184.329507,229.828649,11251.130318
795.508926,-1258.350101,842.705048,11325.150913
795.509256,-1702.473667,1072.533697,11103.089130
795.509585,-1924.535449,1532.190996,10732.986159
795.509914,-2146.597232,1149.143247,10140.821405
795.510244,-1850.514855,1608.800546,9474.636058
795.510573,-814.226536,1838.629195,8512.368333
795.510902,0.000000,306.438199,8142.265362
795.511231,370.102971,0.000000,7920.203579
795.511561,740.205942,0.000000,7772.162391
795.511890,814.226536,383.047749,8438.347739
795.512219,1554.432478,919.314598,9696.697840
795.512549,1036.288319,2145.067394,10584.944971
795.512878,370.102971,2834.553343,11399.171507
795.513207,0.000000,2451.505594,11251.130318
795.513537,-444.123565,2374.896044,11029.068536
795.513866,-444.123565,2298.286494,10436.903782
795.514195,-962.267725,1915.238745,10807.006753
795.514524,-1628.453072,1532.190996,10362.883188
795.514854,-2368.659014,1302.362347,9548.656652
795.515183,-2886.803174,459.657299,8438.347739
795.515512,-2516.700203,229.828649,7550.100608
795.515842,-1702.473667,-459.657299,6809.894666
795.516171,-962.267725,-842.705048,6217.729913
795.516500,-518.144159,-612.876398,6217.729913
795.516830,0.000000,229.828649,6587.832884
795.517159,0.000000,766.095498,7920.203579
795.517488,-370.102971,2451.505594,9770.718434
795.517817,-592.164754,3064.381992,10881.027347
795.518147,-740.205942,2911.162892,11177.109724
795.518476,-592.164754,2145.067394,11029.068536
795.518805,-666.185348,1149.143247,10881.027347
795.519135,-518.144159,306.438199,10658.965565
795.519464,-740.205942,76.609550,11399.171507
795.519793,-1480.411884,459.657299,11547.212695
795.520123,-2516.700203,689.485948,11399.171507
795.520452,-3478.967927,1225.752797,10807.006753
795.520781,-3923.091493,612.876398,9844.739029
795.521111,-2886.803174,229.828649,9252.574275
795.521440,-1924.535449,-689.485948,8882.471304
795.521769,-1258.350101,-842.705048,7846.182985
795.522098,-518.144159,-919.314598,7105.977043
795.522428,-222.061783,-1072.533697,7698.141797
795.522757,518.144159,536.266849,9178.553681
795.523086,370.102971,1762.019645,10584.944971
795.523415,148.041188,2834.553343,11621.233289
795.523745,0.000000,2604.724693,11769.274478
795.524074,-296.082377,2681.334243,11621.233289
795.524403,-222.061783,2451.505594,11177.109724
795.524732,-370.102971,1455.581446,10288.862594
795.525062,-1184.329507,1072.533697,10362.883188
795.525391,-1850.514855,919.314598,9696.697840
795.525720,-2590.720797,459.657299,8808.450710
795.526049,-2368.659014,-229.828649,7328.038826
795.526379,-1776.494261,-612.876398,6735.874072
795.526708,-740.205942,-1072.533697,6143.709319
795.527037,-296.082377,-536.266849,6069.688724
795.527366,148.041188,383.047749,6661.853478
795.527696,0.000000,1149.143247,7624.121203
795.528025,-814.226536,2451.505594,9030.512492
795.528354,-1480.411884,3217.601092,10288.862594
795.528683,-1924.535449,3600.648841,11399.171507
795.529013,-2220.617826,2451.505594,11251.130318
795.529342,-2368.659014,919.314598,10881.027347
795.529671,-1850.514855,-306.438199,10214.842000
795.530000,-1554.432478,-919.314598,10362.883188
795.530330,-1924.535449,0.000000,10807.006753
795.530659,-2072.576638,919.314598,11029.068536
795.530988,-2368.659014,1149.143247,10955.047942
795.531317,-2072.576638,1685.410096,10214.842000
795.531647,-1554.432478,1225.752797,9474.636058
795.531976,-740.205942,919.314598,8660.409521
795.532305,222.061783,76.609550,8216.285956
795.532634,888.247130,-229.828649,7772.162391
795.532964,1036.288319,-229.828649,8142.265362
795.533293,1110.308913,612.876398,9030.512492
795.533622,888.247130,1455.581446,9992.780217
795.533951,666.185348,2374.896044,11177.109724
795.534281,444.123565,2298.286494,11251.130318
795.534610,74.020594,2068.457845,11251.130318
795.534939,-148.041188,1762.019645,10881.027347
795.535268,-444.123565,1838.629195,10140.821405
795.535598,-1184.329507,1302.362347,10584.944971
795.535927,-1850.514855,1455.581446,10140.821405
795.536256,-2442.679609,919.314598,9178.553681
795.536585,-2664.741391,0.000000,8290.306550
795.536914,-2368.659014,0.000000,6957.935855
795.537244,-1702.473667,-1149.143247,6513.812290
795.537573,-740.205942,-1225.752797,6365.771101
795.537902,-148.041188,-612.876398,6587.832884
795.538231,0.000000,0.000000,7105.977043
795.538561,0.000000,1608.800546,8586.388927
795.538890,-592.164754,2298.286494,9622.677246
795.539219,-370.102971,3447.429741,11103.089130
795.539548,-666.185348,2911.162892,11325.150913
795.539878,-444.123565,1991.848295,11103.089130
795.540207,-370.102971,1149.143247,10955.047942
795.540536,-370.102971,612.876398,11029.068536
795.540865,-888.247130,383.047749,11029.068536
795.541195,-1554.432478,766.095498,11399.171507
795.541524,-2590.720797,1149.143247,11103.089130
795.541853,-3552.988522,919.314598,10140.821405
795.542182,-3849.070898,383.047749,9696.697840
795.542512,-2664.741391,306.438199,9178.553681
795.542841,-1998.556043,-459.657299,8660.409521
795.543170,-1110.308913,-689.485948,7994.224174
795.543499,-666.185348,-536.266849,7550.100608
795.543829,0.000000,-383.047749,8216.285956
795.544158,518.144159,766.095498,9252.574275
795.544487,370.102971,1915.238745,10658.965565
795.544816,74.020594,2757.943793,11399.171507
795.545146,-370.102971,2681.334243,11843.295072
795.545475,-518.144159,2604.724693,11473.192101
795.545804,-1184.329507,1608.800546,11103.089130
795.546133,-1258.350101,1072.533697,10881.027347
795.546463,-1850.514855,689.485948,10362.883188
795.546792,-2368.659014,689.485948,9548.656652
795.547121,-2886.803174,766.095498,8364.327145
795.547450,-2368.659014,0.000000,7031.956449
795.547780,-1258.350101,-842.705048,6439.791695
795.548109,-444.123565,-842.705048,6069.688724
795.548438,0.000000,0.000000,5847.626942
795.548767,74.020594,995.924147,6291.750507
795.549097,222.061783,2145.067394,7402.059420
795.549426,-518.144159,2374.896044,9252.574275
795.549755,-1332.370696,3217.601092,10807.006753
795.550084,-2220.617826,3370.820191,11547.212695
795.550414,-2516.700203,2221.676944,11547.212695
795.550743,-2368.659014,766.095498,11399.171507
795.551072,-1850.514855,-153.219100,11177.109724
795.551401,-1924.535449,-612.876398,11029.068536
795.551731,-1554.432478,-306.438199,11103.089130
795.552060,-1924.535449,689.485948,10658.965565
795.552389,-1924.535449,612.876398,10140.821405
795.552718,-1628.453072,689.485948,9326.594869
795.553048,-1258.350101,842.705048,8956.491898
795.553377,-222.061783,459.657299,8882.471304
795.553706,444.123565,229.828649,8438.347739
795.554035,666.185348,0.000000,8142.265362
795.554365,888.247130,76.609550,8438.347739
795.554694,814.226536,459.657299,9622.677246
795.555023,740.205942,1302.362347,10732.986159
795.555352,296.082377,2221.676944,11325.150913
795.555682,-222.061783,2451.505594,11547.212695
795.556011,-148.041188,2374.896044,11325.150913
795.556340,-444.123565,2068.457845,10955.047942
795.556669,-814.226536,1915.238745,10732.986159
795.556999,-1406.391290,1378.971896,10214.842000
795.557328,-2294.638420,1149.143247,9474.636058
795.557657,-2812.782580,536.266849,8586.388927
795.557986,-2442.679609,-153.219100,7698.141797
795.558316,-1998.556043,-612.876398,7105.977043
795.558645,-1258.350101,-1225.752797,6217.729913
795.558974,-592.164754,-1072.533697,5921.647536
795.559303,0.000000,-306.438199,6439.791695
795.559633,74.020594,536.266849,7105.977043
795.559962,148.041188,2374.896044,8882.471304
795.560291,-370.102971,3294.210641,10214.842000
795.560620,-370.102971,3370.820191,11325.150913
795.560950,-666.185348,3217.601092,11473.192101
795.561279,-444.123565,1685.410096,11325.150913
795.561608,-296.082377,1302.362347,11029.068536
795.561937,-814.226536,306.438199,10881.027347
795.562267,-1110.308913,383.047749,11251.130318
795.562596,-2294.638420,689.485948,11473.192101
795.562925,-3552.988522,1302.362347,10881.027347
795.563254,-3552.988522,842.705048,10214.842000
795.563584,-3627.009116,766.095498,9400.615463
795.563913,-2664.741391,0.000000,8956.491898
795.564242,-1554.432478,-612.876398,8216.285956
795.564571,-592.164754,-383.047749,7476.080014
795.564901,-74.020594,-766.095498,7402.059420
795.565230,296.082377,153.219100,8438.347739
795.565559,888.247130,1455.581446,10214.842000
795.565888,814.226536,2604.724693,11547.212695
795.566218,296.082377,2757.943793,11991.336260
795.566547,148.041188,2681.334243,11399.171507
795.566876,-370.102971,2528.115143,11547.212695
795.567205,-370.102971,1915.238745,11103.089130
795.567535,-1110.308913,1225.752797,10881.027347
795.567864,-1850.514855,766.095498,10140.821405
795.568193,-2220.617826,612.876398,9030.512492
795.568522,-2516.700203,-229.828649,7846.182985
795.568852,-2368.659014,-1072.533697,6735.874072
795.569181,-1406.391290,-1378.971896,6069.688724
795.569510,-740.205942,-1072.533697,5921.647536
795.569839,-444.123565,-459.657299,5995.668130
795.570169,-74.020594,459.657299,7179.997637
795.570498,-666.185348,1532.190996,8586.388927
795.570827,-1258.350101,2528.115143,9770.718434
795.571156,-1406.391290,3217.601092,11177.109724
795.571486,-1776.494261,2911.162892,11695.253884
795.571815,-1776.494261,1762.019645,11325.150913
795.572144,-1702.473667,536.266849,11029.068536
795.572473,-1480.411884,76.609550,11029.068536
795.572803,-888.247130,76.609550,11251.130318
795.573132,-1258.350101,612.876398,11473.192101
795.573461,-1776.494261,1149.143247,11029.068536
795.573790,-2368.659014,1455.581446,10362.883188
795.574120,-2442.679609,1072.533697,9770.718434
795.574449,-1850.514855,766.095498,9030.512492
795.574778,-888.247130,76.609550,8438.347739
795.575107,0.000000,-536.266849,8068.244768
795.575437,370.102971,-459.657299,7920.203579
795.575766,370.102971,-306.438199,8290.306550
795.576095,888.247130,536.266849,9326.594869
795.576424,888.247130,1915.238745,10658.965565
795.576754,592.164754,2757.943793,11251.130318
795.577083,74.020594,2911.162892,11029.068536
795.577412,0.000000,2604.724693,11029.068536
795.577741,-222.061783,2298.286494,10732.986159
795.578071,-370.102971,1762.019645,10436.903782
795.578400,-1554.432478,1532.190996,10140.821405
795.578729,-1998.556043,1225.752797,9770.718434
795.579058,-2812.782580,612.876398,8068.244768
795.579388,-2516.700203,0.000000,7254.018232
795.579717,-1998.556043,-306.438199,6661.853478
795.580046,-888.247130,-919.314598,5995.668130
795.580375,-370.102971,-459.657299,5995.668130
795.580705,0.000000,536.266849,6513.812290
795.581034,0.000000,1225.752797,7328.038826
795.581363,0.000000,2068.457845,9178.553681
795.581692,-518.144159,3064.381992,10584.944971
795.582022,-740.205942,3524.039291,11399.171507
795.582351,-740.205942,2911.162892,11177.109724
795.582680,-740.205942,1302.362347,11251.130318
795.583009,-740.205942,536.266849,11177.109724
795.583339,-666.185348,153.219100,11473.192101
795.583668,-1184.329507,459.657299,11695.253884
795.583997,-1998.556043,1302.362347,11843.295072
795.584326,-2960.823768,1762.019645,10807.006753
795.584656,-3404.947333,1149.143247,10584.944971
795.584985,-2960.823768,689.485948,9400.615463
795.585314,-1924.535449,0.000000,8438.347739
795.585643,-962.267725,-689.485948,7550.100608
795.585973,-814.226536,-612.876398,6661.853478
795.586302,0.000000,-689.485948,7254.018232
795.586631,0.000000,0.000000,8290.306550
795.586960,74.020594,1608.800546,10066.800811
795.587290,-222.061783,2528.115143,11029.068536
795.587619,-444.123565,2528.115143,11399.171507
795.587948,-1258.350101,2451.505594,11177.109724
795.588277,-1258.350101,2298.286494,11177.109724
795.588607,-1332.370696,1455.581446,10955.047942
795.588936,-2146.597232,536.266849,10510.924376
795.589265,-2220.617826,306.438199,9992.780217
795.589594,-2812.782580,76.609550,8956.491898
795.589924,-2738.761985,-612.876398,7846.182985
795.590253,-1776.494261,-1378.971896,6809.894666
795.590582,-296.082377,-2068.457845,6291.750507
795.590911,666.185348,-1378.971896,6291.750507
795.591241,1406.391290,-306.438199,6957.935855
795.591570,814.226536,1072.533697,7698.141797
795.591899,370.102971,2068.457845,8882.471304
795.592228,-296.082377,3064.381992,10140.821405
795.592558,-814.226536,3370.820191,11547.212695
795.592887,-1110.308913,2911.162892,11843.295072
795.593216,-1628.453072,1762.019645,11177.109724
795.593545,-2294.638420,306.438199,10955.047942
795.593875,-2220.617826,-306.438199,10658.965565
795.594204,-2294.638420,-689.485948,10807.006753
795.594533,-2294.638420,229.828649,10955.047942
795.594862,-3330.926739,995.924147,10658.965565
795.595192,-3627.009116,1225.752797,10140.821405
795.595521,-3034.844362,1072.533697,9770.718434
795.595850,-2072.576638,612.876398,9178.553681
795.596179,-888.247130,1149.143247,8438.347739
795.596509,0.000000,-229.828649,7698.141797
795.596838,296.082377,0.000000,7550.100608
795.597167,814.226536,306.438199,8586.388927
795.597496,1258.350101,1608.800546,9844.739029
795.597826,1480.411884,2757.943793,10955.047942
795.598155,1406.391290,3447.429741,11177.109724
795.598484,1036.288319,3370.820191,10881.027347
795.598813,962.267725,2987.772442,10732.986159
795.599142,814.226536,2374.896044,10436.903782
795.599472,74.020594,2068.457845,10436.903782
795.599801,-814.226536,1762.019645,10066.800811
795.600130,-1924.535449,1072.533697,9474.636058
795.600459,-2590.720797,536.266849,8364.327145
795.600789,-2442.679609,76.609550,7476.080014
795.601118,-1850.514855,-919.314598,6809.894666
795.601447,-1184.329507,-1225.752797,6069.688724
795.601776,-814.226536,-919.314598,5847.626942
795.602106,-666.185348,459.657299,6587.832884
795.602435,-740.205942,1302.362347,7698.141797
795.602764,-814.226536,2374.896044,9326.594869
795.603093,-888.247130,2834.553343,10658.965565
795.603423,-962.267725,2528.115143,10732.986159
795.603752,-1332.370696,2604.724693,10955.047942
795.604081,-666.185348,995.924147,10955.047942
795.604410,-444.123565,383.047749,11103.089130
795.604740,-444.123565,0.000000,11029.068536
795.605069,-888.247130,612.876398,11547.212695
795.605398,-1628.453072,612.876398,11621.233289
795.605727,-2516.700203,1149.143247,10955.047942
795.606057,-2960.823768,1072.533697,10214.842000
795.606386,-2368.659014,306.438199,9400.615463
795.606715,-1480.411884,-459.657299,9030.512492
795.607044,-444.123565,-766.095498,8364.327145
795.607374,-740.205942,-1072.533697,7846.182985
795.607703,-740.205942,-1149.143247,8290.306550
795.608032,-296.082377,-536.266849,9326.594869
795.608361,-148.041188,1072.533697,10436.903782
795.608691,-222.061783,2068.457845,11103.089130
795.609020,-666.185348,2068.457845,11547.212695
795.609349,-962.267725,2068.457845,11399.171507
795.609678,-1110.308913,1838.629195,11399.171507
795.610008,-1776.494261,1532.190996,10955.047942
795.610337,-2072.576638,1302.362347,10732.986159
795.610666,-2812.782580,995.924147,9474.636058
795.610995,-2960.823768,229.828649,8734.430116
795.611325,-2590.720797,-536.266849,7624.121203
795.611654,-1776.494261,-1072.533697,6661.853478
795.611983,-962.267725,-1762.019645,5773.606348
795.612312,-740.205942,-1072.533697,6217.729913
795.612642,74.020594,229.828649,6735.874072
795.612971,222.061783,1225.752797,7254.018232
795.613300,0.000000,2298.286494,8956.491898
795.613629,-444.123565,2757.943793,10362.883188
795.613959,-740.205942,3064.381992,11325.150913
795.614288,-1258.350101,2911.162892,11843.295072
795.614617,-1628.453072,1838.629195,11251.130318
795.614946,-1776.494261,842.705048,11251.130318
795.615276,-1776.494261,76.609550,10955.047942
795.615605,-1628.453072,0.000000,10881.027347
795.615934,-2146.597232,459.657299,10362.883188
795.616263,-2442.679609,766.095498,10214.842000
795.616593,-2960.823768,1149.143247,9770.718434
795.616922,-2368.659014,919.314598,9326.594869
795.617251,-1480.411884,689.485948,8660.409521
795.617580,-518.144159,383.047749,7772.162391
795.617910,74.020594,-306.438199,7624.121203
795.618239,296.082377,-229.828649,8142.265362
795.618568,592.164754,383.047749,8660.409521
795.618897,1036.288319,1225.752797,10066.800811
795.619227,518.144159,2451.505594,10881.027347
795.619556,592.164754,2604.724693,11177.109724
795.619885,148.041188,2528.115143,11103.089130
795.620214,222.061783,2298.286494,10732.986159
795.620544,296.082377,2068.457845,10807.006753
795.620873,-444.123565,1532.190996,10436.903782
795.621202,-1110.308913,1762.019645,10288.862594
795.621531,-2072.576638,1149.143247,9474.636058
795.621861,-2516.700203,459.657299,8438.347739
795.622190,-2146.597232,-459.657299,7550.100608
795.622519,-1332.370696,-919.314598,6661.853478
795.622848,-1036.288319,-1225.752797,5773.606348
795.623178,-518.144159,-766.095498,6513.812290
795.623507,-370.102971,0.000000,7254.018232
795.623836,-592.164754,1225.752797,8364.327145
795.624166,-1036.288319,2298.286494,9622.677246
795.624495,-888.247130,3447.429741,10584.944971
795.624824,-888.247130,2528.115143,11325.150913
795.625153,-814.226536,1762.019645,11029.068536
795.625483,-888.247130,995.924147,10732.986159
795.625812,-740.205942,229.828649,10807.006753
795.626141,-740.205942,306.438199,11177.109724
795.626471,-1628.453072,766.095498,11029.068536
795.626800,-2442.679609,1378.971896,11251.130318
795.627129,-3108.864956,919.314598,10658.965565
795.627459,-3108.864956,459.657299,9844.739029
795.627788,-2220.617826,76.609550,9104.533087
795.628117,-1184.329507,-536.266849,8734.430116
795.628447,-296.082377,-1149.143247,7994.224174
795.628776,-148.041188,-766.095498,7402.059420
795.629105,148.041188,-536.266849,7994.224174
795.629435,370.102971,459.657299,9548.656652
795.629764,518.144159,1915.238745,10288.862594
795.630093,296.082377,2528.115143,11251.130318
795.630423,-222.061783,2681.334243,11621.233289
795.630752,-444.123565,2221.676944,11547.212695
795.631081,-814.226536,2068.457845,11103.089130
795.631411,-1258.350101,1762.019645,10658.965565
795.631740,-2368.659014,1149.143247,10362.883188
795.632069,-2812.782580,919.314598,9622.677246
795.632398,-3034.844362,383.047749,8586.388927
795.632728,-2590.720797,-842.705048,7550.100608
795.633057,-1850.514855,-1149.143247,6513.812290
795.633386,-1258.350101,-612.876398,6439.791695
795.633716,-296.082377,-842.705048,6291.750507
795.634045,0.000000,306.438199,7031.956449
795.634374,0.000000,1608.800546,8068.244768
795.634704,-370.102971,2298.286494,9252.574275
795.635033,-592.164754,3370.820191,10584.944971
795.635362,-740.205942,3600.648841,10881.027347
795.635692,-1036.288319,2604.724693,11325.150913
795.636021,-1110.308913,1608.800546,10807.006753
795.636350,-1036.288319,459.657299,10658.965565
795.636680,-740.205942,76.609550,10955.047942
795.637009,-962.267725,383.047749,10732.986159
795.637338,-1702.473667,995.924147,10807.006753
795.637668,-2294.638420,1072.533697,10362.883188
795.637997,-2516.700203,1149.143247,9770.718434
795.638326,-2072.576638,919.314598,9400.615463
795.638656,-1184.329507,842.705048,8956.491898
795.638985,-814.226536,-153.219100,8142.265362
795.639314,-296.082377,-306.438199,7624.121203
795.639643,0.000000,-383.047749,8068.244768
795.639973,296.082377,536.266849,9178.553681
795.640302,592.164754,1762.019645,10140.821405
795.640631,370.102971,2911.162892,11029.068536
795.640961,296.082377,2528.115143,11251.130318
795.641290,0.000000,2298.286494,11103.089130
795.641619,0.000000,1915.238745,10732.986159
795.641949,-296.082377,2145.067394,10362.883188
795.642278,-740.205942,1838.629195,10362.883188
795.642607,-1480.411884,1302.362347,9918.759623
795.642937,-1998.556043,842.705048,9326.594869
795.643266,-2146.597232,536.266849,8438.347739
795.643595,-1628.453072,-306.438199,7328.038826
795.643925,-518.144159,-612.876398,6587.832884
795.644254,-296.082377,-536.266849,6291.750507
795.644583,0.000000,-76.609550,6587.832884
795.644913,0.000000,229.828649,7179.997637
795.645242,-518.144159,1455.581446,8512.368333
795.645571,-740.205942,2298.286494,9696.697840
795.645901,-1554.432478,3064.381992,10288.862594
795.646230,-1480.411884,2451.505594,10732.986159
795.646559,-1184.329507,1455.581446,10807.006753
795.646888,-1110.308913,689.485948,10881.027347
795.647218,-1110.308913,842.705048,10732.986159
795.647547,-1332.370696,919.314598,10955.047942
795.647876,-1850.514855,919.314598,11251.130318
795.648206,-2960.823768,1072.533697,11399.171507
795.648535,-3552.988522,919.314598,10732.986159
795.648864,-3404.947333,689.485948,9770.718434
795.649194,-2368.659014,153.219100,8660.409521
795.649523,-1110.308913,-1225.752797,7994.224174
795.649852,-148.041188,-1225.752797,7550.100608
795.650182,592.164754,-1149.143247,7402.059420
795.650511,814.226536,-306.438199,8364.327145
795.650840,888.247130,1072.533697,10066.800811
795.651170,666.185348,3370.820191,11325.150913
795.651499,444.123565,2911.162892,11621.233289
795.651828,0.000000,2757.943793,11695.253884
795.652158,-296.082377,2681.334243,11399.171507
795.652487,-592.164754,1915.238745,11103.089130
795.652816,-1332.370696,1455.581446,10214.842000
795.653146,-2146.597232,536.266849,9992.780217
795.653475,-3330.926739,536.266849,9178.553681
795.653804,-3478.967927,0.000000,8216.285956
795.654133,-2886.803174,-842.705048,7254.018232
795.654463,-1924.535449,-766.095498,6513.812290
795.654792,-1332.370696,-842.705048,5847.626942
795.655121,-740.205942,-459.657299,6365.771101
795.655451,-296.082377,229.828649,7105.977043
795.655780,-518.144159,1532.190996,8290.306550
795.656109,-888.247130,3217.601092,9474.636058
795.656439,-1036.288319,3064.381992,10436.903782
795.656768,-1332.370696,3064.381992,11251.130318
795.657097,-962.267725,2068.457845,11177.109724
795.657427,-1258.350101,1072.533697,10807.006753
795.657756,-666.185348,0.000000,10362.883188
795.658085,-370.102971,459.657299,10881.027347
795.658415,-592.164754,766.095498,11177.109724
795.658744,-1702.473667,1225.752797,10807.006753
795.659073,-2368.659014,1225.752797,10584.944971
795.659403,-2368.659014,1302.362347,9992.780217
795.659732,-1998.556043,383.047749,9030.512492
795.660061,-888.247130,0.000000,8882.471304
795.660391,-518.144159,-612.876398,8068.244768
795.660720,0.000000,-842.705048,7920.203579
795.661049,74.020594,-459.657299,8142.265362
795.661378,518.144159,689.485948,9622.677246
795.661708,444.123565,1455.581446,10140.821405
795.662037,296.082377,2451.505594,11029.068536
795.662366,0.000000,2834.553343,11251.130318
795.662696,-222.061783,2374.896044,11177.109724
795.663025,-370.102971,1838.629195,10658.965565
795.663354,-222.061783,1455.581446,10288.862594
795.663684,-962.267725,995.924147,10362.883188
795.664013,-1702.473667,1149.143247,9770.718434
795.664342,-2146.597232,383.047749,8956.491898
795.664672,-2072.576638,0.000000,8142.265362
795.665001,-1184.329507,0.000000,7179.997637
795.665330,-222.061783,-689.485948,6809.894666
795.665660,74.020594,-459.657299,6587.832884
795.665989,370.102971,0.000000,6661.853478
795.666318,0.000000,995.924147,7402.059420
795.666648,-222.061783,2068.457845,8734.430116
795.666977,-888.247130,3064.381992,10140.821405
795.667306,-1406.391290,3217.601092,10807.006753
795.667636,-1554.432478,2298.286494,10658.965565
795.667965,-1184.329507,1072.533697,10732.986159
795.668294,-962.267725,612.876398,11029.068536
795.668623,-1184.329507,0.000000,10436.903782
795.668953,-1332.370696,383.047749,11029.068536
795.669282,-2146.597232,1225.752797,11251.130318
795.669611,-3108.864956,1532.190996,11103.089130
795.669941,-3182.885551,1225.752797,10732.986159
795.670270,-2812.782580,919.314598,9696.697840
795.670599,-1924.535449,0.000000,8956.491898
795.670929,-814.226536,-689.485948,8142.265362
795.671258,-296.082377,-1225.752797,7550.100608
795.671587,222.061783,-995.924147,7772.162391
795.671917,740.205942,0.000000,9030.512492
795.672246,740.205942,1532.190996,10288.862594
795.672575,740.205942,2834.553343,11251.130318
795.672905,518.144159,3217.601092,11621.233289
795.673234,296.082377,2681.334243,11473.192101
795.673563,74.020594,2451.505594,11177.109724
795.673893,-148.041188,1532.190996,10955.047942
795.674222,-1332.370696,1225.752797,10807.006753
795.674551,-2368.659014,1225.752797,10214.842000
795.674881,-3256.906145,459.657299,9252.574275
795.675210,-3552.988522,-306.438199,8142.265362
795.675539,-2516.700203,-919.314598,7179.997637
795.675868,-1998.556043,-1608.800546,6291.750507
795.676198,-1406.391290,-1225.752797,6143.709319
795.676527,-814.226536,-536.266849,6513.812290
795.676856,-814.226536,689.485948,7179.997637
795.677186,-814.226536,2374.896044,8660.409521
795.677515,-1332.370696,2757.943793,9918.759623
795.677844,-1480.411884,3140.991542,11029.068536
795.678174,-1480.411884,2834.553343,11473.192101
795.678503,-1554.432478,1608.800546,10955.047942
795.678832,-1850.514855,689.485948,10510.924376
795.679162,-1184.329507,-689.485948,10436.903782
795.679491,-1184.329507,-229.828649,10881.027347
795.679820,-1628.453072,306.438199,11029.068536
795.680150,-2368.659014,1072.533697,10881.027347
795.680479,-2664.741391,1225.752797,10288.862594
795.680808,-2220.617826,1378.971896,9696.697840
795.681138,-1702.473667,1302.362347,8586.388927
795.681467,-592.164754,-153.219100,8364.327145
795.681796,0.000000,-459.657299,7698.141797
795.682126,0.000000,-459.657299,7624.121203
795.682455,296.082377,-383.047749,8512.368333
795.682784,74.020594,766.095498,9326.594869
795.683113,0.000000,1608.800546,11029.068536
795.683443,-148.041188,2451.505594,11473.192101
795.683772,-518.144159,2681.334243,11325.150913
795.684101,0.000000,2451.505594,10955.047942
795.684431,0.000000,1608.800546,10362.883188
795.684760,0.000000,1302.362347,10584.944971
795.685089,-592.164754,995.924147,10732.986159
795.685419,-1480.411884,1072.533697,10214.842000
795.685748,-2146.597232,1072.533697,9104.533087
795.686077,-1702.473667,612.876398,8142.265362
795.686407,-444.123565,-383.047749,7031.956449
795.686736,370.102971,-919.314598,6365.771101
795.687065,740.205942,-383.047749,6513.812290
795.687395,370.102971,153.219100,6883.915261
795.687724,-444.123565,1608.800546,7846.182985
795.688053,-1110.308913,2374.896044,9400.615463
795.688383,-1258.350101,2834.553343,10658.965565
795.688712,-1480.411884,2604.724693,10955.047942
795.689041,-1184.329507,1838.629195,10732.986159
795.689371,-1332.370696,842.705048,10658.965565
795.689700,-1036.288319,153.219100,10510.924376
795.690029,-1406.391290,0.000000,10807.006753
795.690358,-1702.473667,536.266849,11029.068536
795.690688,-2368.659014,1225.752797,11399.171507
795.691017,-3108.864956,1225.752797,10732.986159
795.691346,-3034.844362,612.876398,10066.800811
795.691676,-2516.700203,842.705048,9252.574275
795.692005,-1406.391290,-306.438199,8586.388927
795.692334,-666.185348,-919.314598,7624.121203
795.692664,-148.041188,-1072.533697,7624.121203
795.692993,-222.061783,-383.047749,7920.203579
795.693322,370.102971,306.438199,8734.430116
795.693652,370.102971,1302.362347,10584.944971
795.693981,370.102971,2528.115143,11399.171507
795.694310,0.000000,2451.505594,11621.233289
795.694640,-370.102971,2757.943793,11473.192101
795.694969,-666.185348,1991.848295,11399.171507
795.695298,-1258.350101,1762.019645,11177.109724
795.695628,-2146.597232,1302.362347,11029.068536
795.695957,-3034.844362,842.705048,9918.759623
795.696286,-3404.947333,229.828649,8808.450710
795.696616,-3330.926739,0.000000,7624.121203
795.696945,-2368.659014,-1302.362347,6735.874072
795.697274,-1480.411884,-1302.362347,6069.688724
795.697603,-888.247130,-995.924147,6217.729913
795.697933,-444.123565,0.000000,6661.853478
795.698262,-444.123565,1072.533697,7698.141797
795.698591,-296.082377,2298.286494,8882.471304
795.698921,-888.247130,3294.210641,10362.883188
795.699250,-1184.329507,3600.648841,11399.171507
795.699579,-1184.329507,2911.162892,11473.192101
795.699909,-1258.350101,1838.629195,10881.027347
795.700238,-1258.350101,306.438199,10807.006753
795.700567,-296.082377,-306.438199,10658.965565
795.700897,-370.102971,0.000000,10732.986159
795.701226,-888.247130,842.705048,10732.986159
795.701555,-1628.453072,1225.752797,10436.903782
795.701885,-2072.576638,1149.143247,9696.697840
795.702214,-1998.556043,1685.410096,9622.677246
795.702543,-1258.350101,1302.362347,8808.450710
795.702873,-518.144159,76.609550,8438.347739
795.703202,-370.102971,-612.876398,7772.162391
795.703531,-666.185348,-1072.533697,7772.162391
795.703860,0.000000,153.219100,8660.409521
795.704190,-222.061783,612.876398,10066.800811
795.704519,-222.061783,1455.581446,10732.986159
795.704848,-148.041188,2221.676944,11029.068536
795.705178,-222.061783,2221.676944,11177.109724
795.705507,0.000000,2145.067394,10955.047942
795.705836,0.000000,2068.457845,11103.089130
795.706166,-370.102971,1762.019645,11029.068536
795.706495,-888.247130,2068.457845,10658.965565
795.706824,-1554.432478,1608.800546,9770.718434
795.707154,-1480.411884,1149.143247,8068.244768
795.707483,-962.267725,229.828649,7698.141797
795.707812,-222.061783,-459.657299,6809.894666
795.708142,148.041188,-919.314598,6217.729913
795.708471,222.061783,0.000000,6439.791695
795.708800,370.102971,153.219100,6883.915261
795.709130,0.000000,1455.581446,8438.347739
795.709459,-1184.329507,2451.505594,9548.656652
795.709788,-1554.432478,3140.991542,10807.006753
795.710118,-1850.514855,2911.162892,11029.068536
795.710447,-1998.556043,1685.410096,10510.924376
795.710776,-2220.617826,842.705048,10510.924376
795.711105,-1998.556043,229.828649,10807.006753
795.711435,-2146.597232,76.609550,10881.027347
795.711764,-2590.720797,229.828649,10955.047942
795.712093,-3182.885551,919.314598,10955.047942
795.712423,-3701.029710,842.705048,10362.883188
795.712752,-3627.009116,536.266849,9622.677246
795.713081,-2738.761985,229.828649,8808.450710
795.713411,-1406.391290,-612.876398,8216.285956
795.713740,-296.082377,-995.924147,7698.141797
795.714069,666.185348,-1072.533697,7476.080014
795.714399,814.226536,-459.657299,7994.224174
795.714728,1110.308913,536.266849,9474.636058
795.715057,1036.288319,2298.286494,10955.047942
795.715387,1036.288319,2604.724693,11621.233289
795.715716,666.185348,2528.115143,11473.192101
795.716045,296.082377,2145.067394,12065.356855
795.716375,0.000000,1455.581446,11769.274478
795.716704,-962.267725,842.705048,11547.212695
795.717033,-1776.494261,612.876398,11177.109724
795.717363,-2812.782580,689.485948,9992.780217
795.717692,-3034.844362,306.438199,8586.388927
795.718021,-2664.741391,-383.047749,7179.997637
795.718350,-1850.514855,-1149.143247,6217.729913
795.718680,-1258.350101,-1302.362347,5403.503377
795.719009,-740.205942,-689.485948,5995.668130
795.719338,-1036.288319,-383.047749,6513.812290
795.719668,-1110.308913,1302.362347,7994.224174
795.719997,-1628.453072,2528.115143,9696.697840
795.720326,-2294.638420,3294.210641,10955.047942
795.720656,-2220.617826,3294.210641,11621.233289
795.720985,-1702.473667,2374.896044,11103.089130
795.721314,-1924.535449,1225.752797,10732.986159
795.721644,-1036.288319,612.876398,10510.924376
795.721973,-518.144159,306.438199,10510.924376
795.722302,-296.082377,689.485948,10658.965565
795.722632,-518.144159,1302.362347,10510.924376
795.722961,-962.267725,1991.848295,10584.944971
795.723290,-1406.391290,1915.238745,9770.718434
795.723620,-1110.308913,1685.410096,9178.553681
795.723949,-444.123565,1072.533697,8586.388927
795.724278,-148.041188,0.000000,8364.327145
795.724608,0.000000,0.000000,7920.203579
795.724937,-296.082377,383.047749,7994.224174
795.725266,-222.061783,153.219100,9252.574275
795.725595,-222.061783,1378.971896,10510.924376
795.725925,-370.102971,2451.505594,11029.068536
795.726254,-592.164754,1838.629195,10658.965565
795.726583,-296.082377,2451.505594,11029.068536
795.726913,-962.267725,1455.581446,10807.006753
795.727242,-666.185348,1762.019645,10807.006753
795.727571,-1406.391290,1532.190996,10658.965565
795.727901,-1924.535449,1225.752797,10288.862594
795.728230,-2220.617826,1149.143247,9104.533087
795.728559,-2146.597232,306.438199,7846.182985
795.728888,-1110.308913,-536.266849,7179.997637
795.729218,0.000000,-766.095498,6439.791695
795.729547,518.144159,-689.485948,6439.791695
795.729876,666.185348,153.219100,6513.812290
795.730206,518.144159,612.876398,7402.059420
795.730535,0.000000,1762.019645,9104.533087
795.730864,-296.082377,2681.334243,10066.800811
795.731193,-888.247130,3217.601092,11251.130318
795.731523,-962.267725,2298.286494,11103.089130
795.731852,-814.226536,842.705048,10955.047942
795.732181,-1332.370696,459.657299,10955.047942
795.732511,-1406.391290,0.000000,11103.089130
795.732840,-1924.535449,-153.219100,11325.150913
795.733169,-2590.720797,153.219100,11177.109724
795.733498,-3182.885551,1072.533697,11399.171507
795.733828,-3701.029710,1072.533697,10510.924376
795.734157,-3478.967927,612.876398,9400.615463
795.734486,-2516.700203,229.828649,8512.368333
795.734816,-1628.453072,-459.657299,7698.141797
795.735145,-296.082377,-1378.971896,7179.997637
795.735474,74.020594,-919.314598,7550.100608
795.735804,296.082377,-383.047749,8364.327145
795.736133,296.082377,995.924147,9770.718434
795.736462,518.144159,2221.676944,11177.109724
795.736791,0.000000,2911.162892,11917.315666
795.737121,222.061783,2834.553343,11695.253884
795.737450,222.061783,2221.676944,11473.192101
795.737779,0.000000,2068.457845,11251.130318
795.738109,-1036.288319,1532.190996,10955.047942
795.738438,-1628.453072,1072.533697,10732.986159
795.738767,-2590.720797,842.705048,9474.636058
795.739096,-2738.761985,459.657299,8364.327145
795.739426,-2368.659014,-459.657299,7179.997637
795.739755,-1480.411884,-919.314598,6069.688724
795.740084,-962.267725,-1225.752797,5477.523971
795.740414,74.020594,-842.705048,5699.585753
795.740743,-518.144159,383.047749,6809.894666
795.741072,-666.185348,1608.800546,8364.327145
795.741401,-1628.453072,2834.553343,9622.677246
795.741731,-2072.576638,3447.429741,10881.027347
795.742060,-2368.659014,2757.943793,11399.171507
795.742389,-1850.514855,2528.115143,11695.253884
795.742719,-2146.597232,995.924147,10881.027347
795.743048,-1628.453072,229.828649,10436.903782
795.743377,-888.247130,-153.219100,10288.862594
795.743707,-1036.288319,383.047749,10658.965565
795.744036,-962.267725,1455.581446,10510.924376
795.744365,-1850.514855,1225.752797,10066.800811
795.744694,-2146.597232,1685.410096,9474.636058
795.745024,-1628.453072,1532.190996,8882.471304
795.745353,-444.123565,536.266849,8290.306550
795.745682,592.164754,-459.657299,7846.182985
795.746012,444.123565,-1149.143247,7772.162391
795.746341,518.144159,-306.438199,8364.327145
795.746670,296.082377,0.000000,9474.636058
795.746999,222.061783,1455.581446,10732.986159
795.747329,74.020594,2451.505594,11547.212695
795.747658,0.000000,2451.505594,11621.233289
795.747987,-370.102971,2451.505594,11695.253884
795.748317,-444.123565,1915.238745,11103.089130
795.748646,-814.226536,1149.143247,10807.006753
795.748975,-1554.432478,1072.533697,10807.006753
795.749304,-2220.617826,1302.362347,10066.800811
795.749634,-2442.679609,229.828649,8956.491898
795.749963,-2442.679609,0.000000,7920.203579
795.750292,-1850.514855,-689.485948,6735.874072
795.750622,-814.226536,-1149.143247,6143.709319
795.750951,0.000000,-995.924147,6291.750507
795.751280,0.000000,612.876398,6661.853478
795.751609,0.000000,1302.362347,7846.182985
795.751939,-444.123565,2145.067394,8882.471304
795.752268,-666.185348,2757.943793,10288.862594
795.752597,-740.205942,2604.724693,11177.109724
795.752927,-1036.288319,2374.896044,11103.089130
795.753256,-888.247130,1149.143247,11103.089130
795.753585,-1036.288319,766.095498,10732.986159
795.753915,-666.185348,0.000000,10732.986159
795.754244,-1036.288319,383.047749,10881.027347
795.754573,-1554.432478,689.485948,11251.130318
795.754902,-2590.720797,1378.971896,10584.944971
795.755232,-3034.844362,1608.800546,10140.821405
795.755561,-2960.823768,766.095498,9326.594869
795.755890,-2072.576638,229.828649,8808.450710
795.756220,-1036.288319,-459.657299,7698.141797
795.756549,-888.247130,-1072.533697,7179.997637
795.756878,-592.164754,-995.924147,7920.203579
795.757207,-370.102971,0.000000,8660.409521
795.757537,0.000000,995.924147,10214.842000
795.757866,0.000000,2374.896044,11029.068536
795.758195,74.020594,2757.943793,11547.212695
795.758525,74.020594,2604.724693,11769.274478
795.758854,0.000000,2451.505594,11473.192101
795.759183,-444.123565,2068.457845,11325.150913
795.759512,-814.226536,1838.629195,10955.047942
795.759842,-1628.453072,1685.410096,10140.821405
795.760171,-1924.535449,1149.143247,9252.574275
795.760500,-2368.659014,153.219100,7994.224174
795.760830,-1850.514855,-919.314598,7031.956449
795.761159,-1258.350101,-995.924147,5995.668130
795.761488,-370.102971,-766.095498,5699.585753
795.761818,-444.123565,76.609550,5699.585753
795.762147,0.000000,612.876398,6957.935855
795.762476,-666.185348,1685.410096,8216.285956
795.762805,-1110.308913,2528.115143,10066.800811
795.763135,-1554.432478,3447.429741,10881.027347
795.763464,-1924.535449,2834.553343,11325.150913
795.763793,-2072.576638,1915.238745,11399.171507
795.764123,-1998.556043,766.095498,11251.130318
795.764452,-1702.473667,0.000000,11177.109724
795.764781,-1480.411884,0.000000,10955.047942
795.765110,-1850.514855,76.609550,11251.130318
795.765440,-2294.638420,459.657299,10658.965565
795.765769,-2368.659014,689.485948,10362.883188
795.766098,-2368.659014,919.314598,9696.697840
795.766428,-1850.514855,612.876398,9104.533087
795.766757,-370.102971,229.828649,8438.347739
795.767086,74.020594,0.000000,7772.162391
795.767415,222.061783,-229.828649,7846.182985
795.767745,370.102971,153.219100,8808.450710
795.768074,740.205942,766.095498,9696.697840
795.768403,1036.288319,1991.848295,10955.047942
795.768733,740.205942,2604.724693,11473.192101
795.769062,222.061783,2451.505594,11399.171507
795.769391,148.041188,2221.676944,11103.089130
795.769721,0.000000,1915.238745,11103.089130
795.770050,-518.144159,1532.190996,10881.027347
795.770379,-1258.350101,1685.410096,10510.924376
795.770708,-2368.659014,995.924147,9622.677246
795.771038,-2368.659014,842.705048,8734.430116
795.771367,-2294.638420,-229.828649,7476.080014
795.771696,-1628.453072,-689.485948,6809.894666
795.772026,-444.123565,-1072.533697,6439.791695
795.772355,0.000000,-1072.533697,5921.647536
795.772684,0.000000,306.438199,6735.874072
795.773013,-222.061783,1302.362347,7550.100608
795.773343,-444.123565,2068.457845,9030.512492
795.773672,-518.144159,2911.162892,9918.759623
795.774001,-1110.308913,3294.210641,10955.047942
795.774331,-962.267725,2221.676944,11029.068536
795.774660,-814.226536,1225.752797,11103.089130
795.774989,-814.226536,612.876398,11029.068536
795.775318,-592.164754,383.047749,11325.150913
795.775648,-1036.288319,1072.533697,11399.171507
795.775977,-1776.494261,1608.800546,11621.233289
795.776306,-2368.659014,1838.629195,10955.047942
795.776636,-2738.761985,1225.752797,10140.821405
795.776965,-2368.659014,919.314598,9326.594869
795.777294,-1554.432478,766.095498,8364.327145
795.777624,-962.267725,-612.876398,7254.018232
795.777953,-666.185348,-1072.533697,7328.038826
795.778282,-592.164754,-919.314598,7772.162391
795.778611,-222.061783,0.000000,9178.553681
795.778941,0.000000,1072.533697,10066.800811
795.779270,0.000000,2374.896044,10955.047942
795.779599,-222.061783,2604.724693,11547.212695
795.779929,-518.144159,2451.505594,11843.295072
795.780258,-592.164754,2451.505594,11473.192101
795.780587,-666.185348,2221.676944,11103.089130
795.780916,-1184.329507,842.705048,10658.965565
795.781246,-1924.535449,995.924147,10140.821405
795.781575,-2886.803174,766.095498,9178.553681
795.781904,-2590.720797,-153.219100,7698.141797
795.782234,-2220.617826,-842.705048,6735.874072
795.782563,-962.267725,-1302.362347,5995.668130
795.782892,-296.082377,-1378.971896,5551.544565
795.783221,0.000000,-459.657299,6513.812290
795.783551,-148.041188,919.314598,7328.038826
795.783880,-444.123565,1838.629195,8734.430116
795.784209,-1184.329507,2987.772442,10140.821405
795.784539,-1406.391290,3217.601092,11473.192101
795.784868,-1480.411884,2374.896044,11621.233289
795.785197,-1702.473667,1685.410096,11621.233289
795.785527,-1776.494261,689.485948,10955.047942
795.785856,-1480.411884,153.219100,11103.089130
795.786185,-814.226536,-459.657299,11177.109724
795.786514,-1850.514855,459.657299,11251.130318
795.786844,-2220.617826,1072.533697,10732.986159
795.787173,-2368.659014,995.924147,10362.883188
795.787502,-2146.597232,919.314598,9548.656652
795.787832,-1480.411884,995.924147,8808.450710
795.788161,0.000000,383.047749,8660.409521
795.788490,296.082377,-612.876398,8068.244768
795.788819,444.123565,0.000000,7994.224174
795.789149,592.164754,0.000000,8808.450710
795.789478,666.185348,1608.800546,10140.821405
795.789807,814.226536,1991.848295,10658.965565
795.790137,222.061783,2604.724693,11325.150913
795.790466,222.061783,2451.505594,11399.171507
795.790795,0.000000,2145.067394,11251.130318
795.791124,-296.082377,1685.410096,10732.986159
795.791454,-296.082377,1915.238745,10732.986159
795.791783,-1480.411884,1762.019645,10288.862594
795.792112,-2146.597232,1762.019645,9326.594869
795.792442,-2294.638420,689.485948,8068.244768
795.792771,-1924.535449,0.000000,6883.915261
795.793100,-1258.350101,-229.828649,6217.729913
795.793429,-666.185348,-766.095498,5699.585753
795.793759,-148.041188,-229.828649,5995.668130
795.794088,-296.082377,459.657299,6957.935855
795.794417,-740.205942,1302.362347,7920.203579
795.794747,-1184.329507,2451.505594,9548.656652
795.795076,-1332.370696,2681.334243,10510.924376
795.795405,-1406.391290,2681.334243,11177.109724
795.795735,-1036.288319,1608.800546,11177.109724
795.796064,-888.247130,995.924147,11029.068536
795.796393,-888.247130,229.828649,11103.089130
795.796722,-666.185348,76.609550,11547.212695
795.797052,-1480.411884,536.266849,11325.150913
795.797381,-2294.638420,1762.019645,11399.171507
795.797710,-2590.720797,1532.190996,10881.027347
795.798040,-2516.700203,1072.533697,9992.780217
795.798369,-2146.597232,0.000000,9030.512492
795.798698,-1036.288319,-383.047749,8438.347739
795.799027,-666.185348,-1072.533697,7846.182985
795.799357,-592.164754,-1302.362347,7624.121203
795.799686,-222.061783,-842.705048,8364.327145
795.800015,296.082377,0.000000,9548.656652
795.800345,444.123565,1685.410096,10807.006753
795.800674,0.000000,2374.896044,11473.192101
795.801003,0.000000,2451.505594,11621.233289
795.801332,0.000000,2451.505594,11769.274478
795.801662,-370.102971,2374.896044,11251.130318
795.801991,-814.226536,1532.190996,11325.150913
795.802320,-1480.411884,1072.533697,10362.883188
795.802650,-2738.761985,766.095498,9992.780217
795.802979,-3034.844362,153.219100,8882.471304
795.803308,-2664.741391,-612.876398,7328.038826
795.803638,-1924.535449,-1072.533697,5995.668130
795.803967,-592.164754,-1302.362347,5625.565159
795.804296,0.000000,-1149.143247,5625.565159
795.804625,222.061783,0.000000,6291.750507
795.804955,74.020594,1225.752797,7550.100608
795.805284,-1258.350101,2604.724693,9474.636058
795.805613,-1258.350101,2987.772442,10658.965565
795.805943,-1924.535449,3830.477490,11695.253884
795.806272,-1924.535449,2451.505594,11843.295072
795.806601,-2072.576638,1149.143247,11325.150913
795.806930,-1628.453072,0.000000,10955.047942
795.807260,-1110.308913,-919.314598,10807.006753
795.807589,-1258.350101,0.000000,10881.027347
795.807918,-1924.535449,459.657299,10955.047942
795.808248,-2220.617826,1225.752797,10732.986159
795.808577,-2368.659014,1685.410096,10140.821405
795.808906,-1776.494261,1838.629195,9326.594869
795.809235,-444.123565,842.705048,8438.347739
795.809565,296.082377,153.219100,8438.347739
795.809894,814.226536,0.000000,7772.162391
795.810223,740.205942,0.000000,8068.244768
795.810553,518.144159,459.657299,9104.533087
795.810882,444.123565,1532.190996,10066.800811
795.811211,370.102971,2221.676944,11399.171507
795.811541,0.000000,2298.286494,11621.233289
795.811870,-222.061783,2145.067394,11547.212695
795.812199,-296.082377,1685.410096,11251.130318
795.812528,-296.082377,1685.410096,10510.924376
795.812858,-1258.350101,1762.019645,10510.924376
795.813187,-1850.514855,1685.410096,9992.780217
795.813516,-2072.576638,1532.190996,8734.430116
795.813846,-1998.556043,842.705048,7698.141797
795.814175,-1406.391290,0.000000,6513.812290
795.814504,0.000000,0.000000,5921.647536
795.814833,0.000000,-536.266849,5773.606348
795.815163,0.000000,0.000000,6291.750507
795.815492,-666.185348,919.314598,7402.059420
795.815821,-1332.370696,1608.800546,8364.327145
795.816151,-1554.432478,2298.286494,10140.821405
795.816480,-1924.535449,2451.505594,11325.150913
795.816809,-1628.453072,2068.457845,11695.253884
795.817138,-1480.411884,1225.752797,11399.171507
795.817468,-1110.308913,76.609550,10955.047942
795.817797,-740.205942,-459.657299,10955.047942
795.818126,-888.247130,0.000000,11325.150913
795.818456,-1332.370696,766.095498,11103.089130
795.818785,-2072.576638,1225.752797,11103.089130
795.819114,-2516.700203,995.924147,10584.944971
795.819444,-2812.782580,1072.533697,9844.739029
795.819773,-2146.597232,153.219100,8882.471304
795.820102,-1406.391290,-689.485948,8364.327145
795.820431,-1036.288319,-1225.752797,8068.244768
795.820761,-1110.308913,-1225.752797,7846.182985
795.821090,-444.123565,-766.095498,8808.450710
795.821419,0.000000,612.876398,9844.739029
795.821749,0.000000,1838.629195,11029.068536
795.822078,-370.102971,2451.505594,11547.212695
795.822407,-444.123565,2451.505594,11695.253884
795.822736,-222.061783,2451.505594,11843.295072
795.823066,-666.185348,1991.848295,11399.171507
795.823395,-1184.329507,1302.362347,11399.171507
795.823724,-2146.597232,766.095498,10658.965565
795.824054,-2738.761985,612.876398,9474.636058
795.824383,-2886.803174,76.609550,7920.203579
795.824710,-2146.597232,-229.828649,6587.832884
795.825039,-814.226536,-766.095498,5921.647536
795.825369,222.061783,-766.095498,5329.482782
795.825698,518.144159,-229.828649,5699.585753
795.826027,592.164754,842.705048,6883.915261
795.826357,-444.123565,1915.238745,8290.306550
795.826686,-1184.329507,3217.601092,9696.697840
795.827016,-1554.432478,3677.258390,11325.150913
795.827345,-1850.514855,2911.162892,11769.274478
795.827674,-2146.597232,1915.238745,11621.233289
795.828004,-2368.659014,766.095498,11251.130318
795.828333,-2072.576638,-306.438199,10955.047942
795.828662,-1628.453072,-383.047749,10658.965565
795.828992,-1554.432478,0.000000,10584.944971
795.829321,-1850.514855,766.095498,10584.944971
795.829651,-2072.576638,1532.190996,10288.862594
795.829980,-1628.453072,1685.410096,9326.594869
795.830309,-1184.329507,1532.190996,8512.368333
795.830639,-296.082377,919.314598,8660.409521
795.830968,444.123565,153.219100,8142.265362
795.831298,666.185348,0.000000,7994.224174
795.831627,444.123565,76.609550,8586.388927
795.831956,740.205942,459.657299,9400.615463
795.832286,518.144159,1532.190996,10955.047942
795.832615,222.061783,2528.115143,11695.253884
795.832944,0.000000,2451.505594,11547.212695
795.833274,0.000000,1991.848295,11695.253884
795.833603,-370.102971,1762.019645,11251.130318
795.833933,-740.205942,1838.629195,10955.047942
795.834262,-1406.391290,1685.410096,10436.903782
795.834591,-1850.514855,1455.581446,9178.553681
795.834921,-2220.617826,1072.533697,7772.162391
795.835250,-1628.453072,0.000000,6217.729913
795.835580,-1258.350101,-1302.362347,5995.668130
795.835909,-888.247130,-1225.752797,5921.647536
795.836238,-1184.329507,-536.266849,6217.729913
795.836568,-1332.370696,229.828649,7105.977043
795.836897,-1184.329507,1072.533697,7920.203579
795.837226,-1184.329507,2298.286494,9622.677246
795.837556,-1554.432478,1991.848295,10658.965565
795.837885,-1480.411884,1991.848295,11325.150913
795.838215,-1406.391290,1608.800546,11325.150913
795.838544,-1110.308913,766.095498,11177.109724
795.838873,-444.123565,229.828649,11177.109724
795.839203,-148.041188,76.609550,11103.089130
795.839532,0.000000,229.828649,11029.068536
795.839862,-666.185348,842.705048,11029.068536
795.840191,-1480.411884,1225.752797,10584.944971
795.840520,-2220.617826,1378.971896,9844.739029
795.840850,-2146.597232,1072.533697,9474.636058
795.841179,-1924.535449,536.266849,9104.533087
795.841508,-1406.391290,-153.219100,8290.306550
795.841838,-1184.329507,-919.314598,7772.162391
795.842167,-814.226536,-1302.362347,7920.203579
795.842497,-444.123565,0.000000,8882.471304
795.842826,-666.185348,919.314598,10066.800811
795.843155,-666.185348,2298.286494,11029.068536
795.843485,-962.267725,2681.334243,11695.253884
795.843814,-1184.329507,2604.724693,11843.295072
795.844144,-962.267725,2604.724693,11399.171507
795.844473,-1184.329507,1608.800546,11029.068536
795.844802,-1554.432478,1225.752797,10732.986159
795.845132,-2442.679609,1225.752797,9770.718434
795.845461,-2442.679609,383.047749,8734.430116
795.845790,-2368.659014,153.219100,6957.935855
795.846120,-1480.411884,-229.828649,6069.688724
795.846449,-296.082377,-689.485948,5921.647536
795.846779,370.102971,-306.438199,5551.544565
795.847108,962.267725,229.828649,6143.709319
795.847437,814.226536,1838.629195,7031.956449
795.847767,666.185348,2834.553343,9104.533087
795.848096,-222.061783,3370.820191,10288.862594
795.848426,-962.267725,3600.648841,11399.171507
795.848755,-1554.432478,2757.943793,11547.212695
795.849084,-1998.556043,1532.190996,11621.233289
795.849414,-2072.576638,612.876398,11251.130318
795.849743,-2146.597232,-459.657299,10807.006753
795.850072,-1924.535449,-536.266849,10807.006753
795.850402,-2146.597232,0.000000,10510.924376
795.850731,-2294.638420,306.438199,10584.944971
795.851061,-2442.679609,1378.971896,10214.842000
795.851390,-2738.761985,1302.362347,9326.594869
795.851719,-1924.535449,1072.533697,8586.388927
795.852049,-962.267725,153.219100,8068.244768
795.852378,-148.041188,-383.047749,7994.224174
795.852708,0.000000,-919.314598,7920.203579
795.853037,592.164754,229.828649,8734.430116
795.853366,296.082377,536.266849,9918.759623
795.853696,444.123565,1838.629195,11103.089130
795.854025,296.082377,2451.505594,11843.295072
795.854354,148.041188,2451.505594,11843.295072
795.854684,0.000000,1608.800546,11473.192101
795.855013,0.000000,1915.238745,11695.253884
795.855343,-592.164754,1378.971896,11029.068536
795.855672,-1110.308913,1225.752797,10510.924376
795.856001,-1702.473667,995.924147,9400.615463
795.856331,-1554.432478,766.095498,7920.203579
795.856660,-1554.432478,-229.828649,6809.894666
795.856990,-740.205942,-612.876398,5995.668130
795.857319,-444.123565,-689.485948,5773.606348
795.857648,-222.061783,-229.828649,5921.647536
795.857978,-814.226536,612.876398,6513.812290
795.858307,-888.247130,1762.019645,7994.224174
795.858636,-1480.411884,2451.505594,9844.739029
795.858966,-2146.597232,3064.381992,10955.047942
795.859295,-2072.576638,2834.553343,11695.253884
795.859625,-2146.597232,1608.800546,11547.212695
795.859954,-1776.494261,995.924147,11473.192101
795.860283,-1628.453072,153.219100,10881.027347
795.860613,-962.267725,0.000000,10732.986159
795.860942,-962.267725,153.219100,10881.027347
795.861272,-1480.411884,1302.362347,10955.047942
795.861601,-1924.535449,1225.752797,10288.862594
795.861930,-1924.535449,1991.848295,9770.718434
795.862260,-1554.432478,1302.362347,8956.491898
795.862589,-444.123565,383.047749,8142.265362
795.862919,148.041188,-153.219100,7698.141797
795.863248,814.226536,-766.095498,7624.121203
795.863577,962.267725,-612.876398,8290.306550
795.863907,814.226536,383.047749,9474.636058
795.864236,740.205942,1762.019645,11029.068536
795.864565,222.061783,2987.772442,11843.295072
795.864895,0.000000,2834.553343,11991.336260
795.865224,-592.164754,2528.115143,11843.295072
795.865554,-1110.308913,1608.800546,11621.233289
795.865883,-1554.432478,1149.143247,11251.130318
795.866212,-2664.741391,919.314598,10436.903782
795.866542,-3256.906145,459.657299,9474.636058
795.866871,-3775.050304,306.438199,8290.306550
795.867201,-3034.844362,-536.266849,6587.832884
795.867530,-2072.576638,-1072.533697,5995.668130
795.867859,-1110.308913,-1302.362347,5551.544565
795.868189,-222.061783,-612.876398,5625.565159
795.868518,296.082377,536.266849,6365.771101
795.868847,0.000000,1608.800546,7550.100608
795.869177,-666.185348,2451.505594,9474.636058
795.869506,-962.267725,3524.039291,11029.068536
795.869836,-1332.370696,3217.601092,11843.295072
795.870165,-1480.411884,2221.676944,11843.295072
795.870494,-1998.556043,1072.533697,11325.150913
795.870824,-1406.391290,-229.828649,11029.068536
795.871153,-1406.391290,-612.876398,11177.109724
795.871483,-1036.288319,-536.266849,10807.006753
795.871812,-1554.432478,153.219100,10584.944971
795.872141,-1406.391290,1378.971896,10510.924376
795.872471,-1776.494261,766.095498,10214.842000
795.872800,-1924.535449,1608.800546,9474.636058
795.873129,-1480.411884,842.705048,8586.388927
795.873459,-814.226536,76.609550,8216.285956
795.873788,0.000000,-612.876398,8142.265362
795.874118,-148.041188,-842.705048,7772.162391
795.874447,-444.123565,-306.438199,8660.409521
795.874776,-370.102971,689.485948,10140.821405
795.875106,-370.102971,1685.410096,11251.130318
795.875435,-296.082377,2145.067394,11843.295072
795.875765,-222.061783,2451.505594,12065.356855
795.876094,0.000000,2145.067394,11695.253884
795.876423,-296.082377,2068.457845,11251.130318
795.876753,-148.041188,1608.800546,10881.027347
795.877082,-962.267725,1532.190996,10362.883188
795.877411,-1184.329507,1608.800546,9030.512492
795.877741,-1554.432478,995.924147,7402.059420
795.878070,-740.205942,153.219100,6439.791695
795.878400,0.000000,-306.438199,5773.606348
795.878729,444.123565,-689.485948,5773.606348
795.879058,296.082377,0.000000,6217.729913
795.879388,0.000000,383.047749,6883.915261
795.879717,-666.185348,1762.019645,8364.327145
795.880047,-1258.350101,2757.943793,9992.780217
795.880376,-1850.514855,2911.162892,11177.109724
795.880705,-2072.576638,2911.162892,11621.233289
795.881035,-1924.535449,2374.896044,11325.150913
795.881364,-1702.473667,766.095498,11399.171507
795.881693,-1628.453072,0.000000,10881.027347
795.882023,-1628.453072,0.000000,10732.986159
795.882352,-2072.576638,229.828649,10658.965565
795.882682,-2664.741391,766.095498,10584.944971
795.883011,-3034.844362,766.095498,10066.800811
795.883340,-2960.823768,1302.362347,9548.656652
795.883670,-2516.700203,766.095498,8808.450710
795.883999,-1554.432478,-229.828649,8142.265362
795.884329,-370.102971,-919.314598,7994.224174
795.884658,-222.061783,-919.314598,7846.182985
795.884987,148.041188,-689.485948,8142.265362
795.885317,592.164754,306.438199,9770.718434
795.885646,444.123565,1915.238745,11103.089130
795.885975,740.205942,2681.334243,11769.274478
