#time,accel_x,accel_y,accel_z
1079.327873,-1110.308913,689.485948,9474.636058
1079.328203,-1036.288319,1072.533697,9622.677246
1079.328532,-1036.288319,919.314598,9474.636058
1079.328862,-962.267725,1149.143247,9400.615463
1079.329191,-1036.288319,842.705048,9548.656652
1079.329521,-1184.329507,919.314598,9474.636058
1079.329850,-1184.329507,766.095498,9622.677246
1079.330179,-962.267725,842.705048,9622.677246
1079.330509,-814.226536,1149.143247,9918.759623
1079.330838,-1036.288319,995.924147,9844.739029
1079.331168,-1184.329507,919.314598,9548.656652
1079.331497,-1036.288319,612.876398,9770.718434
1079.331827,-1110.308913,842.705048,9696.697840
1079.332156,-1258.350101,689.485948,9548.656652
1079.332486,-814.226536,1072.533697,9992.780217
1079.332815,-888.247130,995.924147,9474.636058
1079.333144,-1036.288319,919.314598,9696.697840
1079.333474,-740.205942,995.924147,9844.739029
1079.333803,-1184.329507,1225.752797,9252.574275
1079.334133,-888.247130,766.095498,9622.677246
1079.334462,-1184.329507,1072.533697,9474.636058
1079.334792,-888.247130,995.924147,9474.636058
1079.335121,-1184.329507,919.314598,9400.615463
1079.335451,-962.267725,766.095498,9474.636058
1079.335780,-962.267725,1455.581446,9178.553681
1079.336109,-1332.370696,1149.143247,9400.615463
1079.336439,-962.267725,919.314598,9474.636058
1079.336768,-962.267725,1072.533697,9548.656652
1079.337098,-1184.329507,1072.533697,9474.636058
1079.337427,-1036.288319,1225.752797,9326.594869
1079.337757,-962.267725,1149.143247,8956.491898
1079.338086,-962.267725,919.314598,9474.636058
1079.338415,-1036.288319,1072.533697,9474.636058
1079.338745,-1036.288319,1149.143247,9326.594869
1079.339074,-740.205942,612.876398,9622.677246
1079.339404,-814.226536,1149.143247,9104.533087
1079.339733,-814.226536,919.314598,9474.636058
1079.340063,-1110.308913,919.314598,9770.718434
1079.340392,-1184.329507,919.314598,9696.697840
1079.340722,-1110.308913,1149.143247,9474.636058
1079.341051,-888.247130,689.485948,9622.677246
1079.341380,-1258.350101,842.705048,9622.677246
1079.341710,-1036.288319,842.705048,9696.697840
1079.342039,-888.247130,842.705048,9696.697840
1079.342369,-962.267725,766.095498,9622.677246
1079.342698,-1184.329507,919.314598,9474.636058
1079.343028,-1036.288319,1072.533697,9770.718434
1079.343357,-962.267725,842.705048,9770.718434
1079.343687,-1184.329507,919.314598,9696.697840
1079.344016,-1036.288319,919.314598,9474.636058
1079.344345,-1332.370696,995.924147,9326.594869
1079.344675,-888.247130,1455.581446,9770.718434
1079.345004,-1110.308913,842.705048,9548.656652
1079.345334,-888.247130,766.095498,9474.636058
1079.345663,-1110.308913,995.924147,9474.636058
1079.345993,-1036.288319,842.705048,9548.656652
1079.346322,-962.267725,1302.362347,9252.574275
1079.346652,-1036.288319,842.705048,9622.677246
1079.346981,-962.267725,995.924147,9474.636058
1079.347310,-1110.308913,1378.971896,9400.615463
1079.347640,-1110.308913,919.314598,9474.636058
1079.347969,-1184.329507,1072.533697,9548.656652
1079.348299,-666.185348,689.485948,9326.594869
1079.348628,-1036.288319,919.314598,9326.594869
1079.348958,-1036.288319,995.924147,9400.615463
1079.349287,-1036.288319,919.314598,9474.636058
1079.349617,-740.205942,1149.143247,9030.512492
1079.349946,-1332.370696,842.705048,9030.512492
1079.350275,-962.267725,995.924147,9474.636058
1079.350605,-1110.308913,919.314598,9474.636058
1079.350934,-1036.288319,995.924147,9474.636058
1079.351264,-1110.308913,1149.143247,9548.656652
1079.351593,-1036.288319,1225.752797,9548.656652
1079.351923,-1036.288319,919.314598,9696.697840
1079.352252,-1110.308913,842.705048,9474.636058
1079.352582,-1036.288319,1225.752797,9696.697840
1079.352911,-888.247130,612.876398,9770.718434
1079.353240,-962.267725,459.657299,9474.636058
1079.353570,-814.226536,842.705048,9622.677246
1079.353899,-1110.308913,995.924147,9622.677246
1079.354229,-1184.329507,689.485948,9770.718434
1079.354558,-962.267725,766.095498,9770.718434
1079.354888,-888.247130,1149.143247,9548.656652
1079.355217,-888.247130,1532.190996,9622.677246
1079.355546,-962.267725,766.095498,9622.677246
1079.355876,-1036.288319,919.314598,9696.697840
1079.356205,-888.247130,842.705048,9622.677246
1079.356535,-740.205942,919.314598,9178.553681
1079.356864,0.000000,1072.533697,8586.388927
1079.357194,888.247130,153.219100,9178.553681
1079.357523,1036.288319,612.876398,9252.574275
1079.357853,740.205942,919.314598,9104.533087
1079.358182,370.102971,612.876398,9474.636058
1079.358511,0.000000,1225.752797,9992.780217
1079.358841,-370.102971,919.314598,10288.862594
1079.359170,-666.185348,459.657299,10510.924376
1079.359500,-444.123565,229.828649,9992.780217
1079.359829,0.000000,306.438199,9326.594869
1079.360159,1110.308913,919.314598,9400.615463
1079.360488,2072.576638,383.047749,8808.450710
1079.360818,3034.844362,459.657299,8586.388927
1079.361147,3256.906145,1225.752797,8586.388927
1079.361476,3627.009116,1685.410096,9104.533087
1079.361806,3701.029710,2298.286494,9622.677246
1079.362135,3701.029710,1225.752797,10066.800811
1079.362465,2664.741391,1072.533697,10214.842000
1079.362794,1998.556043,1225.752797,10510.924376
1079.363124,1332.370696,383.047749,10807.006753
1079.363453,1258.350101,-153.219100,10881.027347
1079.363783,1702.473667,-229.828649,10362.883188
1079.364112,2368.659014,-383.047749,9474.636058
1079.364441,3034.844362,-383.047749,9474.636058
1079.364771,4219.173869,383.047749,9474.636058
1079.365100,4367.215058,1608.800546,9400.615463
1079.365430,3997.112087,2528.115143,9474.636058
1079.365759,3256.906145,2911.162892,9918.759623
1079.366089,1924.535449,2911.162892,10436.903782
1079.366418,-296.082377,2911.162892,10362.883188
1079.366748,-1702.473667,2145.067394,9770.718434
1079.367077,-1702.473667,536.266849,8882.471304
1079.367406,-222.061783,-689.485948,7550.100608
1079.367736,1110.308913,-1225.752797,7031.956449
1079.368065,2664.741391,-995.924147,6661.853478
1079.368395,3627.009116,0.000000,6957.935855
1079.368724,3997.112087,1225.752797,7920.203579
1079.369054,3034.844362,3524.039291,9474.636058
1079.369383,2146.597232,4749.792088,11695.253884
1079.369713,1184.329507,4060.306139,12213.398043
1079.370042,0.000000,2834.553343,12287.418637
1079.370371,-888.247130,1072.533697,11843.295072
1079.370701,-1628.453072,-919.314598,11251.130318
1079.371030,-814.226536,-2374.896044,10214.842000
1079.371360,0.000000,-2451.505594,8882.471304
1079.371689,962.267725,-2451.505594,8216.285956
1079.372019,2442.679609,-1302.362347,7772.162391
1079.372348,3923.091493,-229.828649,7328.038826
1079.372677,4811.338623,1302.362347,7624.121203
1079.373007,4515.256246,2911.162892,8364.327145
1079.373336,4145.153275,3830.477490,9474.636058
1079.373666,3478.967927,3830.477490,10288.862594
1079.373995,2590.720797,3064.381992,11029.068536
1079.374325,1628.453072,2374.896044,11177.109724
1079.374654,518.144159,383.047749,11399.171507
1079.374984,-370.102971,-459.657299,10881.027347
1079.375313,-814.226536,-919.314598,10807.006753
1079.375642,-666.185348,-1149.143247,10955.047942
1079.375972,-370.102971,-995.924147,10881.027347
1079.376301,74.020594,-1072.533697,9770.718434
1079.376631,592.164754,-229.828649,9104.533087
1079.376960,1850.514855,0.000000,8438.347739
1079.377290,3182.885551,536.266849,8438.347739
1079.377619,4441.235652,536.266849,8068.244768
1079.377949,4959.379811,459.657299,7994.224174
1079.378278,4811.338623,842.705048,8438.347739
1079.378607,4219.173869,1302.362347,9548.656652
1079.378937,3108.864956,1838.629195,10140.821405
1079.379266,2146.597232,2451.505594,10436.903782
1079.379596,2072.576638,2528.115143,10362.883188
1079.379925,1776.494261,1608.800546,10362.883188
1079.380255,1998.556043,2068.457845,10066.800811
1079.380584,1702.473667,1532.190996,9030.512492
1079.380914,2146.597232,766.095498,7994.224174
1079.381243,2664.741391,306.438199,8364.327145
1079.381572,2368.659014,76.609550,7994.224174
1079.381902,1480.411884,459.657299,8956.491898
1079.382231,592.164754,536.266849,9474.636058
1079.382561,-296.082377,612.876398,9474.636058
1079.382890,-888.247130,459.657299,10362.883188
1079.383220,-666.185348,76.609550,11399.171507
1079.383549,-666.185348,229.828649,11695.253884
1079.383879,-1110.308913,459.657299,11251.130318
1079.384208,-370.102971,689.485948,10214.842000
1079.384537,1258.350101,459.657299,9326.594869
1079.384867,3997.112087,536.266849,8364.327145
1079.385196,5773.606348,1762.019645,8068.244768
1079.385526,7624.121203,2451.505594,7772.162391
1079.385855,8808.450710,2757.943793,8364.327145
1079.386185,8586.388927,3753.867940,9548.656652
1079.386514,6587.832884,5132.839837,10584.944971
1079.386844,3775.050304,4903.011187,11325.150913
1079.387173,1184.329507,3217.601092,13027.624579
1079.387502,-1924.535449,766.095498,13915.871710
1079.387832,-5329.482782,-842.705048,13027.624579
1079.388161,-7476.080014,-1838.629195,11917.315666
1079.388491,-7254.018232,-2451.505594,9400.615463
1079.388820,-4959.379811,-3217.601092,6365.771101
1079.389150,74.020594,-4290.134789,2886.803174
1079.389479,5847.626942,-3983.696590,1776.494261
1079.389808,10066.800811,-1225.752797,2590.720797
1079.390138,10436.903782,4213.525239,4663.297435
1079.390467,8660.409521,7124.688131,6957.935855
1079.390797,7105.977043,8120.612279,11251.130318
1079.391126,3552.988522,9193.145976,14878.139434
1079.391456,-1258.350101,8273.831378,16580.613101
1079.391785,-5033.400406,3907.087040,16802.674883
1079.392115,-6291.750507,-1378.971896,15396.283594
1079.392444,-5847.626942,-4519.963438,12583.501014
1079.392773,-3330.926739,-7277.907231,9696.697840
1079.393103,370.102971,-7967.393179,7624.121203
1079.393432,4071.132681,-5132.839837,4589.276840
1079.393762,7772.162391,-2528.115143,2146.597232
1079.394091,11621.233289,-842.705048,3923.091493
1079.394421,11917.315666,2834.553343,7476.080014
1079.394750,8438.347739,7431.126331,10732.986159
1079.395080,2960.823768,8886.707777,12953.603985
1079.395409,-1628.453072,9499.584175,13915.871710
1079.395738,-2664.741391,4749.792088,14063.912898
1079.396068,-1776.494261,-919.314598,12953.603985
1079.396397,-1332.370696,-5132.839837,9770.718434
1079.396727,-296.082377,-6588.421283,6513.812290
1079.397056,1776.494261,-6128.763984,5625.565159
1079.397386,2664.741391,-4060.306139,6883.915261
1079.397715,2368.659014,-536.266849,7920.203579
1079.398045,1702.473667,2451.505594,8882.471304
1079.398374,1628.453072,5515.887586,10510.924376
1079.398703,1480.411884,5822.325785,12953.603985
1079.399033,962.267725,3753.867940,13767.830521
1079.399362,518.144159,1915.238745,13249.686362
1079.399692,-222.061783,-1149.143247,11917.315666
1079.400021,-666.185348,-2987.772442,11251.130318
1079.400351,-2220.617826,-2911.162892,9622.677246
1079.400680,-1480.411884,-3064.381992,5551.544565
1079.401010,2294.638420,-4903.011187,3256.906145
1079.401339,7105.977043,-3140.991542,4737.318029
1079.401668,10362.883188,1685.410096,6069.688724
1079.401998,11177.109724,4136.915689,7031.956449
1079.402327,9992.780217,5669.106685,8586.388927
1079.402657,6143.709319,7201.297681,10732.986159
1079.402986,2072.576638,9499.584175,13323.706956
1079.403316,-592.164754,5822.325785,16802.674883
1079.403645,-2960.823768,1378.971896,17172.777854
1079.403975,-6069.688724,-995.924147,14730.098246
1079.404304,-7624.121203,-4213.525239,11917.315666
1079.404634,-6513.812290,-6665.030833,10658.965565
1079.404964,-4071.132681,-6281.983084,9178.553681
1079.405293,-3108.864956,-4443.353888,6513.812290
1079.405623,-740.205942,-383.047749,1406.391290
1079.405952,4589.276840,2221.676944,-518.144159
1079.406282,10584.944971,1072.533697,2960.823768
1079.406611,12065.356855,3830.477490,7402.059420
1079.406941,9474.636058,10648.727422,8808.450710
1079.407270,6587.832884,9959.241474,10140.821405
1079.407600,4367.215058,7737.564530,13397.727550
1079.407929,1554.432478,8810.098227,14359.995275
1079.408259,1406.391290,2145.067394,13989.892304
1079.408588,1850.514855,-6741.640382,13471.748144
1079.408918,-1184.329507,-3370.820191,12213.398043
1079.409247,-4219.173869,383.047749,11769.274478
1079.409577,-4441.235652,-2987.772442,12139.377449
1079.409906,-3849.070898,-842.705048,11029.068536
1079.410236,-1628.453072,2374.896044,6365.771101
1079.410565,3627.009116,0.000000,2812.782580
1079.410895,9326.594869,-842.705048,740.205942
1079.411224,12509.480420,1149.143247,1036.288319
1079.411554,10658.965565,612.876398,4663.297435
1079.411883,5181.441594,4673.182538,9326.594869
1079.412213,518.144159,10189.070123,12213.398043
1079.412542,0.000000,6971.469032,13397.727550
1079.412872,-1628.453072,2298.286494,14211.954086
1079.413201,-4885.359217,612.876398,14359.995275
1079.413531,-4663.297435,-4596.572988,13693.809927
1079.413860,-5921.647536,-7354.516781,11029.068536
1079.414190,-8512.368333,-3294.210641,9548.656652
1079.414519,-7105.977043,-995.924147,9030.512492
1079.414849,-2294.638420,-3217.601092,9252.574275
1079.415178,3256.906145,-2145.067394,8142.265362
1079.415508,6365.771101,-229.828649,6365.771101
1079.415837,7994.224174,919.314598,5921.647536
1079.416167,7328.038826,3830.477490,8734.430116
1079.416496,5329.482782,6358.592633,12731.542202
1079.416826,3034.844362,7277.907231,15322.262999
1079.417155,-888.247130,6358.592633,15248.242405
1079.417485,-4367.215058,2834.553343,14211.954086
1079.417814,-7254.018232,-919.314598,11325.150913
1079.418144,-8438.347739,-4366.744339,9992.780217
1079.418473,-6661.853478,-6205.373534,9104.533087
1079.418803,-2960.823768,-5132.839837,5551.544565
1079.419132,0.000000,-3064.381992,2738.761985
1079.419462,2220.617826,-2068.457845,1628.453072
1079.419791,4293.194464,-383.047749,4219.173869
1079.420121,4885.359217,4060.306139,9252.574275
1079.420450,3923.091493,8733.488677,14211.954086
1079.420780,1332.370696,10801.946522,16950.716072
1079.421110,-3478.967927,10572.117872,14952.160028
1079.421439,-7772.162391,4979.620737,12731.542202
1079.421769,-7994.224174,-3830.477490,12065.356855
1079.422098,-7698.141797,-3600.648841,10732.986159
1079.422428,-6661.853478,-2987.772442,6513.812290
1079.422757,-1480.411884,-6358.592633,3478.967927
1079.423087,2368.659014,-6741.640382,1702.473667
1079.423416,4737.318029,-4903.011187,1332.370696
1079.423746,7179.997637,-1072.533697,1850.514855
1079.424075,8364.327145,4136.915689,5921.647536
1079.424405,8216.285956,11491.432470,11325.150913
1079.424734,5403.503377,13406.671215,15692.365970
1079.425064,592.164754,10035.851024,16950.716072
1079.425393,-4811.338623,5286.058936,16876.695478
1079.425723,-8586.388927,536.266849,16654.633695
1079.426052,-10584.944971,0.000000,14211.954086
1079.426382,-11177.109724,-3447.429741,10436.903782
1079.426711,-7624.121203,-9116.536426,6661.853478
1079.427041,-2812.782580,-11184.994271,1406.391290
1079.427370,2220.617826,-10112.460574,592.164754
1079.427700,6291.750507,-4213.525239,2886.803174
1079.428029,7254.018232,7584.345430,5329.482782
1079.428359,6217.729913,10418.898773,8734.430116
1079.428688,4885.359217,8273.831378,13915.871710
1079.429018,-1258.350101,10342.289223,18135.045579
1079.429347,-7328.038826,12257.527968,18209.066173
1079.429677,-9030.512492,6281.983084,16580.613101
1079.430006,-8882.471304,-1991.848295,14508.036463
1079.430336,-6809.894666,-6818.249932,10881.027347
1079.430665,-4293.194464,-13406.671215,6587.832884
1079.430995,-1480.411884,-12334.137518,3627.009116
1079.431324,1850.514855,-6435.202183,2738.761985
1079.431654,4663.297435,-1685.410096,4885.359217
1079.431983,7328.038826,4443.353888,7031.956449
1079.432313,8512.368333,8656.879127,8882.471304
1079.432642,9104.533087,10035.851024,11621.233289
1079.432972,3849.070898,12334.137518,12657.521608
1079.433301,-2072.576638,11951.089769,13545.768739
1079.433631,-5921.647536,6358.592633,13989.892304
1079.433960,-7179.997637,-612.876398,12361.439231
1079.434290,-6365.771101,-5669.106685,9030.512492
1079.434619,-5921.647536,-9806.022374,5329.482782
1079.434949,-5181.441594,-11951.089769,2516.700203
1079.435278,-2516.700203,-8733.488677,1924.535449
1079.435608,1184.329507,-5745.716235,4293.194464
1079.435937,4885.359217,689.485948,6809.894666
1079.436267,4885.359217,7354.516781,9030.512492
1079.436596,2590.720797,9499.584175,11399.171507
1079.436926,-962.267725,9882.631924,14137.933492
1079.437256,-4515.256246,10112.460574,15840.407159
1079.437585,-6143.709319,5822.325785,15692.365970
1079.437915,-6513.812290,0.000000,13693.809927
1079.438244,-6587.832884,-4826.401637,10881.027347
1079.438574,-4441.235652,-9116.536426,6809.894666
1079.438903,-1184.329507,-12487.356617,4737.318029
1079.439233,1998.556043,-8580.269578,3330.926739
1079.439562,4589.276840,-1302.362347,3627.009116
1079.439892,7402.059420,1225.752797,7105.977043
1079.440221,7031.956449,5975.544884,12287.418637
1079.440551,2294.638420,11261.603821,14952.160028
1079.440880,-3108.864956,12257.527968,17690.922014
1079.441210,-6291.750507,11108.384721,18431.127956
1079.441539,-8216.285956,7890.783629,17024.736666
1079.441869,-7254.018232,0.000000,13027.624579
1079.442198,-5921.647536,-8350.440928,8734.430116
1079.442528,-3997.112087,-11797.870669,4663.297435
1079.442857,-1998.556043,-9806.022374,3701.029710
1079.443187,-222.061783,-4979.620737,3849.070898
1079.443516,2516.700203,1455.581446,3701.029710
1079.443846,5255.462188,3217.601092,5033.400406
1079.444175,4959.379811,4519.963438,8364.327145
1079.444505,2886.803174,12334.137518,11177.109724
1079.444834,-1554.432478,14709.033562,14211.954086
1079.445164,-3034.844362,11338.213370,15174.221811
1079.445493,-4885.359217,6511.811733,13693.809927
1079.445823,-5847.626942,459.657299,10288.862594
1079.446152,-4145.153275,-7354.516781,5847.626942
1079.446482,-1776.494261,-10801.946522,3330.926739
1079.446811,518.144159,-7814.174080,2664.741391
1079.447141,2812.782580,-4826.401637,4145.153275
1079.447470,5181.441594,-2068.457845,5847.626942
1079.447800,5033.400406,2451.505594,7476.080014
1079.448129,2886.803174,6435.202183,9326.594869
1079.448459,296.082377,9959.241474,12805.562797
1079.448788,-2886.803174,11261.603821,16432.571912
1079.449118,-4367.215058,7048.078582,16062.468941
1079.449447,-5033.400406,1149.143247,12953.603985
1079.449777,-3775.050304,-2911.162892,9178.553681
1079.450106,-2146.597232,-7124.688131,5329.482782
1079.450436,-962.267725,-10572.117872,3997.112087
1079.450765,-592.164754,-9652.803275,6291.750507
1079.451095,148.041188,-3140.991542,8290.306550
1079.451424,1480.411884,3140.991542,9474.636058
1079.451754,1776.494261,3983.696590,10955.047942
1079.452083,592.164754,4903.011187,13545.768739
1079.452413,-2590.720797,6894.859482,16580.613101
1079.452742,-4885.359217,7814.174080,17912.983796
1079.453072,-5773.606348,5515.887586,16062.468941
1079.453402,-5329.482782,766.095498,12583.501014
1079.453731,-4737.318029,-5439.278036,9622.677246
1079.454061,-3034.844362,-9346.365076,7031.956449
1079.454390,0.000000,-9116.536426,5995.668130
1079.454720,3256.906145,-5056.230287,4589.276840
1079.455049,5329.482782,-383.047749,5107.421000
1079.455379,5181.441594,3600.648841,7179.997637
1079.455708,3330.926739,5515.887586,9918.759623
1079.456038,1258.350101,8273.831378,11325.150913
1079.456367,-1628.453072,11644.651570,13323.706956
1079.456697,-3256.906145,10495.508323,13693.809927
1079.457026,-4219.173869,5209.449386,12065.356855
1079.457356,-4885.359217,-1149.143247,8438.347739
1079.457685,-4071.132681,-6741.640382,4663.297435
1079.458015,-2146.597232,-8580.269578,3182.885551
1079.458344,-1332.370696,-5209.449386,3997.112087
1079.458674,-740.205942,-1838.629195,4737.318029
1079.459003,666.185348,842.705048,6069.688724
1079.459333,1036.288319,2987.772442,8882.471304
1079.459662,-1036.288319,6511.811733,10066.800811
1079.459992,-3923.091493,10265.679673,11029.068536
1079.460321,-5107.421000,8656.879127,12287.418637
1079.460651,-4737.318029,5669.106685,13249.686362
1079.460980,-3256.906145,1072.533697,11621.233289
1079.461310,-3552.988522,-4366.744339,7772.162391
1079.461639,-3256.906145,-7584.345430,4737.318029
1079.461969,-1036.288319,-7277.907231,5477.523971
1079.462298,2146.597232,-3140.991542,7698.141797
1079.462628,3701.029710,-689.485948,8586.388927
1079.462957,4293.194464,1991.848295,10214.842000
1079.463287,2516.700203,4290.134789,12805.562797
1079.463616,-666.185348,8044.002729,15544.324782
1079.463946,-4145.153275,9882.631924,17616.901420
1079.464275,-5847.626942,9039.926876,17616.901420
1079.464605,-4959.379811,3830.477490,15026.180623
1079.464934,-3627.009116,-2681.334243,11029.068536
1079.465264,-2664.741391,-7354.516781,7698.141797
1079.465593,-1998.556043,-7431.126331,3997.112087
1079.465923,-444.123565,-6435.202183,3256.906145
1079.466252,1924.535449,-3677.258390,5181.441594
1079.466582,3256.906145,919.314598,8290.306550
1079.466911,1924.535449,4673.182538,10510.924376
1079.467241,-1480.411884,6665.030833,11843.295072
1079.467570,-4071.132681,8810.098227,12583.501014
1079.467900,-5847.626942,10572.117872,13915.871710
1079.468229,-4219.173869,7048.078582,13249.686362
1079.468559,-1554.432478,0.000000,10214.842000
1079.468888,-296.082377,-4979.620737,5477.523971
1079.469218,0.000000,-7737.564530,1776.494261
1079.469548,1258.350101,-6818.249932,2664.741391
1079.469877,3034.844362,-2834.553343,4811.338623
1079.470207,5107.421000,1072.533697,6143.709319
1079.470536,5773.606348,2834.553343,7550.100608
1079.470866,3627.009116,5515.887586,8882.471304
1079.471195,814.226536,8120.612279,9474.636058
1079.471525,-2368.659014,7277.907231,11695.253884
1079.471854,-4219.173869,5669.106685,14137.933492
1079.472184,-5625.565159,3524.039291,14137.933492
1079.472513,-5921.647536,-612.876398,11547.212695
1079.472843,-6217.729913,-6665.030833,7105.977043
1079.473172,-4885.359217,-9269.755526,4219.173869
1079.473502,-2442.679609,-8810.098227,5033.400406
1079.473831,1776.494261,-5056.230287,7550.100608
1079.474161,3923.091493,-1455.581446,9178.553681
1079.474490,2664.741391,2681.334243,10881.027347
1079.474820,-1036.288319,5439.278036,12805.562797
1079.475149,-2664.741391,8656.879127,15322.262999
1079.475479,-3404.947333,7354.516781,16654.633695
1079.475808,-2738.761985,4136.915689,16506.592507
1079.476138,-2664.741391,1455.581446,14878.139434
1079.476467,-2146.597232,-2451.505594,12139.377449
1079.476797,-1480.411884,-7201.297681,7772.162391
1079.477126,74.020594,-7967.393179,4811.338623
1079.477456,2960.823768,-4290.134789,5107.421000
1079.477785,5847.626942,-459.657299,7254.018232
1079.478115,5921.647536,1762.019645,10510.924376
1079.478444,2368.659014,5209.449386,11843.295072
1079.478774,-2442.679609,8810.098227,11325.150913
1079.479103,-4663.297435,9806.022374,12139.377449
1079.479433,-5329.482782,8197.221829,12879.583391
1079.479762,-4589.276840,3524.039291,12065.356855
1079.480092,-4293.194464,-2145.067394,8808.450710
1079.480421,-4663.297435,-6128.763984,4145.153275
1079.480751,-3034.844362,-7201.297681,1628.453072
1079.481080,-518.144159,-5209.449386,2812.782580
1079.481410,2294.638420,-1302.362347,5329.482782
1079.481739,3701.029710,1685.410096,6513.812290
1079.482069,2960.823768,5286.058936,7105.977043
1079.482398,666.185348,8273.831378,7328.038826
1079.482728,-296.082377,9346.365076,10140.821405
1079.483057,-2886.803174,7967.393179,13323.706956
1079.483387,-5033.400406,6281.983084,14063.912898
1079.483716,-6291.750507,2374.896044,12065.356855
1079.484046,-5625.565159,-2374.896044,8882.471304
1079.484375,-3923.091493,-7124.688131,5921.647536
1079.484705,-1480.411884,-9039.926876,4959.379811
1079.485034,370.102971,-6052.154434,5625.565159
1079.485364,3478.967927,-1608.800546,6439.791695
1079.485694,4959.379811,1608.800546,8142.265362
1079.486023,3034.844362,3830.477490,11843.295072
1079.486353,-1332.370696,7814.174080,14063.912898
1079.486682,-4589.276840,9729.412825,16580.613101
1079.487012,-4589.276840,7431.126331,17024.736666
1079.487341,-4663.297435,3217.601092,16580.613101
1079.487671,-4441.235652,-1225.752797,13619.789333
1079.488000,-4515.256246,-7507.735880,9696.697840
1079.488330,-2516.700203,-10112.460574,6365.771101
1079.488659,-1110.308913,-7431.126331,5699.585753
1079.488989,1480.411884,-2068.457845,8364.327145
1079.489318,2812.782580,1915.238745,9844.739029
1079.489648,2220.617826,3907.087040,11029.068536
1079.489977,962.267725,5745.716235,12065.356855
1079.490307,-666.185348,8886.707777,12287.418637
1079.490636,-3330.926739,9806.022374,11843.295072
1079.490966,-4219.173869,4290.134789,11917.315666
1079.491295,-3256.906145,-766.095498,12139.377449
1079.491625,-3108.864956,-2604.724693,8956.491898
1079.491954,-2590.720797,-4749.792088,3997.112087
1079.492284,-296.082377,-6588.421283,1850.514855
1079.492613,2960.823768,-3907.087040,2886.803174
1079.492943,6809.894666,-1149.143247,4737.318029
1079.493272,7550.100608,1685.410096,6661.853478
1079.493602,4145.153275,6894.859482,7179.997637
1079.493931,740.205942,10495.508323,8586.388927
1079.494261,-2516.700203,7814.174080,12731.542202
1079.494590,-4811.338623,6588.421283,16284.530724
1079.494920,-6217.729913,4596.572988,15544.324782
1079.495249,-6217.729913,-766.095498,9252.574275
1079.495579,-5847.626942,-4903.011187,3627.009116
1079.495908,-4071.132681,-9269.755526,1776.494261
1079.496238,-1184.329507,-10342.289223,4071.132681
1079.496567,1406.391290,-6205.373534,6957.935855
1079.496897,2146.597232,1225.752797,9474.636058
1079.497226,962.267725,8120.612279,10955.047942
1079.497556,-1258.350101,8044.002729,12139.377449
1079.497885,-1110.308913,5132.839837,13915.871710
1079.498215,-2294.638420,5056.230287,15248.242405
1079.498544,-3849.070898,5362.668486,14952.160028
1079.498874,-3849.070898,2451.505594,14434.015869
1079.499203,-3849.070898,-2987.772442,13101.645173
1079.499533,-4293.194464,-7354.516781,8956.491898
1079.499862,-1776.494261,-8963.317327,6661.853478
1079.500192,2368.659014,-6971.469032,8216.285956
1079.500521,4737.318029,-383.047749,9992.780217
1079.500851,5107.421000,3677.258390,10066.800811
1079.501181,3034.844362,4366.744339,10955.047942
1079.501510,0.000000,7890.783629,10807.006753
1079.501840,-2294.638420,9499.584175,12657.521608
1079.502170,-3701.029710,8044.002729,14285.974681
1079.502499,-5551.544565,5669.106685,13693.809927
1079.502829,-6513.812290,0.000000,9992.780217
1079.503159,-5699.585753,-6205.373534,6217.729913
1079.503488,-3404.947333,-9269.755526,3627.009116
1079.503818,-814.226536,-5975.544884,3108.864956
1079.504148,1776.494261,-2987.772442,4071.132681
1079.504477,3478.967927,459.657299,5403.503377
1079.504807,3701.029710,5745.716235,6439.791695
1079.505137,3330.926739,8044.002729,7624.121203
1079.505466,3034.844362,8656.879127,9474.636058
1079.505796,-666.185348,8886.707777,11695.253884
1079.506126,-3997.112087,6894.859482,13323.706956
1079.506455,-4515.256246,2145.067394,13101.645173
1079.506785,-4071.132681,-1991.848295,9622.677246
1079.507115,-4589.276840,-4366.744339,6143.709319
1079.507444,-2738.761985,-7967.393179,3627.009116
1079.507774,814.226536,-8044.002729,3849.070898
1079.508104,4589.276840,-4443.353888,6291.750507
1079.508433,4663.297435,842.705048,9178.553681
1079.508763,1702.473667,6588.421283,11251.130318
1079.509093,-1924.535449,9729.412825,11473.192101
1079.509422,-3627.009116,7967.393179,13471.748144
1079.509752,-4441.235652,5056.230287,15248.242405
1079.510081,-5033.400406,3140.991542,15914.427753
1079.510411,-4885.359217,-1225.752797,13397.727550
1079.510741,-5551.544565,-5898.935335,9474.636058
1079.511070,-4441.235652,-8273.831378,6661.853478
1079.511400,-1998.556043,-8963.317327,7550.100608
1079.511730,666.185348,-5669.106685,10288.862594
1079.512059,2590.720797,-229.828649,11621.233289
1079.512389,2442.679609,5592.497135,12657.521608
1079.512719,1998.556043,9039.926876,12731.542202
1079.513048,370.102971,8963.317327,11695.253884
1079.513378,-1554.432478,6741.640382,11843.295072
1079.513708,-3034.844362,4290.134789,13027.624579
1079.514037,-3478.967927,3140.991542,13545.768739
1079.514367,-3923.091493,0.000000,10584.944971
1079.514697,-4293.194464,-5439.278036,6513.812290
1079.515026,-2442.679609,-7431.126331,3256.906145
1079.515356,370.102971,-6128.763984,3330.926739
1079.515686,4885.359217,-2145.067394,4293.194464
1079.516015,6365.771101,2528.115143,6069.688724
1079.516345,4737.318029,7431.126331,7624.121203
1079.516675,1480.411884,8963.317327,9030.512492
1079.517004,-888.247130,8503.660028,11991.336260
1079.517334,-3923.091493,9346.365076,12805.562797
1079.517664,-5329.482782,7431.126331,11177.109724
1079.517993,-4589.276840,919.314598,9104.533087
1079.518323,-3775.050304,-4136.915689,6661.853478
1079.518653,-3478.967927,-7890.783629,2664.741391
1079.518982,-1776.494261,-9652.803275,2220.617826
1079.519312,962.267725,-5286.058936,5699.585753
1079.519642,2738.761985,919.314598,9474.636058
1079.519971,2812.782580,3907.087040,11325.150913
1079.520301,1110.308913,5745.716235,10658.965565
1079.520630,-592.164754,8733.488677,10584.944971
1079.520960,-2146.597232,6281.983084,15174.221811
1079.521290,-3627.009116,3907.087040,17690.922014
1079.521619,-5847.626942,3294.210641,14952.160028
1079.521949,-5403.503377,-2451.505594,11029.068536
1079.522279,-3627.009116,-7354.516781,7031.956449
1079.522608,-1480.411884,-9116.536426,5625.565159
1079.522938,1554.432478,-8963.317327,6513.812290
1079.523268,3627.009116,-5439.278036,8882.471304
1079.523597,3849.070898,1915.238745,11695.253884
1079.523927,2146.597232,8273.831378,14063.912898
1079.524257,444.123565,9576.193725,13323.706956
1079.524586,-1702.473667,8044.002729,12953.603985
1079.524916,-2812.782580,6588.421283,13175.665768
1079.525246,-2960.823768,2298.286494,14063.912898
1079.525575,-3552.988522,536.266849,13397.727550
1079.525905,-5847.626942,-2987.772442,11103.089130
1079.526235,-6735.874072,-7048.078582,6513.812290
1079.526564,-4737.318029,-7354.516781,3701.029710
1079.526894,296.082377,-6128.763984,3849.070898
1079.527224,5329.482782,-1915.238745,5477.523971
1079.527553,6735.874072,2604.724693,6735.874072
1079.527883,4737.318029,6741.640382,7624.121203
1079.528213,1702.473667,8886.707777,9474.636058
1079.528542,-888.247130,8963.317327,13027.624579
1079.528872,-3256.906145,10035.851024,13989.892304
1079.529202,-3997.112087,5975.544884,11029.068536
1079.529531,-2146.597232,153.219100,7031.956449
1079.529861,-592.164754,-5592.497135,4071.132681
1079.530191,444.123565,-9806.022374,1924.535449
1079.530520,1480.411884,-7354.516781,2442.679609
1079.530850,666.185348,-2374.896044,5625.565159
1079.531179,1332.370696,3524.039291,9918.759623
1079.531509,666.185348,6511.811733,12065.356855
1079.531839,-888.247130,7431.126331,11177.109724
1079.532168,-2590.720797,6818.249932,10807.006753
1079.532498,-4145.153275,4136.915689,14359.995275
1079.532828,-5551.544565,3140.991542,15470.304188
1079.533157,-6661.853478,1532.190996,12731.542202
1079.533487,-7402.059420,-3600.648841,9104.533087
1079.533817,-6365.771101,-7048.078582,4811.338623
1079.534146,-2368.659014,-9346.365076,4589.276840
1079.534476,2368.659014,-8963.317327,7846.182985
1079.534806,4293.194464,-1991.848295,10881.027347
1079.535135,2960.823768,5439.278036,12583.501014
1079.535465,1924.535449,7890.783629,13471.748144
1079.535795,148.041188,8886.707777,13693.809927
1079.536124,-1480.411884,9269.755526,14211.954086
1079.536454,-1850.514855,6894.859482,16580.613101
1079.536784,-1924.535449,2068.457845,15766.386565
1079.537113,-3404.947333,689.485948,12583.501014
1079.537443,-4515.256246,-4519.963438,8882.471304
1079.537773,-3849.070898,-8886.707777,5255.462188
1079.538102,-1628.453072,-7048.078582,3923.091493
1079.538432,2146.597232,-5209.449386,3404.947333
1079.538762,6365.771101,-1762.019645,5551.544565
1079.539091,6069.688724,3524.039291,8142.265362
1079.539421,1924.535449,8273.831378,9178.553681
1079.539751,-2072.576638,8427.050478,10510.924376
1079.540080,-4367.215058,9959.241474,13323.706956
1079.540410,-5255.462188,9422.974625,13619.789333
1079.540740,-4663.297435,2681.334243,11473.192101
1079.541069,-4219.173869,-3064.381992,6661.853478
1079.541399,-3108.864956,-6435.202183,2368.659014
1079.541728,-740.205942,-9346.365076,740.205942
1079.542058,2146.597232,-7584.345430,2294.638420
1079.542388,3108.864956,-2374.896044,5551.544565
1079.542717,3404.947333,3370.820191,9178.553681
1079.543047,2442.679609,6818.249932,11177.109724
1079.543377,148.041188,8656.879127,11177.109724
1079.543706,-2220.617826,6894.859482,13693.809927
1079.544036,-3330.926739,4903.011187,16358.551318
1079.544366,-3701.029710,3907.087040,16580.613101
1079.544695,-3478.967927,229.828649,12509.480420
1079.545025,-4293.194464,-4290.134789,6587.832884
1079.545355,-3034.844362,-7507.735880,2294.638420
1079.545684,888.247130,-10189.070123,3256.906145
1079.546014,4737.318029,-7660.954980,7550.100608
1079.546344,5255.462188,383.047749,10436.903782
1079.546673,2664.741391,5362.668486,12731.542202
1079.547003,296.082377,7048.078582,13323.706956
1079.547333,-1850.514855,9652.803275,13915.871710
1079.547662,-3256.906145,8120.612279,15840.407159
1079.547992,-3108.864956,2298.286494,17246.798449
1079.548322,-4293.194464,766.095498,16358.551318
1079.548651,-6143.709319,383.047749,13175.665768
1079.548981,-6143.709319,-5669.106685,8586.388927
1079.549311,-3701.029710,-9039.926876,4293.194464
1079.549640,0.000000,-6818.249932,2368.659014
1079.549970,4515.256246,-4213.525239,3256.906145
1079.550300,7105.977043,-459.657299,6439.791695
1079.550629,5329.482782,6741.640382,9104.533087
1079.550959,1036.288319,8963.317327,11177.109724
1079.551289,-1184.329507,9422.974625,12583.501014
1079.551618,-3923.091493,10801.946522,13249.686362
1079.551948,-4071.132681,7354.516781,12879.583391
1079.552277,-2368.659014,919.314598,10510.924376
1079.552607,-1998.556043,-3064.381992,6661.853478
1079.552937,-2220.617826,-4979.620737,2664.741391
1079.553266,-962.267725,-6358.592633,740.205942
1079.553596,1110.308913,-4903.011187,2368.659014
1079.553926,2886.803174,-306.438199,6143.709319
1079.554255,1998.556043,3983.696590,9326.594869
1079.554585,-666.185348,7354.516781,9918.759623
1079.554915,-2738.761985,8580.269578,9622.677246
1079.555244,-3701.029710,5592.497135,13323.706956
1079.555574,-5181.441594,5592.497135,15914.427753
1079.555904,-6809.894666,4060.306139,14137.933492
1079.556233,-5625.565159,-1072.533697,9400.615463
1079.556563,-4589.276840,-5362.668486,4663.297435
1079.556893,-1924.535449,-8886.707777,2294.638420
1079.557222,1184.329507,-8810.098227,5403.503377
1079.557552,3923.091493,-5132.839837,9030.512492
1079.557882,3849.070898,2145.067394,11991.336260
1079.558211,2220.617826,6205.373534,13471.748144
1079.558541,-518.144159,8886.707777,13249.686362
1079.558871,-2368.659014,8810.098227,13323.706956
1079.559200,-2516.700203,4443.353888,16580.613101
1079.559530,-2664.741391,2145.067394,18653.189738
1079.559860,-4515.256246,3677.258390,15766.386565
1079.560189,-4737.318029,-1991.848295,10510.924376
1079.560519,-3923.091493,-8810.098227,5477.523971
1079.560849,-814.226536,-9576.193725,4071.132681
1079.561178,3330.926739,-6665.030833,5107.421000
1079.561508,6587.832884,-3217.601092,6143.709319
1079.561838,4959.379811,4596.572988,7031.956449
1079.562167,1110.308913,8044.002729,7698.141797
1079.562497,-888.247130,6741.640382,11177.109724
1079.562826,-3108.864956,7507.735880,14730.098246
1079.563156,-5773.606348,9116.536426,15396.283594
1079.563486,-6809.894666,4443.353888,12879.583391
1079.563815,-5403.503377,0.000000,9326.594869
1079.564145,-3330.926739,-5132.839837,5181.441594
1079.564475,-1110.308913,-10189.070123,1406.391290
1079.564804,888.247130,-8197.221829,444.123565
1079.565134,3404.947333,-1532.190996,3404.947333
1079.565464,4589.276840,2834.553343,8142.265362
1079.565793,1998.556043,6281.983084,10288.862594
1079.566123,-1702.473667,10418.898773,9030.512492
1079.566453,-1776.494261,7431.126331,10066.800811
1079.566782,-1776.494261,4213.525239,13989.892304
1079.567112,-3627.009116,5286.058936,15692.365970
1079.567442,-5477.523971,1378.971896,12509.480420
1079.567771,-5773.606348,-4443.353888,7920.203579
1079.568101,-4737.318029,-5362.668486,4219.173869
1079.568431,-1850.514855,-7048.078582,4219.173869
1079.568760,1702.473667,-7737.564530,6735.874072
1079.569090,2738.761985,-2528.115143,9104.533087
1079.569420,2886.803174,3600.648841,10955.047942
1079.569749,962.267725,5898.935335,12435.459826
1079.570079,-1110.308913,8810.098227,12361.439231
1079.570409,-3330.926739,7967.393179,14211.954086
1079.570738,-3849.070898,3907.087040,18357.107362
1079.571068,-4737.318029,2298.286494,17616.901420
1079.571398,-5107.421000,1685.410096,14211.954086
1079.571727,-3552.988522,-5745.716235,9696.697840
1079.572057,-2072.576638,-8886.707777,4885.359217
1079.572387,740.205942,-6665.030833,3330.926739
1079.572716,5699.585753,-5515.887586,3701.029710
1079.573046,8882.471304,-1762.019645,6587.832884
1079.573375,7402.059420,5898.935335,9992.780217
1079.573705,3404.947333,8427.050478,12435.459826
1079.574035,0.000000,8350.440928,13841.851115
1079.574364,-3034.844362,10035.851024,14804.118840
1079.574694,-3775.050304,7124.688131,14434.015869
1079.575024,-2812.782580,2068.457845,12065.356855
1079.575353,-2072.576638,-1378.971896,8216.285956
1079.575683,-1628.453072,-6052.154434,3775.050304
1079.576013,-592.164754,-8503.660028,814.226536
1079.576342,1110.308913,-4979.620737,1258.350101
1079.576672,3330.926739,-306.438199,4293.194464
1079.577002,3775.050304,3217.601092,7550.100608
1079.577331,1776.494261,6205.373534,8364.327145
1079.577661,-518.144159,7814.174080,9252.574275
1079.577991,-2072.576638,6281.983084,12213.398043
1079.578320,-5181.441594,5898.935335,15396.283594
1079.578650,-7179.997637,5209.449386,15618.345376
1079.578980,-6439.791695,689.485948,11843.295072
1079.579309,-5181.441594,-3677.258390,6735.874072
1079.579639,-3404.947333,-5822.325785,3108.864956
1079.579969,-222.061783,-8273.831378,3182.885551
1079.580298,3478.967927,-5362.668486,5255.462188
1079.580628,4515.256246,-536.266849,8438.347739
1079.580958,3108.864956,3983.696590,10807.006753
1079.581287,-370.102971,7737.564530,12287.418637
1079.581617,-2664.741391,9269.755526,12953.603985
1079.581947,-4293.194464,6741.640382,15988.448347
1079.582276,-3997.112087,4060.306139,16876.695478
1079.582606,-4589.276840,1378.971896,15100.201217
1079.582936,-4737.318029,-2528.115143,12657.521608
1079.583265,-4663.297435,-7660.954980,9252.574275
1079.583595,-3849.070898,-7890.783629,6069.688724
1079.583924,-370.102971,-6205.373534,6217.729913
1079.584254,3256.906145,-2987.772442,7179.997637
1079.584584,4293.194464,2068.457845,7846.182985
1079.584913,2960.823768,5209.449386,8512.368333
1079.585243,0.000000,5592.497135,10140.821405
1079.585573,-2368.659014,7507.735880,13545.768739
1079.585902,-5403.503377,7967.393179,15248.242405
1079.586232,-7550.100608,4596.572988,14285.974681
1079.586562,-6291.750507,1378.971896,10881.027347
1079.586891,-3627.009116,-3677.258390,7254.018232
1079.587221,0.000000,-8580.269578,3627.009116
1079.587551,2146.597232,-7354.516781,2294.638420
1079.587880,3997.112087,-2374.896044,3034.844362
1079.588210,5699.585753,1915.238745,5255.462188
1079.588540,5921.647536,5592.497135,8734.430116
1079.588869,3256.906145,8350.440928,10066.800811
1079.589199,1036.288319,8733.488677,10288.862594
1079.589529,-1702.473667,6128.763984,13397.727550
1079.589858,-2960.823768,5592.497135,15248.242405
1079.590188,-4071.132681,2528.115143,13619.789333
1079.590518,-4737.318029,-1225.752797,10658.965565
1079.590847,-4589.276840,-5132.839837,5477.523971
1079.591177,-2812.782580,-7277.907231,2664.741391
1079.591507,370.102971,-6894.859482,2738.761985
1079.591836,3034.844362,-2757.943793,4811.338623
1079.592166,3552.988522,1072.533697,8364.327145
1079.592496,2146.597232,5439.278036,10955.047942
1079.592825,-1406.391290,8273.831378,10584.944971
1079.593155,-3775.050304,8350.440928,12657.521608
1079.593485,-5625.565159,5056.230287,16654.633695
1079.593814,-7105.977043,1991.848295,17542.880825
1079.594144,-7105.977043,-306.438199,14952.160028
1079.594473,-5033.400406,-4519.963438,11251.130318
1079.594803,-2516.700203,-7201.297681,7105.977043
1079.595133,-518.144159,-8350.440928,5255.462188
1079.595462,2960.823768,-7277.907231,5773.606348
1079.595792,6365.771101,-459.657299,8290.306550
1079.596122,6513.812290,5822.325785,10658.965565
1079.596451,4589.276840,8810.098227,11843.295072
1079.596781,740.205942,8427.050478,11917.315666
1079.597111,-3182.885551,6128.763984,13471.748144
1079.597440,-4737.318029,4826.401637,16062.468941
1079.597770,-5477.523971,2528.115143,15100.201217
1079.598100,-5551.544565,0.000000,10881.027347
1079.598429,-5551.544565,-5439.278036,6143.709319
1079.598759,-3108.864956,-9882.631924,2738.761985
1079.599089,962.267725,-7354.516781,2368.659014
1079.599418,4737.318029,-3064.381992,3627.009116
1079.599748,6069.688724,2145.067394,6439.791695
1079.600078,3701.029710,8273.831378,9252.574275
1079.600407,518.144159,11184.994271,9030.512492
1079.600737,-592.164754,8963.317327,11399.171507
1079.601067,-3108.864956,7048.078582,14582.057057
1079.601396,-5921.647536,6511.811733,14359.995275
1079.601726,-6957.935855,2451.505594,11621.233289
1079.602056,-6439.791695,-4903.011187,9474.636058
1079.602385,-5921.647536,-7814.174080,4737.318029
1079.602715,-3552.988522,-7201.297681,2442.679609
1079.603045,74.020594,-6435.202183,1850.514855
1079.603374,4811.338623,-2068.457845,4071.132681
1079.603704,5477.523971,3140.991542,7624.121203
1079.604034,3775.050304,6281.983084,10436.903782
1079.604363,-296.082377,8656.879127,11029.068536
1079.604693,-3775.050304,9806.022374,13027.624579
1079.605023,-5255.462188,7507.735880,16432.571912
1079.605352,-4737.318029,2451.505594,17394.839637
1079.605682,-3701.029710,-1915.238745,14508.036463
1079.606012,-3849.070898,-6281.983084,9696.697840
1079.606342,-2664.741391,-8503.660028,6069.688724
1079.606671,74.020594,-5898.935335,5255.462188
1079.607001,3256.906145,-3753.867940,5921.647536
1079.607331,4737.318029,-459.657299,9326.594869
1079.607660,3701.029710,5439.278036,12139.377449
1079.607990,444.123565,10725.336972,11769.274478
1079.608320,-2220.617826,7967.393179,12583.501014
1079.608649,-5033.400406,4443.353888,15470.304188
1079.608979,-7031.956449,4596.572988,16062.468941
1079.609309,-6587.832884,76.609550,13693.809927
1079.609639,-4367.215058,-5209.449386,9474.636058
1079.609968,-3256.906145,-6435.202183,4737.318029
1079.610298,-1184.329507,-7354.516781,2442.679609
1079.610628,2960.823768,-7201.297681,3627.009116
1079.610957,6291.750507,-1302.362347,6661.853478
1079.611287,5625.565159,6358.592633,8364.327145
1079.611617,3997.112087,10648.727422,9326.594869
1079.611946,2738.761985,10878.556072,10510.924376
1079.612276,518.144159,8044.002729,12805.562797
1079.612606,-3108.864956,5056.230287,14285.974681
1079.612936,-5773.606348,3600.648841,12805.562797
1079.613265,-5699.585753,612.876398,9918.759623
1079.613595,-5773.606348,-5362.668486,6735.874072
1079.613925,-5329.482782,-8733.488677,2368.659014
1079.614254,-2368.659014,-9193.145976,1406.391290
1079.614584,2220.617826,-6971.469032,3256.906145
1079.614914,3034.844362,-383.047749,5921.647536
1079.615243,1776.494261,6358.592633,9178.553681
1079.615573,-444.123565,7660.954980,11103.089130
1079.615903,-1998.556043,8886.707777,12879.583391
1079.616233,-5033.400406,7890.783629,15544.324782
1079.616562,-5403.503377,4596.572988,15988.448347
1079.616892,-5847.626942,1455.581446,13841.851115
1079.617222,-4663.297435,-2604.724693,10732.986159
1079.617551,-3627.009116,-7814.174080,7402.059420
1079.617881,-1184.329507,-9422.974625,5403.503377
1079.618211,2072.576638,-6281.983084,5033.400406
1079.618540,5551.544565,-2528.115143,7698.141797
1079.618870,5995.668130,2451.505594,10658.965565
1079.619200,3404.947333,7890.783629,11843.295072
1079.619530,2072.576638,8503.660028,12583.501014
1079.619859,0.000000,7737.564530,15470.304188
1079.620189,-3330.926739,7201.297681,17246.798449
1079.620519,-5921.647536,4749.792088,16580.613101
1079.620848,-5255.462188,-306.438199,12509.480420
1079.621178,-4737.318029,-4903.011187,8290.306550
1079.621508,-3034.844362,-7507.735880,3627.009116
1079.621837,0.000000,-8580.269578,1406.391290
1079.622167,3330.926739,-6894.859482,2812.782580
1079.622497,4737.318029,229.828649,6069.688724
1079.622827,3330.926739,6971.469032,9104.533087
1079.623156,962.267725,10189.070123,9326.594869
1079.623486,-370.102971,10572.117872,9474.636058
1079.623816,-2294.638420,8350.440928,13323.706956
1079.624145,-3478.967927,7354.516781,15322.262999
1079.624475,-5033.400406,3140.991542,13249.686362
1079.624805,-4737.318029,-2068.457845,9622.677246
1079.625134,-5033.400406,-5669.106685,5403.503377
1079.625464,-3701.029710,-7890.783629,2146.597232
1079.625794,0.000000,-7507.735880,1110.308913
1079.626124,3849.070898,-4673.182538,2960.823768
1079.626453,5625.565159,1378.971896,6143.709319
1079.626783,3330.926739,6741.640382,8586.388927
1079.627113,0.000000,7967.393179,10288.862594
1079.627442,-3182.885551,8273.831378,14137.933492
1079.627772,-6143.709319,7124.688131,17690.922014
1079.628102,-7328.038826,5592.497135,16876.695478
1079.628431,-5477.523971,1149.143247,13323.706956
1079.628761,-3849.070898,-5592.497135,8216.285956
1079.629091,-2664.741391,-8963.317327,2368.659014
1079.629420,-444.123565,-10572.117872,2294.638420
1079.629750,2960.823768,-8120.612279,6143.709319
1079.630080,4219.173869,-612.876398,11177.109724
1079.630410,2146.597232,5439.278036,13323.706956
1079.630739,74.020594,8350.440928,13101.645173
1079.631069,-888.247130,9269.755526,13693.809927
1079.631399,-1554.432478,6281.983084,17246.798449
1079.631728,-2590.720797,2987.772442,18801.230927
1079.632058,-5255.462188,2451.505594,16358.551318
1079.632388,-6217.729913,1532.190996,11251.130318
1079.632717,-5329.482782,-5515.887586,6957.935855
1079.633047,-2738.761985,-10035.851024,3108.864956
1079.633377,814.226536,-8733.488677,1110.308913
1079.633707,4811.338623,-5822.325785,2072.576638
1079.634036,7550.100608,153.219100,5847.626942
1079.634366,5551.544565,7660.954980,8808.450710
1079.634696,1554.432478,9959.241474,10658.965565
1079.635025,-1628.453072,10342.289223,12139.377449
1079.635355,-4885.359217,9882.631924,15396.283594
1079.635685,-4737.318029,7890.783629,16580.613101
1079.636014,-4737.318029,3907.087040,12805.562797
1079.636344,-3701.029710,-2451.505594,8068.244768
1079.636674,-3330.926739,-7354.516781,2812.782580
1079.637004,-1998.556043,-9806.022374,814.226536
1079.637333,1258.350101,-7048.078582,1480.411884
1079.637663,3256.906145,-1991.848295,3478.967927
1079.637993,2294.638420,3447.429741,6661.853478
1079.638322,0.000000,6894.859482,9474.636058
1079.638652,-1554.432478,6588.421283,11621.233289
1079.638982,-3997.112087,7507.735880,13619.789333
1079.639311,-6587.832884,8656.879127,15100.201217
1079.639641,-6439.791695,4443.353888,15914.427753
1079.639971,-4589.276840,-153.219100,11547.212695
1079.640301,-3552.988522,-5898.935335,6143.709319
1079.640630,-1110.308913,-8810.098227,2294.638420
1079.640960,1850.514855,-8120.612279,3923.091493
1079.641290,4663.297435,-4826.401637,8068.244768
1079.641619,4737.318029,459.657299,11399.171507
1079.641949,2516.700203,6052.154434,13323.706956
1079.642279,222.061783,9269.755526,12583.501014
1079.642608,-1332.370696,7201.297681,15026.180623
1079.642938,-3404.947333,4903.011187,18727.210333
1079.643268,-4737.318029,5286.058936,19245.354492
1079.643598,-5107.421000,1685.410096,15396.283594
1079.643927,-4145.153275,-3830.477490,9548.656652
1079.644257,-3478.967927,-7737.564530,4367.215058
1079.644587,-1258.350101,-9116.536426,2368.659014
1079.644916,2368.659014,-7354.516781,3108.864956
1079.645246,4885.359217,-2757.943793,5033.400406
1079.645576,4589.276840,3677.258390,8068.244768
1079.645905,1406.391290,7354.516781,9992.780217
1079.646235,-444.123565,10035.851024,11029.068536
1079.646565,-2664.741391,8886.707777,14656.077652
1079.646895,-4589.276840,6818.249932,16210.510130
1079.647224,-5625.565159,4749.792088,14508.036463
1079.647554,-4219.173869,1302.362347,11103.089130
1079.647884,-3182.885551,-4749.792088,7031.956449
1079.648213,-2368.659014,-6971.469032,1406.391290
1079.648543,888.247130,-7124.688131,-222.061783
1079.648873,4737.318029,-4903.011187,666.185348
1079.649202,6439.791695,0.000000,4145.153275
1079.649532,4219.173869,6205.373534,7846.182985
1079.649862,444.123565,8120.612279,10807.006753
1079.650192,-1998.556043,6741.640382,13915.871710
1079.650521,-5329.482782,8503.660028,16876.695478
1079.650851,-7550.100608,8120.612279,15840.407159
1079.651181,-6661.853478,2068.457845,10955.047942
1079.651510,-4737.318029,-5209.449386,6365.771101
1079.651840,-3478.967927,-8503.660028,3108.864956
1079.652170,-1184.329507,-10112.460574,1850.514855
1079.652499,1110.308913,-8273.831378,4145.153275
1079.652829,2738.761985,-2911.162892,9696.697840
1079.653159,2442.679609,4826.401637,12805.562797
1079.653489,1406.391290,7277.907231,12139.377449
1079.653818,1776.494261,6971.469032,11473.192101
1079.654148,740.205942,4596.572988,17394.839637
1079.654478,-1702.473667,7354.516781,21169.889941
1079.654807,-5107.421000,6511.811733,19319.375086
1079.655137,-4885.359217,766.095498,13841.851115
1079.655467,-4145.153275,-3524.039291,8808.450710
1079.655796,-2886.803174,-7584.345430,4663.297435
1079.656126,1258.350101,-9576.193725,2516.700203
1079.656456,4737.318029,-6741.640382,2294.638420
1079.656785,5329.482782,229.828649,4737.318029
1079.657115,3849.070898,5209.449386,7550.100608
1079.657445,814.226536,6281.983084,11177.109724
1079.657775,-2368.659014,9729.412825,12435.459826
1079.658104,-5699.585753,9882.631924,14804.118840
1079.658434,-5625.565159,7354.516781,15544.324782
1079.658764,-3552.988522,4060.306139,12879.583391
1079.659093,-2220.617826,-3140.991542,9696.697840
1079.659423,-2220.617826,-6894.859482,5625.565159
1079.659753,-1628.453072,-6665.030833,1850.514855
1079.660082,518.144159,-4749.792088,814.226536
1079.660412,3997.112087,-1685.410096,2886.803174
1079.660742,5921.647536,2374.896044,6513.812290
1079.661072,4515.256246,5669.106685,8364.327145
1079.661401,1924.535449,5898.935335,9104.533087
1079.661731,-1702.473667,7660.954980,12287.418637
1079.662061,-5995.668130,7814.174080,15766.386565
1079.662390,-7920.203579,5975.544884,15840.407159
1079.662720,-6883.915261,1302.362347,11843.295072
1079.663050,-4663.297435,-4596.572988,6587.832884
1079.663379,-2738.761985,-9039.926876,2590.720797
1079.663709,-444.123565,-9806.022374,2072.576638
1079.664039,1406.391290,-7967.393179,4811.338623
1079.664369,2368.659014,-1685.410096,9474.636058
1079.664698,666.185348,5209.449386,12657.521608
1079.665028,-1332.370696,8963.317327,13693.809927
1079.665358,-2368.659014,8427.050478,12805.562797
1079.665687,-3256.906145,4826.401637,15988.448347
1079.666017,-3478.967927,2681.334243,19097.313304
1079.666347,-3997.112087,2451.505594,17172.777854
1079.666676,-4441.235652,-995.924147,11769.274478
1079.667006,-4071.132681,-6128.763984,7105.977043
1079.667336,-2368.659014,-8044.002729,4663.297435
1079.667666,2738.761985,-7737.564530,3997.112087
1079.667995,6217.729913,-5209.449386,4737.318029
1079.668325,6883.915261,919.314598,7550.100608
1079.668655,4589.276840,7814.174080,11103.089130
1079.668984,888.247130,7124.688131,13323.706956
1079.669314,-2664.741391,7201.297681,15100.201217
1079.669644,-6883.915261,9193.145976,16136.489536
1079.669973,-6809.894666,6511.811733,15470.304188
1079.670303,-3478.967927,2145.067394,12065.356855
1079.670633,-1924.535449,-3370.820191,6291.750507
1079.670963,0.000000,-8427.050478,148.041188
1079.671292,1924.535449,-9193.145976,-592.164754
1079.671622,3923.091493,-3983.696590,1036.288319
1079.671952,4959.379811,2298.286494,4589.276840
1079.672281,3997.112087,4903.011187,7846.182985
1079.672611,2220.617826,6894.859482,11399.171507
1079.672941,0.000000,8120.612279,12139.377449
1079.673270,-4367.215058,7967.393179,13545.768739
1079.673600,-6883.915261,7354.516781,13989.892304
1079.673930,-6439.791695,2451.505594,14211.954086
1079.674260,-5181.441594,-1072.533697,10807.006753
1079.674589,-5477.523971,-5975.544884,4293.194464
1079.674919,-2960.823768,-9576.193725,1258.350101
1079.675249,1110.308913,-7507.735880,2516.700203
1079.675578,4071.132681,-3294.210641,5995.668130
1079.675908,4737.318029,0.000000,9474.636058
1079.676238,2960.823768,5592.497135,11843.295072
1079.676567,-222.061783,10265.679673,11695.253884
1079.676897,-2072.576638,10342.289223,13841.851115
1079.677227,-3923.091493,5669.106685,17616.901420
1079.677557,-5403.503377,2298.286494,19319.375086
1079.677886,-5921.647536,306.438199,16062.468941
1079.678216,-6069.688724,-2987.772442,11103.089130
1079.678546,-4441.235652,-7354.516781,6809.894666
1079.678875,-1332.370696,-9269.755526,4959.379811
1079.679205,1998.556043,-7124.688131,4145.153275
1079.679535,5181.441594,-2911.162892,4959.379811
1079.679864,5995.668130,2374.896044,8290.306550
1079.680194,2960.823768,9116.536426,10288.862594
1079.680524,-370.102971,10418.898773,12213.398043
1079.680853,-3923.091493,6588.421283,14730.098246
1079.681183,-5921.647536,6894.859482,16358.551318
1079.681513,-5551.544565,4903.011187,14804.118840
1079.681843,-4293.194464,-229.828649,10807.006753
1079.682172,-3997.112087,-5745.716235,6069.688724
1079.682502,-2516.700203,-8580.269578,2220.617826
1079.682832,962.267725,-7584.345430,1776.494261
1079.683161,4737.318029,-3447.429741,2664.741391
1079.683491,5995.668130,3830.477490,4959.379811
1079.683821,4145.153275,7048.078582,7254.018232
1079.684150,2146.597232,6665.030833,9474.636058
1079.684480,-740.205942,7584.345430,12879.583391
1079.684810,-3849.070898,8580.269578,15322.262999
1079.685140,-5995.668130,6128.763984,13767.830521
1079.685469,-5329.482782,1149.143247,11251.130318
1079.685799,-3849.070898,-4673.182538,8068.244768
1079.686129,-2368.659014,-8120.612279,3923.091493
1079.686458,-518.144159,-9346.365076,1776.494261
1079.686788,2294.638420,-5056.230287,3108.864956
1079.687118,4071.132681,229.828649,7698.141797
1079.687447,4145.153275,3830.477490,10881.027347
1079.687777,1998.556043,6588.421283,11695.253884
1079.688107,-296.082377,7737.564530,12657.521608
1079.688437,-3034.844362,7354.516781,16136.489536
1079.688766,-5551.544565,6205.373534,18061.024985
1079.689096,-6587.832884,2451.505594,17542.880825
1079.689426,-4959.379811,-1838.629195,12731.542202
1079.689755,-3478.967927,-6741.640382,8216.285956
1079.690085,-1850.514855,-9193.145976,4293.194464
1079.690415,1406.391290,-8273.831378,3627.009116
1079.690744,3849.070898,-4290.134789,5773.606348
1079.691074,5477.523971,2068.457845,9696.697840
1079.691404,3923.091493,7354.516781,12731.542202
1079.691734,1480.411884,11184.994271,11917.315666
1079.692063,-1480.411884,7277.907231,13323.706956
1079.692393,-4441.235652,5669.106685,16580.613101
1079.692723,-6439.791695,5515.887586,16062.468941
1079.693052,-5773.606348,1455.581446,12583.501014
1079.693382,-4071.132681,-3447.429741,7550.100608
1079.693712,-3404.947333,-5975.544884,1924.535449
1079.694041,-444.123565,-9269.755526,-0.000000
1079.694371,3404.947333,-7737.564530,1628.453072
1079.694701,4737.318029,0.000000,4737.318029
1079.695031,4219.173869,7737.564530,7994.224174
1079.695360,3108.864956,10265.679673,10732.986159
1079.695690,1850.514855,8733.488677,10658.965565
1079.696020,-2590.720797,8273.831378,11917.315666
1079.696349,-6365.771101,5975.544884,13323.706956
1079.696679,-6513.812290,3753.867940,13027.624579
1079.697009,-5551.544565,0.000000,10510.924376
1079.697338,-5255.462188,-6128.763984,7031.956449
1079.697668,-4885.359217,-9576.193725,2294.638420
1079.697998,-2220.617826,-8886.707777,1406.391290
1079.698328,2886.803174,-5592.497135,4071.132681
1079.698657,4885.359217,153.219100,8512.368333
1079.698987,3182.885551,7967.393179,11547.212695
1079.699317,740.205942,10955.165621,10881.027347
1079.699646,-740.205942,6818.249932,13915.871710
1079.699976,-3256.906145,6128.763984,17172.777854
1079.700306,-5847.626942,6741.640382,18061.024985
1079.700635,-5699.585753,1072.533697,14137.933492
1079.700965,-3182.885551,-4290.134789,10510.924376
1079.701295,-2220.617826,-9269.755526,6883.915261
1079.701625,-370.102971,-9882.631924,4737.318029
1079.701954,2368.659014,-7584.345430,5107.421000
1079.702284,4885.359217,-1991.848295,6809.894666
1079.702614,5699.585753,4979.620737,9992.780217
1079.702943,4811.338623,7890.783629,13323.706956
1079.703273,2664.741391,9193.145976,14582.057057
1079.703603,-1998.556043,8120.612279,15026.180623
1079.703932,-4959.379811,6665.030833,16284.530724
1079.704262,-5403.503377,3983.696590,15174.221811
1079.704592,-3849.070898,-766.095498,11917.315666
1079.704921,-4219.173869,-6358.592633,7031.956449
1079.705251,-3478.967927,-9806.022374,1628.453072
1079.705581,-1036.288319,-9346.365076,-0.000000
1079.705911,3923.091493,-5209.449386,1554.432478
1079.706240,5625.565159,459.657299,4737.318029
1079.706570,5107.421000,6588.421283,8068.244768
1079.706900,2960.823768,10112.460574,9696.697840
1079.707229,1184.329507,9882.631924,11473.192101
1079.707559,-1998.556043,8963.317327,13915.871710
1079.707889,-3849.070898,7507.735880,14063.912898
1079.708218,-3775.050304,2911.162892,11843.295072
1079.708548,-2294.638420,-2757.943793,9622.677246
1079.708878,-2516.700203,-7660.954980,5995.668130
1079.709207,-2738.761985,-9806.022374,2368.659014
1079.709537,-814.226536,-7660.954980,2590.720797
1079.709867,2516.700203,-2834.553343,5551.544565
1079.710196,4589.276840,3140.991542,9326.594869
1079.710526,3330.926739,6818.249932,11621.233289
1079.710856,1110.308913,7354.516781,11621.233289
1079.711185,-3034.844362,7354.516781,13619.789333
1079.711515,-6217.729913,8733.488677,16506.592507
1079.711845,-7402.059420,5745.716235,17172.777854
1079.712174,-5847.626942,153.219100,14063.912898
1079.712504,-6143.709319,-5669.106685,8660.409521
1079.712834,-6439.791695,-9959.241474,3552.988522
1079.713163,-4515.256246,-10342.289223,3849.070898
1079.713493,-1332.370696,-7660.954980,7254.018232
1079.713823,666.185348,-383.047749,10732.986159
1079.714152,222.061783,4749.792088,12583.501014
1079.714482,0.000000,8427.050478,12287.418637
1079.714812,-296.082377,10265.679673,11843.295072
1079.715141,-1480.411884,9039.926876,11843.295072
1079.715471,-2146.597232,7048.078582,12953.603985
1079.715801,-2368.659014,3677.258390,13101.645173
1079.716130,-3404.947333,612.876398,10214.842000
1079.716460,-5699.585753,-4979.620737,6957.935855
1079.716790,-6291.750507,-10265.679673,4589.276840
1079.717119,-4737.318029,-7967.393179,5921.647536
1079.717449,-3330.926739,-4290.134789,7179.997637
1079.717779,-740.205942,-229.828649,8660.409521
1079.718109,148.041188,3907.087040,9696.697840
1079.718438,0.000000,7354.516781,9844.739029
1079.718768,-2146.597232,9422.974625,9178.553681
1079.719098,-4737.318029,7814.174080,10140.821405
1079.719427,-5477.523971,6741.640382,10807.006753
1079.719757,-5477.523971,4060.306139,9474.636058
1079.720087,-5699.585753,-1302.362347,7254.018232
1079.720416,-4811.338623,-5056.230287,5329.482782
1079.720746,-4219.173869,-7660.954980,4145.153275
1079.721076,-3256.906145,-6358.592633,3997.112087
1079.721405,-2516.700203,-2987.772442,6735.874072
1079.721735,-2146.597232,2987.772442,10288.862594
1079.722065,-1702.473667,7354.516781,11917.315666
1079.722394,-1036.288319,7354.516781,12805.562797
1079.722724,-2220.617826,8044.002729,12953.603985
1079.723054,-5107.421000,7201.297681,12287.418637
1079.723383,-7254.018232,2374.896044,12213.398043
1079.723713,-7698.141797,-766.095498,12287.418637
1079.724043,-8068.244768,-2681.334243,11177.109724
1079.724372,-6365.771101,-6205.373534,8142.265362
1079.724702,-3034.844362,-8503.660028,5773.606348
1079.725032,-370.102971,-7431.126331,5699.585753
1079.725361,370.102971,-3524.039291,6587.832884
1079.725691,296.082377,1608.800546,9992.780217
1079.726021,74.020594,7277.907231,13989.892304
1079.726350,-370.102971,12257.527968,15988.448347
1079.726680,-2664.741391,11184.994271,15766.386565
1079.727010,-4885.359217,7890.783629,13249.686362
1079.727339,-6365.771101,919.314598,11399.171507
1079.727669,-7920.203579,-2987.772442,10955.047942
1079.727999,-9844.739029,-2987.772442,10214.842000
1079.728328,-9992.780217,-5898.935335,7254.018232
1079.728658,-8142.265362,-8427.050478,4145.153275
1079.728988,-5403.503377,-7431.126331,2516.700203
1079.729317,-888.247130,-3677.258390,4145.153275
1079.729647,2220.617826,1072.533697,6439.791695
1079.729977,1924.535449,6665.030833,9030.512492
1079.730307,-148.041188,12563.966167,11029.068536
1079.730636,-1998.556043,12410.747068,12065.356855
1079.730966,-4367.215058,9729.412825,12583.501014
1079.731296,-4811.338623,6741.640382,12509.480420
1079.731625,-5551.544565,1685.410096,9770.718434
1079.731955,-5033.400406,-2834.553343,6587.832884
1079.732285,-5551.544565,-7660.954980,5699.585753
1079.732614,-5625.565159,-9116.536426,6809.894666
1079.732944,-7179.997637,-5439.278036,7402.059420
1079.733274,-7476.080014,-842.705048,7179.997637
1079.733603,-5255.462188,1915.238745,8290.306550
1079.733933,-3182.885551,3294.210641,9844.739029
1079.734263,-1332.370696,6358.592633,10584.944971
1079.734592,148.041188,7201.297681,11103.089130
1079.734922,-296.082377,4903.011187,11769.274478
1079.735252,-2812.782580,4596.572988,12361.439231
1079.735581,-6661.853478,3217.601092,11177.109724
1079.735911,-8438.347739,-536.266849,10362.883188
1079.736241,-8660.409521,-3294.210641,10066.800811
1079.736570,-7624.121203,-4290.134789,9696.697840
1079.736900,-4811.338623,-3677.258390,9178.553681
1079.737230,-2516.700203,-3217.601092,6883.915261
1079.737559,-1554.432478,-1608.800546,6439.791695
1079.737889,-666.185348,995.924147,8882.471304
1079.738219,-1332.370696,4596.572988,12657.521608
1079.738548,-2738.761985,8427.050478,13545.768739
1079.738878,-5847.626942,6665.030833,13175.665768
1079.739208,-7328.038826,3753.867940,12213.398043
1079.739537,-6291.750507,995.924147,11843.295072
1079.739867,-5107.421000,-2757.943793,10214.842000
1079.740197,-4663.297435,-5056.230287,6957.935855
1079.740526,-3997.112087,-4903.011187,4293.194464
1079.740856,-2590.720797,-3370.820191,4515.256246
1079.741186,-592.164754,-1302.362347,6957.935855
1079.741515,-1258.350101,1608.800546,9030.512492
1079.741845,-3108.864956,4903.011187,9770.718434
1079.742175,-4885.359217,6665.030833,10436.903782
1079.742504,-5181.441594,6971.469032,12583.501014
1079.742834,-5477.523971,4443.353888,13545.768739
1079.743164,-5699.585753,1302.362347,11029.068536
1079.743494,-4663.297435,-1149.143247,8586.388927
1079.743823,-3182.885551,-3140.991542,6809.894666
1079.744153,-1924.535449,-4060.306139,6513.812290
1079.744483,-592.164754,-3677.258390,7772.162391
1079.744812,-666.185348,-1685.410096,8586.388927
1079.745142,-2294.638420,1685.410096,9474.636058
1079.745472,-4737.318029,4213.525239,10807.006753
1079.745801,-5847.626942,5439.278036,11843.295072
1079.746131,-5477.523971,4596.572988,12287.418637
1079.746461,-5921.647536,3600.648841,10955.047942
1079.746790,-4663.297435,2374.896044,8142.265362
1079.747120,-2368.659014,-1149.143247,7105.977043
1079.747450,-1036.288319,-2911.162892,7031.956449
1079.747779,-1850.514855,-1991.848295,7328.038826
1079.748109,-1924.535449,-153.219100,7550.100608
1079.748439,-1332.370696,1302.362347,8364.327145
1079.748768,-1184.329507,3524.039291,9622.677246
1079.749098,-2664.741391,4136.915689,11325.150913
1079.749428,-5403.503377,4136.915689,12065.356855
1079.749757,-7920.203579,3983.696590,12435.459826
1079.750087,-9178.553681,2451.505594,13323.706956
1079.750417,-9622.677246,306.438199,13323.706956
1079.750746,-9030.512492,-1072.533697,11621.233289
1079.751076,-6883.915261,-3294.210641,8216.285956
1079.751406,-2886.803174,-4979.620737,5329.482782
1079.751735,1406.391290,-3140.991542,5033.400406
1079.752065,3923.091493,0.000000,5477.523971
1079.752395,3775.050304,2451.505594,6883.915261
1079.752724,1480.411884,4979.620737,9252.574275
1079.753054,-1924.535449,7967.393179,11473.192101
1079.753384,-4293.194464,8273.831378,13101.645173
1079.753713,-6217.729913,4519.963438,13397.727550
1079.754043,-9030.512492,1225.752797,13027.624579
1079.754373,-10214.842000,-1762.019645,11843.295072
1079.754702,-9770.718434,-3830.477490,9844.739029
1079.755032,-8068.244768,-4903.011187,7698.141797
1079.755362,-5921.647536,-5745.716235,6069.688724
1079.755692,-2738.761985,-3064.381992,5107.421000
1079.756021,-296.082377,0.000000,5847.626942
1079.756351,1036.288319,3064.381992,7031.956449
1079.756681,518.144159,5515.887586,8068.244768
1079.757010,-1110.308913,7737.564530,9030.512492
1079.757340,-3108.864956,7507.735880,11177.109724
1079.757670,-5995.668130,4290.134789,13027.624579
1079.757999,-8734.430116,1532.190996,12953.603985
1079.758329,-10288.862594,-1532.190996,11769.274478
1079.758659,-9992.780217,-4749.792088,10658.965565
1079.758988,-8290.306550,-6205.373534,9400.615463
1079.759318,-5329.482782,-5362.668486,8882.471304
1079.759648,-2072.576638,-2987.772442,7105.977043
1079.759977,518.144159,-306.438199,6439.791695
1079.760307,2516.700203,2451.505594,7994.224174
1079.760637,3108.864956,5745.716235,9992.780217
1079.760966,1924.535449,7660.954980,11473.192101
1079.761296,-1258.350101,6971.469032,12213.398043
1079.761626,-4367.215058,4443.353888,13619.789333
1079.761955,-7476.080014,1838.629195,14211.954086
1079.762285,-9918.759623,153.219100,12805.562797
1079.762615,-10510.924376,-3064.381992,9696.697840
1079.762944,-8512.368333,-5745.716235,6809.894666
1079.763274,-5255.462188,-5822.325785,5181.441594
1079.763604,-2220.617826,-3753.867940,5181.441594
1079.763933,0.000000,-995.924147,5181.441594
1079.764263,444.123565,3830.477490,5847.626942
1079.764593,-296.082377,7584.345430,7772.162391
1079.764922,-1480.411884,9882.631924,10140.821405
1079.765252,-3330.926739,8350.440928,12287.418637
1079.765582,-5107.421000,5898.935335,13397.727550
1079.765911,-6513.812290,2604.724693,12731.542202
1079.766241,-7476.080014,-383.047749,11843.295072
1079.766571,-7846.182985,-2298.286494,10955.047942
1079.766900,-7328.038826,-3830.477490,9178.553681
1079.767230,-5255.462188,-2987.772442,7772.162391
1079.767560,-2220.617826,-229.828649,6587.832884
1079.767890,962.267725,1302.362347,6365.771101
1079.768219,2220.617826,3753.867940,7031.956449
1079.768549,1628.453072,6358.592633,8216.285956
1079.768879,370.102971,7584.345430,9696.697840
1079.769208,-1480.411884,7814.174080,11103.089130
1079.769538,-3404.947333,5362.668486,12139.377449
1079.769868,-4737.318029,4136.915689,11769.274478
1079.770197,-5477.523971,1149.143247,10658.965565
1079.770527,-4811.338623,-1685.410096,8956.491898
1079.770857,-3701.029710,-2757.943793,8142.265362
1079.771186,-3182.885551,-1378.971896,8216.285956
1079.771516,-2368.659014,1378.971896,7846.182985
1079.771846,-2442.679609,2834.553343,8808.450710
1079.772175,-2220.617826,4749.792088,9992.780217
1079.772505,-2146.597232,6818.249932,10807.006753
1079.772835,-1702.473667,7814.174080,11177.109724
1079.773164,-1480.411884,6052.154434,11177.109724
1079.773494,-2220.617826,4060.306139,11251.130318
1079.773824,-1406.391290,2681.334243,10288.862594
1079.774153,-1258.350101,1915.238745,9178.553681
1079.774483,-1036.288319,1608.800546,8290.306550
1079.774813,-1110.308913,1762.019645,8438.347739
1079.775142,-148.041188,3600.648841,9104.533087
1079.775472,-222.061783,5592.497135,10066.800811
1079.775802,-1036.288319,7124.688131,10066.800811
1079.776131,-2146.597232,7354.516781,9992.780217
1079.776461,-2072.576638,7124.688131,9622.677246
1079.776791,-2738.761985,6358.592633,9400.615463
1079.777120,-2960.823768,4290.134789,7994.224174
1079.777450,-2072.576638,1915.238745,6661.853478
1079.777780,-1184.329507,383.047749,5921.647536
1079.778109,-740.205942,-383.047749,6513.812290
1079.778439,-2072.576638,766.095498,7328.038826
1079.778769,-2368.659014,2987.772442,8660.409521
1079.779098,-2812.782580,5286.058936,9696.697840
1079.779428,-2812.782580,6971.469032,11251.130318
1079.779758,-2738.761985,6894.859482,11547.212695
1079.780087,-592.164754,6741.640382,10658.965565
1079.780417,148.041188,4903.011187,10066.800811
1079.780747,74.020594,4519.963438,9844.739029
1079.781077,-222.061783,3524.039291,9770.718434
1079.781406,-444.123565,2221.676944,9326.594869
1079.781736,-148.041188,2298.286494,9104.533087
1079.782066,222.061783,2298.286494,9104.533087
1079.782395,888.247130,2451.505594,9696.697840
1079.782725,962.267725,2528.115143,10288.862594
1079.783055,-518.144159,3753.867940,10807.006753
1079.783384,-2072.576638,5286.058936,11399.171507
1079.783714,-1998.556043,6128.763984,11769.274478
1079.784044,-1480.411884,5745.716235,12139.377449
1079.784373,-1332.370696,4903.011187,11103.089130
1079.784703,-1110.308913,4213.525239,9770.718434
1079.785033,-444.123565,3907.087040,8808.450710
1079.785362,0.000000,4136.915689,9252.574275
1079.785692,0.000000,5132.839837,8808.450710
1079.786022,-518.144159,4443.353888,7254.018232
1079.786351,-296.082377,3217.601092,6587.832884
1079.786681,-444.123565,2221.676944,6735.874072
1079.787011,-962.267725,2757.943793,7772.162391
1079.787340,-2368.659014,2451.505594,8438.347739
1079.787670,-3627.009116,3140.991542,9178.553681
1079.788000,-3701.029710,3294.210641,9918.759623
1079.788329,-2960.823768,3907.087040,10584.944971
1079.788659,-1924.535449,4519.963438,9992.780217
1079.788989,-444.123565,4673.182538,9622.677246
1079.789318,74.020594,5286.058936,8586.388927
1079.789648,740.205942,6205.373534,9030.512492
1079.789978,1258.350101,6358.592633,9622.677246
1079.790307,888.247130,7048.078582,9400.615463
1079.790637,-148.041188,6281.983084,7994.224174
1079.790967,-1036.288319,4519.963438,7550.100608
1079.791296,-1850.514855,2374.896044,7402.059420
1079.791626,-2368.659014,612.876398,7698.141797
1079.791956,-2812.782580,0.000000,8364.327145
1079.792285,-2960.823768,0.000000,9178.553681
1079.792615,-2664.741391,842.705048,10288.862594
1079.792945,-2146.597232,2221.676944,11251.130318
1079.793275,-1406.391290,3600.648841,11917.315666
1079.793604,-888.247130,5132.839837,12583.501014
1079.793934,-296.082377,6128.763984,12879.583391
1079.794264,-148.041188,6894.859482,12213.398043
1079.794593,74.020594,5745.716235,11473.192101
1079.794923,0.000000,4673.182538,10658.965565
1079.795253,-370.102971,4136.915689,9844.739029
1079.795582,-666.185348,3140.991542,8586.388927
1079.795912,-1332.370696,2681.334243,8068.244768
1079.796242,-1184.329507,1608.800546,8068.244768
1079.796571,-592.164754,1532.190996,7402.059420
1079.796901,148.041188,1608.800546,7550.100608
1079.797231,296.082377,2451.505594,7994.224174
1079.797560,148.041188,3753.867940,9030.512492
1079.797890,-370.102971,5132.839837,9992.780217
1079.798220,-1554.432478,6818.249932,10732.986159
1079.798549,-1554.432478,6511.811733,11621.233289
1079.798879,-2072.576638,6205.373534,11843.295072
1079.799209,-3182.885551,6358.592633,11325.150913
1079.799538,-3627.009116,6052.154434,9326.594869
1079.799868,-2812.782580,4673.182538,6587.832884
1079.800198,-518.144159,2451.505594,4293.194464
1079.800527,2368.659014,766.095498,3552.988522
1079.800857,3701.029710,1225.752797,4663.297435
1079.801187,2368.659014,2757.943793,5699.585753
1079.801516,-518.144159,4596.572988,8142.265362
1079.801846,-3182.885551,6588.421283,10881.027347
1079.802176,-4441.235652,7201.297681,13915.871710
1079.802505,-4663.297435,6894.859482,15396.283594
1079.802835,-4663.297435,5209.449386,14508.036463
1079.803165,-4515.256246,4596.572988,13323.706956
1079.803494,-3627.009116,3064.381992,10732.986159
1079.803824,-2072.576638,2145.067394,8808.450710
1079.804154,370.102971,1455.581446,6957.935855
1079.804483,3034.844362,1991.848295,5107.421000
1079.804813,5329.482782,2528.115143,4811.338623
1079.805142,4885.359217,3753.867940,5255.462188
1079.805472,3034.844362,4519.963438,7698.141797
1079.805801,-740.205942,6665.030833,10807.006753
1079.806131,-3997.112087,8810.098227,13767.830521
1079.806460,-4959.379811,8273.831378,14508.036463
1079.806790,-3923.091493,4519.963438,13545.768739
1079.807119,-2442.679609,1225.752797,11325.150913
1079.807448,-1258.350101,-459.657299,8808.450710
1079.807778,-740.205942,536.266849,7550.100608
1079.808107,-888.247130,2681.334243,7920.203579
1079.808437,-1480.411884,4673.182538,9104.533087
1079.808766,-1998.556043,5745.716235,8660.409521
1079.809096,-1702.473667,4213.525239,6883.915261
1079.809425,-666.185348,2145.067394,6291.750507
1079.809755,-444.123565,1685.410096,7476.080014
1079.810084,-1776.494261,2834.553343,9844.739029
1079.810414,-2590.720797,4136.915689,11917.315666
1079.810743,-2960.823768,5209.449386,12731.542202
1079.811073,-2146.597232,5822.325785,12213.398043
1079.811402,-444.123565,4903.011187,9770.718434
1079.811732,592.164754,2451.505594,6513.812290
1079.812061,2664.741391,1072.533697,5773.606348
1079.812391,3552.988522,842.705048,6957.935855
1079.812720,2368.659014,3753.867940,8290.306550
1079.813050,1184.329507,5515.887586,8808.450710
1079.813379,0.000000,4749.792088,10584.944971
1079.813709,-1924.535449,4366.744339,12435.459826
1079.814038,-3478.967927,5592.497135,12805.562797
1079.814368,-3552.988522,4213.525239,12139.377449
1079.814697,-2960.823768,1991.848295,11843.295072
1079.815027,-2812.782580,2374.896044,11103.089130
1079.815356,-3552.988522,2221.676944,10584.944971
1079.815686,-2812.782580,2451.505594,8808.450710
1079.816015,-1702.473667,3907.087040,7476.080014
1079.816345,-296.082377,5515.887586,6587.832884
1079.816674,1924.535449,3907.087040,6069.688724
1079.817004,3182.885551,2604.724693,5847.626942
1079.817333,3034.844362,2834.553343,6957.935855
1079.817663,1554.432478,4826.401637,8882.471304
1079.817992,-370.102971,5975.544884,12139.377449
1079.818322,-2368.659014,6818.249932,14508.036463
1079.818651,-4145.153275,8810.098227,14211.954086
1079.818981,-3256.906145,7201.297681,13545.768739
1079.819310,-1406.391290,4903.011187,11843.295072
1079.819640,-1258.350101,2757.943793,9770.718434
1079.819969,-1924.535449,3064.381992,7698.141797
1079.820298,-2516.700203,3140.991542,5699.585753
1079.820628,-1776.494261,2451.505594,3404.947333
1079.820957,222.061783,2451.505594,3256.906145
1079.821287,1998.556043,2298.286494,4071.132681
1079.821616,1998.556043,3600.648841,4219.173869
1079.821946,1406.391290,4826.401637,5403.503377
1079.822275,1628.453072,4060.306139,8808.450710
1079.822605,-148.041188,4903.011187,12731.542202
1079.822934,-3256.906145,6894.859482,15470.304188
1079.823264,-4811.338623,6511.811733,15988.448347
1079.823593,-4515.256246,3830.477490,14582.057057
1079.823923,-3552.988522,2681.334243,12731.542202
1079.824252,-2738.761985,1915.238745,11177.109724
1079.824582,-1998.556043,459.657299,8734.430116
1079.824911,-1776.494261,-383.047749,5995.668130
1079.825241,0.000000,-229.828649,4441.235652
1079.825570,2516.700203,-689.485948,4071.132681
1079.825900,3404.947333,0.000000,5033.400406
1079.826229,2738.761985,1838.629195,6809.894666
1079.826559,2368.659014,2911.162892,9548.656652
1079.826888,1628.453072,2374.896044,12805.562797
1079.827218,0.000000,3217.601092,15840.407159
1079.827547,-2294.638420,3217.601092,16654.633695
1079.827877,-3552.988522,1225.752797,16358.551318
1079.828206,-4737.318029,612.876398,14656.077652
1079.828536,-4663.297435,383.047749,11991.336260
1079.828865,-2960.823768,-919.314598,9474.636058
1079.829195,0.000000,-995.924147,6735.874072
1079.829524,2960.823768,-1762.019645,3849.070898
1079.829854,4811.338623,-1608.800546,2960.823768
1079.830183,4071.132681,919.314598,3256.906145
1079.830513,2220.617826,3753.867940,4293.194464
1079.830842,1110.308913,2987.772442,7031.956449
1079.831172,-296.082377,2068.457845,11621.233289
1079.831501,-2368.659014,3064.381992,15840.407159
1079.831831,-5921.647536,3524.039291,16358.551318
1079.832160,-8290.306550,2145.067394,13915.871710
1079.832490,-8882.471304,-459.657299,11769.274478
1079.832819,-6957.935855,-2374.896044,9474.636058
1079.833148,-3775.050304,-3370.820191,8216.285956
1079.833478,0.000000,-2911.162892,6587.832884
1079.833807,1998.556043,-1072.533697,4071.132681
1079.834137,3404.947333,459.657299,1998.556043
1079.834466,4663.297435,919.314598,3330.926739
1079.834796,5181.441594,1762.019645,7772.162391
1079.835125,3478.967927,4903.011187,12657.521608
1079.835455,0.000000,7354.516781,15322.262999
1079.835784,-3330.926739,4749.792088,15988.448347
1079.836114,-5403.503377,1608.800546,15692.365970
1079.836443,-5551.544565,383.047749,14582.057057
1079.836773,-4145.153275,-919.314598,11547.212695
1079.837102,-1480.411884,-3140.991542,8142.265362
1079.837432,-148.041188,-4213.525239,5033.400406
1079.837761,-370.102971,-3064.381992,2442.679609
1079.838091,814.226536,-1455.581446,2886.803174
1079.838420,3034.844362,766.095498,4811.338623
1079.838750,4737.318029,2681.334243,7624.121203
1079.839079,2516.700203,3600.648841,11177.109724
1079.839409,-1850.514855,3064.381992,13175.665768
1079.839738,-4589.276840,2145.067394,15322.262999
1079.840068,-6439.791695,3064.381992,17542.880825
1079.840397,-6735.874072,4290.134789,16728.654289
1079.840727,-4663.297435,1455.581446,12805.562797
1079.841056,-592.164754,-3294.210641,8142.265362
1079.841386,2294.638420,-5362.668486,3627.009116
1079.841715,3775.050304,-2528.115143,2368.659014
1079.842045,4663.297435,153.219100,3256.906145
1079.842374,5477.523971,2528.115143,5773.606348
1079.842704,3923.091493,4136.915689,9622.677246
1079.843033,444.123565,6128.763984,13175.665768
1079.843363,-2664.741391,6435.202183,14211.954086
1079.843692,-4145.153275,3983.696590,14211.954086
1079.844022,-4811.338623,1915.238745,13915.871710
1079.844351,-5255.462188,536.266849,12731.542202
1079.844681,-4367.215058,-2298.286494,10584.944971
1079.845010,-2368.659014,-3140.991542,7031.956449
1079.845339,-1110.308913,-1378.971896,2738.761985
1079.845669,1554.432478,-383.047749,888.247130
1079.845998,4441.235652,-919.314598,2368.659014
1079.846328,5033.400406,766.095498,4959.379811
1079.846657,2294.638420,4443.353888,8142.265362
1079.846987,-2294.638420,6818.249932,11325.150913
1079.847316,-5403.503377,5822.325785,13693.809927
1079.847646,-6957.935855,3140.991542,16210.510130
1079.847975,-7772.162391,1225.752797,15840.407159
1079.848305,-6735.874072,-612.876398,12287.418637
1079.848634,-3849.070898,-3983.696590,8364.327145
1079.848964,-1110.308913,-6435.202183,5699.585753
1079.849293,0.000000,-4673.182538,5033.400406
1079.849623,1258.350101,-1762.019645,4959.379811
1079.849952,3627.009116,0.000000,4885.359217
1079.850282,4737.318029,1838.629195,6735.874072
1079.850611,4145.153275,3370.820191,10732.986159
1079.850941,1850.514855,3600.648841,13989.892304
1079.851270,-1480.411884,3753.867940,16210.510130
1079.851600,-3627.009116,4519.963438,16580.613101
1079.851929,-3923.091493,3447.429741,15840.407159
1079.852259,-2442.679609,459.657299,13027.624579
1079.852588,0.000000,-4136.915689,9696.697840
1079.852918,1628.453072,-6052.154434,5847.626942
1079.853247,1998.556043,-3524.039291,3923.091493
1079.853577,2368.659014,-842.705048,4441.235652
1079.853906,2590.720797,306.438199,7105.977043
1079.854236,740.205942,2987.772442,10584.944971
1079.854565,-1998.556043,5362.668486,12731.542202
1079.854895,-4219.173869,5286.058936,12657.521608
1079.855224,-5699.585753,3447.429741,12731.542202
1079.855554,-5699.585753,1915.238745,13175.665768
1079.855883,-5403.503377,383.047749,12879.583391
1079.856213,-3404.947333,-689.485948,9844.739029
1079.856542,-1924.535449,-2145.067394,5403.503377
1079.856872,-740.205942,-2374.896044,2368.659014
1079.857201,814.226536,-995.924147,2516.700203
1079.857531,2368.659014,459.657299,4589.276840
1079.857860,3775.050304,1762.019645,7105.977043
1079.858189,2516.700203,3830.477490,9252.574275
1079.858519,0.000000,5209.449386,11177.109724
1079.858848,-2516.700203,5132.839837,12879.583391
1079.859178,-4293.194464,3064.381992,13175.665768
1079.859507,-4589.276840,2681.334243,12953.603985
1079.859837,-2072.576638,306.438199,11251.130318
1079.860166,148.041188,-2604.724693,8586.388927
1079.860496,74.020594,-3600.648841,5033.400406
1079.860825,0.000000,-2987.772442,3849.070898
1079.861155,962.267725,-995.924147,4885.359217
1079.861484,3108.864956,612.876398,6439.791695
1079.861814,3552.988522,2298.286494,9918.759623
1079.862143,1110.308913,3753.867940,12805.562797
1079.862473,-2516.700203,3830.477490,13619.789333
1079.862802,-4737.318029,3064.381992,14656.077652
1079.863132,-4959.379811,2604.724693,15100.201217
1079.863461,-5107.421000,842.705048,14285.974681
1079.863791,-3627.009116,-1532.190996,12287.418637
1079.864120,-2220.617826,-3907.087040,9326.594869
1079.864450,-666.185348,-4060.306139,5033.400406
1079.864779,296.082377,-3447.429741,4071.132681
1079.865109,2516.700203,-1762.019645,5773.606348
1079.865438,3997.112087,383.047749,9474.636058
1079.865768,2368.659014,3524.039291,12435.459826
1079.866097,-740.205942,5745.716235,12583.501014
1079.866427,-2960.823768,4979.620737,11917.315666
1079.866756,-3330.926739,2221.676944,13175.665768
1079.867086,-3034.844362,2068.457845,14211.954086
1079.867415,-2738.761985,1991.848295,12731.542202
1079.867745,-1406.391290,0.000000,8586.388927
1079.868074,-444.123565,-2451.505594,3997.112087
1079.868404,222.061783,-3217.601092,1702.473667
1079.868733,1480.411884,-2451.505594,3330.926739
1079.869063,2368.659014,-153.219100,5699.585753
1079.869392,1258.350101,2757.943793,7550.100608
1079.869722,-1406.391290,4826.401637,9252.574275
1079.870051,-4219.173869,3677.258390,10881.027347
1079.870381,-5847.626942,2911.162892,12509.480420
1079.870710,-6365.771101,2298.286494,12805.562797
1079.871039,-5773.606348,1915.238745,10881.027347
1079.871369,-3478.967927,-1608.800546,8438.347739
1079.871698,-740.205942,-5439.278036,7254.018232
1079.872028,-888.247130,-5592.497135,6291.750507
1079.872357,-1924.535449,-1991.848295,5107.421000
1079.872687,74.020594,306.438199,6291.750507
1079.873016,3701.029710,1378.971896,9400.615463
1079.873346,3923.091493,3064.381992,12361.439231
1079.873675,1628.453072,2834.553343,14211.954086
1079.874005,-962.267725,2145.067394,14656.077652
1079.874334,-3182.885551,3064.381992,15026.180623
1079.874664,-4293.194464,3064.381992,14730.098246
1079.874993,-2738.761985,995.924147,14137.933492
1079.875323,0.000000,-3064.381992,11991.336260
1079.875652,1110.308913,-4749.792088,7698.141797
1079.875982,1110.308913,-3907.087040,3849.070898
1079.876311,2072.576638,-2451.505594,3701.029710
1079.876641,3478.967927,-536.266849,6439.791695
1079.876970,3849.070898,1838.629195,10584.944971
1079.877300,1110.308913,5669.106685,12139.377449
1079.877629,-2146.597232,6052.154434,11251.130318
1079.877959,-3182.885551,3753.867940,11695.253884
1079.878288,-4589.276840,4060.306139,12731.542202
1079.878618,-5625.565159,2834.553343,13545.768739
1079.878947,-4885.359217,1225.752797,11547.212695
1079.879277,-3404.947333,-1225.752797,7105.977043
1079.879606,-2516.700203,-2987.772442,2886.803174
1079.879936,-148.041188,-3217.601092,2812.782580
1079.880265,1480.411884,-1378.971896,3997.112087
1079.880595,1998.556043,919.314598,5329.482782
1079.880924,1110.308913,3600.648841,7846.182985
1079.881254,-2368.659014,6205.373534,10288.862594
1079.881583,-4145.153275,6358.592633,12583.501014
1079.881913,-4811.338623,4136.915689,13323.706956
1079.882242,-5033.400406,2604.724693,11917.315666
1079.882572,-3330.926739,766.095498,10436.903782
1079.882901,-962.267725,-2451.505594,9400.615463
1079.883231,-148.041188,-3830.477490,7105.977043
1079.883560,-296.082377,-2374.896044,5699.585753
1079.883889,592.164754,-536.266849,5625.565159
1079.884219,2442.679609,1072.533697,6217.729913
1079.884548,4071.132681,1991.848295,8808.450710
1079.884878,3182.885551,2145.067394,11991.336260
1079.885207,148.041188,3140.991542,12657.521608
1079.885537,-3478.967927,2911.162892,13545.768739
1079.885866,-4663.297435,2987.772442,14730.098246
1079.886196,-5255.462188,2221.676944,14952.160028
1079.886525,-3775.050304,0.000000,13249.686362
1079.886855,-1480.411884,-3294.210641,9696.697840
1079.887184,-370.102971,-5669.106685,5477.523971
1079.887514,518.144159,-4213.525239,4145.153275
1079.887843,2220.617826,-1915.238745,6217.729913
1079.888173,2812.782580,0.000000,9178.553681
1079.888502,1480.411884,3677.258390,11843.295072
1079.888832,-1184.329507,5286.058936,13693.809927
1079.889161,-3034.844362,5592.497135,14211.954086
1079.889491,-3627.009116,4060.306139,14508.036463
1079.889820,-4219.173869,2834.553343,13767.830521
1079.890150,-3404.947333,0.000000,11621.233289
1079.890479,-1924.535449,-2757.943793,8438.347739
1079.890809,-1036.288319,-2528.115143,5921.647536
1079.891138,-814.226536,-1072.533697,3627.009116
1079.891468,666.185348,-1149.143247,3404.947333
1079.891797,2664.741391,-153.219100,4293.194464
1079.892127,3627.009116,1378.971896,6587.832884
1079.892456,2220.617826,3983.696590,9400.615463
1079.892786,-1036.288319,5822.325785,10510.924376
1079.893115,-3034.844362,5822.325785,11251.130318
1079.893445,-3775.050304,4290.134789,11843.295072
1079.893774,-3923.091493,2298.286494,11695.253884
1079.894104,-3775.050304,229.828649,10807.006753
1079.894433,-3182.885551,-536.266849,8216.285956
1079.894763,-2738.761985,-2221.676944,4737.318029
1079.895092,-1036.288319,-3294.210641,3182.885551
1079.895422,814.226536,-3140.991542,3997.112087
1079.895751,2220.617826,-1991.848295,6587.832884
1079.896081,1998.556043,1378.971896,9918.759623
1079.896410,-1110.308913,4596.572988,12583.501014
1079.896739,-3404.947333,5286.058936,13841.851115
1079.897069,-4219.173869,3983.696590,15174.221811
1079.897398,-4145.153275,3677.258390,16432.571912
1079.897728,-3552.988522,2451.505594,14359.995275
1079.898057,-2368.659014,-995.924147,11843.295072
1079.898387,-222.061783,-3753.867940,8216.285956
1079.898716,518.144159,-4519.963438,6069.688724
1079.899046,1702.473667,-2221.676944,6957.935855
1079.899375,3034.844362,842.705048,8438.347739
1079.899705,3701.029710,2298.286494,9400.615463
1079.900034,2368.659014,3447.429741,10584.944971
1079.900364,370.102971,4903.011187,12583.501014
1079.900693,-1258.350101,5209.449386,13989.892304
1079.901023,-2146.597232,4673.182538,14211.954086
1079.901352,-3182.885551,4213.525239,12879.583391
1079.901682,-3701.029710,1455.581446,11547.212695
1079.902011,-3849.070898,-1225.752797,9252.574275
1079.902341,-4145.153275,-1378.971896,5847.626942
1079.902670,-2590.720797,-1072.533697,3256.906145
1079.903000,-888.247130,-2221.676944,2516.700203
1079.903329,814.226536,-1225.752797,3256.906145
1079.903659,962.267725,76.609550,5847.626942
1079.903988,-1184.329507,2528.115143,9030.512492
1079.904318,-4071.132681,6205.373534,11177.109724
1079.904647,-5255.462188,7660.954980,12805.562797
1079.904977,-4663.297435,5592.497135,13397.727550
1079.905306,-3849.070898,2604.724693,12065.356855
1079.905636,-1998.556043,-689.485948,9622.677246
1079.905965,0.000000,-2911.162892,7179.997637
1079.906295,592.164754,-3524.039291,4071.132681
1079.906624,148.041188,-1378.971896,4515.256246
1079.906954,1036.288319,0.000000,6439.791695
1079.907283,2590.720797,919.314598,8216.285956
1079.907613,3256.906145,1915.238745,9844.739029
1079.907942,1480.411884,2757.943793,11547.212695
1079.908272,-740.205942,3524.039291,12139.377449
1079.908601,-2590.720797,3294.210641,14582.057057
1079.908930,-2738.761985,3524.039291,14804.118840
1079.909260,-2072.576638,2068.457845,13545.768739
1079.909589,-740.205942,-306.438199,10658.965565
1079.909919,-444.123565,-3064.381992,7846.182985
1079.910248,-740.205942,-3064.381992,5847.626942
1079.910578,-444.123565,-2374.896044,6143.709319
1079.910907,148.041188,-1685.410096,7254.018232
1079.911237,370.102971,-459.657299,10362.883188
1079.911566,-1554.432478,2374.896044,13249.686362
1079.911896,-4515.256246,3753.867940,13767.830521
1079.912225,-5625.565159,3677.258390,13175.665768
1079.912555,-4367.215058,1915.238745,13175.665768
1079.912884,-3552.988522,1608.800546,12879.583391
1079.913214,-2220.617826,1225.752797,12583.501014
1079.913543,-592.164754,306.438199,9844.739029
1079.913873,-592.164754,-1532.190996,4515.256246
1079.914202,666.185348,-2451.505594,1998.556043
1079.914532,2590.720797,-2451.505594,4071.132681
1079.914861,3404.947333,0.000000,7328.038826
1079.915191,2294.638420,4366.744339,10732.986159
1079.915520,-740.205942,6128.763984,11177.109724
1079.915850,-3256.906145,5898.935335,10584.944971
1079.916179,-3256.906145,3370.820191,11843.295072
1079.916509,-2738.761985,2681.334243,12213.398043
1079.916838,-2590.720797,2681.334243,10288.862594
1079.917168,-888.247130,612.876398,7920.203579
1079.917497,-518.144159,-842.705048,5181.441594
1079.917827,-1036.288319,-1378.971896,3849.070898
1079.918156,-1110.308913,-995.924147,5107.421000
1079.918486,-296.082377,1225.752797,6291.750507
1079.918815,0.000000,2604.724693,7476.080014
1079.919145,-666.185348,2451.505594,9696.697840
1079.919474,-2368.659014,1302.362347,11843.295072
1079.919804,-4367.215058,1991.848295,13249.686362
1079.920133,-4737.318029,2451.505594,13767.830521
1079.920463,-4219.173869,3830.477490,13767.830521
1079.920792,-1850.514855,2451.505594,12657.521608
1079.921122,222.061783,-689.485948,10584.944971
1079.921451,1480.411884,-3140.991542,7402.059420
1079.921780,1776.494261,-2221.676944,5551.544565
1079.922110,2442.679609,306.438199,5921.647536
1079.922439,3849.070898,1532.190996,8734.430116
1079.922769,3182.885551,2451.505594,11917.315666
1079.923098,74.020594,3524.039291,12953.603985
1079.923428,-2294.638420,3447.429741,12509.480420
1079.923757,-3108.864956,2757.943793,12805.562797
1079.924087,-2886.803174,2911.162892,13545.768739
1079.924416,-2960.823768,2221.676944,12583.501014
1079.924746,-1406.391290,76.609550,9622.677246
1079.925075,74.020594,-2298.286494,5921.647536
1079.925405,148.041188,-1532.190996,3775.050304
1079.925734,666.185348,153.219100,4515.256246
1079.926064,222.061783,1685.410096,6439.791695
1079.926393,-222.061783,1991.848295,8068.244768
1079.926723,-1702.473667,2528.115143,9548.656652
1079.927052,-3404.947333,3370.820191,10288.862594
1079.927382,-4663.297435,2911.162892,11473.192101
1079.927711,-4441.235652,1685.410096,12435.459826
1079.928041,-5329.482782,1302.362347,11251.130318
1079.928370,-4219.173869,306.438199,9918.759623
1079.928700,-2146.597232,-1149.143247,8364.327145
1079.929029,0.000000,-766.095498,6587.832884
1079.929359,1110.308913,-229.828649,5477.523971
1079.929688,2368.659014,-612.876398,4145.153275
1079.930018,3552.988522,-919.314598,5403.503377
1079.930347,3404.947333,76.609550,9548.656652
1079.930677,148.041188,2528.115143,12805.562797
1079.931006,-3034.844362,4749.792088,14211.954086
1079.931336,-3923.091493,4136.915689,14508.036463
1079.931665,-3701.029710,1915.238745,13397.727550
1079.931995,-2812.782580,0.000000,11473.192101
1079.932324,-444.123565,-2604.724693,10658.965565
1079.932654,370.102971,-3600.648841,8068.244768
1079.932983,0.000000,-2068.457845,5921.647536
1079.933313,74.020594,-229.828649,6143.709319
1079.933642,962.267725,153.219100,7031.956449
1079.933972,1332.370696,0.000000,9252.574275
1079.934301,0.000000,2068.457845,12139.377449
1079.934630,-2072.576638,4366.744339,12953.603985
1079.934960,-3330.926739,3140.991542,12953.603985
1079.935289,-3330.926739,1532.190996,13693.809927
1079.935619,-3775.050304,689.485948,13693.809927
1079.935948,-3404.947333,229.828649,12213.398043
1079.936278,-2590.720797,-383.047749,9696.697840
1079.936607,-1110.308913,229.828649,7031.956449
1079.936937,296.082377,76.609550,5403.503377
1079.937266,2368.659014,-153.219100,5329.482782
1079.937596,3404.947333,76.609550,6143.709319
1079.937925,2590.720797,1532.190996,7698.141797
1079.938255,-444.123565,4596.572988,10140.821405
1079.938584,-3330.926739,7124.688131,11621.233289
1079.938914,-3775.050304,4979.620737,12361.439231
1079.939243,-3701.029710,2451.505594,12509.480420
1079.939573,-3775.050304,2298.286494,10807.006753
1079.939902,-2886.803174,306.438199,8734.430116
1079.940232,-1332.370696,-1072.533697,6439.791695
1079.940561,0.000000,-1149.143247,4441.235652
1079.940891,1110.308913,-536.266849,3997.112087
1079.941220,2220.617826,153.219100,4737.318029
1079.941550,2368.659014,919.314598,6217.729913
1079.941879,814.226536,3447.429741,9326.594869
1079.942209,-1924.535449,4979.620737,11917.315666
1079.942538,-4293.194464,4903.011187,12657.521608
1079.942868,-4811.338623,2604.724693,13175.665768
1079.943197,-4441.235652,1225.752797,12065.356855
1079.943527,-2590.720797,-1072.533697,10881.027347
1079.943856,-740.205942,-3600.648841,9474.636058
1079.944186,-518.144159,-3983.696590,7105.977043
1079.944515,-814.226536,-2451.505594,5921.647536
1079.944845,444.123565,-459.657299,7031.956449
1079.945174,2294.638420,-536.266849,9548.656652
1079.945504,2738.761985,995.924147,11547.212695
1079.945833,1258.350101,1225.752797,12361.439231
1079.946163,-740.205942,1608.800546,13323.706956
1079.946492,-2368.659014,2221.676944,14211.954086
1079.946822,-3108.864956,2528.115143,15100.201217
1079.947151,-3256.906145,2451.505594,14063.912898
1079.947480,-1924.535449,229.828649,11177.109724
1079.947810,370.102971,-2451.505594,8364.327145
1079.948139,1628.453072,-3830.477490,5921.647536
1079.948469,1554.432478,-2987.772442,4811.338623
1079.948798,1036.288319,-1762.019645,5699.585753
1079.949128,814.226536,76.609550,8364.327145
1079.949457,-1036.288319,2528.115143,11251.130318
1079.949787,-3627.009116,4596.572988,12139.377449
1079.950116,-5477.523971,3753.867940,12287.418637
1079.950446,-4589.276840,2298.286494,11843.295072
1079.950775,-4293.194464,1455.581446,11177.109724
1079.951105,-3701.029710,229.828649,9326.594869
1079.951434,-1850.514855,-1532.190996,7846.182985
1079.951764,-1184.329507,-1915.238745,4737.318029
1079.952093,74.020594,0.000000,3701.029710
1079.952423,1110.308913,536.266849,4219.173869
1079.952752,2590.720797,229.828649,5477.523971
1079.953082,3034.844362,842.705048,8808.450710
1079.953411,1110.308913,2451.505594,11473.192101
1079.953741,-1850.514855,4749.792088,12139.377449
1079.954070,-4145.153275,3830.477490,12657.521608
1079.954400,-4145.153275,3140.991542,13249.686362
1079.954729,-3330.926739,1991.848295,12139.377449
1079.955059,-1036.288319,-383.047749,10732.986159
1079.955388,1184.329507,-2528.115143,8438.347739
1079.955718,962.267725,-2451.505594,5477.523971
1079.956047,370.102971,0.000000,3923.091493
1079.956377,1406.391290,76.609550,4885.359217
1079.956706,3997.112087,-153.219100,7105.977043
1079.957036,3404.947333,1302.362347,10362.883188
1079.957365,0.000000,3907.087040,12731.542202
1079.957695,-3997.112087,4519.963438,13545.768739
1079.958024,-4959.379811,2987.772442,15174.221811
1079.958354,-4885.359217,2451.505594,15248.242405
1079.958683,-4515.256246,1455.581446,13175.665768
1079.959013,-1776.494261,-1915.238745,10658.965565
1079.959342,-148.041188,-3600.648841,7550.100608
1079.959672,148.041188,-2145.067394,5181.441594
1079.960001,1258.350101,0.000000,5255.462188
1079.960330,2220.617826,0.000000,7846.182985
1079.960660,1850.514855,2298.286494,10140.821405
1079.960989,74.020594,4826.401637,11769.274478
1079.961319,-2294.638420,5362.668486,11917.315666
1079.961648,-2812.782580,2451.505594,11251.130318
1079.961978,-2664.741391,459.657299,12287.418637
1079.962307,-2960.823768,1378.971896,12509.480420
1079.962637,-3034.844362,1532.190996,11103.089130
1079.962966,-2516.700203,459.657299,7920.203579
1079.963296,-1628.453072,-842.705048,4293.194464
1079.963625,1036.288319,-1455.581446,2664.741391
1079.963955,2886.803174,-2298.286494,3627.009116
1079.964284,3404.947333,-459.657299,4663.297435
1079.964614,2220.617826,1455.581446,7402.059420
1079.964943,-1036.288319,3907.087040,11029.068536
1079.965273,-4515.256246,5515.887586,12213.398043
1079.965602,-5699.585753,3677.258390,12805.562797
1079.965932,-5477.523971,1915.238745,12361.439231
1079.966261,-3997.112087,1225.752797,11473.192101
1079.966591,-1332.370696,-1149.143247,9104.533087
1079.966920,-148.041188,-4903.011187,5921.647536
1079.967250,-74.020594,-5515.887586,3923.091493
1079.967579,0.000000,-1685.410096,5329.482782
1079.967909,1406.391290,383.047749,7698.141797
1079.968238,2368.659014,1608.800546,9696.697840
1079.968568,1998.556043,1225.752797,11917.315666
1079.968897,814.226536,766.095498,13693.809927
1079.969227,-1480.411884,1532.190996,15100.201217
1079.969556,-2960.823768,2528.115143,16136.489536
1079.969886,-3775.050304,2068.457845,14952.160028
1079.970215,-1850.514855,0.000000,12953.603985
1079.970545,666.185348,-3140.991542,11103.089130
1079.970874,1702.473667,-3677.258390,7994.224174
1079.971204,1628.453072,-1685.410096,5477.523971
1079.971533,2664.741391,-612.876398,5033.400406
1079.971863,3182.885551,0.000000,7328.038826
1079.972192,1998.556043,1455.581446,10584.944971
1079.972521,-740.205942,4596.572988,13175.665768
1079.972851,-3034.844362,4903.011187,11917.315666
1079.973180,-4145.153275,2681.334243,11769.274478
1079.973510,-4589.276840,1532.190996,12657.521608
1079.973839,-5329.482782,842.705048,12731.542202
1079.974169,-5477.523971,459.657299,10436.903782
1079.974498,-4293.194464,0.000000,6661.853478
1079.974828,-2368.659014,-153.219100,2812.782580
1079.975157,444.123565,-1378.971896,962.267725
1079.975487,3182.885551,-1991.848295,2590.720797
1079.975816,3775.050304,0.000000,5107.421000
1079.976146,2072.576638,3370.820191,8586.388927
1079.976475,-1258.350101,8580.269578,11251.130318
1079.976805,-4071.132681,8503.660028,12213.398043
1079.977134,-4441.235652,3370.820191,13323.706956
1079.977464,-3849.070898,1991.848295,13101.645173
1079.977793,-2442.679609,1455.581446,11991.336260
1079.978123,-444.123565,-306.438199,9622.677246
1079.978452,-296.082377,-2681.334243,6217.729913
1079.978782,-444.123565,-2834.553343,4219.173869
1079.979111,814.226536,-1378.971896,5477.523971
1079.979441,2220.617826,306.438199,7476.080014
1079.979770,3182.885551,2987.772442,8586.388927
1079.980100,1776.494261,2987.772442,11029.068536
1079.980429,-740.205942,2145.067394,12657.521608
1079.980759,-2590.720797,2221.676944,15026.180623
1079.981088,-3849.070898,3140.991542,15692.365970
1079.981418,-4441.235652,3830.477490,14063.912898
1079.981747,-2960.823768,0.000000,11547.212695
1079.982077,-962.267725,-3064.381992,9844.739029
1079.982406,-222.061783,-4060.306139,7254.018232
1079.982736,444.123565,-2221.676944,5255.462188
1079.983065,1332.370696,-689.485948,6365.771101
1079.983395,2960.823768,842.705048,7402.059420
1079.983724,2812.782580,1608.800546,10584.944971
1079.984054,0.000000,2451.505594,12287.418637
1079.984383,-2664.741391,4290.134789,12509.480420
1079.984713,-3701.029710,4673.182538,13249.686362
1079.985042,-3701.029710,3600.648841,13841.851115
1079.985371,-2960.823768,1991.848295,12731.542202
1079.985701,-1850.514855,-1685.410096,9844.739029
1079.986030,-740.205942,-3217.601092,5847.626942
1079.986360,-148.041188,-2451.505594,2886.803174
1079.986689,740.205942,-1762.019645,2738.761985
1079.987019,2960.823768,-383.047749,5033.400406
1079.987348,2812.782580,1455.581446,7994.224174
1079.987678,592.164754,3983.696590,9622.677246
1079.988007,-2146.597232,5669.106685,10510.924376
1079.988337,-3256.906145,4213.525239,11621.233289
1079.988666,-3923.091493,2528.115143,12657.521608
1079.988996,-4145.153275,1302.362347,12583.501014
1079.989325,-3034.844362,383.047749,11325.150913
1079.989655,-1480.411884,-1991.848295,8808.450710
1079.989984,-1924.535449,-2987.772442,5699.585753
1079.990314,-1554.432478,-2604.724693,3627.009116
1079.990643,0.000000,-1608.800546,5773.606348
1079.990973,2072.576638,766.095498,7031.956449
1079.991302,2664.741391,2604.724693,8586.388927
1079.991632,1258.350101,2221.676944,10732.986159
1079.991961,-1258.350101,1378.971896,12657.521608
1079.992291,-3627.009116,2298.286494,15026.180623
1079.992620,-4219.173869,3677.258390,15618.345376
1079.992950,-3775.050304,2757.943793,14656.077652
1079.993279,-1702.473667,-153.219100,12509.480420
1079.993609,-148.041188,-3447.429741,9474.636058
1079.993938,888.247130,-4749.792088,6735.874072
1079.994268,1850.514855,-2451.505594,5625.565159
1079.994597,2886.803174,383.047749,6735.874072
1079.994927,3478.967927,2068.457845,8586.388927
1079.995256,1850.514855,3217.601092,11621.233289
1079.995586,-148.041188,4596.572988,12657.521608
1079.995915,-2664.741391,4903.011187,12657.521608
1079.996245,-2886.803174,4596.572988,12509.480420
1079.996574,-2886.803174,3064.381992,12731.542202
1079.996904,-2442.679609,1072.533697,11769.274478
1079.997233,-2294.638420,-1072.533697,9326.594869
1079.997563,-2368.659014,-1225.752797,4959.379811
1079.997892,-1998.556043,-459.657299,2516.700203
1079.998221,-296.082377,-229.828649,3330.926739
1079.998551,962.267725,1072.533697,5329.482782
1079.998880,518.144159,1915.238745,7402.059420
1079.999210,-1110.308913,4290.134789,8660.409521
1079.999539,-3849.070898,5515.887586,9400.615463
1079.999869,-4293.194464,4596.572988,11029.068536
1080.000198,-3775.050304,2604.724693,11991.336260
1080.000528,-3108.864956,2221.676944,11695.253884
1080.000857,-1332.370696,919.314598,9770.718434
1080.001187,-444.123565,-842.705048,7624.121203
1080.001516,-1258.350101,-2068.457845,6143.709319
1080.001846,-1554.432478,-995.924147,6439.791695
1080.002175,-370.102971,-459.657299,6439.791695
1080.002505,2072.576638,76.609550,7624.121203
1080.002834,2960.823768,1225.752797,9548.656652
1080.003164,1702.473667,1225.752797,11399.171507
1080.003493,-1184.329507,2068.457845,12583.501014
1080.003823,-2812.782580,2451.505594,13693.809927
1080.004152,-2664.741391,3447.429741,14211.954086
1080.004482,-1036.288319,3447.429741,13471.748144
1080.004811,740.205942,-1072.533697,11843.295072
1080.005141,444.123565,-3217.601092,9474.636058
1080.005470,-370.102971,-2987.772442,6365.771101
1080.005800,74.020594,-1685.410096,5847.626942
1080.006129,1554.432478,-383.047749,8068.244768
1080.006459,1998.556043,919.314598,10658.965565
1080.006788,-222.061783,2987.772442,12065.356855
1080.007118,-2664.741391,2987.772442,11325.150913
1080.007447,-3849.070898,2451.505594,10955.047942
1080.007777,-3404.947333,1915.238745,12139.377449
1080.008106,-3256.906145,1915.238745,12509.480420
1080.008436,-2812.782580,919.314598,11843.295072
1080.008765,-2072.576638,-612.876398,8808.450710
1080.009095,-1554.432478,-1915.238745,5477.523971
1080.009424,-740.205942,-1149.143247,4293.194464
1080.009753,148.041188,-766.095498,6143.709319
1080.010083,1480.411884,536.266849,8216.285956
1080.010412,518.144159,2604.724693,9844.739029
1080.010742,-1110.308913,4136.915689,9918.759623
1080.011071,-2368.659014,4136.915689,10214.842000
1080.011401,-2294.638420,4213.525239,11399.171507
1080.011730,-2368.659014,3294.210641,11103.089130
1080.012060,-1332.370696,2911.162892,10214.842000
1080.012389,0.000000,919.314598,8364.327145
1080.012719,0.000000,-1378.971896,6587.832884
1080.013048,-444.123565,-1378.971896,4663.297435
1080.013378,0.000000,-2374.896044,5551.544565
1080.013707,444.123565,0.000000,6661.853478
1080.014037,370.102971,1378.971896,8660.409521
1080.014366,-370.102971,2451.505594,11177.109724
1080.014696,-2368.659014,2374.896044,11843.295072
1080.015025,-3923.091493,2681.334243,12287.418637
1080.015355,-3627.009116,2528.115143,12879.583391
1080.015684,-3330.926739,2298.286494,11843.295072
1080.016014,-1480.411884,76.609550,10955.047942
1080.016343,0.000000,-2451.505594,9918.759623
1080.016673,-222.061783,-2528.115143,7846.182985
1080.017002,-444.123565,-1532.190996,6883.915261
1080.017332,0.000000,-1532.190996,7476.080014
1080.017661,1628.453072,0.000000,9844.739029
1080.017991,1036.288319,1072.533697,12139.377449
1080.018320,0.000000,1532.190996,13027.624579
1080.018650,-1480.411884,2298.286494,12435.459826
1080.018979,-2368.659014,2987.772442,12953.603985
1080.019309,-2516.700203,3370.820191,13101.645173
1080.019638,-1480.411884,3064.381992,12361.439231
1080.019967,0.000000,1225.752797,10066.800811
1080.020297,666.185348,-612.876398,6587.832884
1080.020626,740.205942,-1455.581446,3627.009116
1080.020956,814.226536,-1455.581446,4959.379811
1080.021285,888.247130,536.266849,6883.915261
1080.021615,-444.123565,1608.800546,8660.409521
1080.021944,-1998.556043,3753.867940,9918.759623
1080.022274,-3849.070898,4366.744339,11473.192101
1080.022603,-4663.297435,4749.792088,11399.171507
1080.022933,-4515.256246,3524.039291,11251.130318
1080.023262,-3775.050304,1685.410096,9992.780217
1080.023592,-2220.617826,1302.362347,8438.347739
1080.023921,-1480.411884,306.438199,7179.997637
1080.024251,-1332.370696,-612.876398,5921.647536
1080.024580,-1184.329507,-459.657299,4145.153275
1080.024910,148.041188,-689.485948,4811.338623
1080.025239,1332.370696,0.000000,7105.977043
1080.025569,1628.453072,1302.362347,10955.047942
1080.025898,74.020594,2528.115143,13027.624579
1080.026228,-2368.659014,3370.820191,12583.501014
1080.026557,-3108.864956,2145.067394,12657.521608
1080.026887,-2368.659014,2374.896044,13249.686362
1080.027216,-814.226536,2604.724693,12287.418637
1080.027546,1184.329507,0.000000,11103.089130
1080.027875,1998.556043,-1915.238745,8882.471304
1080.028205,740.205942,-1378.971896,5921.647536
1080.028534,370.102971,-995.924147,6291.750507
1080.028864,1406.391290,-1149.143247,7476.080014
1080.029193,1406.391290,-919.314598,9474.636058
1080.029522,296.082377,536.266849,11843.295072
1080.029852,-2368.659014,1762.019645,13471.748144
1080.030181,-4663.297435,2528.115143,13767.830521
1080.030511,-5033.400406,2451.505594,14211.954086
1080.030840,-4737.318029,2528.115143,13249.686362
1080.031170,-3034.844362,2451.505594,11769.274478
1080.031499,-1628.453072,-229.828649,9030.512492
1080.031829,-444.123565,-1532.190996,5625.565159
1080.032158,0.000000,-612.876398,4219.173869
1080.032488,1110.308913,-1302.362347,4219.173869
1080.032817,1332.370696,-842.705048,6809.894666
1080.033147,-296.082377,1378.971896,10140.821405
1080.033476,-2738.761985,3294.210641,12139.377449
1080.033806,-4885.359217,4290.134789,11769.274478
1080.034135,-4811.338623,2681.334243,11399.171507
1080.034465,-3330.926739,766.095498,11695.253884
1080.034794,-2516.700203,842.705048,10807.006753
1080.035124,-1184.329507,1608.800546,8882.471304
1080.035453,0.000000,153.219100,7105.977043
1080.035783,148.041188,0.000000,3478.967927
1080.036112,0.000000,459.657299,3552.988522
1080.036442,1258.350101,612.876398,4811.338623
1080.036771,2590.720797,383.047749,6957.935855
1080.037101,1924.535449,1532.190996,9252.574275
1080.037430,-814.226536,1762.019645,11177.109724
1080.037760,-3849.070898,1838.629195,12583.501014
1080.038089,-5699.585753,2145.067394,13767.830521
1080.038419,-4737.318029,2068.457845,14063.912898
1080.038748,-2294.638420,1072.533697,12435.459826
1080.039078,-148.041188,-1762.019645,10288.862594
1080.039407,370.102971,-3907.087040,7846.182985
1080.039736,-370.102971,-1991.848295,6143.709319
1080.040066,0.000000,459.657299,6661.853478
1080.040395,2516.700203,1149.143247,7772.162391
1080.040725,2960.823768,689.485948,10510.924376
1080.041054,1850.514855,153.219100,12435.459826
1080.041384,-2146.597232,612.876398,13471.748144
1080.041713,-4885.359217,2374.896044,13767.830521
1080.042043,-5403.503377,2911.162892,14359.995275
1080.042372,-4071.132681,2068.457845,13989.892304
1080.042702,-1628.453072,229.828649,11843.295072
1080.043031,666.185348,-919.314598,8734.430116
1080.043361,1628.453072,-1991.848295,5181.441594
1080.043690,1406.391290,-995.924147,2590.720797
1080.044020,2072.576638,229.828649,4589.276840
1080.044349,1924.535449,1225.752797,7624.121203
1080.044679,592.164754,3064.381992,10510.924376
1080.045008,-1850.514855,4213.525239,10732.986159
1080.045338,-3849.070898,3064.381992,10362.883188
1080.045667,-4293.194464,1149.143247,11621.233289
1080.045997,-4737.318029,1455.581446,12287.418637
1080.046326,-4515.256246,1915.238745,11029.068536
1080.046656,-1998.556043,612.876398,9178.553681
1080.046985,-1184.329507,-766.095498,6217.729913
1080.047315,-1480.411884,612.876398,4441.235652
1080.047644,0.000000,0.000000,3849.070898
1080.047974,1406.391290,-383.047749,5329.482782
1080.048303,1628.453072,1225.752797,7624.121203
1080.048633,-296.082377,3140.991542,11621.233289
1080.048962,-3256.906145,3600.648841,13027.624579
1080.049292,-5847.626942,2528.115143,12953.603985
1080.049621,-5477.523971,536.266849,12509.480420
1080.049950,-3330.926739,459.657299,11991.336260
1080.050280,-740.205942,-306.438199,11843.295072
1080.050609,1110.308913,-153.219100,11177.109724
1080.050939,444.123565,76.609550,6143.709319
1080.051268,1554.432478,-536.266849,3034.844362
1080.051598,4293.194464,-766.095498,4885.359217
1080.051927,5107.421000,2298.286494,7402.059420
1080.052257,3552.988522,3830.477490,10214.842000
1080.052586,444.123565,2681.334243,11399.171507
1080.052916,-3034.844362,1149.143247,11991.336260
1080.053245,-5255.462188,612.876398,14285.974681
1080.053575,-6069.688724,1225.752797,15692.365970
1080.053904,-6143.709319,1225.752797,13767.830521
1080.054234,-3997.112087,-459.657299,10214.842000
1080.054563,-1258.350101,-2987.772442,7698.141797
1080.054893,222.061783,-1915.238745,5255.462188
1080.055222,1110.308913,306.438199,5921.647536
1080.055552,2442.679609,1915.238745,5995.668130
1080.055881,2516.700203,2374.896044,7698.141797
1080.056211,1036.288319,3140.991542,10658.965565
1080.056540,-1850.514855,3677.258390,12509.480420
1080.056870,-3701.029710,3140.991542,13175.665768
1080.057199,-4293.194464,689.485948,13397.727550
1080.057529,-4219.173869,689.485948,13323.706956
1080.057858,-3701.029710,1072.533697,11917.315666
1080.058188,-2368.659014,0.000000,9178.553681
1080.058517,-888.247130,-689.485948,5255.462188
1080.058847,1184.329507,766.095498,2886.803174
1080.059176,3404.947333,76.609550,3404.947333
1080.059506,2886.803174,-383.047749,5033.400406
1080.059835,1332.370696,1149.143247,7920.203579
1080.060164,-2146.597232,3064.381992,10584.944971
1080.060494,-5033.400406,3753.867940,11769.274478
1080.060823,-6217.729913,2987.772442,12509.480420
1080.061153,-6365.771101,76.609550,13027.624579
1080.061482,-4663.297435,-1072.533697,12139.377449
1080.061812,-2664.741391,-2681.334243,9696.697840
1080.062141,-666.185348,-2987.772442,7846.182985
1080.062471,0.000000,-1685.410096,5255.462188
1080.062800,-296.082377,-842.705048,6143.709319
1080.063130,1480.411884,766.095498,7550.100608
1080.063459,3478.967927,1608.800546,9178.553681
1080.063789,4145.153275,1072.533697,10807.006753
1080.064118,1406.391290,306.438199,12139.377449
1080.064448,-2072.576638,842.705048,14211.954086
1080.064777,-3997.112087,1685.410096,15840.407159
1080.065107,-4441.235652,1838.629195,15470.304188
1080.065436,-3182.885551,1685.410096,13101.645173
1080.065766,-740.205942,-766.095498,9844.739029
1080.066095,814.226536,-2604.724693,7550.100608
1080.066425,2072.576638,-1762.019645,4737.318029
1080.066754,2664.741391,306.438199,4071.132681
1080.067084,3478.967927,842.705048,4885.359217
1080.067413,3108.864956,1685.410096,8290.306550
1080.067743,148.041188,4213.525239,11843.295072
1080.068072,-2960.823768,6052.154434,11917.315666
1080.068402,-4737.318029,4443.353888,12213.398043
1080.068731,-4885.359217,2298.286494,13027.624579
1080.069061,-5329.482782,2298.286494,13397.727550
1080.069390,-5181.441594,1225.752797,11547.212695
1080.069719,-4145.153275,-919.314598,7624.121203
1080.070049,-2368.659014,-766.095498,3478.967927
1080.070378,-740.205942,0.000000,1850.514855
1080.070708,1924.535449,-383.047749,3701.029710
1080.071037,3108.864956,612.876398,6661.853478
1080.071367,2072.576638,3217.601092,8216.285956
1080.071696,-1702.473667,5515.887586,9918.759623
1080.072026,-3997.112087,5056.230287,11621.233289
1080.072355,-4293.194464,3447.429741,13175.665768
1080.072685,-3330.926739,2374.896044,13841.851115
1080.073014,-1776.494261,1072.533697,11769.274478
1080.073344,-370.102971,-1225.752797,9548.656652
1080.073673,0.000000,-2298.286494,7105.977043
1080.074003,-444.123565,-1225.752797,5625.565159
1080.074332,296.082377,-766.095498,5107.421000
1080.074662,2294.638420,0.000000,6217.729913
1080.074991,4589.276840,383.047749,8068.244768
1080.075321,2960.823768,1302.362347,10955.047942
1080.075650,-962.267725,1685.410096,12435.459826
1080.075980,-4219.173869,1838.629195,13619.789333
1080.076309,-5181.441594,1608.800546,15322.262999
1080.076639,-5033.400406,2374.896044,15322.262999
1080.076968,-3775.050304,306.438199,13841.851115
1080.077298,-2220.617826,-2528.115143,10436.903782
1080.077627,-1110.308913,-4673.182538,6217.729913
1080.077957,0.000000,-4290.134789,4219.173869
1080.078286,2220.617826,-766.095498,6513.812290
1080.078616,3849.070898,919.314598,9474.636058
1080.078945,2442.679609,3753.867940,11621.233289
1080.079275,-296.082377,4903.011187,11769.274478
1080.079604,-1554.432478,3753.867940,11177.109724
1080.079933,-1628.453072,1991.848295,12435.459826
1080.080263,-2590.720797,1838.629195,14137.933492
1080.080592,-2886.803174,2145.067394,13101.645173
1080.080922,-2664.741391,0.000000,10214.842000
1080.081251,-1998.556043,-1991.848295,6587.832884
1080.081581,-1702.473667,-1455.581446,3627.009116
1080.081910,0.000000,-1302.362347,3108.864956
1080.082240,2146.597232,383.047749,5329.482782
1080.082569,2812.782580,2145.067394,6883.915261
1080.082899,1258.350101,3983.696590,7994.224174
1080.083228,-1554.432478,4903.011187,9252.574275
1080.083558,-3404.947333,4673.182538,10807.006753
1080.083887,-4367.215058,4673.182538,12065.356855
1080.084217,-4293.194464,3600.648841,12287.418637
1080.084546,-3330.926739,1378.971896,10881.027347
1080.084876,-2664.741391,-2221.676944,8290.306550
1080.085205,-2960.823768,-4136.915689,5625.565159
1080.085535,-2516.700203,-3217.601092,4515.256246
1080.085864,-444.123565,-1072.533697,5625.565159
1080.086194,1480.411884,0.000000,6661.853478
1080.086523,3182.885551,1455.581446,9474.636058
1080.086853,2442.679609,2834.553343,12657.521608
1080.087182,74.020594,3217.601092,13619.789333
1080.087512,-1850.514855,4060.306139,13841.851115
1080.087841,-2516.700203,3447.429741,15026.180623
1080.088171,-2146.597232,2987.772442,14804.118840
1080.088500,-1110.308913,995.924147,13767.830521
1080.088830,518.144159,-2834.553343,10288.862594
1080.089159,74.020594,-3677.258390,6439.791695
1080.089489,0.000000,-2145.067394,5921.647536
1080.089818,1628.453072,0.000000,7624.121203
1080.090147,3034.844362,536.266849,9252.574275
1080.090477,2738.761985,1991.848295,10436.903782
1080.090806,0.000000,3140.991542,10436.903782
1080.091136,-2738.761985,3677.258390,11029.068536
1080.091465,-3627.009116,3907.087040,12583.501014
1080.091795,-3923.091493,3753.867940,13693.809927
1080.092124,-3997.112087,3217.601092,11843.295072
1080.092454,-3775.050304,229.828649,8290.306550
1080.092783,-3034.844362,-2221.676944,6217.729913
1080.093113,-2516.700203,-1455.581446,3552.988522
1080.093442,-1036.288319,-995.924147,3108.864956
1080.093772,1332.370696,-1149.143247,4737.318029
1080.094101,1998.556043,1302.362347,7550.100608
1080.094431,0.000000,4290.134789,10732.986159
1080.094760,-2812.782580,5975.544884,11103.089130
1080.095090,-3108.864956,5056.230287,10510.924376
1080.095419,-1998.556043,2604.724693,11177.109724
1080.095749,-444.123565,2221.676944,11991.336260
1080.096078,-222.061783,919.314598,11177.109724
1080.096408,74.020594,-689.485948,8808.450710
1080.096737,-1110.308913,-1915.238745,5181.441594
1080.097067,-1628.453072,-2298.286494,3997.112087
1080.097396,814.226536,-1532.190996,6439.791695
1080.097726,2516.700203,0.000000,9400.615463
1080.098055,3108.864956,2451.505594,10732.986159
1080.098385,1258.350101,2528.115143,10288.862594
1080.098714,-1036.288319,842.705048,10658.965565
1080.099044,-2886.803174,766.095498,13101.645173
1080.099373,-3849.070898,3447.429741,15248.242405
1080.099703,-2738.761985,4596.572988,14878.139434
1080.100032,-2072.576638,1378.971896,11621.233289
1080.100361,-1554.432478,-3677.258390,7994.224174
1080.100691,-1332.370696,-6052.154434,6143.709319
1080.101020,-148.041188,-4443.353888,7476.080014
1080.101350,592.164754,-766.095498,8882.471304
1080.101679,888.247130,1455.581446,10362.883188
1080.102009,-592.164754,2298.286494,12139.377449
1080.102338,-2072.576638,3600.648841,13545.768739
1080.102668,-2738.761985,5362.668486,13397.727550
1080.102997,-1554.432478,5515.887586,12657.521608
1080.103327,-814.226536,3983.696590,10881.027347
1080.103656,-740.205942,1915.238745,9696.697840
1080.103986,-444.123565,-1072.533697,7772.162391
1080.104315,-888.247130,-2374.896044,4737.318029
1080.104645,-962.267725,-995.924147,2960.823768
1080.104974,0.000000,612.876398,4663.297435
1080.105304,444.123565,0.000000,7105.977043
1080.105633,222.061783,1072.533697,10066.800811
1080.105963,-1258.350101,3600.648841,10510.924376
1080.106292,-2664.741391,5056.230287,9178.553681
1080.106622,-3034.844362,4673.182538,9696.697840
1080.106951,-2442.679609,3370.820191,10140.821405
1080.107280,-1258.350101,2757.943793,10658.965565
1080.107610,-740.205942,919.314598,9252.574275
1080.107939,-888.247130,0.000000,6883.915261
1080.108269,-2368.659014,-1455.581446,4589.276840
1080.108598,-1924.535449,-1378.971896,5995.668130
1080.108928,-370.102971,-1532.190996,7920.203579
1080.109257,962.267725,-306.438199,9252.574275
1080.109587,962.267725,1225.752797,11177.109724
1080.109916,-962.267725,1915.238745,13545.768739
1080.110246,-3552.988522,3524.039291,14359.995275
1080.110575,-4441.235652,4290.134789,14804.118840
1080.110905,-2368.659014,2834.553343,13397.727550
1080.111234,148.041188,1225.752797,11399.171507
1080.111564,1332.370696,-1915.238745,9474.636058
1080.111893,370.102971,-3064.381992,6883.915261
1080.112223,-592.164754,-2987.772442,5477.523971
1080.112552,888.247130,-1991.848295,6809.894666
1080.112882,2738.761985,153.219100,9918.759623
1080.113211,2294.638420,2298.286494,12139.377449
1080.113541,296.082377,2757.943793,13323.706956
1080.113870,-2368.659014,2834.553343,11769.274478
1080.114200,-2886.803174,3370.820191,11695.253884
1080.114529,-1924.535449,3064.381992,12657.521608
1080.114859,-1924.535449,2987.772442,11769.274478
1080.115188,-1480.411884,1838.629195,9696.697840
1080.115518,-1110.308913,-1072.533697,6143.709319
1080.115847,-1332.370696,-2911.162892,2886.803174
1080.116177,-1184.329507,-2987.772442,3182.885551
1080.116506,0.000000,-1762.019645,6513.812290
1080.116836,370.102971,1302.362347,9326.594869
1080.117165,-1110.308913,3217.601092,10584.944971
1080.117495,-2886.803174,3600.648841,10436.903782
1080.117824,-3627.009116,3677.258390,11251.130318
1080.118154,-3478.967927,4213.525239,12731.542202
1080.118483,-2220.617826,4443.353888,12583.501014
1080.118813,-1332.370696,3140.991542,9474.636058
1080.119142,148.041188,-995.924147,6883.915261
1080.119472,0.000000,-3140.991542,5403.503377
1080.119801,-888.247130,-2145.067394,4515.256246
1080.120131,-444.123565,-612.876398,5625.565159
1080.120460,1850.514855,0.000000,6809.894666
1080.120790,2442.679609,766.095498,9622.677246
1080.121119,592.164754,1991.848295,11695.253884
1080.121449,-2220.617826,1915.238745,11695.253884
1080.121778,-2664.741391,1838.629195,12065.356855
1080.122108,-1850.514855,2145.067394,12731.542202
1080.122437,-1702.473667,2604.724693,12139.377449
1080.122767,-962.267725,-766.095498,10658.965565
1080.123096,-814.226536,-4519.963438,8660.409521
1080.123425,-1406.391290,-3600.648841,6365.771101
1080.123755,-1406.391290,-1608.800546,6069.688724
1080.124084,666.185348,-2604.724693,8142.265362
1080.124414,1628.453072,-2298.286494,10436.903782
1080.124743,0.000000,-229.828649,11991.336260
1080.125073,-2368.659014,1608.800546,13619.789333
1080.125402,-4071.132681,2757.943793,14211.954086
1080.125732,-3849.070898,3524.039291,15026.180623
1080.126061,-3923.091493,2451.505594,13767.830521
1080.126391,-2368.659014,-919.314598,10658.965565
1080.126720,222.061783,-4903.011187,7698.141797
1080.127050,1184.329507,-5975.544884,4589.276840
1080.127379,0.000000,-4596.572988,2960.823768
1080.127709,370.102971,-3983.696590,4959.379811
1080.128038,1628.453072,-2451.505594,8882.471304
1080.128368,1406.391290,76.609550,11029.068536
1080.128697,222.061783,2528.115143,12435.459826
1080.129027,-888.247130,2298.286494,12657.521608
1080.129356,-1480.411884,2451.505594,13027.624579
1080.129686,-2294.638420,2604.724693,12361.439231
1080.130015,-2294.638420,1072.533697,10214.842000
1080.130345,-962.267725,-1302.362347,7328.038826
1080.130674,-222.061783,-3753.867940,4959.379811
1080.131004,-444.123565,-5209.449386,2590.720797
1080.131333,-1036.288319,-5592.497135,2516.700203
1080.131663,-962.267725,-6971.469032,3923.091493
1080.131992,-1110.308913,-5439.278036,6217.729913
1080.132322,-1776.494261,-3600.648841,9548.656652
1080.132651,-2368.659014,-1608.800546,12953.603985
1080.132981,-2368.659014,-689.485948,15174.221811
1080.133310,-3775.050304,766.095498,15988.448347
1080.133640,-4811.338623,2221.676944,16358.551318
1080.133969,-4441.235652,1915.238745,14952.160028
1080.134299,-2960.823768,306.438199,11843.295072
1080.134628,0.000000,-4443.353888,7179.997637
1080.134958,2072.576638,-8427.050478,4145.153275
1080.135287,2960.823768,-7431.126331,3404.947333
