#time,accel_x,accel_y,accel_z
1020.684592,-1036.288319,995.924147,9400.615463
1020.684921,-962.267725,995.924147,9104.533087
1020.685251,-962.267725,995.924147,8956.491898
1020.685580,-1184.329507,842.705048,9178.553681
1020.685910,-962.267725,842.705048,9622.677246
1020.686239,-888.247130,842.705048,9548.656652
1020.686569,-962.267725,919.314598,9474.636058
1020.686898,-962.267725,1149.143247,9326.594869
1020.687227,-962.267725,1072.533697,9474.636058
1020.687557,-1036.288319,919.314598,9400.615463
1020.687886,-962.267725,842.705048,9326.594869
1020.688216,-962.267725,1072.533697,9474.636058
1020.688545,-888.247130,1149.143247,9918.759623
1020.688874,-1036.288319,1149.143247,9474.636058
1020.689204,-1184.329507,842.705048,9474.636058
1020.689533,-962.267725,1072.533697,9548.656652
1020.689863,-962.267725,995.924147,9622.677246
1020.690192,-1480.411884,1149.143247,9400.615463
1020.690522,-666.185348,919.314598,9622.677246
1020.690851,-962.267725,919.314598,9548.656652
1020.691180,-962.267725,919.314598,9474.636058
1020.691510,-1036.288319,689.485948,9622.677246
1020.691839,-1184.329507,842.705048,9474.636058
1020.692169,-740.205942,1149.143247,9474.636058
1020.692498,-1036.288319,842.705048,9474.636058
1020.692827,-1110.308913,919.314598,9474.636058
1020.693157,-962.267725,842.705048,9474.636058
1020.693486,-1110.308913,919.314598,9696.697840
1020.693816,-962.267725,1302.362347,9252.574275
1020.694145,-1110.308913,1072.533697,9474.636058
1020.694474,-962.267725,842.705048,9622.677246
1020.694804,-962.267725,919.314598,9474.636058
1020.695133,-1036.288319,995.924147,9474.636058
1020.695463,-888.247130,1302.362347,9548.656652
1020.695792,-888.247130,919.314598,9104.533087
1020.696122,-1036.288319,1072.533697,9622.677246
1020.696451,-1184.329507,766.095498,9474.636058
1020.696780,-1036.288319,842.705048,9474.636058
1020.697110,-1110.308913,689.485948,9474.636058
1020.697439,-888.247130,995.924147,9030.512492
1020.697769,-962.267725,1072.533697,9400.615463
1020.698098,-1184.329507,919.314598,9548.656652
1020.698427,-962.267725,995.924147,9474.636058
1020.698757,-1036.288319,689.485948,9622.677246
1020.699086,-444.123565,1072.533697,9474.636058
1020.699416,-888.247130,919.314598,9548.656652
1020.699745,-1036.288319,919.314598,9548.656652
1020.700075,-1184.329507,919.314598,9548.656652
1020.700404,-1110.308913,766.095498,9474.636058
1020.700733,-1110.308913,1149.143247,8956.491898
1020.701063,-962.267725,766.095498,9326.594869
1020.701392,-888.247130,689.485948,9474.636058
1020.701722,-888.247130,766.095498,9696.697840
1020.702051,-1184.329507,919.314598,9548.656652
1020.702380,-1184.329507,1225.752797,9400.615463
1020.702710,-1480.411884,612.876398,9252.574275
1020.703039,-1036.288319,1225.752797,9622.677246
1020.703369,-1110.308913,842.705048,9548.656652
1020.703698,-888.247130,919.314598,9770.718434
1020.704028,-1036.288319,995.924147,9622.677246
1020.704357,-888.247130,842.705048,9400.615463
1020.704686,-1184.329507,1149.143247,9474.636058
1020.705016,-962.267725,689.485948,9622.677246
1020.705345,-1036.288319,842.705048,9770.718434
1020.705675,-962.267725,842.705048,9696.697840
1020.706004,-1110.308913,766.095498,9104.533087
1020.706333,-1184.329507,766.095498,9622.677246
1020.706663,-1110.308913,842.705048,9474.636058
1020.706992,-444.123565,842.705048,9030.512492
1020.707322,296.082377,766.095498,9030.512492
1020.707651,1184.329507,153.219100,9474.636058
1020.707981,814.226536,536.266849,9252.574275
1020.708310,592.164754,919.314598,9252.574275
1020.708639,222.061783,1072.533697,9770.718434
1020.708969,-296.082377,1302.362347,10140.821405
1020.709298,-666.185348,766.095498,10214.842000
1020.709628,-592.164754,229.828649,10362.883188
1020.709957,-444.123565,-153.219100,9474.636058
1020.710286,148.041188,76.609550,9400.615463
1020.710616,1110.308913,0.000000,9252.574275
1020.710945,2146.597232,459.657299,9104.533087
1020.711275,2960.823768,536.266849,8956.491898
1020.711604,3701.029710,1378.971896,9252.574275
1020.711933,3627.009116,1762.019645,9252.574275
1020.712263,3552.988522,1762.019645,9548.656652
1020.712592,3330.926739,1532.190996,10066.800811
1020.712922,2516.700203,1225.752797,9992.780217
1020.713251,1850.514855,612.876398,10510.924376
1020.713581,1406.391290,306.438199,10807.006753
1020.713910,1628.453072,-306.438199,10584.944971
1020.714239,1924.535449,0.000000,9844.739029
1020.714569,2368.659014,-153.219100,9400.615463
1020.714898,3330.926739,-229.828649,9400.615463
1020.715228,3997.112087,842.705048,9104.533087
1020.715557,4071.132681,1991.848295,9474.636058
1020.715886,3552.988522,2528.115143,9844.739029
1020.716216,2368.659014,2911.162892,10214.842000
1020.716545,962.267725,2911.162892,10066.800811
1020.716875,-888.247130,1991.848295,10066.800811
1020.717204,-2146.597232,1455.581446,9252.574275
1020.717534,-1406.391290,0.000000,8438.347739
1020.717863,370.102971,-1149.143247,7402.059420
1020.718192,1998.556043,-1608.800546,6957.935855
1020.718522,3775.050304,-766.095498,6365.771101
1020.718851,4441.235652,383.047749,7179.997637
1020.719181,3923.091493,2298.286494,8586.388927
1020.719510,2812.782580,4366.744339,10436.903782
1020.719839,1554.432478,4903.011187,11547.212695
1020.720169,518.144159,3600.648841,12361.439231
1020.720498,-592.164754,2374.896044,12509.480420
1020.720828,-1332.370696,153.219100,11917.315666
1020.721157,-1924.535449,-1762.019645,10955.047942
1020.721487,-1480.411884,-2911.162892,10066.800811
1020.721816,-666.185348,-2604.724693,9326.594869
1020.722145,1036.288319,-1838.629195,8586.388927
1020.722475,2886.803174,-1072.533697,8142.265362
1020.722804,4145.153275,0.000000,7402.059420
1020.723134,4589.276840,1838.629195,7550.100608
1020.723463,4959.379811,3064.381992,8586.388927
1020.723792,4441.235652,3983.696590,9548.656652
1020.724122,3849.070898,4136.915689,10436.903782
1020.724451,2812.782580,3140.991542,10955.047942
1020.724781,1850.514855,1762.019645,11251.130318
1020.725110,814.226536,919.314598,10732.986159
1020.725440,-444.123565,-536.266849,10140.821405
1020.725769,-296.082377,-1149.143247,10214.842000
1020.726098,-222.061783,-1149.143247,10362.883188
1020.726428,-148.041188,-689.485948,10140.821405
1020.726757,-370.102971,-229.828649,9696.697840
1020.727087,1036.288319,0.000000,9030.512492
1020.727416,1924.535449,459.657299,8660.409521
1020.727745,3108.864956,919.314598,9030.512492
1020.728075,3478.967927,536.266849,8734.430116
1020.728404,3849.070898,612.876398,8438.347739
1020.728734,3775.050304,689.485948,8734.430116
1020.729063,3182.885551,995.924147,9030.512492
1020.729392,2146.597232,1532.190996,10066.800811
1020.729722,1628.453072,1915.238745,10584.944971
1020.730051,1332.370696,1608.800546,10214.842000
1020.730381,1776.494261,2221.676944,9844.739029
1020.730710,2220.617826,2374.896044,9030.512492
1020.731040,3404.947333,1378.971896,9178.553681
1020.731369,3552.988522,995.924147,8364.327145
1020.731698,3256.906145,1149.143247,8364.327145
1020.732028,2442.679609,1378.971896,8586.388927
1020.732357,1850.514855,1915.238745,9474.636058
1020.732687,1110.308913,995.924147,9918.759623
1020.733016,0.000000,306.438199,9844.739029
1020.733345,-444.123565,-229.828649,9770.718434
1020.733675,-444.123565,-459.657299,10288.862594
1020.734004,-814.226536,153.219100,10658.965565
1020.734334,-814.226536,536.266849,10214.842000
1020.734663,-296.082377,689.485948,9622.677246
1020.734993,1554.432478,842.705048,9030.512492
1020.735322,3552.988522,1608.800546,8068.244768
1020.735651,5847.626942,2298.286494,7476.080014
1020.735981,7846.182985,2374.896044,7994.224174
1020.736310,7994.224174,2987.772442,8882.471304
1020.736640,6513.812290,3830.477490,10066.800811
1020.736969,4441.235652,4213.525239,11399.171507
1020.737298,2294.638420,2911.162892,13175.665768
1020.737628,0.000000,1838.629195,14359.995275
1020.737957,-3108.864956,536.266849,13767.830521
1020.738287,-5329.482782,-1225.752797,12213.398043
1020.738616,-5921.647536,-2528.115143,10510.924376
1020.738946,-4663.297435,-2604.724693,8216.285956
1020.739275,-1924.535449,-2757.943793,4589.276840
1020.739604,3997.112087,-3140.991542,2072.576638
1020.739934,9030.512492,-2451.505594,2368.659014
1020.740263,11177.109724,1685.410096,4589.276840
1020.740593,10362.883188,5975.544884,6735.874072
1020.740922,8438.347739,7660.954980,8808.450710
1020.741251,5625.565159,8580.269578,11917.315666
1020.741581,296.082377,8350.440928,15174.221811
1020.741910,-4589.276840,4060.306139,17468.860231
1020.742240,-8216.285956,689.485948,16580.613101
1020.742569,-9326.594869,-2221.676944,13915.871710
1020.742899,-6957.935855,-5439.278036,10732.986159
1020.743228,-2146.597232,-8427.050478,8142.265362
1020.743557,2590.720797,-8886.707777,4737.318029
1020.743887,7031.956449,-5439.278036,1258.350101
1020.744216,11399.171507,-2145.067394,2072.576638
1020.744546,13249.686362,2604.724693,6143.709319
1020.744875,11251.130318,8273.831378,10362.883188
1020.745204,5773.606348,10035.851024,13101.645173
1020.745534,1036.288319,10418.898773,14137.933492
1020.745863,-592.164754,6511.811733,14952.160028
1020.746193,-740.205942,1762.019645,15026.180623
1020.746522,-1480.411884,-2987.772442,12287.418637
1020.746851,-2368.659014,-7124.688131,7994.224174
1020.747181,-740.205942,-8120.612279,5625.565159
1020.747510,1924.535449,-6588.421283,6365.771101
1020.747840,2590.720797,-2451.505594,7550.100608
1020.748169,1850.514855,536.266849,8956.491898
1020.748499,74.020594,3217.601092,8956.491898
1020.748828,0.000000,6281.983084,10140.821405
1020.749157,370.102971,5822.325785,11991.336260
1020.749487,148.041188,4290.134789,12287.418637
1020.749816,-962.267725,612.876398,11177.109724
1020.750146,-2516.700203,-2068.457845,10066.800811
1020.750475,-3478.967927,-2757.943793,9474.636058
1020.750804,-3182.885551,-3600.648841,8808.450710
1020.751134,-1998.556043,-3983.696590,7254.018232
1020.751463,888.247130,-2987.772442,6957.935855
1020.751793,4811.338623,-536.266849,7994.224174
1020.752122,6809.894666,2068.457845,7920.203579
1020.752452,6957.935855,4366.744339,7402.059420
1020.752781,4959.379811,5592.497135,8734.430116
1020.753111,2812.782580,6894.859482,12805.562797
1020.753440,0.000000,7814.174080,15618.345376
1020.753770,-3849.070898,5669.106685,14878.139434
1020.754099,-6069.688724,1991.848295,12139.377449
1020.754429,-7550.100608,-3064.381992,9622.677246
1020.754759,-6735.874072,-5592.497135,9178.553681
1020.755088,-3997.112087,-5898.935335,8068.244768
1020.755418,-2294.638420,-3753.867940,6735.874072
1020.755748,-1998.556043,-1685.410096,5477.523971
1020.756077,-1776.494261,612.876398,5847.626942
1020.756407,-148.041188,3447.429741,7402.059420
1020.756737,1998.556043,4903.011187,8660.409521
1020.757066,3627.009116,6894.859482,8956.491898
1020.757396,3923.091493,6971.469032,9326.594869
1020.757725,3923.091493,3983.696590,9992.780217
1020.758055,2294.638420,1378.971896,11843.295072
1020.758385,-1036.288319,1991.848295,12731.542202
1020.758714,-3997.112087,3524.039291,12879.583391
1020.759044,-4737.318029,3830.477490,12361.439231
1020.759374,-2812.782580,995.924147,10510.924376
1020.759703,-1110.308913,-1532.190996,7402.059420
1020.760033,370.102971,-2221.676944,5921.647536
1020.760362,1850.514855,-536.266849,6365.771101
1020.760692,1110.308913,1762.019645,8586.388927
1020.761022,-1924.535449,4060.306139,9178.553681
1020.761351,-3775.050304,3983.696590,8290.306550
1020.761681,-2146.597232,1149.143247,8216.285956
1020.762011,296.082377,-766.095498,8660.409521
1020.762340,1554.432478,0.000000,8290.306550
1020.762670,2368.659014,-459.657299,7920.203579
1020.763000,2812.782580,-689.485948,8290.306550
1020.763329,1554.432478,76.609550,9474.636058
1020.763659,-1036.288319,1991.848295,11547.212695
1020.763988,-2220.617826,4060.306139,13027.624579
1020.764318,-2294.638420,4596.572988,13323.706956
1020.764648,-2960.823768,2834.553343,12065.356855
1020.764977,-3404.947333,459.657299,10807.006753
1020.765307,-2738.761985,-1302.362347,9844.739029
1020.765637,-2294.638420,-2987.772442,9622.677246
1020.765966,-4515.256246,-3600.648841,9770.718434
1020.766296,-6365.771101,-995.924147,8956.491898
1020.766625,-5255.462188,-1455.581446,8142.265362
1020.766955,-1406.391290,-3370.820191,8068.244768
1020.767285,1332.370696,-1225.752797,7624.121203
1020.767614,2960.823768,842.705048,6957.935855
1020.767944,5181.441594,536.266849,8290.306550
1020.768274,4367.215058,1685.410096,10510.924376
1020.768603,592.164754,4290.134789,12361.439231
1020.768933,-3108.864956,6205.373534,13323.706956
1020.769262,-3478.967927,3983.696590,13915.871710
1020.769592,-3627.009116,1378.971896,13471.748144
1020.769922,-3997.112087,-689.485948,11103.089130
1020.770251,-3330.926739,-3370.820191,9030.512492
1020.770581,-2294.638420,-3907.087040,7846.182985
1020.770911,-2664.741391,-2987.772442,7624.121203
1020.771240,-3701.029710,0.000000,7402.059420
1020.771570,-3256.906145,2451.505594,6291.750507
1020.771900,-518.144159,1302.362347,5625.565159
1020.772229,1110.308913,1532.190996,6069.688724
1020.772559,1184.329507,2757.943793,7105.977043
1020.772888,740.205942,2604.724693,8512.368333
1020.773218,666.185348,2298.286494,10881.027347
1020.773548,-1850.514855,2681.334243,12731.542202
1020.773877,-4071.132681,4290.134789,12953.603985
1020.774207,-3330.926739,2911.162892,11843.295072
1020.774537,-740.205942,0.000000,9326.594869
1020.774866,814.226536,-995.924147,8216.285956
1020.775196,1554.432478,612.876398,8142.265362
1020.775525,2590.720797,919.314598,9474.636058
1020.775855,2368.659014,1532.190996,10214.842000
1020.776185,296.082377,3753.867940,9252.574275
1020.776514,-962.267725,3677.258390,7402.059420
1020.776844,1110.308913,1302.362347,7994.224174
1020.777174,3034.844362,76.609550,8512.368333
1020.777503,2738.761985,919.314598,8364.327145
1020.777833,2368.659014,1072.533697,8142.265362
1020.778162,2442.679609,1685.410096,8364.327145
1020.778492,1998.556043,1762.019645,10214.842000
1020.778822,-592.164754,2834.553343,11769.274478
1020.779151,-2886.803174,4366.744339,11843.295072
1020.779481,-3552.988522,3370.820191,11325.150913
1020.779811,-3182.885551,1455.581446,10881.027347
1020.780140,-3923.091493,-229.828649,10807.006753
1020.780470,-4071.132681,-1072.533697,9696.697840
1020.780800,-3552.988522,-2681.334243,8882.471304
1020.781129,-4293.194464,-3064.381992,8586.388927
1020.781459,-4737.318029,-766.095498,8660.409521
1020.781788,-3849.070898,-766.095498,7920.203579
1020.782118,-1332.370696,-2911.162892,8142.265362
1020.782448,518.144159,-1302.362347,9178.553681
1020.782777,1184.329507,1838.629195,8956.491898
1020.783107,3034.844362,3907.087040,8364.327145
1020.783437,3627.009116,2528.115143,9104.533087
1020.783766,2664.741391,2068.457845,10658.965565
1020.784096,-148.041188,3140.991542,11547.212695
1020.784425,-1554.432478,2528.115143,12213.398043
1020.784755,-2442.679609,1532.190996,12879.583391
1020.785085,-4441.235652,-536.266849,12287.418637
1020.785414,-4959.379811,-1378.971896,10955.047942
1020.785744,-3775.050304,-3064.381992,9844.739029
1020.786074,-3330.926739,-3830.477490,9326.594869
1020.786403,-4589.276840,-1225.752797,8882.471304
1020.786733,-5847.626942,995.924147,7476.080014
1020.787062,-3627.009116,0.000000,6957.935855
1020.787392,-1554.432478,-995.924147,6217.729913
1020.787722,0.000000,0.000000,6069.688724
1020.788051,1480.411884,1532.190996,6439.791695
1020.788381,3552.988522,919.314598,8808.450710
1020.788711,2368.659014,1915.238745,11103.089130
1020.789040,-444.123565,4519.963438,12213.398043
1020.789370,-1850.514855,3753.867940,12139.377449
1020.789700,-1258.350101,2757.943793,12287.418637
1020.790029,-1480.411884,2298.286494,12139.377449
1020.790359,-1036.288319,1685.410096,10436.903782
1020.790688,814.226536,-229.828649,8808.450710
1020.791018,1850.514855,-1685.410096,7846.182985
1020.791348,296.082377,-1225.752797,8290.306550
1020.791677,-1998.556043,536.266849,8734.430116
1020.792007,-2146.597232,2604.724693,8364.327145
1020.792337,444.123565,1225.752797,7698.141797
1020.792666,2146.597232,689.485948,7550.100608
1020.792996,2590.720797,1838.629195,6661.853478
1020.793325,3478.967927,1378.971896,7920.203579
1020.793655,3256.906145,1762.019645,10288.862594
1020.793985,370.102971,4673.182538,11917.315666
1020.794314,-3034.844362,6741.640382,12213.398043
1020.794644,-3923.091493,3983.696590,11325.150913
1020.794974,-3775.050304,229.828649,11251.130318
1020.795303,-2960.823768,-919.314598,11695.253884
1020.795633,-2442.679609,76.609550,11325.150913
1020.795963,-1924.535449,-919.314598,9844.739029
1020.796292,-2516.700203,-1302.362347,8142.265362
1020.796622,-3182.885551,-536.266849,7328.038826
1020.796951,-2368.659014,-383.047749,6513.812290
1020.797281,0.000000,-689.485948,7698.141797
1020.797611,1036.288319,153.219100,8956.491898
1020.797940,1036.288319,2451.505594,8956.491898
1020.798270,1406.391290,2221.676944,8660.409521
1020.798600,2146.597232,919.314598,9770.718434
1020.798929,888.247130,2145.067394,10658.965565
1020.799259,-1184.329507,3830.477490,11843.295072
1020.799588,-2664.741391,3217.601092,11769.274478
1020.799918,-3034.844362,1685.410096,11843.295072
1020.800248,-3478.967927,76.609550,11251.130318
1020.800577,-3256.906145,-1455.581446,11029.068536
1020.800907,-2590.720797,-842.705048,9770.718434
1020.801237,-2664.741391,-1302.362347,9252.574275
1020.801566,-5329.482782,-1455.581446,8216.285956
1020.801896,-7254.018232,306.438199,7105.977043
1020.802225,-6365.771101,0.000000,7031.956449
1020.802555,-3182.885551,-2221.676944,7698.141797
1020.802885,-1776.494261,-1072.533697,7698.141797
1020.803214,296.082377,229.828649,7254.018232
1020.803544,2368.659014,-1378.971896,7624.121203
1020.803874,3182.885551,-1302.362347,9696.697840
1020.804203,1480.411884,2451.505594,11843.295072
1020.804533,-222.061783,5286.058936,12657.521608
1020.804863,-222.061783,4903.011187,13693.809927
1020.805192,740.205942,4519.963438,12509.480420
1020.805522,1406.391290,2145.067394,10584.944971
1020.805851,1628.453072,-459.657299,7624.121203
1020.806181,1998.556043,-1685.410096,7846.182985
1020.806511,666.185348,-995.924147,9178.553681
1020.806840,-2220.617826,612.876398,9474.636058
1020.807170,-4293.194464,842.705048,8512.368333
1020.807500,-2960.823768,-153.219100,8290.306550
1020.807829,-1332.370696,-612.876398,8364.327145
1020.808159,0.000000,1378.971896,8290.306550
1020.808488,1850.514855,1608.800546,7772.162391
1020.808818,2072.576638,1072.533697,8586.388927
1020.809148,-444.123565,3064.381992,9844.739029
1020.809477,-2738.761985,4903.011187,11473.192101
1020.809807,-2960.823768,3830.477490,12065.356855
1020.810137,-3182.885551,2451.505594,11621.233289
1020.810466,-4071.132681,919.314598,10732.986159
1020.810796,-3034.844362,-536.266849,9622.677246
1020.811125,-518.144159,-2604.724693,9326.594869
1020.811455,296.082377,-1915.238745,9474.636058
1020.811785,-1258.350101,-229.828649,8882.471304
1020.812114,-3108.864956,1302.362347,8586.388927
1020.812444,-1998.556043,1608.800546,8364.327145
1020.812774,814.226536,306.438199,9326.594869
1020.813103,2072.576638,1455.581446,9104.533087
1020.813433,2960.823768,1915.238745,8364.327145
1020.813763,3108.864956,995.924147,8216.285956
1020.814092,2146.597232,459.657299,9696.697840
1020.814422,-888.247130,2451.505594,11029.068536
1020.814751,-3034.844362,4136.915689,11769.274478
1020.815081,-3108.864956,2911.162892,12287.418637
1020.815411,-3701.029710,1149.143247,11621.233289
1020.815740,-3997.112087,153.219100,10214.842000
1020.816070,-3108.864956,-1455.581446,9252.574275
1020.816400,-2294.638420,-2145.067394,8734.430116
1020.816729,-3997.112087,-919.314598,8808.450710
1020.817059,-5403.503377,1302.362347,8734.430116
1020.817388,-4663.297435,1378.971896,7698.141797
1020.817718,-1850.514855,-1685.410096,7031.956449
1020.818048,74.020594,-1685.410096,7402.059420
1020.818377,1406.391290,153.219100,7772.162391
1020.818707,2664.741391,1225.752797,9104.533087
1020.819037,2294.638420,995.924147,9992.780217
1020.819366,-148.041188,2681.334243,10955.047942
1020.819696,-2072.576638,4903.011187,11991.336260
1020.820026,-1184.329507,3217.601092,12879.583391
1020.820355,0.000000,2451.505594,11695.253884
1020.820685,-222.061783,1685.410096,9400.615463
1020.821014,0.000000,-536.266849,7402.059420
1020.821344,666.185348,-2145.067394,7698.141797
1020.821674,296.082377,-919.314598,9178.553681
1020.822003,-2294.638420,1455.581446,9326.594869
1020.822333,-3923.091493,2834.553343,8142.265362
1020.822663,-3034.844362,1532.190996,7920.203579
1020.822992,-888.247130,-536.266849,7846.182985
1020.823322,370.102971,153.219100,8364.327145
1020.823651,1480.411884,1991.848295,8586.388927
1020.823981,1258.350101,2374.896044,9326.594869
1020.824311,-888.247130,2834.553343,10436.903782
1020.824640,-3034.844362,4213.525239,11399.171507
1020.824970,-3404.947333,4136.915689,11843.295072
1020.825300,-2146.597232,1608.800546,11843.295072
1020.825629,-1554.432478,1532.190996,10955.047942
1020.825959,-1850.514855,919.314598,9326.594869
1020.826288,-814.226536,-1149.143247,7920.203579
1020.826618,-148.041188,-2911.162892,8438.347739
1020.826948,-1258.350101,-689.485948,9474.636058
1020.827277,-2590.720797,2757.943793,9326.594869
1020.827607,-2442.679609,1455.581446,8660.409521
1020.827937,-222.061783,-306.438199,8290.306550
1020.828266,814.226536,-229.828649,8216.285956
1020.828596,1628.453072,536.266849,8586.388927
1020.828926,2368.659014,229.828649,9178.553681
1020.829255,1332.370696,1838.629195,11399.171507
1020.829585,-1406.391290,3600.648841,11399.171507
1020.829914,-3034.844362,3830.477490,11547.212695
1020.830244,-1924.535449,1149.143247,11251.130318
1020.830574,-1332.370696,766.095498,10955.047942
1020.830903,-3330.926739,383.047749,9992.780217
1020.831233,-4367.215058,0.000000,8734.430116
1020.831563,-4367.215058,-1532.190996,8438.347739
1020.831892,-4959.379811,-1915.238745,8586.388927
1020.832222,-5181.441594,-306.438199,8142.265362
1020.832551,-4515.256246,0.000000,7772.162391
1020.832881,-2146.597232,-1532.190996,7550.100608
1020.833211,-666.185348,-1685.410096,7550.100608
1020.833540,518.144159,-919.314598,8290.306550
1020.833870,1924.535449,229.828649,9252.574275
1020.834200,2368.659014,2298.286494,11843.295072
1020.834529,1184.329507,3524.039291,12953.603985
1020.834859,-740.205942,5362.668486,12879.583391
1020.835188,-1110.308913,3907.087040,11547.212695
1020.835518,-370.102971,1532.190996,10436.903782
1020.835848,-370.102971,0.000000,10214.842000
1020.836177,0.000000,-153.219100,10066.800811
1020.836507,-666.185348,-306.438199,9474.636058
1020.836837,-1332.370696,-919.314598,8364.327145
1020.837166,-2886.803174,-153.219100,7402.059420
1020.837496,-2664.741391,1072.533697,7105.977043
1020.837826,-444.123565,383.047749,7254.018232
1020.838155,0.000000,612.876398,7994.224174
1020.838485,-370.102971,2604.724693,7994.224174
1020.838814,-222.061783,3370.820191,7550.100608
1020.839144,1110.308913,2451.505594,8586.388927
1020.839474,296.082377,2374.896044,9992.780217
1020.839803,-2072.576638,4290.134789,11547.212695
1020.840133,-2738.761985,4443.353888,11843.295072
1020.840463,-1924.535449,3217.601092,11177.109724
1020.840792,-2220.617826,1225.752797,10140.821405
1020.841122,-2590.720797,612.876398,9178.553681
1020.841451,-1924.535449,-919.314598,9326.594869
1020.841781,-1554.432478,-919.314598,9622.677246
1020.842111,-2442.679609,1072.533697,9770.718434
1020.842440,-3182.885551,1455.581446,8660.409521
1020.842770,-2442.679609,76.609550,6883.915261
1020.843100,0.000000,-995.924147,7402.059420
1020.843429,1184.329507,-1378.971896,8364.327145
1020.843759,1480.411884,919.314598,8216.285956
1020.844089,1998.556043,1762.019645,8586.388927
1020.844418,2590.720797,1915.238745,10288.862594
1020.844748,962.267725,2681.334243,11991.336260
1020.845077,-1258.350101,3524.039291,12213.398043
1020.845407,-1924.535449,2987.772442,11843.295072
1020.845737,-2368.659014,1149.143247,11843.295072
1020.846066,-3478.967927,383.047749,11695.253884
1020.846396,-3256.906145,0.000000,10881.027347
1020.846726,-2516.700203,-1762.019645,8882.471304
1020.847055,-2812.782580,-2757.943793,8068.244768
1020.847385,-4293.194464,-1915.238745,8068.244768
1020.847714,-4219.173869,-459.657299,8660.409521
1020.848044,-2886.803174,0.000000,7994.224174
1020.848374,-1332.370696,-536.266849,7402.059420
1020.848703,-222.061783,-383.047749,8068.244768
1020.849033,1406.391290,306.438199,9178.553681
1020.849363,2516.700203,842.705048,10140.821405
1020.849692,1480.411884,1455.581446,11695.253884
1020.850022,0.000000,2757.943793,11695.253884
1020.850351,-1332.370696,4136.915689,11399.171507
1020.850681,-592.164754,1302.362347,11029.068536
1020.851011,74.020594,-612.876398,10807.006753
1020.851340,0.000000,-153.219100,10362.883188
1020.851670,0.000000,153.219100,9104.533087
1020.852000,0.000000,76.609550,8438.347739
1020.852329,-518.144159,229.828649,8142.265362
1020.852659,-1480.411884,1072.533697,7624.121203
1020.852989,-1702.473667,1149.143247,7179.997637
1020.853318,-296.082377,1532.190996,7550.100608
1020.853648,0.000000,1072.533697,7772.162391
1020.853977,-296.082377,1762.019645,8808.450710
1020.854307,74.020594,2451.505594,9474.636058
1020.854637,-518.144159,2145.067394,10362.883188
1020.854966,-2368.659014,2681.334243,10955.047942
1020.855296,-3478.967927,4366.744339,10584.944971
1020.855626,-2886.803174,3294.210641,11029.068536
1020.855955,-2220.617826,612.876398,10807.006753
1020.856285,-2664.741391,459.657299,10288.862594
1020.856615,-2442.679609,1302.362347,9548.656652
1020.856944,-1184.329507,842.705048,8660.409521
1020.857274,-370.102971,-153.219100,9400.615463
1020.857604,-1036.288319,1378.971896,9178.553681
1020.857933,-1776.494261,1991.848295,7994.224174
1020.858263,-518.144159,229.828649,7698.141797
1020.858593,222.061783,153.219100,8290.306550
1020.858922,814.226536,1685.410096,8734.430116
1020.859252,1628.453072,1915.238745,9030.512492
1020.859582,2442.679609,1608.800546,10510.924376
1020.859911,1332.370696,2451.505594,11177.109724
1020.860241,-2368.659014,3217.601092,10362.883188
1020.860571,-4219.173869,3140.991542,10066.800811
1020.860900,-4663.297435,1455.581446,11695.253884
1020.861230,-4737.318029,612.876398,11917.315666
1020.861560,-4589.276840,-766.095498,10955.047942
1020.861889,-3997.112087,-2221.676944,9030.512492
1020.862219,-3330.926739,-2911.162892,7920.203579
1020.862549,-2812.782580,-3217.601092,7698.141797
1020.862878,-2664.741391,-1608.800546,8512.368333
1020.863208,-888.247130,-459.657299,8660.409521
1020.863538,518.144159,536.266849,8956.491898
1020.863867,1628.453072,919.314598,8660.409521
1020.864197,2886.803174,1685.410096,9030.512492
1020.864527,4663.297435,1915.238745,9548.656652
1020.864856,4515.256246,2145.067394,11251.130318
1020.865186,1702.473667,3064.381992,11843.295072
1020.865516,-888.247130,3983.696590,11917.315666
1020.865845,-1776.494261,1685.410096,11029.068536
1020.866175,-2146.597232,-995.924147,10510.924376
1020.866505,-2368.659014,-1915.238745,10288.862594
1020.866834,-1924.535449,-1225.752797,9622.677246
1020.867164,-1258.350101,-1838.629195,8956.491898
1020.867494,-2146.597232,-1378.971896,7624.121203
1020.867823,-3627.009116,306.438199,7328.038826
1020.868153,-2960.823768,995.924147,7624.121203
1020.868483,-962.267725,536.266849,8586.388927
1020.868812,222.061783,1302.362347,8882.471304
1020.869142,74.020594,2451.505594,7846.182985
1020.869472,888.247130,1685.410096,7698.141797
1020.869801,2146.597232,995.924147,9770.718434
1020.870131,1480.411884,2374.896044,11399.171507
1020.870461,-666.185348,4136.915689,11695.253884
1020.870790,-1554.432478,3677.258390,10658.965565
1020.871120,-2072.576638,2221.676944,10288.862594
1020.871450,-1480.411884,229.828649,10658.965565
1020.871779,-814.226536,919.314598,10510.924376
1020.872109,-370.102971,919.314598,9844.739029
1020.872439,-888.247130,76.609550,9474.636058
1020.872768,-2664.741391,536.266849,8438.347739
1020.873098,-3478.967927,1378.971896,7476.080014
1020.873428,-2146.597232,766.095498,8068.244768
1020.873757,0.000000,0.000000,8808.450710
1020.874087,0.000000,1378.971896,8364.327145
1020.874417,-370.102971,2145.067394,7179.997637
1020.874746,0.000000,383.047749,8068.244768
1020.875076,0.000000,1608.800546,10658.965565
1020.875406,-2738.761985,3600.648841,11843.295072
1020.875735,-4589.276840,4749.792088,11695.253884
1020.876065,-4219.173869,2451.505594,11547.212695
1020.876395,-3256.906145,-229.828649,10436.903782
1020.876724,-2886.803174,-1378.971896,9326.594869
1020.877054,-2442.679609,-1608.800546,8660.409521
1020.877384,-1332.370696,-1608.800546,9326.594869
1020.877713,-2072.576638,-383.047749,9474.636058
1020.878043,-3552.988522,995.924147,8512.368333
1020.878373,-2738.761985,842.705048,8216.285956
1020.878702,-444.123565,0.000000,8438.347739
1020.879032,1184.329507,612.876398,8438.347739
1020.879362,2072.576638,1378.971896,8142.265362
1020.879691,3182.885551,766.095498,8734.430116
1020.880021,2516.700203,76.609550,10732.986159
1020.880351,-222.061783,1455.581446,12583.501014
1020.880680,-2960.823768,3753.867940,13619.789333
1020.881010,-3330.926739,4290.134789,12509.480420
1020.881340,-1998.556043,995.924147,10066.800811
1020.881669,-888.247130,-2298.286494,8808.450710
1020.881999,0.000000,-2528.115143,8142.265362
1020.882329,-148.041188,-2757.943793,8438.347739
1020.882658,-1332.370696,-1149.143247,9474.636058
1020.882988,-3775.050304,1455.581446,9030.512492
1020.883318,-3552.988522,2987.772442,8660.409521
1020.883647,-1036.288319,0.000000,8512.368333
1020.883977,1184.329507,-1685.410096,8364.327145
1020.884307,1998.556043,1149.143247,8512.368333
1020.884636,2590.720797,2298.286494,8438.347739
1020.884966,3478.967927,2068.457845,9770.718434
1020.885296,1554.432478,2374.896044,10807.006753
1020.885625,-962.267725,3600.648841,11547.212695
1020.885955,-1332.370696,3830.477490,11029.068536
1020.886285,0.000000,2681.334243,10807.006753
1020.886614,0.000000,1378.971896,9474.636058
1020.886944,296.082377,383.047749,8586.388927
1020.887274,518.144159,-1225.752797,8216.285956
1020.887603,74.020594,-459.657299,8660.409521
1020.887933,-2368.659014,1302.362347,9326.594869
1020.888263,-3923.091493,2451.505594,9696.697840
1020.888592,-3034.844362,2451.505594,8438.347739
1020.888922,-1036.288319,-612.876398,8660.409521
1020.889252,444.123565,-689.485948,8808.450710
1020.889581,666.185348,1378.971896,8142.265362
1020.889911,592.164754,1762.019645,7994.224174
1020.890241,-962.267725,153.219100,8956.491898
1020.890570,-3627.009116,2374.896044,11029.068536
1020.890900,-4737.318029,3447.429741,11621.233289
1020.891230,-4071.132681,1532.190996,11843.295072
1020.891559,-3256.906145,229.828649,12509.480420
1020.891889,-2738.761985,-153.219100,10510.924376
1020.892219,-1776.494261,-2145.067394,8290.306550
1020.892548,-518.144159,-3447.429741,7772.162391
1020.892878,-962.267725,-1455.581446,8882.471304
1020.893208,-2368.659014,995.924147,10436.903782
1020.893537,-2368.659014,2911.162892,10362.883188
1020.893867,-666.185348,1991.848295,8882.471304
1020.894197,1480.411884,-689.485948,8068.244768
1020.894526,2516.700203,-383.047749,8216.285956
1020.894856,3108.864956,766.095498,9252.574275
1020.895186,2812.782580,766.095498,10807.006753
1020.895515,-148.041188,2374.896044,11177.109724
1020.895845,-2812.782580,4443.353888,11103.089130
1020.896175,-3182.885551,3217.601092,10732.986159
1020.896504,-2442.679609,0.000000,10881.027347
1020.896834,-2368.659014,0.000000,10510.924376
1020.897164,-2960.823768,306.438199,9030.512492
1020.897493,-1850.514855,-995.924147,7846.182985
1020.897823,-2442.679609,-1991.848295,7772.162391
1020.898153,-3478.967927,-383.047749,8882.471304
1020.898482,-3997.112087,1072.533697,8956.491898
1020.898812,-3256.906145,995.924147,8586.388927
1020.899142,-296.082377,383.047749,8068.244768
1020.899471,814.226536,995.924147,7624.121203
1020.899801,2516.700203,1378.971896,7550.100608
1020.900131,4145.153275,1302.362347,8882.471304
1020.900460,3775.050304,2221.676944,10658.965565
1020.900790,1258.350101,5056.230287,11325.150913
1020.901120,-1110.308913,5515.887586,11621.233289
1020.901449,-296.082377,3294.210641,11621.233289
1020.901779,444.123565,1302.362347,11251.130318
1020.902109,592.164754,1149.143247,10288.862594
1020.902438,962.267725,1225.752797,8438.347739
1020.902768,1184.329507,-459.657299,7254.018232
1020.903098,-518.144159,-612.876398,7994.224174
1020.903427,-2590.720797,2374.896044,8734.430116
1020.903757,-2812.782580,3294.210641,8660.409521
1020.904087,-962.267725,1149.143247,8660.409521
1020.904416,-666.185348,995.924147,8290.306550
1020.904746,-592.164754,2068.457845,8216.285956
1020.905076,0.000000,919.314598,8808.450710
1020.905405,-222.061783,383.047749,10955.047942
1020.905735,-2442.679609,2681.334243,12953.603985
1020.906065,-4959.379811,4060.306139,11917.315666
1020.906394,-4441.235652,1915.238745,10881.027347
1020.906724,-2812.782580,-995.924147,10510.924376
1020.907054,-2294.638420,-1378.971896,10288.862594
1020.907383,-1332.370696,-383.047749,9696.697840
1020.907713,-222.061783,-766.095498,8438.347739
1020.908043,0.000000,-1608.800546,8142.265362
1020.908372,-1480.411884,-459.657299,7920.203579
1020.908702,-1702.473667,1302.362347,8364.327145
1020.909032,0.000000,153.219100,9326.594869
1020.909361,518.144159,0.000000,9992.780217
1020.909691,-444.123565,1685.410096,9030.512492
1020.910021,296.082377,1225.752797,8364.327145
1020.910350,1776.494261,-1532.190996,10436.903782
1020.910680,370.102971,306.438199,12509.480420
1020.911010,-3108.864956,3753.867940,11917.315666
1020.911339,-4293.194464,3447.429741,10436.903782
1020.911669,-3182.885551,0.000000,9770.718434
1020.911999,-2590.720797,76.609550,10214.842000
1020.912328,-2368.659014,-995.924147,9696.697840
1020.912658,-1554.432478,-1455.581446,8882.471304
1020.912988,-1258.350101,-1378.971896,8216.285956
1020.913317,-2516.700203,76.609550,7846.182985
1020.913647,-3849.070898,459.657299,8364.327145
1020.913977,-2812.782580,0.000000,9252.574275
1020.914306,-888.247130,0.000000,10140.821405
1020.914636,370.102971,1072.533697,10584.944971
1020.914966,1036.288319,2221.676944,8956.491898
1020.915295,2886.803174,1302.362347,8586.388927
1020.915625,3182.885551,-459.657299,10214.842000
1020.915955,740.205942,1838.629195,11769.274478
1020.916284,-888.247130,4979.620737,12213.398043
1020.916614,0.000000,4596.572988,11103.089130
1020.916944,0.000000,2145.067394,9622.677246
1020.917273,148.041188,459.657299,8512.368333
1020.917603,1628.453072,-229.828649,7920.203579
1020.917933,3034.844362,-459.657299,8216.285956
1020.918262,1776.494261,1915.238745,8290.306550
1020.918592,-1036.288319,3677.258390,7698.141797
1020.918922,-2146.597232,3524.039291,6217.729913
1020.919251,-814.226536,1225.752797,6957.935855
1020.919581,148.041188,919.314598,8586.388927
1020.919911,-592.164754,3447.429741,9400.615463
1020.920240,-1184.329507,2987.772442,9252.574275
1020.920570,-1036.288319,1149.143247,10214.842000
1020.920900,-2294.638420,383.047749,11843.295072
1020.921229,-3330.926739,1302.362347,12287.418637
1020.921559,-3775.050304,1378.971896,11695.253884
1020.921889,-3627.009116,459.657299,10436.903782
1020.922218,-3256.906145,536.266849,10140.821405
1020.922548,-1554.432478,-229.828649,9474.636058
1020.922878,518.144159,-1072.533697,8734.430116
1020.923207,814.226536,-612.876398,7994.224174
1020.923537,-888.247130,919.314598,7254.018232
1020.923867,-1332.370696,1455.581446,7105.977043
1020.924196,-222.061783,0.000000,8882.471304
1020.924526,74.020594,-766.095498,10807.006753
1020.924856,-1184.329507,1072.533697,11177.109724
1020.925185,-1258.350101,1532.190996,10288.862594
1020.925515,592.164754,153.219100,10807.006753
1020.925845,74.020594,-229.828649,11251.130318
1020.926174,-2294.638420,689.485948,10955.047942
1020.926504,-3330.926739,1608.800546,11103.089130
1020.926834,-3108.864956,995.924147,11399.171507
1020.927163,-3478.967927,919.314598,11177.109724
1020.927493,-3849.070898,0.000000,10066.800811
1020.927823,-3552.988522,-1838.629195,8586.388927
1020.928152,-2146.597232,-1991.848295,8364.327145
1020.928482,-2294.638420,-1991.848295,8586.388927
1020.928812,-3404.947333,383.047749,8142.265362
1020.929141,-3997.112087,0.000000,7550.100608
1020.929471,-2072.576638,-1455.581446,8142.265362
1020.929801,-370.102971,-459.657299,9252.574275
1020.930130,1258.350101,1378.971896,9400.615463
1020.930460,3108.864956,2145.067394,9030.512492
1020.930790,3182.885551,1608.800546,9474.636058
1020.931119,1702.473667,2374.896044,9918.759623
1020.931449,148.041188,3217.601092,11103.089130
1020.931779,296.082377,2911.162892,11917.315666
1020.932108,-296.082377,2834.553343,11843.295072
1020.932438,-1554.432478,2068.457845,10510.924376
1020.932768,-1184.329507,229.828649,9252.574275
1020.933097,148.041188,-1225.752797,7920.203579
1020.933427,444.123565,-1532.190996,7698.141797
1020.933757,-1258.350101,689.485948,7698.141797
1020.934086,-2072.576638,3064.381992,6809.894666
1020.934416,-888.247130,2451.505594,7105.977043
1020.934746,444.123565,383.047749,7698.141797
1020.935075,888.247130,2528.115143,8512.368333
1020.935405,962.267725,4060.306139,9178.553681
1020.935735,1332.370696,2834.553343,10214.842000
1020.936064,0.000000,2298.286494,11547.212695
1020.936394,-2960.823768,3064.381992,12657.521608
1020.936724,-4293.194464,2604.724693,12361.439231
1020.937053,-3701.029710,1225.752797,12065.356855
1020.937383,-2960.823768,689.485948,11399.171507
1020.937713,-2368.659014,-383.047749,9918.759623
1020.938042,-592.164754,-2145.067394,7994.224174
1020.938372,-592.164754,-2298.286494,7179.997637
1020.938702,-1258.350101,153.219100,7772.162391
1020.939031,-1998.556043,2757.943793,8290.306550
1020.939361,-1554.432478,3140.991542,7402.059420
1020.939691,0.000000,306.438199,7328.038826
1020.940020,444.123565,-689.485948,8660.409521
1020.940350,888.247130,919.314598,10066.800811
1020.940680,1628.453072,1532.190996,11029.068536
1020.941009,740.205942,1225.752797,11769.274478
1020.941339,-2294.638420,1838.629195,11399.171507
1020.941669,-3330.926739,1762.019645,10955.047942
1020.941998,-2368.659014,306.438199,11325.150913
1020.942328,-2146.597232,0.000000,11473.192101
1020.942658,-3108.864956,76.609550,11325.150913
1020.942987,-3552.988522,-1225.752797,9770.718434
1020.943317,-3404.947333,-1915.238745,8882.471304
1020.943647,-3701.029710,-2987.772442,9030.512492
1020.943976,-3923.091493,-2221.676944,9548.656652
1020.944306,-3627.009116,459.657299,8364.327145
1020.944636,-1480.411884,-689.485948,6735.874072
1020.944965,444.123565,-2298.286494,6735.874072
1020.945295,1924.535449,-536.266849,6883.915261
1020.945625,3775.050304,1378.971896,8216.285956
1020.945954,4219.173869,1302.362347,10436.903782
1020.946284,2220.617826,3370.820191,12435.459826
1020.946614,-1776.494261,6511.811733,12435.459826
1020.946943,-2072.576638,3064.381992,12361.439231
1020.947273,-962.267725,536.266849,12953.603985
1020.947603,-740.205942,919.314598,13027.624579
1020.947932,-1036.288319,612.876398,10807.006753
1020.948262,-592.164754,0.000000,7105.977043
1020.948592,-1184.329507,-383.047749,5107.421000
1020.948921,-1702.473667,-1149.143247,5625.565159
1020.949251,-1776.494261,842.705048,6883.915261
1020.949581,-888.247130,3217.601092,7624.121203
1020.949910,0.000000,2221.676944,7476.080014
1020.950240,0.000000,2451.505594,7476.080014
1020.950570,518.144159,2604.724693,7550.100608
1020.950899,1702.473667,612.876398,9400.615463
1020.951229,1258.350101,689.485948,12065.356855
1020.951559,-1702.473667,5209.449386,13693.809927
1020.951888,-3849.070898,5515.887586,13323.706956
1020.952218,-3330.926739,1455.581446,11843.295072
1020.952548,-2664.741391,383.047749,10658.965565
1020.952877,-1702.473667,766.095498,10214.842000
1020.953207,-296.082377,0.000000,8956.491898
1020.953537,-592.164754,612.876398,6809.894666
1020.953866,-1850.514855,1149.143247,6809.894666
1020.954196,-2442.679609,1302.362347,6661.853478
1020.954526,-2368.659014,1455.581446,7105.977043
1020.954855,-1628.453072,842.705048,8364.327145
1020.955185,-1184.329507,995.924147,9178.553681
1020.955514,-1480.411884,1378.971896,8882.471304
1020.955844,-814.226536,995.924147,8660.409521
1020.956173,370.102971,-459.657299,10288.862594
1020.956503,-962.267725,536.266849,11399.171507
1020.956833,-2960.823768,3677.258390,11843.295072
1020.957162,-3108.864956,1991.848295,11843.295072
1020.957492,-3478.967927,689.485948,12361.439231
1020.957821,-3330.926739,536.266849,11917.315666
1020.958151,-1776.494261,-612.876398,10658.965565
1020.958481,370.102971,-1838.629195,9326.594869
1020.958810,0.000000,-3064.381992,7994.224174
1020.959140,-1628.453072,-1608.800546,8142.265362
1020.959469,-2442.679609,-229.828649,7550.100608
1020.959799,-1036.288319,-383.047749,8216.285956
1020.960128,222.061783,-153.219100,9326.594869
1020.960458,1036.288319,459.657299,9326.594869
1020.960788,1776.494261,689.485948,8438.347739
1020.961117,2368.659014,-229.828649,8808.450710
1020.961447,1258.350101,76.609550,11029.068536
1020.961776,-1480.411884,3140.991542,13175.665768
1020.962106,-3552.988522,4519.963438,13175.665768
1020.962436,-3849.070898,1838.629195,12287.418637
1020.962765,-3627.009116,536.266849,10807.006753
1020.963095,-2368.659014,-1225.752797,9252.574275
1020.963424,0.000000,-1762.019645,8068.244768
1020.963754,740.205942,-1838.629195,7402.059420
1020.964084,-1110.308913,0.000000,6439.791695
1020.964413,-2220.617826,2221.676944,6217.729913
1020.964743,-888.247130,2374.896044,6513.812290
1020.965072,1480.411884,1149.143247,7624.121203
1020.965402,1702.473667,2145.067394,8734.430116
1020.965731,1332.370696,3907.087040,8956.491898
1020.966061,2516.700203,3064.381992,9252.574275
1020.966391,1406.391290,1762.019645,10732.986159
1020.966720,-1332.370696,2757.943793,12879.583391
1020.967050,-3849.070898,3907.087040,13397.727550
1020.967379,-4071.132681,2911.162892,11991.336260
1020.967709,-4589.276840,2068.457845,10955.047942
1020.968039,-4071.132681,536.266849,9770.718434
1020.968368,-2886.803174,-306.438199,8808.450710
1020.968698,-1702.473667,-612.876398,7994.224174
1020.969027,-2368.659014,1072.533697,7254.018232
1020.969357,-3775.050304,2451.505594,6439.791695
1020.969686,-3923.091493,1685.410096,6735.874072
1020.970016,-2368.659014,306.438199,8586.388927
1020.970346,-1850.514855,1072.533697,9474.636058
1020.970675,-1406.391290,2374.896044,8882.471304
1020.971005,370.102971,2451.505594,9030.512492
1020.971334,1850.514855,919.314598,9770.718434
1020.971664,0.000000,1455.581446,11399.171507
1020.971994,-1924.535449,2834.553343,10881.027347
1020.972323,-1998.556043,3140.991542,10732.986159
1020.972653,-814.226536,2451.505594,12065.356855
1020.972982,-2220.617826,2145.067394,11399.171507
1020.973312,-2960.823768,-536.266849,11399.171507
1020.973641,-1998.556043,-2757.943793,11177.109724
1020.973971,-2294.638420,-2068.457845,11695.253884
1020.974301,-3923.091493,-1225.752797,10658.965565
1020.974630,-4219.173869,229.828649,7920.203579
1020.974960,-2146.597232,-766.095498,5773.606348
1020.975289,2072.576638,-2911.162892,4885.359217
1020.975619,4811.338623,-2681.334243,5625.565159
1020.975949,5329.482782,536.266849,6809.894666
1020.976278,4145.153275,3140.991542,8734.430116
1020.976608,1406.391290,2298.286494,11177.109724
1020.976937,-1110.308913,3753.867940,13323.706956
1020.977267,-1850.514855,3677.258390,13915.871710
1020.977596,-1332.370696,1225.752797,13915.871710
1020.977926,-814.226536,-689.485948,13101.645173
1020.978256,-1850.514855,-1302.362347,11029.068536
1020.978585,-1258.350101,-2068.457845,8660.409521
1020.978915,-518.144159,-2221.676944,6217.729913
1020.979244,-962.267725,-1455.581446,6143.709319
1020.979574,-1332.370696,612.876398,6883.915261
1020.979904,-1702.473667,1608.800546,6809.894666
1020.980233,-370.102971,1762.019645,6957.935855
1020.980563,444.123565,689.485948,7846.182985
1020.980892,1184.329507,1762.019645,9030.512492
1020.981222,2368.659014,2068.457845,9474.636058
1020.981551,1628.453072,0.000000,10214.842000
1020.981881,0.000000,459.657299,11991.336260
1020.982211,-2368.659014,2987.772442,13027.624579
1020.982540,-2664.741391,3140.991542,13471.748144
1020.982870,-1924.535449,1915.238745,12805.562797
1020.983199,-1998.556043,2298.286494,10955.047942
1020.983529,-1184.329507,1685.410096,9326.594869
1020.983859,0.000000,766.095498,7624.121203
1020.984188,-1110.308913,229.828649,7179.997637
1020.984518,-2812.782580,1838.629195,7920.203579
1020.984847,-4293.194464,2528.115143,7550.100608
1020.985177,-4367.215058,1915.238745,7698.141797
1020.985506,-3701.029710,919.314598,8068.244768
1020.985836,-3034.844362,766.095498,8068.244768
1020.986166,-1258.350101,689.485948,7772.162391
1020.986495,370.102971,612.876398,8808.450710
1020.986825,-296.082377,2451.505594,10362.883188
1020.987154,-2664.741391,3677.258390,10436.903782
1020.987484,-4441.235652,4290.134789,10140.821405
1020.987814,-3256.906145,2911.162892,11029.068536
1020.988143,-2516.700203,2068.457845,11399.171507
1020.988473,-2072.576638,1072.533697,11029.068536
1020.988802,-1332.370696,-995.924147,9622.677246
1020.989132,-1702.473667,-2221.676944,9326.594869
1020.989461,-2886.803174,-1762.019645,9326.594869
1020.989791,-3775.050304,0.000000,8808.450710
1020.990121,-2220.617826,919.314598,8512.368333
1020.990450,666.185348,-383.047749,7994.224174
1020.990780,1850.514855,-536.266849,7105.977043
1020.991109,2960.823768,383.047749,7105.977043
1020.991439,4367.215058,919.314598,8068.244768
1020.991769,4071.132681,689.485948,11029.068536
1020.992098,1258.350101,2757.943793,13101.645173
1020.992428,-2738.761985,4596.572988,12879.583391
1020.992757,-3552.988522,2451.505594,12509.480420
1020.993087,-2590.720797,-689.485948,12361.439231
1020.993416,-1850.514855,-2221.676944,12139.377449
1020.993746,-1110.308913,-2221.676944,10955.047942
1020.994076,-518.144159,-1762.019645,8956.491898
1020.994405,-888.247130,-1838.629195,7920.203579
1020.994735,-1924.535449,536.266849,7254.018232
1020.995064,-1850.514855,2298.286494,6291.750507
1020.995394,1480.411884,1302.362347,6513.812290
1020.995724,2664.741391,1149.143247,7179.997637
1020.996053,2368.659014,2374.896044,7772.162391
1020.996383,2220.617826,1608.800546,7846.182985
1020.996712,2072.576638,0.000000,9992.780217
1020.997042,296.082377,766.095498,11991.336260
1020.997372,-2368.659014,2987.772442,12805.562797
1020.997701,-3182.885551,2681.334243,12287.418637
1020.998031,-2294.638420,766.095498,11473.192101
1020.998360,-1628.453072,0.000000,10510.924376
1020.998690,-962.267725,689.485948,10140.821405
1020.999019,74.020594,1302.362347,8882.471304
1020.999349,222.061783,1302.362347,7846.182985
1020.999679,-1702.473667,2068.457845,7328.038826
1021.000008,-3256.906145,2604.724693,7328.038826
1021.000338,-2664.741391,2068.457845,7476.080014
1021.000667,-1554.432478,995.924147,8660.409521
1021.000997,-2072.576638,842.705048,8364.327145
1021.001327,-2294.638420,1532.190996,8142.265362
1021.001656,-1554.432478,383.047749,8586.388927
1021.001986,-1184.329507,459.657299,10510.924376
1021.002315,-2738.761985,2681.334243,11473.192101
1021.002645,-4663.297435,4519.963438,10584.944971
1021.002974,-3923.091493,2911.162892,11399.171507
1021.003304,-3552.988522,229.828649,12287.418637
1021.003634,-4071.132681,459.657299,12731.542202
1021.003963,-3701.029710,536.266849,10732.986159
1021.004293,-1998.556043,-1302.362347,8438.347739
1021.004622,-1332.370696,-2145.067394,7698.141797
1021.004952,-1776.494261,-766.095498,7476.080014
1021.005282,-592.164754,0.000000,6291.750507
1021.005611,1480.411884,-536.266849,6735.874072
1021.005941,2516.700203,1225.752797,8438.347739
1021.006270,2294.638420,3753.867940,9326.594869
1021.006600,2294.638420,3064.381992,9474.636058
1021.006929,2590.720797,2068.457845,10362.883188
1021.007259,1258.350101,2834.553343,11473.192101
1021.007589,-740.205942,2757.943793,13027.624579
1021.007918,-1480.411884,536.266849,13619.789333
1021.008248,-2960.823768,-459.657299,13471.748144
1021.008577,-4441.235652,-612.876398,11843.295072
1021.008907,-4071.132681,-1762.019645,9770.718434
1021.009237,-2294.638420,-1455.581446,7105.977043
1021.009566,-666.185348,-1532.190996,5033.400406
1021.009896,-370.102971,-3064.381992,5403.503377
1021.010225,-370.102971,0.000000,6069.688724
1021.010555,-148.041188,3217.601092,7328.038826
1021.010884,370.102971,2068.457845,9030.512492
1021.011214,1628.453072,2757.943793,9770.718434
1021.011544,3108.864956,3983.696590,8660.409521
1021.011873,5181.441594,306.438199,8438.347739
1021.012203,4589.276840,-1838.629195,11029.068536
1021.012532,962.267725,2451.505594,14211.954086
1021.012862,-2294.638420,4903.011187,14285.974681
1021.013192,-2368.659014,2528.115143,12731.542202
1021.013521,-2294.638420,995.924147,11177.109724
1021.013851,-1702.473667,689.485948,9548.656652
1021.014180,148.041188,-1532.190996,8364.327145
1021.014510,814.226536,-1532.190996,7105.977043
1021.014839,-666.185348,229.828649,6735.874072
1021.015169,-2738.761985,2068.457845,7105.977043
1021.015499,-3404.947333,2451.505594,7254.018232
1021.015828,-2812.782580,1532.190996,8512.368333
1021.016158,-2072.576638,995.924147,9622.677246
1021.016487,-1554.432478,2145.067394,9548.656652
1021.016817,-518.144159,3064.381992,8734.430116
1021.017147,-444.123565,459.657299,9770.718434
1021.017476,-2442.679609,1302.362347,11621.233289
1021.017806,-4959.379811,3677.258390,12213.398043
1021.018135,-5107.421000,3064.381992,12509.480420
1021.018465,-4663.297435,1072.533697,11843.295072
1021.018794,-4367.215058,766.095498,11029.068536
1021.019124,-2516.700203,-766.095498,9622.677246
1021.019454,0.000000,-2145.067394,7994.224174
1021.019783,0.000000,-1838.629195,7846.182985
1021.020113,-1332.370696,-612.876398,7328.038826
1021.020442,-2146.597232,1838.629195,6291.750507
1021.020772,-888.247130,1685.410096,6883.915261
1021.021102,1406.391290,306.438199,8660.409521
1021.021431,2294.638420,1149.143247,9400.615463
1021.021761,2294.638420,2604.724693,8808.450710
1021.022090,2368.659014,1685.410096,9252.574275
1021.022420,1110.308913,1991.848295,10955.047942
1021.022749,-1554.432478,3140.991542,11843.295072
1021.023079,-3182.885551,1762.019645,13249.686362
1021.023409,-3627.009116,766.095498,13693.809927
1021.023738,-4293.194464,0.000000,12731.542202
1021.024068,-3923.091493,-995.924147,10732.986159
1021.024397,-2220.617826,-2528.115143,8068.244768
1021.024727,-444.123565,-3447.429741,7179.997637
1021.025057,-370.102971,-2451.505594,7031.956449
1021.025386,-444.123565,1149.143247,6217.729913
1021.025716,592.164754,2604.724693,6439.791695
1021.026045,1628.453072,1225.752797,6661.853478
1021.026375,2368.659014,1225.752797,8438.347739
1021.026705,3034.844362,2681.334243,9474.636058
1021.027034,3849.070898,2145.067394,10288.862594
1021.027364,2960.823768,1455.581446,11251.130318
1021.027693,-222.061783,2834.553343,12361.439231
1021.028023,-2368.659014,2528.115143,12583.501014
1021.028352,-2146.597232,689.485948,12139.377449
1021.028682,-1480.411884,459.657299,12065.356855
1021.029012,-1258.350101,459.657299,10658.965565
1021.029341,-666.185348,689.485948,7698.141797
1021.029671,-148.041188,-766.095498,6513.812290
1021.030000,-518.144159,-766.095498,7105.977043
1021.030330,-2072.576638,2451.505594,7772.162391
1021.030660,-2146.597232,3907.087040,7179.997637
1021.030989,-2072.576638,1302.362347,7179.997637
1021.031319,-2294.638420,0.000000,7920.203579
1021.031648,-2368.659014,1532.190996,9178.553681
1021.031978,-1110.308913,1302.362347,9400.615463
1021.032307,-296.082377,766.095498,10807.006753
1021.032637,-2738.761985,2528.115143,11325.150913
1021.032967,-4811.338623,2298.286494,13027.624579
1021.033296,-5551.544565,1762.019645,12879.583391
1021.033626,-4737.318029,1532.190996,12287.418637
1021.033955,-3627.009116,766.095498,11547.212695
1021.034285,-2368.659014,229.828649,9474.636058
1021.034615,-518.144159,-229.828649,7920.203579
1021.034944,814.226536,-2145.067394,6661.853478
1021.035274,444.123565,-1149.143247,6439.791695
1021.035603,-370.102971,2757.943793,6439.791695
1021.035933,444.123565,2068.457845,7550.100608
1021.036262,1332.370696,-229.828649,9252.574275
1021.036592,740.205942,2068.457845,9770.718434
1021.036922,814.226536,2834.553343,9622.677246
1021.037251,1702.473667,1455.581446,9918.759623
1021.037581,1258.350101,612.876398,12065.356855
1021.037910,-1332.370696,689.485948,14508.036463
1021.038240,-4219.173869,1532.190996,14063.912898
1021.038570,-5107.421000,1838.629195,12213.398043
1021.038899,-4737.318029,995.924147,9844.739029
1021.039229,-3404.947333,0.000000,7402.059420
1021.039558,-888.247130,-2604.724693,5921.647536
1021.039888,1480.411884,-3983.696590,6661.853478
1021.040217,74.020594,-1762.019645,7476.080014
1021.040547,-2368.659014,3217.601092,7698.141797
1021.040877,-2738.761985,3447.429741,8068.244768
1021.041206,-296.082377,229.828649,8438.347739
1021.041536,1850.514855,229.828649,8512.368333
1021.041865,3330.926739,76.609550,8586.388927
1021.042195,4885.359217,766.095498,9696.697840
1021.042525,4663.297435,2528.115143,11621.233289
1021.042854,1628.453072,2451.505594,12657.521608
1021.043184,-666.185348,3524.039291,11843.295072
1021.043513,-1406.391290,3064.381992,10881.027347
1021.043843,0.000000,1762.019645,10955.047942
1021.044172,148.041188,459.657299,10658.965565
1021.044502,-666.185348,229.828649,9104.533087
1021.044832,0.000000,76.609550,7105.977043
1021.045161,-1036.288319,-1991.848295,7328.038826
1021.045491,-2886.803174,76.609550,7254.018232
1021.045820,-4071.132681,2911.162892,7402.059420
1021.046150,-2664.741391,306.438199,7772.162391
1021.046480,-1110.308913,536.266849,7772.162391
1021.046809,-1628.453072,1608.800546,8290.306550
1021.047139,-518.144159,1685.410096,9548.656652
1021.047468,-222.061783,1608.800546,11473.192101
1021.047798,-2146.597232,2681.334243,13471.748144
1021.048127,-3478.967927,4213.525239,13323.706956
1021.048457,-3404.947333,2911.162892,11399.171507
1021.048787,-2368.659014,229.828649,10510.924376
1021.049116,-2146.597232,-995.924147,10658.965565
1021.049446,-2220.617826,-1225.752797,10732.986159
1021.049775,-888.247130,76.609550,9178.553681
1021.050105,-666.185348,-306.438199,7772.162391
1021.050435,-1406.391290,0.000000,6587.832884
1021.050764,-1998.556043,459.657299,5773.606348
1021.051094,-666.185348,0.000000,7031.956449
1021.051423,518.144159,153.219100,8512.368333
1021.051753,222.061783,1149.143247,8882.471304
1021.052082,-296.082377,2834.553343,8734.430116
1021.052412,370.102971,995.924147,9548.656652
1021.052742,0.000000,-612.876398,11991.336260
1021.053071,-1702.473667,1455.581446,13545.768739
1021.053401,-3182.885551,3983.696590,12657.521608
1021.053730,-3108.864956,1532.190996,11621.233289
1021.054060,-3256.906145,-536.266849,11769.274478
1021.054390,-3478.967927,-1302.362347,11843.295072
1021.054719,-2220.617826,-1762.019645,10436.903782
1021.055049,-296.082377,-1455.581446,8364.327145
1021.055378,-740.205942,-536.266849,7402.059420
1021.055708,-1628.453072,-229.828649,6735.874072
1021.056038,-1036.288319,0.000000,6217.729913
1021.056365,1036.288319,-153.219100,6883.915261
1021.056695,2368.659014,689.485948,7624.121203
1021.057024,2812.782580,2528.115143,8216.285956
1021.057354,3701.029710,2911.162892,8512.368333
1021.057683,3404.947333,689.485948,10510.924376
1021.058013,1258.350101,1455.581446,13027.624579
1021.058343,-1480.411884,4443.353888,14211.954086
1021.058672,-2664.741391,5132.839837,13101.645173
1021.059002,-2072.576638,2145.067394,11843.295072
1021.059331,-2072.576638,0.000000,11029.068536
1021.059661,-1406.391290,-689.485948,9252.574275
1021.059990,-518.144159,-1072.533697,6661.853478
1021.060320,518.144159,-689.485948,6513.812290
1021.060649,-740.205942,689.485948,6883.915261
1021.060979,-1924.535449,2757.943793,6217.729913
1021.061309,-1480.411884,2145.067394,5773.606348
1021.061638,0.000000,459.657299,6883.915261
1021.061968,444.123565,2145.067394,8586.388927
1021.062297,444.123565,3677.258390,9918.759623
1021.062627,296.082377,2374.896044,12139.377449
1021.062956,-1554.432478,1072.533697,13693.809927
1021.063286,-4293.194464,2911.162892,14211.954086
1021.063615,-5033.400406,3294.210641,13323.706956
1021.063945,-3701.029710,1302.362347,11843.295072
1021.064275,-2590.720797,-229.828649,10140.821405
1021.064604,-1850.514855,-229.828649,8438.347739
1021.064934,-444.123565,-459.657299,5921.647536
1021.065263,814.226536,-1072.533697,5699.585753
1021.065593,-222.061783,383.047749,6661.853478
1021.065922,-2368.659014,2068.457845,7402.059420
1021.066252,-3256.906145,2451.505594,7994.224174
1021.066581,-2072.576638,383.047749,8808.450710
1021.066911,-814.226536,459.657299,9474.636058
1021.067240,74.020594,536.266849,9548.656652
1021.067570,888.247130,-995.924147,9992.780217
1021.067900,74.020594,-1532.190996,11251.130318
1021.068229,-2960.823768,766.095498,12583.501014
1021.068559,-5477.523971,2298.286494,12879.583391
1021.068888,-5107.421000,1915.238745,12583.501014
1021.069218,-3701.029710,-612.876398,11917.315666
1021.069547,-2738.761985,-1378.971896,10362.883188
1021.069877,-962.267725,-2298.286494,8438.347739
1021.070206,1184.329507,-2221.676944,7254.018232
1021.070536,1036.288319,-2374.896044,7328.038826
1021.070866,-962.267725,-383.047749,7920.203579
1021.071195,-2146.597232,2374.896044,7698.141797
1021.071525,-740.205942,1608.800546,8290.306550
1021.071854,1628.453072,-153.219100,8882.471304
1021.072184,2072.576638,766.095498,9252.574275
1021.072513,2368.659014,1378.971896,9474.636058
1021.072843,3108.864956,0.000000,9844.739029
1021.073172,1110.308913,383.047749,11399.171507
1021.073502,-1924.535449,2911.162892,12213.398043
1021.073832,-2886.803174,3370.820191,11843.295072
1021.074161,-1406.391290,1149.143247,11399.171507
1021.074491,-444.123565,383.047749,10362.883188
1021.074820,-296.082377,383.047749,8808.450710
1021.075150,666.185348,0.000000,7550.100608
1021.075479,666.185348,-383.047749,7402.059420
1021.075809,-888.247130,1455.581446,7402.059420
1021.076138,-1776.494261,4136.915689,7254.018232
1021.076468,-666.185348,2911.162892,6735.874072
1021.076798,148.041188,919.314598,6587.832884
1021.077127,-296.082377,995.924147,8068.244768
1021.077457,-148.041188,2528.115143,9622.677246
1021.077786,740.205942,1991.848295,10436.903782
1021.078116,0.000000,1991.848295,11621.233289
1021.078445,-2812.782580,2451.505594,12731.542202
1021.078775,-4663.297435,3677.258390,12805.562797
1021.079104,-3997.112087,2221.676944,12213.398043
1021.079434,-2368.659014,995.924147,11473.192101
1021.079764,-1406.391290,1762.019645,10140.821405
1021.080093,-1036.288319,229.828649,7846.182985
1021.080423,0.000000,-1072.533697,6143.709319
1021.080752,-370.102971,-689.485948,6661.853478
1021.081082,-1554.432478,1685.410096,7476.080014
1021.081411,-1998.556043,3370.820191,7031.956449
1021.081741,-1702.473667,1685.410096,7920.203579
1021.082070,-1850.514855,76.609550,9252.574275
1021.082400,-2072.576638,1302.362347,9844.739029
1021.082730,-1184.329507,1072.533697,9992.780217
1021.083059,-592.164754,0.000000,10807.006753
1021.083389,-1850.514855,153.219100,11843.295072
1021.083718,-4071.132681,1685.410096,11621.233289
1021.084048,-4145.153275,536.266849,11473.192101
1021.084377,-3034.844362,-842.705048,12065.356855
1021.084707,-3034.844362,383.047749,11991.336260
1021.085036,-2294.638420,1225.752797,10584.944971
1021.085366,-814.226536,-1072.533697,8142.265362
1021.085695,148.041188,-2757.943793,7179.997637
1021.086025,-740.205942,-1455.581446,7328.038826
1021.086355,-1258.350101,766.095498,7846.182985
1021.086684,0.000000,1072.533697,7994.224174
1021.087014,518.144159,459.657299,7994.224174
1021.087343,1036.288319,536.266849,8364.327145
1021.087673,2220.617826,612.876398,9474.636058
1021.088002,2886.803174,459.657299,10658.965565
1021.088332,1850.514855,995.924147,12139.377449
1021.088661,-1332.370696,2068.457845,12657.521608
1021.088991,-2960.823768,3524.039291,11917.315666
1021.089321,-2812.782580,1072.533697,11399.171507
1021.089650,-2072.576638,-1072.533697,11177.109724
1021.089980,-1850.514855,-383.047749,10436.903782
1021.090309,-370.102971,459.657299,8290.306550
1021.090639,888.247130,-919.314598,6735.874072
1021.090968,962.267725,-1455.581446,6587.832884
1021.091298,-592.164754,1072.533697,6587.832884
1021.091627,-592.164754,2451.505594,6587.832884
1021.091957,1184.329507,2221.676944,7105.977043
1021.092287,1554.432478,2834.553343,8290.306550
1021.092616,1406.391290,3677.258390,9326.594869
1021.092946,1776.494261,2221.676944,10214.842000
1021.093275,1036.288319,459.657299,12287.418637
1021.093605,-1332.370696,2374.896044,14582.057057
1021.093934,-4071.132681,4979.620737,13767.830521
1021.094264,-4367.215058,3447.429741,12065.356855
1021.094593,-2960.823768,0.000000,10214.842000
1021.094923,-1776.494261,-919.314598,9104.533087
1021.095253,-370.102971,0.000000,8068.244768
1021.095582,222.061783,0.000000,7105.977043
1021.095912,-592.164754,766.095498,7105.977043
1021.096241,-2664.741391,2068.457845,7031.956449
1021.096571,-3552.988522,2221.676944,7328.038826
1021.096900,-1776.494261,1455.581446,8216.285956
1021.097230,-1184.329507,1915.238745,8438.347739
1021.097559,-2072.576638,2451.505594,7994.224174
1021.097889,-2294.638420,689.485948,8068.244768
1021.098219,-1110.308913,-536.266849,9844.739029
1021.098548,-2146.597232,-306.438199,12731.542202
1021.098878,-4663.297435,1762.019645,13619.789333
1021.099207,-6365.771101,2451.505594,12435.459826
1021.099537,-4885.359217,689.485948,11325.150913
1021.099866,-2516.700203,-1915.238745,10955.047942
1021.100196,-962.267725,-1532.190996,10066.800811
1021.100525,296.082377,-153.219100,9252.574275
1021.100855,1184.329507,-612.876398,8882.471304
1021.101185,-370.102971,536.266849,8364.327145
1021.101514,-1998.556043,1762.019645,6735.874072
1021.101844,-518.144159,306.438199,6217.729913
1021.102173,1480.411884,-1608.800546,8142.265362
1021.102503,1184.329507,536.266849,9474.636058
1021.102832,296.082377,1762.019645,9178.553681
1021.103162,962.267725,0.000000,9104.533087
1021.103491,1036.288319,-1149.143247,11325.150913
1021.103821,-888.247130,766.095498,14063.912898
1021.104150,-3627.009116,2834.553343,13841.851115
1021.104480,-3627.009116,2221.676944,11917.315666
1021.104810,-3108.864956,76.609550,10881.027347
1021.105139,-2368.659014,-1072.533697,10436.903782
1021.105469,-296.082377,-689.485948,9400.615463
1021.105798,888.247130,-766.095498,7624.121203
1021.106128,740.205942,-306.438199,6587.832884
1021.106457,-444.123565,1838.629195,6291.750507
1021.106787,-444.123565,2987.772442,5773.606348
1021.107116,1628.453072,919.314598,7179.997637
1021.107446,2442.679609,919.314598,8956.491898
1021.107776,1332.370696,4060.306139,9548.656652
1021.108105,1406.391290,2757.943793,9474.636058
1021.108435,1702.473667,0.000000,11843.295072
1021.108764,-222.061783,1455.581446,13989.892304
1021.109094,-2812.782580,3983.696590,14211.954086
1021.109423,-3034.844362,2911.162892,11843.295072
1021.109753,-1998.556043,1608.800546,10214.842000
1021.110082,-1776.494261,0.000000,9326.594869
1021.110412,-1554.432478,306.438199,8586.388927
1021.110742,-370.102971,612.876398,7105.977043
1021.111071,-296.082377,1915.238745,6735.874072
1021.111401,-1554.432478,2681.334243,6587.832884
1021.111730,-3034.844362,2451.505594,6809.894666
1021.112060,-2812.782580,1302.362347,7328.038826
1021.112389,-2220.617826,536.266849,8512.368333
1021.112719,-2664.741391,1915.238745,9548.656652
1021.113048,-2886.803174,2757.943793,9696.697840
1021.113378,-1110.308913,919.314598,9844.739029
1021.113708,-1480.411884,-766.095498,9992.780217
1021.114037,-2516.700203,306.438199,11251.130318
1021.114367,-3849.070898,2145.067394,11843.295072
1021.114696,-3849.070898,2451.505594,11843.295072
1021.115026,-3701.029710,995.924147,12065.356855
1021.115355,-3552.988522,229.828649,10881.027347
1021.115685,-1480.411884,-153.219100,9252.574275
1021.116014,740.205942,-1532.190996,7476.080014
1021.116344,666.185348,-1608.800546,7254.018232
1021.116674,-814.226536,612.876398,7105.977043
1021.117003,-1480.411884,1302.362347,7698.141797
1021.117333,-296.082377,-229.828649,9474.636058
1021.117662,-444.123565,306.438199,10214.842000
1021.117992,-888.247130,2681.334243,10140.821405
1021.118321,222.061783,1915.238745,10288.862594
1021.118651,1258.350101,-383.047749,9992.780217
1021.118980,-148.041188,0.000000,10436.903782
1021.119310,-2368.659014,229.828649,11769.274478
1021.119639,-3552.988522,1072.533697,12435.459826
1021.119969,-4219.173869,1532.190996,12583.501014
1021.120299,-3775.050304,0.000000,11399.171507
1021.120628,-1924.535449,-383.047749,9474.636058
1021.120958,814.226536,-1762.019645,7624.121203
1021.121287,2368.659014,-2451.505594,7476.080014
1021.121617,518.144159,-383.047749,7179.997637
1021.121946,-888.247130,3524.039291,6365.771101
1021.122276,592.164754,2757.943793,6735.874072
1021.122605,2220.617826,536.266849,8586.388927
1021.122935,1850.514855,2374.896044,9548.656652
1021.123265,1554.432478,3140.991542,9696.697840
1021.123594,2220.617826,1302.362347,10584.944971
1021.123924,1554.432478,919.314598,11547.212695
1021.124253,-962.267725,3217.601092,12657.521608
1021.124583,-2664.741391,3064.381992,11399.171507
1021.124912,-2072.576638,1608.800546,10658.965565
1021.125242,-1406.391290,536.266849,9474.636058
1021.125571,-1036.288319,1455.581446,8956.491898
1021.125901,74.020594,0.000000,8438.347739
1021.126231,962.267725,-383.047749,8956.491898
1021.126560,-592.164754,1072.533697,8586.388927
1021.126890,-3108.864956,2911.162892,7476.080014
1021.127219,-3775.050304,4136.915689,5921.647536
1021.127549,-2072.576638,1149.143247,6513.812290
1021.127878,-1480.411884,-306.438199,8290.306550
1021.128208,-1258.350101,1225.752797,10658.965565
1021.128537,-1110.308913,1762.019645,10881.027347
1021.128867,-1628.453072,1685.410096,10436.903782
1021.129197,-3701.029710,1302.362347,11399.171507
1021.129526,-3923.091493,1532.190996,11843.295072
1021.129856,-2812.782580,1225.752797,11695.253884
1021.130185,-1850.514855,612.876398,11547.212695
1021.130515,-2368.659014,1991.848295,10584.944971
1021.130844,-1924.535449,1378.971896,9252.574275
1021.131174,-148.041188,-1532.190996,7994.224174
1021.131503,74.020594,-2068.457845,7328.038826
1021.131833,-1628.453072,229.828649,7476.080014
1021.132163,-2146.597232,1685.410096,7254.018232
1021.132492,-666.185348,919.314598,8364.327145
1021.132822,-592.164754,-612.876398,9400.615463
1021.133151,-592.164754,919.314598,9326.594869
1021.133481,148.041188,1532.190996,9622.677246
1021.133810,1480.411884,1762.019645,10362.883188
1021.134140,-444.123565,536.266849,10658.965565
1021.134469,-3108.864956,1225.752797,11769.274478
1021.134799,-4071.132681,1149.143247,12435.459826
1021.135129,-4145.153275,153.219100,13175.665768
1021.135458,-4663.297435,153.219100,12065.356855
1021.135788,-3849.070898,0.000000,10214.842000
1021.136117,-1036.288319,-1455.581446,7550.100608
1021.136447,1110.308913,-3294.210641,6439.791695
1021.136776,888.247130,-2298.286494,5995.668130
1021.137106,222.061783,2374.896044,6143.709319
1021.137435,518.144159,3140.991542,6883.915261
1021.137765,1850.514855,1838.629195,8660.409521
1021.138094,1924.535449,3064.381992,9474.636058
1021.138424,2220.617826,3217.601092,9474.636058
1021.138754,3701.029710,1225.752797,10066.800811
1021.139083,2812.782580,229.828649,12213.398043
1021.139413,296.082377,2374.896044,13619.789333
1021.139742,-2072.576638,2528.115143,12509.480420
1021.140072,-2368.659014,689.485948,11177.109724
1021.140401,-1628.453072,229.828649,10436.903782
1021.140731,-1480.411884,842.705048,9844.739029
1021.141060,-148.041188,612.876398,8364.327145
1021.141390,814.226536,383.047749,6883.915261
1021.141720,-296.082377,766.095498,7105.977043
1021.142049,-2146.597232,2451.505594,7624.121203
1021.142379,-3034.844362,3447.429741,7994.224174
1021.142708,-2368.659014,1685.410096,8290.306550
1021.143038,-2516.700203,689.485948,8364.327145
1021.143367,-1776.494261,1149.143247,9178.553681
1021.143697,-444.123565,919.314598,9178.553681
1021.144026,370.102971,0.000000,10436.903782
1021.144356,-1258.350101,459.657299,11843.295072
1021.144686,-3182.885551,2911.162892,11843.295072
1021.145015,-3478.967927,2987.772442,11325.150913
1021.145345,-2516.700203,1378.971896,10807.006753
1021.145674,-2442.679609,1225.752797,10658.965565
1021.146004,-1702.473667,1072.533697,9844.739029
1021.146333,74.020594,-689.485948,8068.244768
1021.146663,222.061783,-1225.752797,7105.977043
1021.146992,-1184.329507,-689.485948,6957.935855
1021.147322,-2590.720797,766.095498,7031.956449
1021.147652,-1998.556043,153.219100,7846.182985
1021.147981,-814.226536,0.000000,9770.718434
1021.148311,-1036.288319,1608.800546,10214.842000
1021.148640,-518.144159,2298.286494,9622.677246
1021.148970,518.144159,689.485948,9474.636058
1021.149299,148.041188,-383.047749,10955.047942
1021.149629,-2368.659014,1149.143247,12583.501014
1021.149958,-4071.132681,2451.505594,12583.501014
1021.150288,-4515.256246,1149.143247,11621.233289
1021.150618,-3701.029710,-383.047749,10955.047942
1021.150947,-2368.659014,-1378.971896,9992.780217
1021.151277,-222.061783,-1838.629195,8734.430116
1021.151606,1110.308913,-1838.629195,7476.080014
1021.151936,592.164754,-1072.533697,6957.935855
1021.152265,-1184.329507,1991.848295,7476.080014
1021.152595,-1036.288319,3140.991542,8216.285956
1021.152924,962.267725,1838.629195,9400.615463
1021.153254,1184.329507,1378.971896,9474.636058
1021.153584,1776.494261,1762.019645,8734.430116
1021.153913,2960.823768,1302.362347,9104.533087
1021.154243,3034.844362,-153.219100,10658.965565
1021.154572,888.247130,1532.190996,11917.315666
1021.154902,-1924.535449,3677.258390,11251.130318
1021.155231,-1702.473667,2374.896044,9474.636058
1021.155561,-592.164754,612.876398,10214.842000
1021.155890,-666.185348,459.657299,10510.924376
1021.156220,-592.164754,1225.752797,9548.656652
1021.156549,0.000000,306.438199,8364.327145
1021.156879,-148.041188,0.000000,8216.285956
1021.157209,-1480.411884,1225.752797,8512.368333
1021.157538,-2220.617826,1838.629195,7624.121203
1021.157868,-1036.288319,766.095498,6735.874072
1021.158197,-296.082377,842.705048,6513.812290
1021.158527,148.041188,1302.362347,8364.327145
1021.158856,1110.308913,766.095498,10288.862594
1021.159186,444.123565,1378.971896,11325.150913
1021.159515,-1998.556043,2374.896044,12213.398043
1021.159845,-3256.906145,2604.724693,12657.521608
1021.160174,-2812.782580,2604.724693,12139.377449
1021.160504,-1924.535449,536.266849,11473.192101
1021.160833,-1850.514855,-1378.971896,10288.862594
1021.161163,-1998.556043,-153.219100,9252.574275
1021.161493,-1036.288319,689.485948,8438.347739
1021.161822,74.020594,-842.705048,7994.224174
1021.162152,-814.226536,-383.047749,7179.997637
1021.162481,-2590.720797,1532.190996,6069.688724
1021.162811,-1702.473667,383.047749,6069.688724
1021.163140,-222.061783,-1302.362347,7920.203579
1021.163470,-518.144159,919.314598,10214.842000
1021.163799,-1702.473667,3140.991542,10658.965565
1021.164129,-444.123565,1378.971896,10881.027347
1021.164458,-518.144159,612.876398,11547.212695
1021.164788,-1924.535449,536.266849,11621.233289
1021.165117,-3108.864956,995.924147,11621.233289
1021.165447,-3034.844362,689.485948,11547.212695
1021.165776,-2960.823768,0.000000,11177.109724
1021.166106,-3034.844362,229.828649,10955.047942
1021.166435,-2368.659014,306.438199,9474.636058
1021.166765,-1184.329507,-1455.581446,8216.285956
1021.167095,-1036.288319,-2145.067394,7772.162391
1021.167424,-1702.473667,459.657299,7254.018232
1021.167754,-888.247130,2451.505594,6883.915261
1021.168083,740.205942,-229.828649,6883.915261
1021.168413,888.247130,0.000000,8512.368333
1021.168742,592.164754,1915.238745,10362.883188
1021.169072,1184.329507,2451.505594,10732.986159
1021.169401,1998.556043,2604.724693,11399.171507
1021.169731,518.144159,2604.724693,11473.192101
1021.170060,-666.185348,2145.067394,11325.150913
1021.170390,-592.164754,1225.752797,10658.965565
1021.170719,0.000000,153.219100,10584.944971
1021.171049,-740.205942,1072.533697,10288.862594
1021.171378,-1110.308913,1762.019645,8808.450710
1021.171708,0.000000,1225.752797,7994.224174
1021.172037,888.247130,-536.266849,7846.182985
1021.172367,0.000000,153.219100,7846.182985
1021.172697,-962.267725,3140.991542,6809.894666
1021.173026,-296.082377,2145.067394,6439.791695
1021.173356,222.061783,536.266849,7772.162391
1021.173685,-888.247130,1532.190996,9400.615463
1021.174015,-518.144159,2757.943793,10584.944971
1021.174344,0.000000,1302.362347,10658.965565
1021.174674,-814.226536,995.924147,11399.171507
1021.175003,-2738.761985,2451.505594,12139.377449
1021.175333,-3478.967927,2451.505594,11695.253884
1021.175662,-2516.700203,995.924147,10807.006753
1021.175992,-1924.535449,1072.533697,10288.862594
1021.176321,-1628.453072,1225.752797,9622.677246
1021.176651,-814.226536,995.924147,7920.203579
1021.176980,74.020594,-612.876398,7402.059420
1021.177310,-814.226536,-536.266849,7994.224174
1021.177639,-2368.659014,1608.800546,8142.265362
1021.177969,-1998.556043,2528.115143,7846.182985
1021.178299,-1406.391290,306.438199,8068.244768
1021.178628,-888.247130,-536.266849,9918.759623
1021.178958,-1406.391290,1149.143247,10214.842000
1021.179287,-888.247130,995.924147,9770.718434
1021.179617,148.041188,-153.219100,10807.006753
1021.179946,-1702.473667,459.657299,12065.356855
1021.180276,-3478.967927,2145.067394,12361.439231
1021.180605,-3627.009116,1302.362347,11621.233289
1021.180935,-2590.720797,-153.219100,10955.047942
1021.181264,-2812.782580,76.609550,10584.944971
1021.181594,-2220.617826,-229.828649,9548.656652
1021.181923,-1554.432478,-1838.629195,8808.450710
1021.182253,-2072.576638,-1149.143247,8586.388927
1021.182582,-3330.926739,612.876398,8142.265362
1021.182912,-3404.947333,1532.190996,7105.977043
1021.183241,-1406.391290,0.000000,7179.997637
1021.183571,-370.102971,-306.438199,8068.244768
1021.183900,-666.185348,842.705048,8882.471304
1021.184230,0.000000,2374.896044,9252.574275
1021.184560,444.123565,2451.505594,9326.594869
1021.184889,0.000000,2374.896044,10140.821405
1021.185219,-2072.576638,2757.943793,10362.883188
1021.185548,-2812.782580,2374.896044,10732.986159
1021.185878,-3404.947333,689.485948,11917.315666
1021.186207,-5107.421000,459.657299,13101.645173
1021.186537,-6143.709319,1302.362347,12879.583391
1021.186866,-4811.338623,1072.533697,9918.759623
1021.187196,-2886.803174,-766.095498,7179.997637
1021.187525,-1184.329507,-995.924147,5551.544565
1021.187855,-962.267725,76.609550,4589.276840
1021.188184,-962.267725,536.266849,5181.441594
1021.188514,-1332.370696,766.095498,7920.203579
1021.188843,-3849.070898,3753.867940,10436.903782
1021.189173,-4811.338623,5209.449386,11621.233289
1021.189502,-3923.091493,3600.648841,11103.089130
1021.189832,-2368.659014,919.314598,10362.883188
1021.190162,-1924.535449,689.485948,9844.739029
1021.190491,-2442.679609,689.485948,10066.800811
1021.190821,-4737.318029,1302.362347,11473.192101
1021.191150,-7402.059420,2834.553343,11177.109724
1021.191480,-8438.347739,2298.286494,10881.027347
1021.191809,-6957.935855,1378.971896,10436.903782
1021.192139,-4663.297435,1149.143247,8586.388927
1021.192468,-2368.659014,-306.438199,6957.935855
1021.192798,-1702.473667,-612.876398,5477.523971
1021.193127,-1332.370696,76.609550,6587.832884
1021.193457,-2664.741391,689.485948,8882.471304
1021.193786,-5255.462188,1608.800546,10658.965565
1021.194116,-8068.244768,2681.334243,10436.903782
1021.194445,-8142.265362,1915.238745,11177.109724
1021.194775,-6291.750507,76.609550,11917.315666
1021.195104,-4293.194464,-306.438199,11473.192101
1021.195434,-2294.638420,-919.314598,8660.409521
1021.195764,-1406.391290,-1532.190996,7402.059420
1021.196093,-592.164754,459.657299,8068.244768
1021.196423,-888.247130,1991.848295,10066.800811
1021.196752,-1998.556043,2834.553343,11103.089130
1021.197082,-4071.132681,3677.258390,11103.089130
1021.197411,-6365.771101,2604.724693,10436.903782
1021.197741,-7179.997637,1608.800546,10510.924376
1021.198070,-6883.915261,-153.219100,10066.800811
1021.198400,-5625.565159,-1838.629195,8586.388927
1021.198729,-4441.235652,-3370.820191,7105.977043
1021.199059,-3182.885551,-2911.162892,6735.874072
1021.199388,-1258.350101,-995.924147,7328.038826
1021.199718,296.082377,-383.047749,8364.327145
1021.200047,296.082377,1838.629195,9696.697840
1021.200377,-1110.308913,4213.525239,10140.821405
1021.200706,-2960.823768,4596.572988,11103.089130
1021.201036,-4885.359217,3524.039291,11917.315666
1021.201366,-7624.121203,2451.505594,13693.809927
1021.201695,-9252.574275,1378.971896,13175.665768
1021.202025,-8660.409521,-612.876398,10807.006753
1021.202354,-5921.647536,-2911.162892,8068.244768
1021.202684,-2294.638420,-4060.306139,6069.688724
1021.203013,74.020594,-3600.648841,5033.400406
1021.203343,1406.391290,-919.314598,4515.256246
1021.203672,2220.617826,2451.505594,5847.626942
1021.204002,1258.350101,6128.763984,8438.347739
1021.204331,-518.144159,7967.393179,10807.006753
1021.204661,-3849.070898,6818.249932,12287.418637
1021.204990,-7105.977043,4596.572988,12583.501014
1021.205320,-9474.636058,2451.505594,12953.603985
1021.205649,-10066.800811,-536.266849,12805.562797
1021.205979,-9548.656652,-2757.943793,11547.212695
1021.206308,-8660.409521,-4060.306139,8808.450710
1021.206638,-5181.441594,-4366.744339,6883.915261
1021.206968,-1110.308913,-3140.991542,5995.668130
1021.207297,2294.638420,689.485948,6291.750507
1021.207627,3182.885551,3907.087040,7179.997637
1021.207956,2294.638420,6894.859482,8882.471304
1021.208286,222.061783,8886.707777,10881.027347
1021.208615,-2368.659014,8273.831378,12731.542202
1021.208945,-5329.482782,5515.887586,13989.892304
1021.209274,-8956.491898,1608.800546,13767.830521
1021.209604,-11029.068536,-689.485948,12213.398043
1021.209933,-11029.068536,-4290.134789,9696.697840
1021.210263,-9326.594869,-6052.154434,6365.771101
1021.210592,-5329.482782,-6741.640382,4811.338623
1021.210922,-1554.432478,-4519.963438,4145.153275
1021.211251,740.205942,-689.485948,4959.379811
1021.211581,1924.535449,3524.039291,6587.832884
1021.211910,1554.432478,7660.954980,8882.471304
1021.212240,0.000000,9882.631924,10658.965565
1021.212569,-2590.720797,9039.926876,12435.459826
1021.212899,-5181.441594,5669.106685,12805.562797
1021.213229,-7698.141797,1378.971896,12139.377449
1021.213558,-9918.759623,-1915.238745,11251.130318
1021.213888,-11547.212695,-5286.058936,10436.903782
1021.214217,-10584.944971,-7201.297681,9622.677246
1021.214547,-7920.203579,-6818.249932,8734.430116
1021.214876,-4515.256246,-4366.744339,6661.853478
1021.215206,-592.164754,-1762.019645,5477.523971
1021.215535,2368.659014,383.047749,6143.709319
1021.215865,3701.029710,3753.867940,8364.327145
1021.216194,2812.782580,6818.249932,10436.903782
1021.216524,0.000000,7890.783629,12213.398043
1021.216853,-3552.988522,5669.106685,13027.624579
1021.217183,-6883.915261,1991.848295,15100.201217
1021.217512,-9474.636058,-306.438199,14804.118840
1021.217842,-10436.903782,-2987.772442,12583.501014
1021.218171,-8734.430116,-5592.497135,9030.512492
1021.218501,-5773.606348,-6128.763984,6513.812290
1021.218831,-2442.679609,-4366.744339,5699.585753
1021.219160,222.061783,-2068.457845,5699.585753
1021.219490,1406.391290,1608.800546,6513.812290
1021.219819,666.185348,6894.859482,8068.244768
1021.220149,-444.123565,10725.336972,9992.780217
1021.220478,-2146.597232,9269.755526,11695.253884
1021.220808,-4589.276840,6358.592633,12583.501014
1021.221137,-6439.791695,2911.162892,12583.501014
1021.221467,-7402.059420,229.828649,12435.459826
1021.221796,-8586.388927,-1378.971896,10955.047942
1021.222126,-8660.409521,-3447.429741,9030.512492
1021.222455,-6661.853478,-3447.429741,7698.141797
1021.222785,-3775.050304,-689.485948,6587.832884
1021.223114,-222.061783,1378.971896,5699.585753
1021.223444,1850.514855,3140.991542,6143.709319
1021.223773,1850.514855,6052.154434,6809.894666
1021.224103,1110.308913,8197.221829,8882.471304
1021.224433,-370.102971,7660.954980,10658.965565
1021.224762,-2368.659014,6741.640382,12065.356855
1021.225092,-4145.153275,5439.278036,11547.212695
1021.225421,-4737.318029,1838.629195,10584.944971
1021.225751,-3997.112087,-842.705048,8586.388927
1021.226080,-3256.906145,-2145.067394,7624.121203
1021.226410,-2442.679609,-1302.362347,7402.059420
1021.226739,-1850.514855,1072.533697,7476.080014
1021.227069,-1480.411884,2911.162892,7994.224174
1021.227398,-1850.514855,4290.134789,9474.636058
1021.227728,-2368.659014,6435.202183,10732.986159
1021.228057,-2072.576638,7660.954980,11695.253884
1021.228387,-2072.576638,6588.421283,11843.295072
1021.228716,-2442.679609,4673.182538,11843.295072
1021.229046,-1702.473667,2451.505594,11029.068536
1021.229375,-1628.453072,1378.971896,9548.656652
1021.229705,-1702.473667,689.485948,8882.471304
1021.230035,-1406.391290,1302.362347,8882.471304
1021.230364,-666.185348,2604.724693,9474.636058
1021.230694,-370.102971,5132.839837,9844.739029
1021.231023,-1628.453072,6588.421283,10066.800811
1021.231353,-2220.617826,6971.469032,9844.739029
1021.231682,-2368.659014,6894.859482,9400.615463
1021.232012,-2516.700203,6358.592633,9104.533087
1021.232341,-2664.741391,3983.696590,8142.265362
1021.232671,-2294.638420,1608.800546,6661.853478
1021.233000,-1776.494261,536.266849,5995.668130
1021.233330,-1406.391290,-153.219100,6513.812290
1021.233659,-2294.638420,842.705048,7476.080014
1021.233989,-2738.761985,2221.676944,8734.430116
1021.234318,-2664.741391,4060.306139,9252.574275
1021.234648,-2442.679609,6052.154434,10436.903782
1021.234977,-1850.514855,7048.078582,10584.944971
1021.235307,-592.164754,6435.202183,10436.903782
1021.235637,296.082377,5515.887586,9992.780217
1021.235966,0.000000,4826.401637,10214.842000
1021.236296,-740.205942,4290.134789,9770.718434
1021.236625,-1110.308913,3217.601092,9400.615463
1021.236955,-1036.288319,1991.848295,8734.430116
1021.237284,-740.205942,1532.190996,8956.491898
1021.237614,0.000000,1302.362347,9548.656652
1021.237943,0.000000,2145.067394,10066.800811
1021.238273,-1184.329507,3064.381992,10510.924376
1021.238602,-2368.659014,4826.401637,11103.089130
1021.238932,-2146.597232,5745.716235,11843.295072
1021.239261,-1258.350101,5362.668486,12213.398043
1021.239591,-888.247130,5132.839837,11695.253884
1021.239920,-1110.308913,4979.620737,10362.883188
1021.240250,-814.226536,4290.134789,9696.697840
1021.240579,0.000000,4366.744339,9548.656652
1021.240909,222.061783,4979.620737,8956.491898
1021.241238,444.123565,4826.401637,7476.080014
1021.241568,148.041188,3370.820191,6365.771101
1021.241898,444.123565,2528.115143,6513.812290
1021.242227,0.000000,2145.067394,7105.977043
1021.242557,-1258.350101,2451.505594,8438.347739
1021.242886,-2368.659014,3294.210641,9252.574275
1021.243216,-3256.906145,3294.210641,9992.780217
1021.243545,-3034.844362,4060.306139,11177.109724
1021.243875,-2516.700203,4749.792088,11325.150913
1021.244204,-2146.597232,5132.839837,10436.903782
1021.244534,-1554.432478,5592.497135,9474.636058
1021.244863,-296.082377,6358.592633,9400.615463
1021.245193,74.020594,6052.154434,9030.512492
1021.245522,0.000000,5439.278036,8142.265362
1021.245852,-1110.308913,4903.011187,7105.977043
1021.246181,-1480.411884,3830.477490,6513.812290
1021.246511,-1110.308913,2374.896044,6439.791695
1021.246840,-1702.473667,689.485948,6883.915261
1021.247170,-1406.391290,-153.219100,7846.182985
1021.247500,-1776.494261,-306.438199,9178.553681
1021.247829,-2072.576638,1149.143247,10955.047942
1021.248159,-1480.411884,2681.334243,12139.377449
1021.248488,-1184.329507,4596.572988,12879.583391
1021.248818,-296.082377,5515.887586,13619.789333
1021.249147,-296.082377,6894.859482,13545.768739
1021.249477,-222.061783,7048.078582,12435.459826
1021.249806,0.000000,5745.716235,10881.027347
1021.250136,0.000000,3983.696590,9326.594869
1021.250465,0.000000,2987.772442,8882.471304
1021.250795,-1184.329507,2298.286494,8364.327145
1021.251124,-2368.659014,2604.724693,7772.162391
1021.251454,-2368.659014,1762.019645,7179.997637
1021.251783,-1924.535449,612.876398,7550.100608
1021.252113,-1184.329507,1149.143247,8660.409521
1021.252442,-296.082377,2221.676944,9770.718434
1021.252772,-370.102971,3447.429741,10510.924376
1021.253102,-962.267725,4903.011187,10658.965565
1021.253431,-1406.391290,6435.202183,10881.027347
1021.253761,-1480.411884,7354.516781,12065.356855
1021.254090,-1036.288319,7584.345430,12435.459826
1021.254420,-1628.453072,7354.516781,11177.109724
1021.254749,-2442.679609,6358.592633,8364.327145
1021.255079,-1924.535449,4443.353888,5329.482782
1021.255408,0.000000,2681.334243,3404.947333
1021.255738,2220.617826,1915.238745,3478.967927
1021.256067,2886.803174,1532.190996,4293.194464
1021.256397,1776.494261,2068.457845,5995.668130
1021.256726,-1258.350101,3753.867940,7846.182985
1021.257056,-3552.988522,5669.106685,10362.883188
1021.257385,-4737.318029,5822.325785,13471.748144
1021.257715,-4737.318029,6052.154434,14952.160028
1021.258045,-4811.338623,6052.154434,14730.098246
1021.258374,-4811.338623,5056.230287,12953.603985
1021.258704,-3552.988522,3600.648841,11103.089130
1021.259033,-1850.514855,3370.820191,8290.306550
1021.259363,888.247130,2451.505594,6143.709319
1021.259692,4145.153275,2145.067394,5329.482782
1021.260022,5773.606348,2528.115143,5107.421000
1021.260351,4663.297435,4213.525239,6365.771101
1021.260681,1554.432478,4443.353888,8068.244768
1021.261010,-2368.659014,6511.811733,11177.109724
1021.261340,-4737.318029,8503.660028,13767.830521
1021.261670,-5033.400406,6435.202183,14359.995275
1021.261999,-3849.070898,3064.381992,13397.727550
1021.262329,-1998.556043,-229.828649,10436.903782
1021.262658,-814.226536,-1378.971896,7846.182985
1021.262988,-444.123565,-842.705048,6439.791695
1021.263317,-518.144159,1149.143247,7105.977043
1021.263647,-370.102971,3294.210641,8956.491898
1021.263976,-740.205942,4290.134789,8512.368333
1021.264306,-962.267725,3907.087040,6957.935855
1021.264635,-592.164754,1838.629195,6143.709319
1021.264965,0.000000,-229.828649,8290.306550
1021.265295,-814.226536,842.705048,11769.274478
1021.265624,-2442.679609,3140.991542,13471.748144
1021.265954,-3330.926739,4136.915689,13175.665768
1021.266283,-3034.844362,2528.115143,12361.439231
1021.266613,-2220.617826,2145.067394,11547.212695
1021.266942,-1184.329507,1915.238745,9104.533087
1021.267272,370.102971,383.047749,6291.750507
1021.267601,2072.576638,-995.924147,4959.379811
1021.267931,2368.659014,-1225.752797,6143.709319
1021.268260,1406.391290,0.000000,7920.203579
1021.268590,-296.082377,1532.190996,9844.739029
1021.268920,-2294.638420,1991.848295,11843.295072
1021.269249,-3552.988522,2911.162892,13175.665768
1021.269579,-3478.967927,2604.724693,13101.645173
1021.269908,-2368.659014,1072.533697,12583.501014
1021.270238,-1036.288319,-995.924147,11029.068536
1021.270567,-666.185348,-842.705048,9326.594869
1021.270897,0.000000,-153.219100,8512.368333
1021.271226,148.041188,995.924147,8808.450710
1021.271556,-296.082377,2681.334243,9918.759623
1021.271885,-1110.308913,4366.744339,10436.903782
1021.272215,-1332.370696,3447.429741,8290.306550
1021.272545,-666.185348,919.314598,6439.791695
1021.272874,0.000000,-1378.971896,6957.935855
1021.273204,0.000000,-536.266849,9474.636058
1021.273533,-1184.329507,1072.533697,11399.171507
1021.273863,-2368.659014,2451.505594,11991.336260
1021.274192,-3182.885551,3677.258390,12731.542202
1021.274522,-3404.947333,5209.449386,12657.521608
1021.274851,-2220.617826,5515.887586,11251.130318
1021.275181,-444.123565,3524.039291,8142.265362
1021.275510,1110.308913,919.314598,5477.523971
1021.275840,1702.473667,153.219100,4737.318029
1021.276170,1184.329507,1149.143247,5699.585753
1021.276499,-666.185348,2681.334243,7920.203579
1021.276829,-2146.597232,3524.039291,8882.471304
1021.277158,-2442.679609,4596.572988,9474.636058
1021.277488,-1406.391290,4213.525239,9474.636058
1021.277817,0.000000,1149.143247,8512.368333
1021.278147,1036.288319,-919.314598,8142.265362
1021.278476,592.164754,-766.095498,8734.430116
1021.278806,-518.144159,1608.800546,9992.780217
1021.279136,-1332.370696,3140.991542,11843.295072
1021.279465,-2516.700203,4519.963438,11547.212695
1021.279795,-2738.761985,3830.477490,9548.656652
1021.280124,-1998.556043,459.657299,7624.121203
1021.280454,370.102971,-1608.800546,7328.038826
1021.280783,888.247130,-2528.115143,7550.100608
1021.281113,-148.041188,-1608.800546,7994.224174
1021.281442,-1332.370696,0.000000,9252.574275
1021.281772,-2146.597232,919.314598,11843.295072
1021.282101,-2886.803174,2757.943793,13989.892304
1021.282431,-3108.864956,2911.162892,12805.562797
1021.282761,-1258.350101,76.609550,10881.027347
1021.283090,518.144159,-3753.867940,9622.677246
1021.283420,1406.391290,-4519.963438,9030.512492
1021.283749,518.144159,-3140.991542,9844.739029
1021.284079,-222.061783,-1455.581446,11325.150913
1021.284408,-1184.329507,766.095498,12731.542202
1021.284738,-2294.638420,3064.381992,13175.665768
1021.285067,-1924.535449,1762.019645,11177.109724
1021.285397,0.000000,-766.095498,9178.553681
1021.285726,962.267725,-2221.676944,8512.368333
1021.286056,888.247130,-1685.410096,8290.306550
1021.286386,74.020594,-1225.752797,8438.347739
1021.286715,-1406.391290,-995.924147,9252.574275
1021.287045,-2738.761985,919.314598,10362.883188
1021.287374,-3997.112087,1991.848295,10140.821405
1021.287704,-2590.720797,689.485948,8586.388927
1021.288033,0.000000,-2374.896044,7846.182985
1021.288363,888.247130,-2757.943793,6809.894666
1021.288692,296.082377,-1149.143247,6883.915261
1021.289022,222.061783,229.828649,9030.512492
1021.289351,-518.144159,2681.334243,11991.336260
1021.289681,-2368.659014,6128.763984,13397.727550
1021.290011,-3478.967927,7354.516781,11843.295072
1021.290340,-2072.576638,3677.258390,9326.594869
1021.290670,0.000000,153.219100,7476.080014
1021.290999,888.247130,-536.266849,6809.894666
1021.291329,296.082377,-229.828649,6809.894666
1021.291658,-518.144159,1072.533697,7550.100608
1021.291988,-2146.597232,3524.039291,9178.553681
1021.292317,-3182.885551,4749.792088,9474.636058
1021.292647,-2886.803174,4596.572988,9400.615463
1021.292976,-1036.288319,1915.238745,8364.327145
1021.293306,444.123565,-229.828649,7254.018232
1021.293636,222.061783,0.000000,7254.018232
1021.293965,518.144159,536.266849,9178.553681
1021.294295,0.000000,1455.581446,11177.109724
1021.294624,-1554.432478,3753.867940,13249.686362
1021.294954,-3182.885551,6281.983084,13619.789333
1021.295283,-2590.720797,5822.325785,11843.295072
1021.295613,-296.082377,2911.162892,9400.615463
1021.295942,1702.473667,689.485948,8660.409521
1021.296272,1406.391290,229.828649,7624.121203
1021.296601,1184.329507,306.438199,7476.080014
1021.296931,0.000000,1225.752797,8734.430116
1021.297261,-2146.597232,1838.629195,9844.739029
1021.297590,-4145.153275,3524.039291,10362.883188
1021.297920,-3627.009116,1608.800546,8808.450710
1021.298249,-1184.329507,-1991.848295,7772.162391
1021.298579,222.061783,-3370.820191,7105.977043
1021.298908,592.164754,-2604.724693,7550.100608
1021.299238,518.144159,-1838.629195,9252.574275
1021.299567,-592.164754,0.000000,11695.253884
1021.299897,-3256.906145,4136.915689,12805.562797
1021.300226,-3923.091493,5898.935335,11769.274478
1021.300556,-1924.535449,1685.410096,9918.759623
1021.300886,814.226536,-2604.724693,8438.347739
1021.301215,1554.432478,-3600.648841,7698.141797
1021.301545,1036.288319,-3600.648841,7476.080014
1021.301874,296.082377,-2757.943793,8660.409521
1021.302204,-962.267725,-919.314598,11251.130318
1021.302533,-2664.741391,2068.457845,12213.398043
1021.302863,-2146.597232,2604.724693,11177.109724
1021.303192,74.020594,-1225.752797,9992.780217
1021.303522,1332.370696,-2911.162892,8660.409521
1021.303852,814.226536,-2451.505594,9030.512492
1021.304181,222.061783,-2221.676944,10288.862594
1021.304511,-592.164754,-1302.362347,11769.274478
1021.304840,-2368.659014,1378.971896,13175.665768
1021.305170,-3701.029710,3907.087040,12509.480420
1021.305499,-2960.823768,1532.190996,10362.883188
1021.305829,-814.226536,-1608.800546,8882.471304
1021.306158,962.267725,-2298.286494,8586.388927
1021.306488,222.061783,-612.876398,8438.347739
1021.306817,-444.123565,1149.143247,8364.327145
1021.307147,-1110.308913,1455.581446,9030.512492
1021.307477,-1924.535449,2834.553343,10066.800811
1021.307806,-2368.659014,4136.915689,9474.636058
1021.308136,-1258.350101,1991.848295,8142.265362
1021.308465,74.020594,-1149.143247,7105.977043
1021.308795,222.061783,-1915.238745,7476.080014
1021.309124,-148.041188,0.000000,8290.306550
1021.309454,-814.226536,1072.533697,9252.574275
1021.309783,-1406.391290,3064.381992,10436.903782
1021.310113,-2368.659014,5669.106685,11325.150913
1021.310442,-2886.803174,6281.983084,9992.780217
1021.310772,-888.247130,3140.991542,8438.347739
1021.311102,888.247130,306.438199,6957.935855
1021.311431,1258.350101,-153.219100,6809.894666
1021.311761,740.205942,842.705048,6957.935855
1021.312090,-592.164754,1532.190996,8364.327145
1021.312420,-1776.494261,2451.505594,10658.965565
1021.312749,-3701.029710,4519.963438,11473.192101
1021.313079,-4219.173869,4290.134789,10362.883188
1021.313408,-1776.494261,995.924147,9104.533087
1021.313738,222.061783,-2374.896044,8808.450710
1021.314067,370.102971,-2451.505594,8734.430116
1021.314397,148.041188,-1455.581446,9548.656652
1021.314727,-296.082377,0.000000,11843.295072
1021.315056,-1924.535449,3064.381992,13915.871710
1021.315386,-3627.009116,5286.058936,13397.727550
1021.315715,-2738.761985,2987.772442,11251.130318
1021.316045,296.082377,-1302.362347,9622.677246
1021.316374,2072.576638,-2834.553343,8438.347739
1021.316704,1998.556043,-2145.067394,7328.038826
1021.317033,1776.494261,-1532.190996,8364.327145
1021.317363,592.164754,383.047749,9992.780217
1021.317692,-666.185348,2451.505594,11177.109724
1021.318022,-1258.350101,3140.991542,11029.068536
1021.318352,0.000000,76.609550,9696.697840
1021.318681,1258.350101,-2604.724693,8660.409521
1021.319011,148.041188,-2221.676944,8290.306550
1021.319340,-888.247130,-2145.067394,8660.409521
1021.319670,-1850.514855,-1762.019645,10807.006753
1021.319999,-3404.947333,1072.533697,12065.356855
1021.320329,-4959.379811,3064.381992,11621.233289
1021.320658,-4441.235652,2911.162892,9992.780217
1021.320988,-1850.514855,383.047749,7994.224174
1021.321317,-74.020594,-1378.971896,5995.668130
1021.321647,518.144159,-2068.457845,5625.565159
1021.321977,296.082377,-459.657299,6661.853478
1021.322306,-296.082377,2604.724693,8734.430116
1021.322636,-2146.597232,4443.353888,9622.677246
1021.322965,-2738.761985,3830.477490,9252.574275
1021.323295,-1332.370696,1149.143247,9030.512492
1021.323624,296.082377,-1072.533697,9252.574275
1021.323954,148.041188,-2757.943793,8734.430116
1021.324283,-666.185348,-1991.848295,8586.388927
1021.324613,-592.164754,-919.314598,10066.800811
1021.324942,-1110.308913,919.314598,12435.459826
1021.325272,-2738.761985,4443.353888,13915.871710
1021.325602,-2886.803174,5975.544884,12657.521608
1021.325931,-1036.288319,3753.867940,10584.944971
1021.326261,444.123565,689.485948,8290.306550
1021.326590,1184.329507,-689.485948,7772.162391
1021.326920,1036.288319,-612.876398,7994.224174
1021.327249,-296.082377,383.047749,8808.450710
1021.327579,-2368.659014,1608.800546,10510.924376
1021.327908,-3923.091493,3600.648841,11843.295072
1021.328238,-4367.215058,2681.334243,10584.944971
1021.328567,-2738.761985,-383.047749,8808.450710
1021.328897,-962.267725,-2451.505594,7179.997637
1021.329227,444.123565,-1608.800546,7550.100608
1021.329556,1110.308913,-1532.190996,8438.347739
1021.329886,666.185348,-383.047749,9696.697840
1021.330215,-1036.288319,2298.286494,11695.253884
1021.330545,-2368.659014,5745.716235,12435.459826
1021.330874,-2368.659014,4903.011187,11399.171507
1021.331204,-518.144159,2145.067394,9622.677246
1021.331533,962.267725,-842.705048,7772.162391
1021.331863,1480.411884,-1838.629195,6883.915261
1021.332193,1480.411884,-1455.581446,6809.894666
1021.332522,74.020594,-229.828649,7624.121203
1021.332852,-1480.411884,1532.190996,9548.656652
1021.333181,-2368.659014,2911.162892,10436.903782
1021.333511,-1480.411884,1608.800546,9474.636058
1021.333840,74.020594,-1532.190996,8364.327145
1021.334170,296.082377,-1762.019645,8068.244768
1021.334499,-296.082377,-1302.362347,8956.491898
1021.334829,-1184.329507,-766.095498,11029.068536
1021.335158,-2368.659014,1302.362347,13175.665768
1021.335488,-4293.194464,4136.915689,13619.789333
1021.335818,-4145.153275,3677.258390,12065.356855
1021.336147,-2146.597232,1225.752797,9918.759623
1021.336477,-222.061783,-1149.143247,8438.347739
1021.336806,444.123565,-1225.752797,7328.038826
1021.337136,666.185348,-612.876398,7328.038826
1021.337465,444.123565,1225.752797,8660.409521
1021.337795,-666.185348,3753.867940,10066.800811
1021.338124,-1850.514855,4519.963438,10140.821405
1021.338454,-1776.494261,3140.991542,9104.533087
1021.338783,148.041188,153.219100,8660.409521
1021.339113,1184.329507,-1455.581446,8660.409521
1021.339443,518.144159,-766.095498,8808.450710
1021.339772,-222.061783,-306.438199,9474.636058
1021.340102,-1184.329507,995.924147,10807.006753
1021.340431,-2442.679609,3677.258390,11917.315666
1021.340761,-2886.803174,6128.763984,11769.274478
1021.341090,-1776.494261,4673.182538,9770.718434
1021.341420,-592.164754,2145.067394,8290.306550
1021.341749,296.082377,1072.533697,7105.977043
1021.342079,444.123565,306.438199,6365.771101
1021.342408,0.000000,459.657299,6587.832884
1021.342738,-1258.350101,1685.410096,8660.409521
1021.343068,-2960.823768,3983.696590,10066.800811
1021.343397,-4367.215058,4290.134789,9696.697840
1021.343727,-3478.967927,1302.362347,8512.368333
1021.344056,-1998.556043,-2068.457845,7179.997637
1021.344386,-1258.350101,-3447.429741,7550.100608
1021.344715,-296.082377,-2528.115143,9104.533087
1021.345045,296.082377,-1072.533697,10288.862594
1021.345374,-444.123565,612.876398,12065.356855
1021.345704,-1850.514855,2911.162892,13397.727550
1021.346033,-2294.638420,4213.525239,13249.686362
1021.346363,-592.164754,2298.286494,12065.356855
1021.346693,814.226536,459.657299,10955.047942
1021.347022,1702.473667,-229.828649,9548.656652
1021.347352,2072.576638,-766.095498,9326.594869
1021.347681,1406.391290,-766.095498,9992.780217
1021.348011,-444.123565,689.485948,10807.006753
1021.348340,-1850.514855,2604.724693,10510.924376
1021.348670,-1850.514855,1378.971896,9474.636058
1021.348999,-740.205942,-1838.629195,8660.409521
1021.349329,-296.082377,-3064.381992,8364.327145
1021.349658,-814.226536,-2451.505594,8734.430116
1021.349988,-1110.308913,-919.314598,9030.512492
1021.350318,-2294.638420,-153.219100,10807.006753
1021.350647,-3404.947333,2298.286494,12361.439231
1021.350977,-4515.256246,4366.744339,11399.171507
1021.351306,-3330.926739,2604.724693,9400.615463
1021.351636,-1184.329507,536.266849,8068.244768
1021.351965,148.041188,-842.705048,6661.853478
1021.352295,0.000000,0.000000,6735.874072
1021.352624,222.061783,919.314598,7846.182985
1021.352954,-296.082377,2834.553343,8734.430116
1021.353283,-1628.453072,5056.230287,8882.471304
1021.353613,-1554.432478,4596.572988,7698.141797
1021.353943,0.000000,919.314598,7328.038826
1021.354272,888.247130,-919.314598,8364.327145
1021.354602,-222.061783,229.828649,8882.471304
1021.354931,-1332.370696,1149.143247,9326.594869
1021.355261,-1480.411884,612.876398,10214.842000
1021.355590,-3182.885551,2298.286494,11991.336260
1021.355920,-4219.173869,4903.011187,12435.459826
1021.356249,-3330.926739,4826.401637,10881.027347
1021.356579,-1480.411884,1915.238745,8956.491898
1021.356909,-148.041188,153.219100,7476.080014
1021.357238,0.000000,689.485948,7772.162391
1021.357568,0.000000,1302.362347,8068.244768
1021.357897,-518.144159,2145.067394,9178.553681
1021.358227,-1554.432478,3753.867940,10807.006753
1021.358556,-2442.679609,5056.230287,11251.130318
1021.358886,-2220.617826,3677.258390,10140.821405
1021.359215,-370.102971,-153.219100,9474.636058
1021.359545,444.123565,-1991.848295,8956.491898
1021.359875,0.000000,-1302.362347,9030.512492
1021.360204,-222.061783,-536.266849,10140.821405
1021.360534,-666.185348,766.095498,11917.315666
1021.360863,-2146.597232,3217.601092,12435.459826
1021.361193,-2368.659014,4826.401637,11251.130318
1021.361523,-1184.329507,2451.505594,9252.574275
1021.361852,370.102971,-229.828649,7846.182985
1021.362182,888.247130,-459.657299,7105.977043
1021.362511,888.247130,-383.047749,7105.977043
1021.362841,370.102971,229.828649,8438.347739
1021.363171,-1406.391290,995.924147,9548.656652
1021.363500,-2738.761985,2451.505594,10288.862594
1021.363830,-2738.761985,1838.629195,9844.739029
1021.364159,-740.205942,-229.828649,9400.615463
1021.364489,0.000000,-2451.505594,8512.368333
1021.364819,-1258.350101,-2757.943793,7920.203579
1021.365148,-1702.473667,-1838.629195,9696.697840
1021.365478,-1924.535449,-306.438199,11991.336260
1021.365807,-2886.803174,1915.238745,13175.665768
1021.366137,-3775.050304,3830.477490,11843.295072
1021.366466,-2812.782580,1532.190996,9548.656652
1021.366796,-222.061783,-1302.362347,8808.450710
1021.367126,814.226536,-1915.238745,8586.388927
1021.367455,74.020594,-383.047749,7994.224174
1021.367785,-444.123565,76.609550,8438.347739
1021.368114,-888.247130,1302.362347,10066.800811
1021.368444,-1480.411884,2451.505594,11473.192101
1021.368774,-1776.494261,3370.820191,11103.089130
1021.369103,-888.247130,1302.362347,9252.574275
1021.369433,444.123565,-1149.143247,8290.306550
1021.369762,444.123565,-1149.143247,9326.594869
1021.370092,-518.144159,153.219100,10362.883188
1021.370422,-1184.329507,1378.971896,11473.192101
1021.370751,-2072.576638,3140.991542,11843.295072
1021.371081,-3256.906145,5286.058936,11177.109724
1021.371410,-2516.700203,5286.058936,9400.615463
1021.371740,-1332.370696,1225.752797,7402.059420
1021.372070,222.061783,-612.876398,6513.812290
1021.372399,-370.102971,306.438199,5995.668130
1021.372729,-888.247130,1455.581446,6513.812290
1021.373058,-1776.494261,2068.457845,7476.080014
1021.373388,-2294.638420,2987.772442,9548.656652
1021.373718,-2738.761985,5132.839837,10214.842000
1021.374047,-2146.597232,4060.306139,9252.574275
1021.374377,0.000000,842.705048,8068.244768
1021.374706,814.226536,-612.876398,7624.121203
1021.375036,222.061783,-153.219100,8734.430116
1021.375366,-222.061783,1302.362347,10066.800811
1021.375695,-740.205942,2298.286494,11843.295072
1021.376025,-1924.535449,4060.306139,12509.480420
1021.376354,-2812.782580,6205.373534,11251.130318
1021.376684,-2072.576638,2068.457845,9252.574275
1021.377014,592.164754,-919.314598,8438.347739
1021.377343,962.267725,-1302.362347,8882.471304
1021.377673,-518.144159,76.609550,8734.430116
1021.378002,-1628.453072,612.876398,9178.553681
1021.378332,-2072.576638,306.438199,10066.800811
1021.378662,-2738.761985,2068.457845,11547.212695
1021.378991,-2590.720797,2221.676944,10732.986159
1021.379321,-1110.308913,-612.876398,9474.636058
1021.379650,444.123565,-2757.943793,9104.533087
1021.379980,-222.061783,-2068.457845,9400.615463
1021.380310,-1258.350101,-612.876398,10510.924376
1021.380639,-1480.411884,0.000000,12065.356855
1021.380969,-2072.576638,2068.457845,13249.686362
1021.381298,-2590.720797,4673.182538,12509.480420
1021.381628,-2072.576638,2681.334243,10066.800811
1021.381958,0.000000,-1225.752797,7624.121203
1021.382287,1036.288319,-2604.724693,7031.956449
1021.382617,518.144159,-1455.581446,7550.100608
1021.382946,-888.247130,229.828649,7994.224174
1021.383276,-1480.411884,689.485948,8734.430116
1021.383606,-1850.514855,1838.629195,9474.636058
1021.383935,-1924.535449,2757.943793,9770.718434
1021.384265,-962.267725,1378.971896,8660.409521
1021.384594,518.144159,-459.657299,8142.265362
1021.384924,666.185348,-1302.362347,7920.203579
1021.385254,-518.144159,-229.828649,7920.203579
1021.385583,-1036.288319,612.876398,9918.759623
1021.385913,-1776.494261,2451.505594,11917.315666
1021.386242,-3330.926739,5286.058936,11991.336260
1021.386572,-4145.153275,5056.230287,9918.759623
1021.386902,-1850.514855,1532.190996,7772.162391
1021.387231,74.020594,-1532.190996,7624.121203
1021.387561,0.000000,-1149.143247,7328.038826
1021.387890,-962.267725,919.314598,7402.059420
1021.388220,-1184.329507,919.314598,8586.388927
1021.388550,-1998.556043,2145.067394,10436.903782
1021.388879,-2812.782580,4903.011187,11399.171507
1021.389209,-2294.638420,4290.134789,11177.109724
1021.389538,-370.102971,842.705048,9400.615463
1021.389868,962.267725,-1838.629195,8216.285956
1021.390198,666.185348,-1685.410096,8734.430116
1021.390527,148.041188,-1072.533697,10658.965565
1021.390857,-962.267725,1302.362347,12879.583391
1021.391186,-2516.700203,3983.696590,14063.912898
1021.391516,-3552.988522,5745.716235,12805.562797
1021.391846,-2368.659014,3370.820191,10362.883188
1021.392175,0.000000,153.219100,8142.265362
1021.392505,1332.370696,-2145.067394,6957.935855
1021.392834,1036.288319,-1149.143247,6883.915261
1021.393164,-370.102971,-383.047749,7476.080014
1021.393494,-1702.473667,459.657299,9474.636058
1021.393823,-2960.823768,2068.457845,10955.047942
1021.394153,-3627.009116,2451.505594,9918.759623
1021.394482,-2146.597232,0.000000,8734.430116
1021.394812,148.041188,-3753.867940,7698.141797
1021.395142,444.123565,-4136.915689,8142.265362
1021.395471,0.000000,-1838.629195,10066.800811
1021.395801,-962.267725,76.609550,10732.986159
1021.396130,-1998.556043,1838.629195,11843.295072
1021.396460,-2886.803174,3830.477490,12065.356855
1021.396790,-2368.659014,3830.477490,11029.068536
1021.397119,-518.144159,919.314598,9030.512492
1021.397449,1036.288319,-2221.676944,7254.018232
1021.397778,740.205942,-2068.457845,5995.668130
1021.398108,518.144159,-1532.190996,7031.956449
1021.398438,-666.185348,-459.657299,9326.594869
1021.398767,-2294.638420,1685.410096,11177.109724
1021.399097,-3627.009116,3753.867940,10510.924376
1021.399426,-2072.576638,2145.067394,8956.491898
1021.399756,-666.185348,-2221.676944,8512.368333
1021.400086,444.123565,-3600.648841,8882.471304
1021.400415,-296.082377,-1302.362347,9474.636058
1021.400745,-1110.308913,0.000000,9992.780217
1021.401074,-1628.453072,2834.553343,11843.295072
1021.401404,-3034.844362,4673.182538,13471.748144
1021.401733,-3478.967927,6052.154434,12805.562797
1021.402063,-1924.535449,3677.258390,10362.883188
1021.402393,444.123565,689.485948,8364.327145
1021.402722,1036.288319,229.828649,7105.977043
1021.403052,444.123565,76.609550,6735.874072
1021.403381,-222.061783,76.609550,7476.080014
1021.403711,-1110.308913,1838.629195,9992.780217
1021.404041,-2812.782580,4290.134789,11177.109724
1021.404370,-3034.844362,5209.449386,9992.780217
1021.404700,-1332.370696,1532.190996,7624.121203
1021.405029,666.185348,-1915.238745,7179.997637
1021.405359,1184.329507,-2068.457845,7254.018232
1021.405689,666.185348,459.657299,8734.430116
1021.406018,74.020594,1762.019645,9918.759623
1021.406348,-1924.535449,3907.087040,11399.171507
1021.406677,-2960.823768,5745.716235,11843.295072
1021.407007,-2294.638420,4903.011187,10436.903782
1021.407337,-518.144159,1685.410096,8734.430116
1021.407666,370.102971,-306.438199,7254.018232
1021.407996,518.144159,-1532.190996,7031.956449
1021.408325,0.000000,-1225.752797,8364.327145
1021.408655,-1554.432478,0.000000,9992.780217
1021.408985,-3256.906145,1685.410096,11695.253884
1021.409314,-4219.173869,3140.991542,11695.253884
1021.409644,-3182.885551,1608.800546,9918.759623
1021.409973,-1184.329507,-2451.505594,8438.347739
1021.410303,592.164754,-4519.963438,8734.430116
1021.410633,592.164754,-3064.381992,9030.512492
1021.410962,0.000000,-1915.238745,9992.780217
1021.411292,-666.185348,153.219100,12213.398043
1021.411621,-1776.494261,2757.943793,13841.851115
1021.411951,-2442.679609,3983.696590,12731.542202
1021.412281,-888.247130,2145.067394,10955.047942
1021.412610,1110.308913,-766.095498,9326.594869
1021.412940,1554.432478,-2221.676944,8142.265362
1021.413269,1036.288319,-2145.067394,8216.285956
1021.413599,-518.144159,-1762.019645,8808.450710
1021.413929,-1776.494261,76.609550,10288.862594
1021.414258,-3182.885551,2221.676944,10881.027347
1021.414588,-3034.844362,2145.067394,9548.656652
1021.414917,-1628.453072,-1532.190996,7846.182985
1021.415247,0.000000,-3447.429741,7254.018232
1021.415577,222.061783,-2451.505594,7550.100608
1021.415906,-666.185348,-766.095498,8586.388927
1021.416236,-1110.308913,766.095498,10140.821405
1021.416565,-2072.576638,3447.429741,11695.253884
1021.416895,-2960.823768,5209.449386,11621.233289
1021.417225,-2294.638420,4596.572988,9474.636058
1021.417554,-222.061783,1608.800546,8068.244768
1021.417884,1036.288319,-536.266849,7550.100608
1021.418213,666.185348,0.000000,7328.038826
1021.418543,-296.082377,1378.971896,7402.059420
1021.418873,-1036.288319,2145.067394,8660.409521
1021.419202,-1628.453072,3294.210641,9844.739029
1021.419532,-1776.494261,4519.963438,10140.821405
1021.419861,-1332.370696,2528.115143,9252.574275
1021.420191,-370.102971,-306.438199,8290.306550
1021.420521,-148.041188,-995.924147,8290.306550
1021.420850,-148.041188,-229.828649,9030.512492
1021.421180,-888.247130,383.047749,10955.047942
1021.421509,-1998.556043,2068.457845,12287.418637
1021.421839,-3108.864956,4443.353888,12287.418637
1021.422169,-2886.803174,5056.230287,11621.233289
1021.422498,-1036.288319,2451.505594,10066.800811
1021.422828,740.205942,459.657299,9178.553681
1021.423157,666.185348,-153.219100,8068.244768
1021.423487,370.102971,0.000000,7994.224174
1021.423817,74.020594,229.828649,8956.491898
1021.424146,-1258.350101,2145.067394,10807.006753
1021.424476,-2738.761985,3064.381992,11029.068536
1021.424805,-2368.659014,1302.362347,10140.821405
1021.425135,-740.205942,-1225.752797,9252.574275
1021.425465,-148.041188,-2374.896044,8438.347739
1021.425794,-814.226536,-2298.286494,8142.265362
1021.426124,-962.267725,-1762.019645,9178.553681
1021.426453,-1332.370696,-306.438199,10658.965565
1021.426783,-2220.617826,2298.286494,11843.295072
1021.427113,-2072.576638,4366.744339,11547.212695
1021.427442,-962.267725,2145.067394,9326.594869
1021.427772,296.082377,-842.705048,7772.162391
1021.428101,814.226536,-1532.190996,7772.162391
1021.428431,0.000000,-536.266849,7920.203579
1021.428761,-666.185348,-306.438199,8586.388927
1021.429090,-814.226536,306.438199,10066.800811
1021.429420,-2368.659014,1915.238745,11251.130318
1021.429749,-2664.741391,2221.676944,10288.862594
1021.430079,-1332.370696,0.000000,8808.450710
1021.430409,222.061783,-2757.943793,8068.244768
1021.430738,148.041188,-2604.724693,8660.409521
1021.431068,-296.082377,-306.438199,10066.800811
1021.431397,-1036.288319,306.438199,11103.089130
1021.431727,-1924.535449,2298.286494,11769.274478
1021.432057,-2590.720797,4903.011187,11991.336260
1021.432386,-1998.556043,5056.230287,10658.965565
1021.432716,592.164754,1378.971896,8956.491898
1021.433045,1184.329507,-383.047749,7402.059420
1021.433375,962.267725,536.266849,7328.038826
1021.433705,74.020594,1455.581446,8068.244768
1021.434034,-962.267725,2451.505594,9474.636058
1021.434364,-1998.556043,3753.867940,10436.903782
1021.434693,-2590.720797,3983.696590,10140.821405
1021.435023,-1924.535449,2298.286494,8660.409521
1021.435352,-296.082377,-536.266849,8216.285956
1021.435682,296.082377,-1455.581446,8142.265362
1021.436012,-370.102971,229.828649,8586.388927
1021.436341,-1480.411884,1149.143247,10214.842000
1021.436671,-1776.494261,3370.820191,11991.336260
1021.437000,-2664.741391,5362.668486,12435.459826
1021.437330,-3034.844362,5669.106685,10658.965565
1021.437660,-1110.308913,3140.991542,9030.512492
1021.437989,1036.288319,-536.266849,7179.997637
1021.438319,1184.329507,-995.924147,7402.059420
1021.438648,0.000000,383.047749,8068.244768
1021.438978,-1036.288319,1302.362347,9104.533087
1021.439308,-1554.432478,2298.286494,10658.965565
1021.439637,-2516.700203,2987.772442,10362.883188
1021.439967,-1628.453072,2528.115143,9474.636058
1021.440296,592.164754,-536.266849,8586.388927
1021.440626,1480.411884,-2221.676944,7846.182985
1021.440956,740.205942,-1991.848295,8290.306550
1021.441285,0.000000,-1838.629195,9326.594869
1021.441615,-1628.453072,0.000000,11325.150913
1021.441944,-2590.720797,2451.505594,13249.686362
1021.442274,-3552.988522,3983.696590,12657.521608
1021.442604,-2368.659014,1915.238745,10288.862594
1021.442933,0.000000,-1455.581446,8512.368333
1021.443263,1184.329507,-2757.943793,7550.100608
1021.443592,444.123565,-1302.362347,8290.306550
1021.443922,-444.123565,689.485948,9400.615463
1021.444252,-962.267725,1149.143247,10140.821405
1021.444581,-1628.453072,1608.800546,11103.089130
1021.444911,-1628.453072,1838.629195,10584.944971
1021.445240,-740.205942,-383.047749,9400.615463
1021.445570,296.082377,-2834.553343,8364.327145
1021.445900,148.041188,-3447.429741,8216.285956
1021.446229,-370.102971,-2374.896044,9770.718434
1021.446559,-888.247130,229.828649,11769.274478
1021.446888,-2220.617826,3064.381992,12287.418637
1021.447218,-2886.803174,4903.011187,11843.295072
1021.447548,-1850.514855,4596.572988,10066.800811
1021.447877,222.061783,1762.019645,8512.368333
1021.448207,1850.514855,0.000000,7328.038826
1021.448536,1332.370696,0.000000,7328.038826
1021.448866,-296.082377,1762.019645,7254.018232
1021.449196,-1480.411884,2528.115143,8512.368333
1021.449525,-2294.638420,3140.991542,10288.862594
1021.449855,-2516.700203,3983.696590,10436.903782
1021.450184,-1702.473667,3140.991542,9474.636058
1021.450514,-1184.329507,689.485948,7624.121203
1021.450844,-444.123565,-1532.190996,7254.018232
1021.451173,-740.205942,-842.705048,8364.327145
1021.451503,-1110.308913,995.924147,10214.842000
1021.451832,-1776.494261,2681.334243,11103.089130
1021.452162,-2442.679609,5439.278036,11991.336260
1021.452492,-2886.803174,6511.811733,11029.068536
1021.452821,-1406.391290,4213.525239,9252.574275
1021.453151,962.267725,919.314598,7772.162391
1021.453480,1998.556043,0.000000,6883.915261
1021.453810,1776.494261,766.095498,7105.977043
1021.454140,666.185348,1608.800546,8216.285956
1021.454469,-888.247130,2451.505594,10214.842000
1021.454799,-2220.617826,4749.792088,11473.192101
1021.455128,-2368.659014,3907.087040,10436.903782
1021.455458,-814.226536,1532.190996,8438.347739
1021.455788,666.185348,-2604.724693,8216.285956
1021.456117,1036.288319,-3294.210641,8660.409521
1021.456447,-296.082377,-2068.457845,9770.718434
1021.456776,-1776.494261,0.000000,11103.089130
1021.457106,-3034.844362,2451.505594,12731.542202
1021.457436,-4071.132681,4903.011187,13471.748144
1021.457765,-3034.844362,3830.477490,12435.459826
1021.458095,-1110.308913,766.095498,9622.677246
1021.458424,518.144159,-2068.457845,7328.038826
1021.458754,666.185348,-3677.258390,6587.832884
1021.459084,444.123565,-2451.505594,8364.327145
1021.459413,-814.226536,76.609550,11029.068536
1021.459743,-2146.597232,2757.943793,11621.233289
1021.460072,-2812.782580,3217.601092,10288.862594
1021.460402,-1110.308913,153.219100,8586.388927
1021.460732,1110.308913,-2451.505594,8364.327145
1021.461061,1554.432478,-2834.553343,8734.430116
1021.461391,444.123565,-1685.410096,8734.430116
1021.461720,-666.185348,-842.705048,8956.491898
1021.462050,-1998.556043,383.047749,10436.903782
1021.462380,-2664.741391,2681.334243,12213.398043
1021.462709,-3182.885551,4060.306139,12509.480420
1021.463039,-2368.659014,3064.381992,9474.636058
1021.463368,-148.041188,0.000000,7254.018232
1021.463698,592.164754,-2451.505594,6587.832884
1021.464028,0.000000,-1302.362347,7105.977043
1021.464357,-370.102971,1532.190996,9030.512492
1021.464687,-1924.535449,3524.039291,9992.780217
1021.465016,-3034.844362,5209.449386,9696.697840
1021.465346,-2442.679609,3600.648841,9474.636058
1021.465675,-444.123565,766.095498,9178.553681
1021.466005,666.185348,-1915.238745,8438.347739
1021.466335,444.123565,-919.314598,8068.244768
1021.466664,-148.041188,306.438199,8586.388927
1021.466994,-444.123565,1149.143247,10584.944971
1021.467323,-1628.453072,3677.258390,13175.665768
1021.467653,-2886.803174,7201.297681,13027.624579
1021.467983,-2294.638420,6511.811733,10510.924376
1021.468312,0.000000,2451.505594,8586.388927
1021.468642,1332.370696,0.000000,7105.977043
1021.468971,814.226536,-536.266849,6735.874072
1021.469301,370.102971,153.219100,7772.162391
1021.469631,-1110.308913,1915.238745,9400.615463
1021.469960,-2738.761985,4443.353888,11029.068536
1021.470290,-3849.070898,4826.401637,11177.109724
1021.470619,-2812.782580,1915.238745,9918.759623
1021.470949,-222.061783,-1225.752797,8438.347739
1021.471279,814.226536,-1915.238745,7550.100608
1021.471608,296.082377,-689.485948,8290.306550
1021.471938,-740.205942,612.876398,10140.821405
1021.472267,-1776.494261,1532.190996,11621.233289
1021.472597,-2886.803174,3524.039291,11843.295072
1021.472927,-2738.761985,3907.087040,10881.027347
1021.473256,-888.247130,1762.019645,9326.594869
1021.473586,222.061783,-1685.410096,8290.306550
1021.473915,518.144159,-2374.896044,7402.059420
1021.474245,0.000000,-1225.752797,7772.162391
1021.474575,-370.102971,306.438199,8882.471304
1021.474904,-1258.350101,2374.896044,10436.903782
1021.475234,-2294.638420,2528.115143,10955.047942
1021.475563,-1702.473667,1532.190996,9474.636058
1021.475893,74.020594,-1302.362347,8142.265362
1021.476223,1332.370696,-2681.334243,7846.182985
1021.476552,814.226536,-3064.381992,8216.285956
1021.476882,-518.144159,-2374.896044,9918.759623
1021.477211,-1850.514855,-1149.143247,12065.356855
1021.477541,-3034.844362,1378.971896,13101.645173
1021.477870,-3849.070898,3600.648841,12879.583391
1021.478200,-2442.679609,2451.505594,10732.986159
1021.478530,-814.226536,-459.657299,9104.533087
1021.478859,518.144159,-2298.286494,8068.244768
1021.479189,444.123565,-1225.752797,7402.059420
1021.479518,-222.061783,0.000000,7994.224174
1021.479848,-740.205942,1455.581446,9474.636058
1021.480178,-2072.576638,2757.943793,11029.068536
1021.480507,-2294.638420,2987.772442,10732.986159
1021.480837,-1480.411884,919.314598,9178.553681
1021.481166,0.000000,-1149.143247,8290.306550
1021.481496,222.061783,-995.924147,8734.430116
1021.481826,-592.164754,459.657299,9696.697840
1021.482155,-1554.432478,1378.971896,10584.944971
1021.482485,-2220.617826,3217.601092,11399.171507
1021.482814,-2886.803174,4903.011187,11547.212695
1021.483144,-2590.720797,4903.011187,10066.800811
1021.483474,-1480.411884,2528.115143,8290.306550
1021.483803,74.020594,0.000000,6883.915261
1021.484133,0.000000,-153.219100,5995.668130
1021.484462,-518.144159,689.485948,7105.977043
1021.484792,-1110.308913,1838.629195,8586.388927
1021.485122,-1702.473667,2987.772442,10288.862594
1021.485451,-2368.659014,4596.572988,10436.903782
1021.485781,-2146.597232,3524.039291,9548.656652
1021.486110,-444.123565,612.876398,8216.285956
1021.486440,962.267725,-1608.800546,7994.224174
1021.486770,1184.329507,-1149.143247,8956.491898
1021.487099,148.041188,153.219100,10658.965565
1021.487429,-888.247130,1762.019645,11843.295072
1021.487758,-2146.597232,3753.867940,13027.624579
1021.488088,-2590.720797,4213.525239,12657.521608
1021.488418,-2220.617826,2911.162892,10658.965565
1021.488747,0.000000,229.828649,9474.636058
1021.489077,1184.329507,-1302.362347,8586.388927
1021.489406,148.041188,-1225.752797,7994.224174
1021.489736,-1110.308913,-536.266849,8068.244768
1021.490065,-1998.556043,0.000000,9474.636058
1021.490395,-2294.638420,1608.800546,10510.924376
1021.490725,-2442.679609,2068.457845,9770.718434
1021.491054,-1110.308913,-229.828649,8660.409521
1021.491384,222.061783,-2987.772442,7772.162391
1021.491713,296.082377,-3140.991542,8068.244768
1021.492043,-666.185348,-1915.238745,9474.636058
1021.492373,-1184.329507,0.000000,11325.150913
1021.492702,-2294.638420,2451.505594,12879.583391
1021.493032,-3108.864956,4826.401637,12657.521608
1021.493361,-2664.741391,3677.258390,10436.903782
1021.493691,-740.205942,-153.219100,8216.285956
1021.494021,888.247130,-2374.896044,7698.141797
1021.494350,888.247130,-1302.362347,7698.141797
1021.494680,-592.164754,766.095498,8216.285956
1021.495009,-1776.494261,1072.533697,8438.347739
1021.495339,-2590.720797,1455.581446,9104.533087
1021.495669,-2442.679609,2221.676944,9252.574275
1021.495998,-1480.411884,995.924147,9178.553681
1021.496328,-888.247130,-689.485948,8586.388927
1021.496657,-370.102971,-2068.457845,8216.285956
1021.496987,-740.205942,-1608.800546,9326.594869
1021.497317,-1554.432478,459.657299,10362.883188
1021.497646,-1924.535449,1762.019645,11621.233289
1021.497976,-2368.659014,4366.744339,12731.542202
1021.498305,-2442.679609,5362.668486,11695.253884
1021.498635,-1110.308913,2987.772442,9104.533087
1021.498965,1036.288319,-842.705048,7476.080014
1021.499294,1628.453072,-1378.971896,6735.874072
1021.499624,1036.288319,689.485948,7550.100608
1021.499953,-370.102971,1685.410096,8586.388927
