#time,accel_x,accel_y,accel_z
1089.654295,-1184.329507,842.705048,9474.636058
1089.654624,-1184.329507,919.314598,9474.636058
1089.654954,-740.205942,919.314598,9326.594869
1089.655284,-1036.288319,919.314598,9474.636058
1089.655613,-1110.308913,919.314598,9400.615463
1089.655943,-962.267725,1072.533697,9548.656652
1089.656273,-888.247130,919.314598,9178.553681
1089.656603,-962.267725,1149.143247,9696.697840
1089.656932,-1110.308913,919.314598,9696.697840
1089.657262,-1036.288319,842.705048,9548.656652
1089.657592,-1184.329507,689.485948,9474.636058
1089.657921,-814.226536,766.095498,9400.615463
1089.658251,-888.247130,995.924147,9770.718434
1089.658581,-814.226536,919.314598,9548.656652
1089.658910,-1110.308913,919.314598,9696.697840
1089.659240,-740.205942,842.705048,9696.697840
1089.659570,-1036.288319,689.485948,9696.697840
1089.659899,-888.247130,842.705048,9474.636058
1089.660229,-666.185348,536.266849,9622.677246
1089.660559,-1110.308913,766.095498,9696.697840
1089.660888,-962.267725,919.314598,9770.718434
1089.661218,-1036.288319,1149.143247,9548.656652
1089.661548,-888.247130,1608.800546,9622.677246
1089.661877,-666.185348,1149.143247,9770.718434
1089.662207,-1036.288319,995.924147,9622.677246
1089.662537,-888.247130,1072.533697,9622.677246
1089.662866,-1036.288319,919.314598,9474.636058
1089.663196,-962.267725,919.314598,9622.677246
1089.663526,-666.185348,1532.190996,9770.718434
1089.663855,-962.267725,842.705048,9474.636058
1089.664185,-962.267725,842.705048,9474.636058
1089.664515,-1036.288319,1072.533697,9474.636058
1089.664844,-962.267725,1072.533697,9474.636058
1089.665174,-1332.370696,383.047749,9400.615463
1089.665504,-814.226536,766.095498,9252.574275
1089.665833,-1184.329507,919.314598,9548.656652
1089.666163,-1110.308913,842.705048,9548.656652
1089.666493,-962.267725,689.485948,9474.636058
1089.666822,-888.247130,1455.581446,9326.594869
1089.667152,-1184.329507,689.485948,9400.615463
1089.667482,-888.247130,766.095498,9474.636058
1089.667811,-1036.288319,766.095498,9548.656652
1089.668141,-1036.288319,766.095498,9696.697840
1089.668471,-814.226536,919.314598,9622.677246
1089.668800,-740.205942,1072.533697,9252.574275
1089.669130,-1036.288319,995.924147,9622.677246
1089.669460,-962.267725,612.876398,9622.677246
1089.669789,-888.247130,919.314598,9622.677246
1089.670119,-1036.288319,689.485948,9696.697840
1089.670449,-1036.288319,612.876398,9400.615463
1089.670778,-962.267725,1072.533697,9696.697840
1089.671108,-1110.308913,766.095498,9474.636058
1089.671438,-962.267725,689.485948,9918.759623
1089.671767,-1110.308913,689.485948,9474.636058
1089.672097,-1184.329507,1149.143247,9622.677246
1089.672427,-1258.350101,1072.533697,9104.533087
1089.672756,-1036.288319,766.095498,9622.677246
1089.673086,-1036.288319,919.314598,9548.656652
1089.673416,-1036.288319,689.485948,9474.636058
1089.673745,-1036.288319,919.314598,9474.636058
1089.674075,-962.267725,995.924147,9474.636058
1089.674405,-962.267725,919.314598,9474.636058
1089.674735,-1036.288319,919.314598,9622.677246
1089.675064,-1036.288319,995.924147,9474.636058
1089.675394,-962.267725,919.314598,9474.636058
1089.675724,-1036.288319,536.266849,9622.677246
1089.676053,-962.267725,689.485948,9474.636058
1089.676383,-1110.308913,689.485948,9400.615463
1089.676713,-962.267725,919.314598,9696.697840
1089.677042,-888.247130,995.924147,9548.656652
1089.677372,-1036.288319,995.924147,9474.636058
1089.677702,-518.144159,919.314598,9326.594869
1089.678031,-444.123565,1072.533697,8882.471304
1089.678361,296.082377,689.485948,8956.491898
1089.678691,666.185348,459.657299,9178.553681
1089.679020,1036.288319,689.485948,9178.553681
1089.679350,740.205942,1149.143247,9030.512492
1089.679680,148.041188,1225.752797,9992.780217
1089.680009,-444.123565,1302.362347,10362.883188
1089.680339,-888.247130,1072.533697,10584.944971
1089.680669,-666.185348,229.828649,10510.924376
1089.680998,-296.082377,383.047749,9548.656652
1089.681328,74.020594,229.828649,9400.615463
1089.681658,1184.329507,-153.219100,9252.574275
1089.681987,2220.617826,306.438199,8882.471304
1089.682317,2886.803174,995.924147,8734.430116
1089.682647,3552.988522,1608.800546,8956.491898
1089.682976,3997.112087,2068.457845,9326.594869
1089.683306,3849.070898,1685.410096,9622.677246
1089.683636,3182.885551,1225.752797,10140.821405
1089.683965,2368.659014,1225.752797,10436.903782
1089.684295,1480.411884,1302.362347,10658.965565
1089.684625,1554.432478,689.485948,10732.986159
1089.684954,1554.432478,0.000000,10288.862594
1089.685284,1850.514855,-306.438199,9770.718434
1089.685614,2590.720797,-383.047749,9104.533087
1089.685943,3552.988522,0.000000,9178.553681
1089.686273,4441.235652,1149.143247,9178.553681
1089.686603,4145.153275,2068.457845,9400.615463
1089.686932,3330.926739,2451.505594,9770.718434
1089.687262,2294.638420,3064.381992,10214.842000
1089.687592,592.164754,2757.943793,10362.883188
1089.687921,-1184.329507,2681.334243,9770.718434
1089.688251,-2146.597232,1149.143247,9326.594869
1089.688581,-1480.411884,0.000000,8364.327145
1089.688910,0.000000,-1149.143247,7105.977043
1089.689240,1924.535449,-1225.752797,6661.853478
1089.689570,3256.906145,-689.485948,6217.729913
1089.689899,4071.132681,0.000000,6587.832884
1089.690229,3775.050304,2298.286494,8734.430116
1089.690559,2960.823768,4596.572988,10584.944971
1089.690888,1776.494261,4596.572988,12139.377449
1089.691218,444.123565,3830.477490,12731.542202
1089.691548,-666.185348,2298.286494,12361.439231
1089.691877,-1258.350101,0.000000,11917.315666
1089.692207,-1332.370696,-2145.067394,11399.171507
1089.692537,-1036.288319,-2834.553343,10214.842000
1089.692867,-222.061783,-2451.505594,9178.553681
1089.693196,1184.329507,-2451.505594,8142.265362
1089.693526,2812.782580,-995.924147,7698.141797
1089.693856,4219.173869,153.219100,7254.018232
1089.694185,4663.297435,1838.629195,7254.018232
1089.694515,4737.318029,2987.772442,8364.327145
1089.694845,4145.153275,4213.525239,9400.615463
1089.695174,3256.906145,4443.353888,10362.883188
1089.695504,2590.720797,3294.210641,11399.171507
1089.695834,1332.370696,1838.629195,11695.253884
1089.696163,222.061783,459.657299,11177.109724
1089.696493,-888.247130,-766.095498,10732.986159
1089.696823,-1110.308913,-1378.971896,10066.800811
1089.697152,-666.185348,-1915.238745,10436.903782
1089.697482,-444.123565,-1225.752797,10214.842000
1089.697812,222.061783,0.000000,9474.636058
1089.698141,1258.350101,153.219100,8586.388927
1089.698471,2368.659014,612.876398,7994.224174
1089.698801,3552.988522,153.219100,8364.327145
1089.699130,4219.173869,612.876398,8068.244768
1089.699460,4811.338623,689.485948,8068.244768
1089.699790,4811.338623,995.924147,8882.471304
1089.700119,3701.029710,1838.629195,9844.739029
1089.700449,2220.617826,1991.848295,9918.759623
1089.700779,1628.453072,1915.238745,10362.883188
1089.701108,1924.535449,1685.410096,10807.006753
1089.701438,1924.535449,2374.896044,10807.006753
1089.701768,2368.659014,2221.676944,9918.759623
1089.702097,2590.720797,612.876398,8512.368333
1089.702427,2812.782580,459.657299,7476.080014
1089.702757,2886.803174,842.705048,8216.285956
1089.703086,2294.638420,1149.143247,8734.430116
1089.703416,1258.350101,1378.971896,9770.718434
1089.703746,-222.061783,1302.362347,9696.697840
1089.704075,-1480.411884,689.485948,9844.739029
1089.704405,-1406.391290,306.438199,10510.924376
1089.704735,-1110.308913,-459.657299,11177.109724
1089.705064,-1406.391290,-383.047749,11325.150913
1089.705394,-1480.411884,0.000000,10955.047942
1089.705724,-370.102971,459.657299,10288.862594
1089.706053,1258.350101,229.828649,8808.450710
1089.706383,3775.050304,995.924147,8438.347739
1089.706713,5995.668130,2451.505594,8290.306550
1089.707042,8068.244768,3064.381992,8660.409521
1089.707372,8364.327145,3294.210641,9178.553681
1089.707702,7476.080014,4443.353888,10140.821405
1089.708031,5255.462188,4673.182538,11103.089130
1089.708361,3182.885551,3370.820191,13175.665768
1089.708691,444.123565,1762.019645,14285.974681
1089.709020,-2664.741391,1149.143247,13175.665768
1089.709350,-5403.503377,-766.095498,11473.192101
1089.709680,-6439.791695,-2145.067394,9622.677246
1089.710009,-5255.462188,-2221.676944,6735.874072
1089.710339,-1184.329507,-2834.553343,2960.823768
1089.710669,4367.215058,-4060.306139,1554.432478
1089.710999,8438.347739,-2374.896044,2442.679609
1089.711328,9030.512492,2528.115143,4515.256246
1089.711658,7624.121203,5439.278036,6883.915261
1089.711988,6143.709319,6971.469032,10362.883188
1089.712317,4071.132681,9193.145976,13841.851115
1089.712647,444.123565,9193.145976,15100.201217
1089.712977,-2812.782580,2451.505594,16210.510130
1089.713306,-5033.400406,-2374.896044,16136.489536
1089.713636,-6735.874072,-2451.505594,13989.892304
1089.713966,-5329.482782,-4290.134789,11251.130318
1089.714295,-1258.350101,-6741.640382,9474.636058
1089.714625,3182.885551,-5592.497135,5921.647536
1089.714955,7550.100608,-4060.306139,1924.535449
1089.715284,11917.315666,-2987.772442,1998.556043
1089.715614,14211.954086,1455.581446,5699.585753
1089.715944,11917.315666,7584.345430,10066.800811
1089.716273,6143.709319,8350.440928,12657.521608
1089.716603,592.164754,8733.488677,14063.912898
1089.716933,-2590.720797,6665.030833,14211.954086
1089.717262,-3404.947333,1838.629195,14211.954086
1089.717592,-3997.112087,-2757.943793,11843.295072
1089.717922,-2960.823768,-6511.811733,7846.182985
1089.718251,-1110.308913,-7507.735880,5329.482782
1089.718581,1184.329507,-7124.688131,6291.750507
1089.718911,2146.597232,-3064.381992,7698.141797
1089.719240,2146.597232,383.047749,8216.285956
1089.719570,2368.659014,2604.724693,8882.471304
1089.719900,2738.761985,5592.497135,10881.027347
1089.720229,3404.947333,5439.278036,13323.706956
1089.720559,2812.782580,3907.087040,13989.892304
1089.720889,1110.308913,1532.190996,12509.480420
1089.721218,-370.102971,-383.047749,11325.150913
1089.721548,-1036.288319,-2145.067394,10140.821405
1089.721878,-1036.288319,-3217.601092,8438.347739
1089.722207,592.164754,-3907.087040,5033.400406
1089.722537,3775.050304,-4366.744339,4737.318029
1089.722867,7994.224174,-1225.752797,5329.482782
1089.723196,10436.903782,1762.019645,5551.544565
1089.723526,10140.821405,4443.353888,6957.935855
1089.723856,7698.141797,6511.811733,9770.718434
1089.724185,3330.926739,8503.660028,12953.603985
1089.724515,-814.226536,9806.022374,14952.160028
1089.724845,-2664.741391,6128.763984,16062.468941
1089.725174,-4071.132681,-459.657299,15396.283594
1089.725504,-6217.729913,-4213.525239,13249.686362
1089.725834,-7920.203579,-5822.325785,10732.986159
1089.726163,-7328.038826,-6588.421283,9178.553681
1089.726493,-4959.379811,-4979.620737,7476.080014
1089.726823,-2664.741391,-2834.553343,4811.338623
1089.727152,1702.473667,-919.314598,2294.638420
1089.727482,8216.285956,689.485948,2590.720797
1089.727812,13249.686362,3140.991542,4885.359217
1089.728141,13767.830521,7890.783629,7179.997637
1089.728471,10732.986159,10342.289223,9178.553681
1089.728800,7402.059420,10265.679673,11029.068536
1089.729130,4663.297435,8580.269578,14582.057057
1089.729460,1850.514855,6128.763984,16802.674883
1089.729789,-148.041188,2451.505594,15470.304188
1089.730119,-1184.329507,-2528.115143,12435.459826
1089.730448,-2220.617826,-4366.744339,10510.924376
1089.730778,-3701.029710,-4673.182538,10510.924376
1089.731108,-4293.194464,-3370.820191,10288.862594
1089.731437,-3775.050304,76.609550,7846.182985
1089.731767,-296.082377,1532.190996,4071.132681
1089.732097,5699.585753,689.485948,888.247130
1089.732426,11769.274478,153.219100,1184.329507
1089.732756,13915.871710,229.828649,3404.947333
1089.733085,9918.759623,3753.867940,6217.729913
1089.733415,4737.318029,8273.831378,9696.697840
1089.733745,2590.720797,8044.002729,12731.542202
1089.734074,2146.597232,3294.210641,16802.674883
1089.734404,-2146.597232,229.828649,17320.819043
1089.734733,-5847.626942,-2298.286494,15914.427753
1089.735063,-7624.121203,-6205.373534,13841.851115
1089.735393,-8216.285956,-4903.011187,12879.583391
1089.735722,-8290.306550,-2374.896044,10658.965565
1089.736052,-4219.173869,-2451.505594,5773.606348
1089.736382,3627.009116,-4826.401637,2664.741391
1089.736711,9622.677246,-5286.058936,4959.379811
1089.737041,10881.027347,2451.505594,5551.544565
1089.737370,8290.306550,7354.516781,4885.359217
1089.737700,6957.935855,5669.106685,9104.533087
1089.738030,5773.606348,7584.345430,15100.201217
1089.738359,2368.659014,9039.926876,19541.436869
1089.738689,-2886.803174,5132.839837,17172.777854
1089.739018,-8734.430116,-1378.971896,13841.851115
1089.739348,-12287.418637,-4213.525239,12065.356855
1089.739678,-11325.150913,-6588.421283,12287.418637
1089.740007,-6957.935855,-9193.145976,10140.821405
1089.740337,-2516.700203,-5592.497135,4737.318029
1089.740667,962.267725,-4826.401637,814.226536
1089.740996,5625.565159,-4979.620737,1480.411884
1089.741326,9770.718434,3217.601092,4071.132681
1089.741655,12361.439231,9346.365076,7698.141797
1089.741985,10658.965565,11414.822920,11103.089130
1089.742315,3552.988522,12640.575717,16358.551318
1089.742644,-4737.318029,12717.185267,15544.324782
1089.742974,-9992.780217,6358.592633,14359.995275
1089.743303,-12139.377449,-1762.019645,13767.830521
1089.743633,-11325.150913,-2834.553343,11991.336260
1089.743963,-8364.327145,-8120.612279,7994.224174
1089.744292,-4441.235652,-12257.527968,2590.720797
1089.744622,-296.082377,-10955.165621,-1554.432478
1089.744952,5329.482782,-8044.002729,-1628.453072
1089.745281,11103.089130,-995.924147,3034.844362
1089.745611,11695.253884,7277.907231,7476.080014
1089.745940,9474.636058,15475.129060,12657.521608
1089.746270,5181.441594,15628.348159,14211.954086
1089.746600,296.082377,12793.794817,14804.118840
1089.746929,-2664.741391,7124.688131,17542.880825
1089.747259,-7105.977043,0.000000,19171.333898
1089.747588,-10732.986159,-1685.410096,16506.592507
1089.747918,-12805.562797,-5132.839837,9844.739029
1089.748248,-10362.883188,-10878.556072,3404.947333
1089.748577,-3182.885551,-13942.938064,2664.741391
1089.748907,4589.276840,-9806.022374,4737.318029
1089.749237,7920.203579,-1149.143247,3330.926739
1089.749566,6957.935855,6205.373534,2886.803174
1089.749896,3997.112087,10112.460574,8068.244768
1089.750225,2146.597232,12334.137518,14804.118840
1089.750555,-1924.535449,13176.842566,20059.581028
1089.750885,-4441.235652,11261.603821,20355.663405
1089.751214,-7328.038826,6358.592633,15988.448347
1089.751544,-9030.512492,-1225.752797,11103.089130
1089.751873,-6809.894666,-10495.508323,7031.956449
1089.752203,-1924.535449,-15321.909960,5255.462188
1089.752533,592.164754,-9882.631924,5477.523971
1089.752862,3182.885551,-2987.772442,4367.215058
1089.753192,4885.359217,459.657299,5181.441594
1089.753522,4959.379811,4596.572988,6587.832884
1089.753851,4367.215058,8503.660028,7846.182985
1089.754181,3256.906145,11568.042020,11177.109724
1089.754510,2368.659014,12487.356617,14359.995275
1089.754840,-370.102971,9652.803275,14952.160028
1089.755170,-6439.791695,3524.039291,12065.356855
1089.755499,-9474.636058,-3294.210641,8290.306550
1089.755829,-7254.018232,-9193.145976,5625.565159
1089.756158,-2220.617826,-9959.241474,6143.709319
1089.756488,444.123565,-7967.393179,6143.709319
1089.756818,0.000000,-5822.325785,4515.256246
1089.757147,-444.123565,-3370.820191,4367.215058
1089.757477,-222.061783,766.095498,5921.647536
1089.757807,148.041188,7660.954980,10732.986159
1089.758136,666.185348,11338.213370,15248.242405
1089.758466,-888.247130,9116.536426,16432.571912
1089.758795,-2516.700203,4903.011187,14508.036463
1089.759125,-4737.318029,229.828649,10066.800811
1089.759455,-2886.803174,-3907.087040,8068.244768
1089.759784,-296.082377,-6281.983084,9770.718434
1089.760114,592.164754,-5669.106685,9104.533087
1089.760443,-222.061783,-4903.011187,7994.224174
1089.760773,-222.061783,-5515.887586,7994.224174
1089.761103,-370.102971,-766.095498,9696.697840
1089.761432,-1258.350101,5362.668486,12213.398043
1089.761762,-592.164754,7201.297681,15100.201217
1089.762092,-148.041188,7737.564530,15692.365970
1089.762421,-296.082377,7277.907231,13323.706956
1089.762751,-666.185348,2681.334243,9474.636058
1089.763080,-518.144159,-1455.581446,7328.038826
1089.763410,-1332.370696,-1991.848295,8364.327145
1089.763740,-2072.576638,-1991.848295,9252.574275
1089.764069,-1702.473667,-1685.410096,8438.347739
1089.764399,-2368.659014,-3140.991542,7179.997637
1089.764728,-3330.926739,-1685.410096,6735.874072
1089.765058,-3182.885551,2068.457845,8808.450710
1089.765388,-148.041188,4903.011187,10436.903782
1089.765717,3404.947333,4979.620737,9696.697840
1089.766047,2368.659014,4366.744339,7920.203579
1089.766377,0.000000,5439.278036,6957.935855
1089.766706,370.102971,3370.820191,7179.997637
1089.767036,3034.844362,229.828649,8364.327145
1089.767365,3256.906145,766.095498,7328.038826
1089.767695,296.082377,153.219100,6439.791695
1089.768025,-1480.411884,-2528.115143,7846.182985
1089.768354,-2664.741391,-2834.553343,9030.512492
1089.768684,-4293.194464,1532.190996,11029.068536
1089.769013,-4515.256246,3370.820191,11399.171507
1089.769343,-3627.009116,2528.115143,11103.089130
1089.769673,-1850.514855,919.314598,10214.842000
1089.770002,-1036.288319,-536.266849,8438.347739
1089.770332,444.123565,-1225.752797,6365.771101
1089.770662,2516.700203,-1685.410096,7920.203579
1089.770991,3330.926739,-1302.362347,10658.965565
1089.771321,1110.308913,1302.362347,13101.645173
1089.771650,-2368.659014,2451.505594,13027.624579
1089.771980,-4293.194464,1149.143247,12213.398043
1089.772310,-4441.235652,1378.971896,13323.706956
1089.772639,-4219.173869,3370.820191,14508.036463
1089.772969,-2516.700203,2528.115143,13545.768739
1089.773298,-1258.350101,-1225.752797,10881.027347
1089.773628,-1850.514855,-1608.800546,7402.059420
1089.773958,-1924.535449,0.000000,6069.688724
1089.774287,1258.350101,-1072.533697,7846.182985
1089.774617,3701.029710,-459.657299,9104.533087
1089.774947,2516.700203,2145.067394,9622.677246
1089.775276,0.000000,2757.943793,9770.718434
1089.775606,-2368.659014,3524.039291,9918.759623
1089.775935,-3627.009116,3217.601092,10732.986159
1089.776265,-3552.988522,3983.696590,11547.212695
1089.776595,-2886.803174,3217.601092,10362.883188
1089.776924,-2368.659014,0.000000,8068.244768
1089.777254,-1628.453072,-2451.505594,5477.523971
1089.777583,-814.226536,-2145.067394,4515.256246
1089.777913,1406.391290,-919.314598,5181.441594
1089.778243,3404.947333,306.438199,6217.729913
1089.778572,2590.720797,2374.896044,7031.956449
1089.778902,-222.061783,3907.087040,8290.306550
1089.779232,-3182.885551,4290.134789,9844.739029
1089.779561,-4589.276840,5515.887586,11325.150913
1089.779891,-5181.441594,4519.963438,11991.336260
1089.780220,-4737.318029,1302.362347,10807.006753
1089.780550,-4663.297435,-1762.019645,9178.553681
1089.780880,-3997.112087,-4443.353888,7402.059420
1089.781209,-2738.761985,-4903.011187,6143.709319
1089.781539,-592.164754,-2374.896044,7254.018232
1089.781868,2590.720797,306.438199,8586.388927
1089.782198,3701.029710,1149.143247,10732.986159
1089.782528,1776.494261,2068.457845,12213.398043
1089.782857,-518.144159,4213.525239,12731.542202
1089.783187,-1776.494261,5132.839837,14656.077652
1089.783516,-1702.473667,6052.154434,16728.654289
1089.783846,-2368.659014,4749.792088,15396.283594
1089.784176,-2812.782580,-919.314598,12139.377449
1089.784505,-4071.132681,-4979.620737,9622.677246
1089.784835,-4293.194464,-3753.867940,8734.430116
1089.785165,-1628.453072,-2374.896044,9548.656652
1089.785494,1406.391290,-2911.162892,8956.491898
1089.785824,1480.411884,76.609550,9030.512492
1089.786153,74.020594,3217.601092,7846.182985
1089.786483,0.000000,2911.162892,7698.141797
1089.786813,1184.329507,4060.306139,8586.388927
1089.787142,888.247130,5362.668486,10288.862594
1089.787472,-1332.370696,6205.373534,11103.089130
1089.787801,-3034.844362,3677.258390,9548.656652
1089.788131,-2368.659014,-536.266849,7105.977043
1089.788461,-962.267725,-3447.429741,4441.235652
1089.788790,592.164754,-2374.896044,4959.379811
1089.789120,2294.638420,-919.314598,6217.729913
1089.789450,3478.967927,-459.657299,7031.956449
1089.789779,2220.617826,1378.971896,7476.080014
1089.790109,-2072.576638,4596.572988,7550.100608
1089.790438,-3627.009116,5592.497135,8956.491898
1089.790768,-2516.700203,4443.353888,11325.150913
1089.791098,-2146.597232,3524.039291,11769.274478
1089.791427,-3256.906145,1302.362347,10140.821405
1089.791757,-3997.112087,-3677.258390,6809.894666
1089.792086,-2812.782580,-5592.497135,6291.750507
1089.792416,-592.164754,-4979.620737,8586.388927
1089.792746,1406.391290,-2987.772442,10584.944971
1089.793075,1406.391290,-612.876398,11325.150913
1089.793405,-962.267725,1072.533697,11251.130318
1089.793735,-2812.782580,2681.334243,12213.398043
1089.794064,-2146.597232,4979.620737,14211.954086
1089.794394,-296.082377,4826.401637,15692.365970
1089.794723,0.000000,2987.772442,14508.036463
1089.795053,-1924.535449,612.876398,11991.336260
1089.795383,-2664.741391,-766.095498,9474.636058
1089.795712,-1110.308913,-2834.553343,7772.162391
1089.796042,1850.514855,-3677.258390,8586.388927
1089.796371,3108.864956,-1225.752797,9696.697840
1089.796701,2516.700203,919.314598,9844.739029
1089.797031,592.164754,1455.581446,10955.047942
1089.797360,-2812.782580,3370.820191,11103.089130
1089.797690,-4959.379811,6281.983084,12213.398043
1089.798020,-4071.132681,6511.811733,12583.501014
1089.798349,-2960.823768,3830.477490,10955.047942
1089.798679,-2294.638420,-229.828649,7772.162391
1089.799008,-2072.576638,-3447.429741,4515.256246
1089.799338,-1036.288319,-3983.696590,1850.514855
1089.799668,1036.288319,-2757.943793,3775.050304
1089.799997,2146.597232,-153.219100,7402.059420
1089.800327,1184.329507,3217.601092,9030.512492
1089.800656,-1036.288319,5439.278036,9178.553681
1089.800986,-2294.638420,5209.449386,7624.121203
1089.801316,-2590.720797,5286.058936,8364.327145
1089.801645,-1628.453072,4749.792088,10584.944971
1089.801975,-1702.473667,2374.896044,11029.068536
1089.802305,-3330.926739,76.609550,9252.574275
1089.802634,-5551.544565,-995.924147,6587.832884
1089.802964,-3627.009116,-3217.601092,5699.585753
1089.803293,0.000000,-4673.182538,7105.977043
1089.803623,2960.823768,-2911.162892,8364.327145
1089.803953,3404.947333,-306.438199,8364.327145
1089.804282,1776.494261,1685.410096,9918.759623
1089.804612,-814.226536,3907.087040,11769.274478
1089.804941,-2738.761985,6588.421283,13323.706956
1089.805271,-2960.823768,5286.058936,15692.365970
1089.805601,-3478.967927,3753.867940,15026.180623
1089.805930,-4589.276840,536.266849,13323.706956
1089.806260,-5403.503377,-3140.991542,10584.944971
1089.806590,-3330.926739,-5286.058936,8364.327145
1089.806919,-518.144159,-6128.763984,9030.512492
1089.807249,1850.514855,-3907.087040,10288.862594
1089.807578,2220.617826,-383.047749,10955.047942
1089.807908,666.185348,2604.724693,10881.027347
1089.808238,-444.123565,3753.867940,10510.924376
1089.808567,-1036.288319,5439.278036,11177.109724
1089.808897,-148.041188,6435.202183,12879.583391
1089.809226,-148.041188,4673.182538,12435.459826
1089.809556,-888.247130,1149.143247,10288.862594
1089.809886,-1702.473667,-153.219100,6661.853478
1089.810215,-1628.453072,-2451.505594,3923.091493
1089.810545,1184.329507,-4443.353888,4811.338623
1089.810875,4145.153275,-2681.334243,6439.791695
1089.811204,4293.194464,1378.971896,7105.977043
1089.811534,1332.370696,3447.429741,6883.915261
1089.811863,-2220.617826,4596.572988,7624.121203
1089.812193,-3627.009116,5286.058936,9844.739029
1089.812523,-3182.885551,6128.763984,11251.130318
1089.812852,-3849.070898,4826.401637,10881.027347
1089.813182,-3849.070898,1608.800546,8956.491898
1089.813511,-3997.112087,-2911.162892,6661.853478
1089.813841,-3330.926739,-4749.792088,4737.318029
1089.814171,-1776.494261,-4903.011187,4737.318029
1089.814500,814.226536,-2757.943793,7772.162391
1089.814830,1406.391290,995.924147,9178.553681
1089.815160,0.000000,2757.943793,10658.965565
1089.815489,-1332.370696,2451.505594,11251.130318
1089.815819,-1924.535449,5362.668486,11177.109724
1089.816148,-1924.535449,6588.421283,13471.748144
1089.816478,-1702.473667,3524.039291,14434.015869
1089.816808,-2960.823768,306.438199,13619.789333
1089.817137,-4515.256246,-1378.971896,11325.150913
1089.817467,-3034.844362,-3140.991542,9696.697840
1089.817796,-296.082377,-4519.963438,10214.842000
1089.818126,2368.659014,-2145.067394,10584.944971
1089.818456,2960.823768,-153.219100,10066.800811
1089.818785,1998.556043,689.485948,11251.130318
1089.819115,-444.123565,3447.429741,11325.150913
1089.819445,-2368.659014,6511.811733,11695.253884
1089.819774,-2812.782580,6818.249932,12509.480420
1089.820104,-2738.761985,4673.182538,12435.459826
1089.820433,-2960.823768,919.314598,9622.677246
1089.820763,-3108.864956,-2757.943793,6809.894666
1089.821093,-2294.638420,-4290.134789,4737.318029
1089.821422,-518.144159,-2451.505594,5625.565159
1089.821752,1554.432478,-1532.190996,7105.977043
1089.822081,2368.659014,0.000000,8142.265362
1089.822411,666.185348,3217.601092,7476.080014
1089.822741,-1036.288319,4213.525239,7031.956449
1089.823070,-444.123565,4060.306139,9178.553681
1089.823400,0.000000,5515.887586,11769.274478
1089.823730,-1036.288319,5286.058936,11917.315666
1089.824059,-3182.885551,1991.848295,9474.636058
1089.824389,-3997.112087,-919.314598,5625.565159
1089.824718,-3108.864956,-3064.381992,3552.988522
1089.825048,296.082377,-5056.230287,4515.256246
1089.825378,3108.864956,-4443.353888,7328.038826
1089.825707,3108.864956,-689.485948,8808.450710
1089.826037,740.205942,2068.457845,9844.739029
1089.826366,-2294.638420,4519.963438,10584.944971
1089.826696,-3775.050304,5669.106685,11769.274478
1089.827025,-4219.173869,4519.963438,14063.912898
1089.827355,-4589.276840,2681.334243,14804.118840
1089.827685,-5107.421000,1455.581446,13027.624579
1089.828014,-5403.503377,-3294.210641,10066.800811
1089.828344,-3923.091493,-6358.592633,8290.306550
1089.828673,-2664.741391,-5362.668486,9474.636058
1089.829003,1184.329507,-3524.039291,11325.150913
1089.829332,3478.967927,-2145.067394,11843.295072
1089.829662,2294.638420,1915.238745,11991.336260
1089.829991,-444.123565,6281.983084,11399.171507
1089.830321,-1036.288319,6741.640382,12065.356855
1089.830651,444.123565,5286.058936,14137.933492
1089.830980,222.061783,5898.935335,13323.706956
1089.831310,-1628.453072,3447.429741,10436.903782
1089.831639,-2886.803174,-459.657299,6883.915261
1089.831969,-1554.432478,-3524.039291,6365.771101
1089.832298,74.020594,-4213.525239,6661.853478
1089.832628,1628.453072,-1991.848295,6513.812290
1089.832958,1628.453072,383.047749,6587.832884
1089.833287,1406.391290,2681.334243,7031.956449
1089.833617,-666.185348,3907.087040,7994.224174
1089.833946,-1998.556043,5056.230287,8956.491898
1089.834276,-1850.514855,6665.030833,10214.842000
1089.834605,-1850.514855,5898.935335,10288.862594
1089.834935,-2590.720797,3217.601092,9548.656652
1089.835264,-3108.864956,383.047749,6957.935855
1089.835594,-3108.864956,-3294.210641,3701.029710
1089.835924,-1110.308913,-3907.087040,3552.988522
1089.836253,2368.659014,-2834.553343,6439.791695
1089.836583,3478.967927,383.047749,8216.285956
1089.836912,1702.473667,2451.505594,9400.615463
1089.837242,-1036.288319,3140.991542,9474.636058
1089.837571,-2590.720797,5286.058936,11029.068536
1089.837901,-2590.720797,5669.106685,13545.768739
1089.838231,-2812.782580,3830.477490,14359.995275
1089.838560,-4145.153275,995.924147,13027.624579
1089.838890,-4737.318029,-2145.067394,10066.800811
1089.839219,-3404.947333,-5286.058936,7624.121203
1089.839549,-1332.370696,-5669.106685,8808.450710
1089.839878,740.205942,-3600.648841,11177.109724
1089.840208,1850.514855,-995.924147,12213.398043
1089.840537,1036.288319,919.314598,11547.212695
1089.840867,-370.102971,3294.210641,11473.192101
1089.841197,-1332.370696,4903.011187,12213.398043
1089.841526,-444.123565,5209.449386,14285.974681
1089.841856,-1258.350101,4673.182538,14137.933492
1089.842185,-3552.988522,2757.943793,11917.315666
1089.842515,-4515.256246,0.000000,9326.594869
1089.842844,-2664.741391,-3753.867940,8438.347739
1089.843174,-888.247130,-4443.353888,8734.430116
1089.843504,222.061783,-2451.505594,8216.285956
1089.843833,1998.556043,-1532.190996,7179.997637
1089.844163,2664.741391,-306.438199,7328.038826
1089.844492,666.185348,2145.067394,8216.285956
1089.844822,-1332.370696,5056.230287,9918.759623
1089.845151,-740.205942,7048.078582,10658.965565
1089.845481,740.205942,5975.544884,9844.739029
1089.845810,370.102971,3140.991542,7476.080014
1089.846140,-962.267725,-612.876398,4885.359217
1089.846470,-1406.391290,-3370.820191,3330.926739
1089.846799,888.247130,-3830.477490,4589.276840
1089.847129,2738.761985,-1455.581446,7254.018232
1089.847458,1480.411884,1225.752797,7846.182985
1089.847788,-1406.391290,2451.505594,8216.285956
1089.848117,-4663.297435,1608.800546,9178.553681
1089.848447,-5329.482782,4443.353888,10955.047942
1089.848777,-4737.318029,4903.011187,12657.521608
1089.849106,-4515.256246,1915.238745,13323.706956
1089.849436,-6217.729913,-612.876398,11103.089130
1089.849765,-6587.832884,-3217.601092,8142.265362
1089.850095,-3997.112087,-5745.716235,5921.647536
1089.850424,74.020594,-6435.202183,7402.059420
1089.850754,2368.659014,-2834.553343,10807.006753
1089.851083,2368.659014,995.924147,11843.295072
1089.851413,1850.514855,2681.334243,12805.562797
1089.851743,814.226536,4366.744339,12509.480420
1089.852072,370.102971,6205.373534,12361.439231
1089.852402,-592.164754,5975.544884,14359.995275
1089.852731,-370.102971,5056.230287,15544.324782
1089.853061,-1480.411884,1991.848295,13989.892304
1089.853390,-3256.906145,-383.047749,10584.944971
1089.853720,-4515.256246,-2528.115143,8364.327145
1089.854050,-2886.803174,-4519.963438,7846.182985
1089.854379,518.144159,-3907.087040,8364.327145
1089.854709,2516.700203,-1915.238745,7550.100608
1089.855038,2072.576638,459.657299,7550.100608
1089.855368,-888.247130,2451.505594,7624.121203
1089.855697,-2664.741391,4596.572988,9252.574275
1089.856027,-1850.514855,6281.983084,11769.274478
1089.856356,-1628.453072,6894.859482,11177.109724
1089.856686,-2368.659014,4673.182538,8216.285956
1089.857016,-2220.617826,-383.047749,5033.400406
1089.857345,-888.247130,-3294.210641,3404.947333
1089.857675,814.226536,-3753.867940,3552.988522
1089.858004,1998.556043,-1762.019645,5033.400406
1089.858334,2294.638420,306.438199,7105.977043
1089.858663,666.185348,2374.896044,8882.471304
1089.858993,-1924.535449,3447.429741,9844.739029
1089.859323,-3256.906145,3677.258390,10140.821405
1089.859652,-2516.700203,3447.429741,11991.336260
1089.859982,-2220.617826,3294.210641,12953.603985
1089.860311,-3108.864956,2068.457845,11991.336260
1089.860641,-3923.091493,-2145.067394,8956.491898
1089.860970,-2886.803174,-4366.744339,6143.709319
1089.861300,0.000000,-3830.477490,6365.771101
1089.861629,3108.864956,-2987.772442,8068.244768
1089.861959,4293.194464,-1991.848295,9770.718434
1089.862289,3404.947333,459.657299,11473.192101
1089.862618,740.205942,3370.820191,12287.418637
1089.862948,-1406.391290,5132.839837,13619.789333
1089.863277,-2368.659014,5209.449386,15766.386565
1089.863607,-2812.782580,4519.963438,16580.613101
1089.863936,-3404.947333,2145.067394,15396.283594
1089.864266,-3404.947333,-1378.971896,12435.459826
1089.864596,-3404.947333,-3753.867940,9326.594869
1089.864925,-2664.741391,-4443.353888,8364.327145
1089.865255,148.041188,-3524.039291,7920.203579
1089.865584,2442.679609,-1608.800546,7846.182985
1089.865914,2886.803174,689.485948,8586.388927
1089.866243,888.247130,4060.306139,9474.636058
1089.866573,-1332.370696,5669.106685,9400.615463
1089.866903,-1776.494261,6281.983084,8956.491898
1089.867232,-222.061783,5745.716235,10436.903782
1089.867562,-666.185348,3370.820191,10362.883188
1089.867891,-1332.370696,153.219100,8364.327145
1089.868221,-1702.473667,-1838.629195,5329.482782
1089.868550,-1332.370696,-1915.238745,3256.906145
1089.868880,1036.288319,-1225.752797,3108.864956
1089.869209,1850.514855,-1149.143247,5329.482782
1089.869539,1702.473667,2068.457845,8290.306550
1089.869869,-1998.556043,4519.963438,8660.409521
1089.870198,-5033.400406,4749.792088,9252.574275
1089.870528,-5033.400406,6205.373534,10732.986159
1089.870857,-3627.009116,5362.668486,11621.233289
1089.871187,-3923.091493,536.266849,10732.986159
1089.871516,-4515.256246,-2987.772442,8512.368333
1089.871846,-4145.153275,-2221.676944,5921.647536
1089.872176,-1702.473667,-3217.601092,6291.750507
1089.872505,1110.308913,-4673.182538,8586.388927
1089.872835,2442.679609,-1225.752797,10881.027347
1089.873164,1554.432478,2145.067394,11399.171507
1089.873494,0.000000,2451.505594,11103.089130
1089.873823,-888.247130,4826.401637,12583.501014
1089.874153,-444.123565,5592.497135,15692.365970
1089.874482,-444.123565,3753.867940,17024.736666
1089.874812,-2590.720797,1608.800546,15396.283594
1089.875142,-4293.194464,459.657299,13027.624579
1089.875471,-3627.009116,-1225.752797,9696.697840
1089.875801,-1480.411884,-4519.963438,8216.285956
1089.876130,1554.432478,-4596.572988,8586.388927
1089.876460,4071.132681,-2987.772442,8734.430116
1089.876789,3108.864956,-306.438199,8142.265362
1089.877119,222.061783,2451.505594,8956.491898
1089.877449,-2294.638420,4979.620737,10362.883188
1089.877778,-3330.926739,6971.469032,12435.459826
1089.878108,-2146.597232,5975.544884,12657.521608
1089.878437,-1258.350101,3677.258390,10510.924376
1089.878767,-1480.411884,689.485948,7031.956449
1089.879096,-1554.432478,-2374.896044,3256.906145
1089.879426,-666.185348,-4519.963438,2886.803174
1089.879755,1110.308913,-2681.334243,5255.462188
1089.880085,1998.556043,1225.752797,6587.832884
1089.880415,814.226536,2987.772442,6809.894666
1089.880744,-1776.494261,3140.991542,6957.935855
1089.881074,-2812.782580,3447.429741,7624.121203
1089.881403,-2590.720797,3370.820191,10584.944971
1089.881733,-2442.679609,4136.915689,11843.295072
1089.882062,-4663.297435,4290.134789,11177.109724
1089.882392,-6143.709319,306.438199,9104.533087
1089.882722,-4071.132681,-3600.648841,6587.832884
1089.883051,-1628.453072,-4519.963438,5551.544565
1089.883381,1184.329507,-4290.134789,7402.059420
1089.883710,2664.741391,-1991.848295,8956.491898
1089.884040,2072.576638,1072.533697,10362.883188
1089.884369,-1184.329507,1838.629195,11103.089130
1089.884699,-2146.597232,3447.429741,12287.418637
1089.885028,-2368.659014,6052.154434,14804.118840
1089.885358,-1480.411884,5056.230287,16210.510130
1089.885688,-2220.617826,1225.752797,15470.304188
1089.886017,-3923.091493,-1302.362347,14211.954086
1089.886347,-3627.009116,-2221.676944,10881.027347
1089.886676,-1776.494261,-3677.258390,8808.450710
1089.887006,1776.494261,-4290.134789,8290.306550
1089.887335,5107.421000,-2068.457845,8734.430116
1089.887665,5477.523971,-459.657299,9030.512492
1089.887995,2960.823768,2145.067394,8956.491898
1089.888324,0.000000,4749.792088,9326.594869
1089.888654,-888.247130,6435.202183,12139.377449
1089.888983,296.082377,6818.249932,13915.871710
1089.889313,-518.144159,3677.258390,12213.398043
1089.889642,-1480.411884,-306.438199,8882.471304
1089.889972,-1036.288319,-1915.238745,5403.503377
1089.890301,74.020594,-2068.457845,3404.947333
1089.890631,1924.535449,-1685.410096,3701.029710
1089.890961,2738.761985,-1225.752797,5255.462188
1089.891290,1924.535449,1455.581446,6883.915261
1089.891620,-444.123565,4519.963438,7994.224174
1089.891949,-4145.153275,3907.087040,8438.347739
1089.892279,-5181.441594,5209.449386,10362.883188
1089.892608,-4071.132681,5362.668486,11621.233289
1089.892938,-3256.906145,1762.019645,11103.089130
1089.893268,-3108.864956,-2145.067394,8512.368333
1089.893597,-3775.050304,-1915.238745,4811.338623
1089.893927,-1776.494261,-2374.896044,3849.070898
1089.894256,1776.494261,-4290.134789,6957.935855
1089.894586,3108.864956,-1302.362347,8438.347739
1089.894915,2368.659014,2451.505594,8586.388927
1089.895245,1628.453072,1532.190996,10288.862594
1089.895574,0.000000,4060.306139,12139.377449
1089.895904,-1998.556043,6511.811733,14878.139434
1089.896234,-3478.967927,4443.353888,16284.530724
1089.896563,-4737.318029,1991.848295,16284.530724
1089.896893,-5181.441594,383.047749,13693.809927
1089.897222,-4515.256246,-2374.896044,10881.027347
1089.897552,-2368.659014,-5286.058936,9178.553681
1089.897881,0.000000,-4903.011187,8956.491898
1089.898211,1554.432478,-2987.772442,8364.327145
1089.898541,1850.514855,-766.095498,8364.327145
1089.898870,0.000000,2681.334243,10732.986159
1089.899200,-2664.741391,4290.134789,11991.336260
1089.899529,-3627.009116,5286.058936,13619.789333
1089.899859,-3034.844362,5132.839837,13027.624579
1089.900188,-2516.700203,3600.648841,9992.780217
1089.900518,-1184.329507,-383.047749,8290.306550
1089.900847,-814.226536,-3600.648841,5995.668130
1089.901177,222.061783,-3064.381992,5699.585753
1089.901507,2368.659014,-1072.533697,6143.709319
1089.901836,4293.194464,1685.410096,5773.606348
1089.902166,5033.400406,3447.429741,5921.647536
1089.902495,3182.885551,2987.772442,8216.285956
1089.902825,74.020594,4749.792088,9178.553681
1089.903154,-2368.659014,6205.373534,10955.047942
1089.903484,-3256.906145,5362.668486,11991.336260
1089.903814,-4663.297435,3370.820191,11103.089130
1089.904143,-5699.585753,306.438199,8660.409521
1089.904473,-4737.318029,-4673.182538,5107.421000
1089.904802,-2146.597232,-6741.640382,2664.741391
1089.905132,962.267725,-3830.477490,3256.906145
1089.905461,3701.029710,-1838.629195,4959.379811
1089.905791,3701.029710,-383.047749,7105.977043
1089.906120,222.061783,3140.991542,9918.759623
1089.906450,-2812.782580,5822.325785,11843.295072
1089.906780,-3627.009116,7890.783629,14730.098246
1089.907109,-3552.988522,6205.373534,16802.674883
1089.907439,-4145.153275,2374.896044,16728.654289
1089.907768,-4737.318029,-1455.581446,14508.036463
1089.908098,-4219.173869,-3983.696590,10066.800811
1089.908427,-1258.350101,-6358.592633,7624.121203
1089.908757,2146.597232,-6052.154434,9178.553681
1089.909087,4145.153275,-2145.067394,9918.759623
1089.909416,4441.235652,919.314598,10066.800811
1089.909746,2886.803174,2528.115143,9992.780217
1089.910075,740.205942,4979.620737,11843.295072
1089.910405,-888.247130,6818.249932,14359.995275
1089.910734,-1628.453072,4443.353888,15988.448347
1089.911064,-2590.720797,3677.258390,14508.036463
1089.911393,-3182.885551,995.924147,10658.965565
1089.911723,-3775.050304,-1455.581446,5403.503377
1089.912053,-2664.741391,-3600.648841,1480.411884
1089.912382,666.185348,-6052.154434,3182.885551
1089.912712,3701.029710,-2987.772442,6809.894666
1089.913041,2294.638420,3217.601092,7994.224174
1089.913371,-1332.370696,5286.058936,7476.080014
1089.913700,-3775.050304,6052.154434,8438.347739
1089.914030,-3627.009116,7048.078582,10140.821405
1089.914360,-1480.411884,4366.744339,12731.542202
1089.914689,-2072.576638,2451.505594,11843.295072
1089.915019,-4737.318029,2451.505594,8216.285956
1089.915348,-4959.379811,-919.314598,5699.585753
1089.915678,-2960.823768,-5975.544884,4811.338623
1089.916007,0.000000,-5362.668486,3330.926739
1089.916337,2294.638420,-2451.505594,3182.885551
1089.916667,4441.235652,-689.485948,6291.750507
1089.916996,3182.885551,2834.553343,9622.677246
1089.917326,-1110.308913,5439.278036,10732.986159
1089.917655,-3849.070898,6435.202183,12213.398043
1089.917985,-4441.235652,7048.078582,14582.057057
1089.918314,-3627.009116,5286.058936,15988.448347
1089.918644,-3627.009116,383.047749,14656.077652
1089.918973,-4145.153275,-3370.820191,10362.883188
1089.919303,-3256.906145,-5669.106685,6957.935855
1089.919633,518.144159,-7277.907231,8364.327145
1089.919962,3478.967927,-4443.353888,11177.109724
1089.920292,2738.761985,536.266849,11917.315666
1089.920621,-296.082377,2068.457845,11769.274478
1089.920951,-2368.659014,2911.162892,12213.398043
1089.921280,-1924.535449,6511.811733,12879.583391
1089.921610,-296.082377,5132.839837,14730.098246
1089.921940,-370.102971,3064.381992,14137.933492
1089.922269,-2072.576638,1608.800546,11843.295072
1089.922599,-2664.741391,-766.095498,7920.203579
1089.922928,-814.226536,-3217.601092,4959.379811
1089.923258,2516.700203,-3447.429741,5255.462188
1089.923587,3923.091493,-1378.971896,5995.668130
1089.923917,3923.091493,536.266849,6365.771101
1089.924246,2146.597232,2757.943793,7698.141797
1089.924576,-666.185348,4443.353888,9548.656652
1089.924906,-3404.947333,6588.421283,11251.130318
1089.925235,-4515.256246,7584.345430,12287.418637
1089.925565,-4441.235652,4979.620737,11325.150913
1089.925894,-3627.009116,-306.438199,9252.574275
1089.926224,-3552.988522,-2911.162892,4737.318029
1089.926553,-2368.659014,-3677.258390,1702.473667
1089.926883,0.000000,-4903.011187,1850.514855
1089.927213,2220.617826,-2451.505594,4219.173869
1089.927542,1924.535449,1532.190996,6513.812290
1089.927871,-296.082377,3064.381992,9178.553681
1089.928201,-3330.926739,4673.182538,10658.965565
1089.928530,-5255.462188,7431.126331,12583.501014
1089.928860,-4367.215058,5439.278036,15026.180623
1089.929189,-3034.844362,1991.848295,14656.077652
1089.929519,-3775.050304,-1762.019645,11917.315666
1089.929848,-3997.112087,-4596.572988,9178.553681
1089.930178,-2590.720797,-4903.011187,8142.265362
1089.930507,222.061783,-3370.820191,8734.430116
1089.930837,3478.967927,-1685.410096,9622.677246
1089.931166,5255.462188,-229.828649,10658.965565
1089.931496,4293.194464,2221.676944,11473.192101
1089.931825,2146.597232,3830.477490,13027.624579
1089.932155,296.082377,4903.011187,16136.489536
1089.932484,-1258.350101,7354.516781,18061.024985
1089.932814,-3701.029710,6741.640382,15396.283594
1089.933143,-3997.112087,1608.800546,10584.944971
1089.933473,-2886.803174,-3600.648841,7105.977043
1089.933802,-370.102971,-5898.935335,5625.565159
1089.934132,666.185348,-5439.278036,5477.523971
1089.934461,962.267725,-3217.601092,5847.626942
1089.934791,444.123565,1302.362347,6957.935855
1089.935120,-666.185348,4136.915689,8512.368333
1089.935449,-1036.288319,3217.601092,9178.553681
1089.935779,-2072.576638,5286.058936,9474.636058
1089.936108,-1850.514855,7124.688131,10584.944971
1089.936438,-1702.473667,5592.497135,10732.986159
1089.936767,-1776.494261,1455.581446,9844.739029
1089.937097,-2220.617826,-1378.971896,6143.709319
1089.937426,-2960.823768,-2757.943793,2368.659014
1089.937756,-296.082377,-4136.915689,2812.782580
1089.938085,3552.988522,-2374.896044,5181.441594
1089.938415,4293.194464,766.095498,7031.956449
1089.938744,1480.411884,2528.115143,7920.203579
1089.939074,-1850.514855,3217.601092,9548.656652
1089.939403,-3701.029710,5745.716235,11695.253884
1089.939733,-4071.132681,6435.202183,13915.871710
1089.940062,-4663.297435,3677.258390,14211.954086
1089.940392,-5773.606348,153.219100,11843.295072
1089.940721,-4737.318029,-3677.258390,8808.450710
1089.941051,-2516.700203,-6588.421283,6661.853478
1089.941380,0.000000,-4979.620737,8216.285956
1089.941710,1406.391290,-3753.867940,9918.759623
1089.942039,1628.453072,-1149.143247,11029.068536
1089.942369,592.164754,2221.676944,12435.459826
1089.942698,-740.205942,5209.449386,12879.583391
1089.943027,-1110.308913,4979.620737,15100.201217
1089.943357,-1184.329507,4903.011187,17320.819043
1089.943686,-2368.659014,5209.449386,16062.468941
1089.944016,-2738.761985,2221.676944,13323.706956
1089.944345,-1480.411884,-2145.067394,9252.574275
1089.944675,-1406.391290,-4213.525239,6143.709319
1089.945004,0.000000,-5132.839837,5403.503377
1089.945334,2368.659014,-3447.429741,6291.750507
1089.945663,3997.112087,-383.047749,7031.956449
1089.945993,3256.906145,2528.115143,8438.347739
1089.946322,-962.267725,4213.525239,9474.636058
1089.946652,-3701.029710,6894.859482,10881.027347
1089.946981,-3034.844362,7584.345430,12509.480420
1089.947311,-2442.679609,5745.716235,11621.233289
1089.947640,-2664.741391,3983.696590,8660.409521
1089.947970,-3330.926739,-842.705048,4441.235652
1089.948299,-2368.659014,-4903.011187,2220.617826
1089.948629,0.000000,-4290.134789,2220.617826
1089.948958,2294.638420,-1838.629195,3627.009116
1089.949288,2886.803174,459.657299,6809.894666
1089.949617,74.020594,2145.067394,8956.491898
1089.949947,-4219.173869,4290.134789,10510.924376
1089.950276,-5403.503377,4903.011187,11917.315666
1089.950605,-4663.297435,5056.230287,14063.912898
1089.950935,-4293.194464,4060.306139,14063.912898
1089.951264,-4293.194464,1302.362347,11843.295072
1089.951594,-3701.029710,-2911.162892,7698.141797
1089.951923,-1998.556043,-4903.011187,4293.194464
1089.952253,962.267725,-5669.106685,5329.482782
1089.952582,3997.112087,-3600.648841,9104.533087
1089.952912,4737.318029,229.828649,11325.150913
1089.953241,3182.885551,2145.067394,13175.665768
1089.953571,0.000000,3370.820191,13101.645173
1089.953900,-2812.782580,5975.544884,13989.892304
1089.954230,-3627.009116,4903.011187,16654.633695
1089.954559,-2072.576638,3983.696590,17024.736666
1089.954889,-2960.823768,1149.143247,14508.036463
1089.955218,-2886.803174,-2298.286494,10807.006753
1089.955548,-2516.700203,-5209.449386,6587.832884
1089.955877,-666.185348,-5515.887586,5477.523971
1089.956207,2220.617826,-3677.258390,6883.915261
1089.956536,3923.091493,-919.314598,8364.327145
1089.956866,1924.535449,3907.087040,8882.471304
1089.957195,-1776.494261,5745.716235,9178.553681
1089.957525,-3627.009116,4903.011187,10584.944971
1089.957854,-2812.782580,6894.859482,12065.356855
1089.958183,-2220.617826,4979.620737,11103.089130
1089.958513,-2368.659014,995.924147,9252.574275
1089.958842,-3182.885551,-1608.800546,5477.523971
1089.959172,-2812.782580,-3600.648841,3404.947333
1089.959501,0.000000,-4366.744339,3478.967927
1089.959831,2294.638420,-2834.553343,4811.338623
1089.960160,3330.926739,2298.286494,5847.626942
1089.960490,1184.329507,3524.039291,7328.038826
1089.960819,-1036.288319,3447.429741,9252.574275
1089.961149,-2664.741391,6511.811733,10436.903782
1089.961478,-2442.679609,6205.373534,12361.439231
1089.961808,-2442.679609,3370.820191,13471.748144
1089.962137,-3627.009116,1378.971896,11991.336260
1089.962467,-4737.318029,-1838.629195,8364.327145
1089.962796,-3552.988522,-5209.449386,5255.462188
1089.963126,-888.247130,-5669.106685,6291.750507
1089.963455,1776.494261,-2987.772442,7698.141797
1089.963785,4145.153275,-1225.752797,8068.244768
1089.964114,2886.803174,383.047749,10362.883188
1089.964444,370.102971,3064.381992,12583.501014
1089.964773,-2590.720797,5975.544884,15100.201217
1089.965102,-2664.741391,6894.859482,17468.860231
1089.965432,-2220.617826,6128.763984,17320.819043
1089.965761,-2516.700203,1991.848295,15248.242405
1089.966091,-3256.906145,-2451.505594,11251.130318
1089.966420,-2368.659014,-4136.915689,7624.121203
1089.966750,0.000000,-5515.887586,7476.080014
1089.967079,2664.741391,-2604.724693,7994.224174
1089.967409,2886.803174,306.438199,7624.121203
1089.967738,1776.494261,1225.752797,7920.203579
1089.968068,-592.164754,1838.629195,9548.656652
1089.968397,-2738.761985,5439.278036,11103.089130
1089.968727,-2442.679609,8197.221829,11843.295072
1089.969056,-1628.453072,5362.668486,11473.192101
1089.969386,-1998.556043,2757.943793,9178.553681
1089.969715,-2368.659014,-306.438199,6439.791695
1089.970045,-1258.350101,-3447.429741,3552.988522
1089.970374,1036.288319,-2987.772442,3182.885551
1089.970704,2442.679609,-919.314598,4293.194464
1089.971033,2886.803174,0.000000,6661.853478
1089.971363,592.164754,2145.067394,8660.409521
1089.971692,-3182.885551,3677.258390,10066.800811
1089.972022,-5255.462188,4596.572988,11103.089130
1089.972351,-5329.482782,5592.497135,12435.459826
1089.972680,-4663.297435,4903.011187,11843.295072
1089.973010,-3997.112087,689.485948,10140.821405
1089.973339,-3997.112087,-3753.867940,6735.874072
1089.973669,-3182.885551,-5209.449386,3701.029710
1089.973998,-1184.329507,-5592.497135,4959.379811
1089.974328,1702.473667,-2681.334243,9252.574275
1089.974657,2072.576638,842.705048,10288.862594
1089.974987,-222.061783,2451.505594,9844.739029
1089.975316,-2368.659014,2528.115143,10510.924376
1089.975646,-2368.659014,4749.792088,12953.603985
1089.975975,-2294.638420,4443.353888,16432.571912
1089.976305,-2442.679609,2757.943793,17542.880825
1089.976634,-3849.070898,1149.143247,15914.427753
1089.976964,-3849.070898,-995.924147,11991.336260
1089.977293,-1702.473667,-4903.011187,8364.327145
1089.977623,1480.411884,-7201.297681,7698.141797
1089.977952,4071.132681,-3064.381992,9030.512492
1089.978282,4589.276840,919.314598,8808.450710
1089.978611,3997.112087,2145.067394,9918.759623
1089.978941,1258.350101,3370.820191,10362.883188
1089.979270,-1924.535449,4749.792088,10658.965565
1089.979600,-3404.947333,5515.887586,12213.398043
1089.979929,-2442.679609,5056.230287,12361.439231
1089.980258,-1998.556043,2757.943793,10140.821405
1089.980588,-2072.576638,-1455.581446,6291.750507
1089.980917,-1998.556043,-4443.353888,2738.761985
1089.981247,296.082377,-4060.306139,3330.926739
1089.981576,2368.659014,-2298.286494,5255.462188
1089.981906,2812.782580,1608.800546,6439.791695
1089.982235,888.247130,4136.915689,7624.121203
1089.982565,-1406.391290,3600.648841,9104.533087
1089.982894,-2368.659014,4519.963438,10658.965565
1089.983224,-2886.803174,6358.592633,13249.686362
1089.983553,-3330.926739,5592.497135,12731.542202
1089.983883,-4071.132681,1915.238745,10584.944971
1089.984212,-3775.050304,-1225.752797,7920.203579
1089.984542,-1702.473667,-3600.648841,5033.400406
1089.984871,518.144159,-4213.525239,3404.947333
1089.985201,2812.782580,-3140.991542,5329.482782
1089.985530,3627.009116,383.047749,7994.224174
1089.985860,1554.432478,2834.553343,9918.759623
1089.986189,-1258.350101,2757.943793,10584.944971
1089.986519,-3182.885551,4749.792088,12509.480420
1089.986848,-3701.029710,5439.278036,15470.304188
1089.987178,-4293.194464,4136.915689,15988.448347
1089.987507,-4515.256246,612.876398,14656.077652
1089.987836,-4515.256246,-2834.553343,11843.295072
1089.988166,-3627.009116,-3447.429741,8512.368333
1089.988495,-1924.535449,-3830.477490,7994.224174
1089.988825,1406.391290,-3294.210641,9474.636058
1089.989154,2812.782580,-306.438199,10140.821405
1089.989484,1480.411884,2298.286494,10066.800811
1089.989813,-222.061783,4826.401637,9548.656652
1089.990143,-1998.556043,4749.792088,11103.089130
1089.990472,-2738.761985,5209.449386,13175.665768
1089.990802,-3330.926739,4826.401637,12509.480420
1089.991131,-3256.906145,2298.286494,9696.697840
1089.991461,-2072.576638,-1302.362347,6217.729913
1089.991790,-1036.288319,-4060.306139,3404.947333
1089.992120,666.185348,-4060.306139,4737.318029
1089.992449,2664.741391,-1455.581446,6587.832884
1089.992779,3108.864956,1225.752797,7254.018232
1089.993108,1850.514855,3524.039291,8956.491898
1089.993438,-1036.288319,3830.477490,10584.944971
1089.993767,-2812.782580,5592.497135,10658.965565
1089.994097,-3182.885551,5745.716235,11547.212695
1089.994426,-2590.720797,3830.477490,10584.944971
1089.994756,-1480.411884,919.314598,8586.388927
1089.995085,-1406.391290,-3064.381992,5995.668130
1089.995414,-444.123565,-5286.058936,5107.421000
1089.995744,0.000000,-3753.867940,5699.585753
1089.996073,1776.494261,-229.828649,5699.585753
1089.996403,2812.782580,1072.533697,5921.647536
1089.996732,2442.679609,919.314598,9548.656652
1089.997062,-222.061783,2681.334243,12509.480420
1089.997391,-3404.947333,5362.668486,13915.871710
1089.997721,-5107.421000,4060.306139,16062.468941
1089.998050,-5255.462188,3983.696590,16210.510130
1089.998380,-4737.318029,1378.971896,13545.768739
1089.998709,-2368.659014,-5056.230287,10288.862594
1089.999039,-518.144159,-7660.954980,7402.059420
1089.999368,444.123565,-3830.477490,7179.997637
1089.999698,2812.782580,-919.314598,9474.636058
1090.000027,5107.421000,766.095498,11177.109724
1090.000357,3849.070898,4290.134789,11769.274478
1090.000686,592.164754,5132.839837,11917.315666
1090.001016,-1332.370696,5132.839837,12731.542202
1090.001345,-2072.576638,6281.983084,14804.118840
1090.001675,-2960.823768,5056.230287,14211.954086
1090.002004,-4071.132681,1991.848295,10807.006753
1090.002334,-3997.112087,-1991.848295,7328.038826
1090.002663,-2812.782580,-4673.182538,4367.215058
1090.002992,-1184.329507,-4749.792088,3627.009116
1090.003322,740.205942,-1838.629195,4219.173869
1090.003651,1998.556043,1915.238745,4737.318029
1090.003981,1850.514855,2604.724693,6217.729913
1090.004310,0.000000,3830.477490,9178.553681
1090.004640,-2812.782580,6435.202183,10732.986159
1090.004969,-4737.318029,7277.907231,11991.336260
1090.005299,-5329.482782,5515.887586,11547.212695
1090.005628,-4145.153275,2528.115143,10955.047942
1090.005958,-3701.029710,-842.705048,8068.244768
1090.006287,-2738.761985,-4213.525239,3701.029710
1090.006617,-444.123565,-5745.716235,2664.741391
1090.006946,2072.576638,-3830.477490,5033.400406
1090.007276,3701.029710,842.705048,6883.915261
1090.007605,2294.638420,2681.334243,9400.615463
1090.007935,-1184.329507,4443.353888,10436.903782
1090.008264,-3552.988522,6894.859482,11177.109724
1090.008594,-3182.885551,4903.011187,14211.954086
1090.008923,-2516.700203,2757.943793,15470.304188
1090.009253,-3775.050304,536.266849,14137.933492
1090.009582,-4145.153275,-1762.019645,11029.068536
1090.009912,-2960.823768,-4903.011187,8216.285956
1090.010241,-592.164754,-6128.763984,8512.368333
1090.010570,2146.597232,-4596.572988,9770.718434
1090.010900,4293.194464,-842.705048,11029.068536
1090.011229,3552.988522,2451.505594,11843.295072
1090.011559,1110.308913,3600.648841,12361.439231
1090.011888,-1480.411884,5362.668486,13397.727550
1090.012218,-2516.700203,6128.763984,14730.098246
1090.012547,-2442.679609,5132.839837,14582.057057
1090.012877,-1924.535449,2681.334243,11695.253884
1090.013206,-2294.638420,-536.266849,7550.100608
1090.013536,-1332.370696,-5439.278036,4737.318029
1090.013865,74.020594,-7354.516781,4811.338623
1090.014195,1480.411884,-2911.162892,6439.791695
1090.014524,2516.700203,2068.457845,6439.791695
1090.014854,2590.720797,2681.334243,7328.038826
1090.015183,962.267725,3830.477490,8512.368333
1090.015513,-296.082377,5209.449386,9622.677246
1090.015842,-666.185348,6205.373534,10881.027347
1090.016172,-1036.288319,6281.983084,10510.924376
1090.016501,-1776.494261,3677.258390,9844.739029
1090.016831,-3108.864956,-459.657299,8438.347739
1090.017160,-3923.091493,-4290.134789,5403.503377
1090.017490,-1924.535449,-5515.887586,5033.400406
1090.017819,1480.411884,-2757.943793,5625.565159
1090.018148,3108.864956,1149.143247,5033.400406
1090.018478,1702.473667,1838.629195,5773.606348
1090.018807,0.000000,1302.362347,8734.430116
1090.019137,-2738.761985,4136.915689,11769.274478
1090.019466,-5255.462188,6741.640382,15840.407159
1090.019796,-8068.244768,6511.811733,16506.592507
1090.020125,-9178.553681,3600.648841,14730.098246
1090.020455,-8290.306550,-3140.991542,11991.336260
1090.020784,-6809.894666,-8427.050478,8142.265362
1090.021114,-5329.482782,-7507.735880,6439.791695
1090.021443,-3034.844362,-5286.058936,7624.121203
1090.021773,222.061783,-3907.087040,10214.842000
1090.022102,1480.411884,919.314598,12287.418637
1090.022432,74.020594,4596.572988,11029.068536
1090.022761,-370.102971,5362.668486,10510.924376
1090.023091,666.185348,7354.516781,12435.459826
1090.023420,888.247130,9422.974625,14730.098246
1090.023750,-1036.288319,5592.497135,13693.809927
1090.024079,-4367.215058,1378.971896,11177.109724
1090.024409,-7105.977043,-383.047749,9104.533087
1090.024738,-8512.368333,-4290.134789,8216.285956
1090.025068,-7624.121203,-5362.668486,8290.306550
1090.025397,-5995.668130,-4519.963438,8216.285956
1090.025726,-4737.318029,-1762.019645,7402.059420
1090.026056,-3849.070898,459.657299,6809.894666
1090.026385,-3182.885551,3217.601092,6513.812290
1090.026715,-3404.947333,5515.887586,6735.874072
1090.027044,-3701.029710,6281.983084,8882.471304
1090.027374,-4737.318029,7584.345430,9326.594869
1090.027703,-4737.318029,5056.230287,8808.450710
1090.028033,-3923.091493,612.876398,6661.853478
1090.028362,-3849.070898,-2451.505594,5329.482782
1090.028692,-4367.215058,-4519.963438,5921.647536
1090.029021,-3627.009116,-3677.258390,7105.977043
1090.029351,-2664.741391,-1149.143247,8364.327145
1090.029680,-1776.494261,2451.505594,10066.800811
1090.030010,-666.185348,3600.648841,10658.965565
1090.030339,-740.205942,4519.963438,10658.965565
1090.030669,-1480.411884,5209.449386,10881.027347
1090.030999,-3923.091493,4749.792088,11843.295072
1090.031328,-7105.977043,3294.210641,13619.789333
1090.031658,-8660.409521,2757.943793,13767.830521
1090.031987,-8660.409521,-612.876398,10362.883188
1090.032317,-5995.668130,-6052.154434,7254.018232
1090.032646,-3182.885551,-8503.660028,5625.565159
1090.032976,-814.226536,-7584.345430,6143.709319
1090.033305,-148.041188,-3830.477490,8586.388927
1090.033635,-370.102971,3677.258390,11621.233289
1090.033965,-222.061783,8120.612279,13619.789333
1090.034294,518.144159,9193.145976,14508.036463
1090.034624,-666.185348,8273.831378,14211.954086
1090.034953,-2812.782580,6358.592633,13323.706956
1090.035283,-6217.729913,2145.067394,12583.501014
1090.035612,-9474.636058,0.000000,12435.459826
1090.035942,-11103.089130,-1532.190996,11769.274478
1090.036271,-11251.130318,-5898.935335,8660.409521
1090.036601,-8734.430116,-8810.098227,4885.359217
1090.036931,-4737.318029,-7890.783629,2812.782580
1090.037260,370.102971,-4443.353888,3182.885551
1090.037590,2960.823768,76.609550,6143.709319
1090.037919,2812.782580,5592.497135,8808.450710
1090.038249,592.164754,11491.432470,9918.759623
1090.038578,-814.226536,13406.671215,10510.924376
1090.038908,-2294.638420,9882.631924,11103.089130
1090.039237,-2812.782580,5669.106685,11029.068536
1090.039567,-4219.173869,1225.752797,9622.677246
1090.039897,-5847.626942,-3447.429741,8512.368333
1090.040226,-8290.306550,-6665.030833,7550.100608
1090.040556,-9770.718434,-7660.954980,6735.874072
1090.040885,-9178.553681,-5745.716235,6365.771101
1090.041215,-6439.791695,-3830.477490,6809.894666
1090.041544,-3330.926739,-1149.143247,8142.265362
1090.041874,-1332.370696,3447.429741,9326.594869
1090.042203,-296.082377,7354.516781,10214.842000
1090.042533,740.205942,9039.926876,11547.212695
1090.042863,-1332.370696,7584.345430,13397.727550
1090.043192,-4589.276840,6435.202183,13323.706956
1090.043522,-7772.162391,3677.258390,11399.171507
1090.043851,-9770.718434,-842.705048,10066.800811
1090.044181,-9770.718434,-4060.306139,9548.656652
1090.044510,-8438.347739,-6358.592633,8808.450710
1090.044840,-5995.668130,-7277.907231,8068.244768
1090.045169,-3330.926739,-5515.887586,7254.018232
1090.045499,-1332.370696,-2068.457845,7698.141797
1090.045829,-370.102971,1838.629195,9400.615463
1090.046158,-888.247130,5286.058936,11695.253884
1090.046488,-1998.556043,8427.050478,13471.748144
1090.046817,-3182.885551,8503.660028,14211.954086
1090.047147,-4145.153275,6358.592633,13989.892304
1090.047476,-4515.256246,2298.286494,12139.377449
1090.047806,-4663.297435,-1608.800546,8956.491898
1090.048135,-4737.318029,-5209.449386,5995.668130
1090.048465,-3627.009116,-5822.325785,4737.318029
1090.048795,-2146.597232,-4290.134789,5699.585753
1090.049124,-1702.473667,-1608.800546,6883.915261
1090.049454,-2960.823768,919.314598,7402.059420
1090.049783,-4811.338623,3370.820191,8808.450710
1090.050113,-4959.379811,6281.983084,10436.903782
1090.050442,-4737.318029,7124.688131,11547.212695
1090.050772,-4589.276840,4979.620737,11177.109724
1090.051101,-4071.132681,1378.971896,9844.739029
1090.051431,-3701.029710,-612.876398,8216.285956
1090.051761,-2442.679609,-2834.553343,7698.141797
1090.052090,-2146.597232,-3294.210641,7179.997637
1090.052420,-1998.556043,-1762.019645,7920.203579
1090.052749,-2072.576638,-229.828649,9030.512492
1090.053079,-3330.926739,689.485948,10510.924376
1090.053408,-4737.318029,3217.601092,10881.027347
1090.053738,-5477.523971,4903.011187,11473.192101
1090.054067,-5181.441594,4826.401637,11621.233289
1090.054397,-4737.318029,3524.039291,11325.150913
1090.054727,-3404.947333,1685.410096,9918.759623
1090.055056,-2072.576638,-766.095498,7920.203579
1090.055386,-962.267725,-2298.286494,6957.935855
1090.055715,-1258.350101,-1838.629195,7105.977043
1090.056045,-1480.411884,-766.095498,8068.244768
1090.056374,-1110.308913,689.485948,9030.512492
1090.056704,-2738.761985,2221.676944,10732.986159
1090.057033,-5477.523971,3983.696590,12361.439231
1090.057363,-7550.100608,4596.572988,13175.665768
1090.057693,-8808.450710,3677.258390,13323.706956
1090.058022,-8660.409521,1991.848295,12953.603985
1090.058352,-7920.203579,0.000000,10881.027347
1090.058681,-6513.812290,-1302.362347,8660.409521
1090.059011,-3478.967927,-2757.943793,6883.915261
1090.059340,-666.185348,-3370.820191,6069.688724
1090.059670,740.205942,-1149.143247,5995.668130
1090.059999,1406.391290,995.924147,6661.853478
1090.060329,740.205942,3447.429741,8142.265362
1090.060659,-1480.411884,5362.668486,9918.759623
1090.060988,-3997.112087,6511.811733,10955.047942
1090.061318,-5699.585753,4596.572988,11473.192101
1090.061647,-7624.121203,1915.238745,11621.233289
1090.061977,-8956.491898,0.000000,12065.356855
1090.062306,-9474.636058,-1532.190996,10807.006753
1090.062636,-8364.327145,-3370.820191,8956.491898
1090.062965,-5847.626942,-4290.134789,6957.935855
1090.063295,-2738.761985,-3907.087040,6143.709319
1090.063625,-148.041188,-689.485948,5921.647536
1090.063954,888.247130,1838.629195,6661.853478
1090.064284,148.041188,4213.525239,7772.162391
1090.064613,-1776.494261,6281.983084,9696.697840
1090.064943,-3552.988522,6894.859482,11695.253884
1090.065272,-6217.729913,5209.449386,13323.706956
1090.065602,-9030.512492,2221.676944,13027.624579
1090.065931,-10658.965565,-689.485948,12139.377449
1090.066261,-10066.800811,-3753.867940,10807.006753
1090.066591,-8290.306550,-6128.763984,10066.800811
1090.066920,-5403.503377,-5439.278036,8882.471304
1090.067250,-2294.638420,-3294.210641,7105.977043
1090.067579,592.164754,-612.876398,6291.750507
1090.067909,2886.803174,1685.410096,7550.100608
1090.068238,3256.906145,4749.792088,9622.677246
1090.068568,2368.659014,7584.345430,10436.903782
1090.068897,370.102971,7201.297681,11547.212695
1090.069227,-2738.761985,4596.572988,13397.727550
1090.069557,-6365.771101,2068.457845,14656.077652
1090.069886,-9474.636058,306.438199,13767.830521
1090.070216,-10436.903782,-1915.238745,10584.944971
1090.070545,-9104.533087,-4903.011187,7031.956449
1090.070875,-5107.421000,-4979.620737,5107.421000
1090.071204,-2146.597232,-4366.744339,4515.256246
1090.071534,296.082377,-2068.457845,4663.297435
1090.071863,296.082377,2451.505594,5773.606348
1090.072193,-888.247130,6894.859482,7550.100608
1090.072523,-1850.514855,9652.803275,9844.739029
1090.072852,-3552.988522,8733.488677,11917.315666
1090.073182,-5551.544565,6128.763984,12805.562797
1090.073511,-7105.977043,2834.553343,12435.459826
1090.073841,-7328.038826,-689.485948,11695.253884
1090.074170,-7994.224174,-2374.896044,11769.274478
1090.074500,-7920.203579,-2987.772442,9844.739029
1090.074829,-5995.668130,-3064.381992,8290.306550
1090.075159,-3108.864956,-689.485948,7031.956449
1090.075489,148.041188,995.924147,6587.832884
1090.075818,2368.659014,2834.553343,7328.038826
1090.076148,1702.473667,5898.935335,8438.347739
1090.076477,74.020594,7890.783629,9548.656652
1090.076807,-1332.370696,6971.469032,11103.089130
1090.077136,-3182.885551,5286.058936,11991.336260
1090.077466,-4959.379811,3830.477490,11769.274478
1090.077795,-4811.338623,1225.752797,10732.986159
1090.078125,-5255.462188,-1225.752797,8956.491898
1090.078455,-3997.112087,-2221.676944,8142.265362
1090.078784,-2812.782580,-1378.971896,8438.347739
1090.079114,-2294.638420,1149.143247,8142.265362
1090.079443,-2738.761985,3907.087040,8438.347739
1090.079773,-2294.638420,4826.401637,9696.697840
1090.080102,-2072.576638,6281.983084,10658.965565
1090.080432,-1850.514855,6511.811733,11029.068536
1090.080761,-2146.597232,5592.497135,11177.109724
1090.081091,-2590.720797,4673.182538,10955.047942
1090.081421,-1924.535449,2681.334243,10436.903782
1090.081750,-1332.370696,1838.629195,9030.512492
1090.082080,-1184.329507,919.314598,8068.244768
1090.082409,-740.205942,1455.581446,7994.224174
1090.082739,518.144159,2604.724693,8438.347739
1090.083068,1036.288319,5515.887586,9696.697840
1090.083398,-518.144159,7431.126331,10066.800811
1090.083727,-1924.535449,7890.783629,9918.759623
1090.084057,-2442.679609,7354.516781,9474.636058
1090.084387,-2886.803174,6128.763984,9030.512492
1090.084716,-2812.782580,4826.401637,7846.182985
1090.085046,-2072.576638,2374.896044,6957.935855
1090.085375,-740.205942,229.828649,6217.729913
1090.085705,-888.247130,-229.828649,6957.935855
1090.086034,-1998.556043,1225.752797,8068.244768
1090.086364,-2442.679609,3370.820191,8734.430116
1090.086693,-3108.864956,5515.887586,9770.718434
1090.087023,-3108.864956,7124.688131,11251.130318
1090.087353,-2220.617826,7354.516781,11547.212695
1090.087682,-1184.329507,6358.592633,11029.068536
1090.088012,0.000000,5132.839837,9992.780217
1090.088341,-518.144159,3907.087040,9622.677246
1090.088671,-962.267725,3524.039291,9770.718434
1090.089000,-1036.288319,2911.162892,9474.636058
1090.089330,-740.205942,2221.676944,8882.471304
1090.089659,0.000000,1838.629195,8438.347739
1090.089989,740.205942,1915.238745,8956.491898
1090.090319,888.247130,2604.724693,9918.759623
1090.090648,-296.082377,3983.696590,10510.924376
1090.090978,-1924.535449,5592.497135,11177.109724
1090.091307,-1924.535449,6358.592633,11769.274478
1090.091637,-1332.370696,5822.325785,11843.295072
1090.091966,-1258.350101,4903.011187,11547.212695
1090.092296,-1480.411884,4443.353888,9992.780217
1090.092625,-1036.288319,3753.867940,9178.553681
1090.092955,-592.164754,4136.915689,8956.491898
1090.093285,-370.102971,4519.963438,8068.244768
1090.093614,-1110.308913,4443.353888,7772.162391
1090.093944,-740.205942,3677.258390,6661.853478
1090.094273,-740.205942,2451.505594,6069.688724
1090.094603,-592.164754,1991.848295,6957.935855
1090.094932,-1406.391290,1685.410096,8438.347739
1090.095262,-2516.700203,2911.162892,9622.677246
1090.095591,-3256.906145,3907.087040,10362.883188
1090.095921,-2812.782580,3907.087040,10807.006753
1090.096251,-1554.432478,3983.696590,11251.130318
1090.096580,-740.205942,4673.182538,10584.944971
1090.096910,-444.123565,4979.620737,10140.821405
1090.097239,0.000000,5898.935335,9696.697840
1090.097569,740.205942,5745.716235,9400.615463
1090.097898,666.185348,5515.887586,8882.471304
1090.098228,222.061783,5132.839837,8364.327145
1090.098557,-518.144159,4519.963438,8142.265362
1090.098887,-1480.411884,2911.162892,7550.100608
1090.099217,-2590.720797,1762.019645,7254.018232
1090.099546,-2812.782580,76.609550,7402.059420
1090.099876,-2368.659014,-1149.143247,8882.471304
1090.100205,-2294.638420,689.485948,10362.883188
1090.100535,-2072.576638,2681.334243,10881.027347
1090.100864,-1480.411884,3753.867940,11325.150913
1090.101194,-740.205942,4903.011187,11991.336260
1090.101523,-222.061783,6052.154434,12583.501014
1090.101853,0.000000,6741.640382,12435.459826
1090.102183,370.102971,6588.421283,11325.150913
1090.102512,222.061783,5209.449386,9992.780217
1090.102842,0.000000,3907.087040,9474.636058
1090.103171,-962.267725,2834.553343,9104.533087
1090.103501,-1776.494261,2834.553343,9252.574275
1090.103830,-1998.556043,3524.039291,8808.450710
1090.104160,-1998.556043,2757.943793,7476.080014
1090.104489,-740.205942,1762.019645,7254.018232
1090.104819,0.000000,1225.752797,8142.265362
1090.105149,0.000000,2681.334243,9474.636058
1090.105478,-1036.288319,4749.792088,9548.656652
1090.105808,-1702.473667,6665.030833,10584.944971
1090.106137,-1924.535449,7124.688131,11991.336260
1090.106467,-1850.514855,7048.078582,12361.439231
1090.106796,-2664.741391,6741.640382,11399.171507
1090.107126,-2960.823768,5822.325785,9252.574275
1090.107455,-1850.514855,5056.230287,6957.935855
1090.107785,0.000000,2911.162892,4589.276840
1090.108115,2294.638420,1302.362347,4515.256246
1090.108444,3108.864956,842.705048,4737.318029
1090.108774,2220.617826,2374.896044,6069.688724
1090.109103,-148.041188,4290.134789,7920.203579
1090.109433,-2590.720797,5592.497135,10510.924376
1090.109762,-3849.070898,6205.373534,13397.727550
1090.110092,-4145.153275,6281.983084,14804.118840
1090.110421,-3849.070898,5822.325785,14582.057057
1090.110751,-4441.235652,5056.230287,13249.686362
1090.111081,-3997.112087,2987.772442,10881.027347
1090.111410,-3108.864956,2451.505594,9474.636058
1090.111740,-666.185348,2298.286494,7328.038826
1090.112069,2368.659014,2451.505594,4885.359217
1090.112399,4959.379811,1838.629195,4145.153275
1090.112728,5181.441594,1838.629195,5255.462188
1090.113058,2516.700203,4290.134789,7846.182985
1090.113387,-1406.391290,6665.030833,10732.986159
1090.113717,-4441.235652,8656.879127,13249.686362
1090.114047,-5181.441594,7890.783629,14508.036463
1090.114376,-4219.173869,5515.887586,13989.892304
1090.114706,-2368.659014,1532.190996,12065.356855
1090.115035,-592.164754,-229.828649,8956.491898
1090.115365,-296.082377,459.657299,6809.894666
1090.115694,-444.123565,1762.019645,7254.018232
1090.116024,-888.247130,4060.306139,9326.594869
1090.116353,-1480.411884,6358.592633,9696.697840
1090.116683,-1406.391290,5898.935335,7476.080014
1090.117013,-666.185348,3140.991542,5551.544565
1090.117342,0.000000,995.924147,7254.018232
1090.117672,-666.185348,1608.800546,10732.986159
1090.118001,-2072.576638,3907.087040,13175.665768
1090.118331,-3108.864956,5132.839837,12879.583391
1090.118660,-2738.761985,5132.839837,12361.439231
1090.118990,-1776.494261,4060.306139,11473.192101
1090.119319,-592.164754,3370.820191,8808.450710
1090.119649,1258.350101,2451.505594,6809.894666
1090.119979,2368.659014,1685.410096,5699.585753
1090.120308,2442.679609,3370.820191,6661.853478
1090.120638,2220.617826,4519.963438,8068.244768
1090.120967,888.247130,4519.963438,9770.718434
1090.121297,-1850.514855,4826.401637,10807.006753
1090.121626,-3256.906145,5822.325785,11399.171507
1090.121956,-3627.009116,5362.668486,11621.233289
1090.122285,-2738.761985,2681.334243,12065.356855
1090.122615,-2368.659014,2145.067394,12139.377449
1090.122945,-2664.741391,2604.724693,10436.903782
1090.123274,-2738.761985,3064.381992,7698.141797
1090.123604,-1406.391290,4136.915689,7105.977043
1090.123933,148.041188,5209.449386,7254.018232
1090.124263,1776.494261,5209.449386,6809.894666
1090.124592,3034.844362,3830.477490,5847.626942
1090.124922,3330.926739,2451.505594,5403.503377
1090.125251,1924.535449,3600.648841,8068.244768
1090.125581,-740.205942,5056.230287,12509.480420
1090.125911,-3256.906145,7890.783629,15396.283594
1090.126240,-5107.421000,9116.536426,15100.201217
1090.126570,-3849.070898,7584.345430,13619.789333
1090.126899,-2146.597232,4519.963438,11991.336260
1090.127229,-1258.350101,2451.505594,10436.903782
1090.127558,-2220.617826,2604.724693,8364.327145
1090.127888,-3034.844362,3600.648841,6587.832884
1090.128217,-2442.679609,4826.401637,3923.091493
1090.128546,0.000000,3217.601092,3701.029710
1090.128876,1924.535449,2451.505594,4885.359217
1090.129206,2368.659014,3753.867940,5033.400406
1090.129535,962.267725,5515.887586,5033.400406
1090.129865,1110.308913,5209.449386,7105.977043
1090.130195,1110.308913,5286.058936,11251.130318
1090.130524,-740.205942,6511.811733,14804.118840
1090.130854,-2590.720797,6511.811733,15840.407159
1090.131184,-2812.782580,4673.182538,14508.036463
1090.131513,-3256.906145,4443.353888,12509.480420
1090.131843,-3849.070898,3677.258390,10214.842000
1090.132172,-2960.823768,842.705048,8660.409521
1090.132502,-2146.597232,-919.314598,6513.812290
1090.132832,-666.185348,-536.266849,4293.194464
1090.133161,1850.514855,-612.876398,3256.906145
1090.133491,2516.700203,-612.876398,4145.153275
1090.133821,2072.576638,229.828649,6291.750507
1090.134150,1332.370696,2604.724693,9770.718434
1090.134480,666.185348,4443.353888,13397.727550
1090.134810,74.020594,5515.887586,15988.448347
1090.135139,-1258.350101,5056.230287,16950.716072
1090.135469,-2516.700203,2451.505594,15618.345376
1090.135799,-3478.967927,536.266849,13545.768739
1090.136128,-3034.844362,-689.485948,11621.233289
1090.136458,-1702.473667,-2451.505594,9326.594869
1090.136788,-370.102971,-2451.505594,7920.203579
1090.137117,814.226536,-1991.848295,7550.100608
1090.137447,1480.411884,-306.438199,7105.977043
1090.137777,1554.432478,2528.115143,6809.894666
1090.138106,1332.370696,4443.353888,6513.812290
1090.138436,1776.494261,3907.087040,8586.388927
1090.138765,1850.514855,4136.915689,11843.295072
1090.139095,0.000000,5592.497135,13249.686362
1090.139425,-3404.947333,5209.449386,11177.109724
1090.139754,-5329.482782,1225.752797,8142.265362
1090.140084,-5329.482782,-2451.505594,7105.977043
1090.140414,-4219.173869,-4903.011187,7402.059420
1090.140743,-2590.720797,-3907.087040,7476.080014
1090.141073,-3108.864956,-3140.991542,5699.585753
1090.141403,-2812.782580,-2604.724693,4219.173869
1090.141732,-1332.370696,-766.095498,5625.565159
1090.142062,296.082377,2987.772442,9992.780217
1090.142392,2146.597232,5669.106685,14063.912898
1090.142721,518.144159,7201.297681,14730.098246
1090.143051,-1480.411884,8120.612279,12805.562797
1090.143381,-2220.617826,5362.668486,11769.274478
1090.143710,-666.185348,842.705048,11399.171507
1090.144040,962.267725,-306.438199,10066.800811
1090.144369,1258.350101,-2145.067394,7402.059420
1090.144699,74.020594,-3830.477490,6291.750507
1090.145029,-1628.453072,-3524.039291,5773.606348
1090.145358,-1332.370696,-2528.115143,7105.977043
1090.145688,888.247130,-995.924147,8660.409521
1090.146018,2442.679609,1378.971896,10140.821405
1090.146347,1924.535449,2528.115143,12879.583391
1090.146677,-1036.288319,4366.744339,14285.974681
1090.147007,-3849.070898,6588.421283,14730.098246
1090.147336,-4589.276840,6281.983084,13989.892304
1090.147666,-3108.864956,3983.696590,12287.418637
1090.147996,-444.123565,536.266849,9622.677246
1090.148325,740.205942,-2528.115143,6957.935855
1090.148655,148.041188,-4749.792088,2960.823768
1090.148985,518.144159,-4366.744339,2220.617826
1090.149314,1480.411884,-2604.724693,5181.441594
1090.149644,1258.350101,383.047749,10732.986159
1090.149973,-1480.411884,4519.963438,14211.954086
1090.150303,-4145.153275,5439.278036,14211.954086
1090.150633,-4071.132681,3753.867940,12583.501014
1090.150962,-2516.700203,3217.601092,11843.295072
1090.151292,0.000000,2068.457845,11991.336260
1090.151622,1036.288319,153.219100,11103.089130
1090.151951,592.164754,229.828649,7476.080014
1090.152281,444.123565,0.000000,3478.967927
1090.152611,1332.370696,-1685.410096,2960.823768
1090.152940,2442.679609,-1378.971896,4589.276840
1090.153270,2886.803174,612.876398,6365.771101
1090.153600,1036.288319,1302.362347,8512.368333
1090.153929,-2738.761985,2604.724693,10140.821405
1090.154259,-5181.441594,4060.306139,11547.212695
1090.154589,-5699.585753,3294.210641,13027.624579
1090.154918,-5033.400406,459.657299,11917.315666
1090.155248,-3997.112087,-383.047749,12287.418637
1090.155578,-2442.679609,-689.485948,10732.986159
1090.155907,-1702.473667,-2451.505594,6587.832884
1090.156237,-1036.288319,-4060.306139,4293.194464
1090.156566,1332.370696,-3677.258390,5699.585753
1090.156896,3034.844362,-383.047749,8808.450710
1090.157226,2516.700203,2451.505594,11695.253884
1090.157555,-888.247130,3524.039291,12509.480420
1090.157885,-2886.803174,2834.553343,12361.439231
1090.158215,-2294.638420,1608.800546,13915.871710
1090.158544,-888.247130,2221.676944,15248.242405
1090.158874,-296.082377,2068.457845,13101.645173
1090.159204,592.164754,0.000000,10436.903782
1090.159533,1850.514855,-1915.238745,7920.203579
1090.159863,2294.638420,-1532.190996,6513.812290
1090.160193,2886.803174,0.000000,7105.977043
1090.160522,3627.009116,842.705048,8956.491898
1090.160852,1776.494261,2681.334243,9992.780217
1090.161182,-2442.679609,3983.696590,10362.883188
1090.161511,-4959.379811,2911.162892,10214.842000
1090.161841,-4737.318029,842.705048,10436.903782
1090.162170,-4145.153275,689.485948,11103.089130
1090.162500,-3552.988522,1302.362347,11177.109724
1090.162830,-3182.885551,1149.143247,9844.739029
1090.163159,-2516.700203,153.219100,6439.791695
1090.163489,-296.082377,-1225.752797,3923.091493
1090.163819,1480.411884,-153.219100,4737.318029
1090.164148,2072.576638,2145.067394,7550.100608
1090.164478,888.247130,3600.648841,10140.821405
1090.164808,-1776.494261,4060.306139,10732.986159
1090.165137,-3923.091493,4213.525239,9844.739029
1090.165467,-3330.926739,1455.581446,9918.759623
1090.165797,-1776.494261,0.000000,10066.800811
1090.166126,-1036.288319,-1225.752797,9400.615463
1090.166456,-666.185348,-1991.848295,8808.450710
1090.166786,0.000000,-2298.286494,7254.018232
1090.167115,518.144159,-153.219100,6883.915261
1090.167445,1776.494261,842.705048,8808.450710
1090.167774,3108.864956,2068.457845,9918.759623
1090.168104,2812.782580,3217.601092,10658.965565
1090.168434,666.185348,2604.724693,10214.842000
1090.168763,-1924.535449,1762.019645,9770.718434
1090.169093,-3108.864956,995.924147,11399.171507
1090.169423,-3552.988522,612.876398,12361.439231
1090.169752,-2886.803174,-689.485948,11695.253884
1090.170082,-2664.741391,-1991.848295,10288.862594
1090.170412,-1850.514855,-2528.115143,7994.224174
1090.170741,-592.164754,-3753.867940,7031.956449
1090.171071,1184.329507,-2451.505594,8882.471304
1090.171401,1924.535449,383.047749,11177.109724
1090.171730,666.185348,3294.210641,13027.624579
1090.172060,-2738.761985,4903.011187,12805.562797
1090.172390,-4293.194464,3064.381992,11325.150913
1090.172719,-3478.967927,1532.190996,11769.274478
1090.173049,-1776.494261,842.705048,10510.924376
1090.173379,-1184.329507,-689.485948,8882.471304
1090.173708,-444.123565,-2221.676944,7846.182985
1090.174038,-740.205942,-1915.238745,6365.771101
1090.174367,-592.164754,-229.828649,6439.791695
1090.174697,0.000000,229.828649,6809.894666
1090.175027,1332.370696,1455.581446,8290.306550
1090.175356,1184.329507,2987.772442,10510.924376
1090.175686,-1036.288319,4213.525239,11029.068536
1090.176016,-3849.070898,3370.820191,9474.636058
1090.176345,-4219.173869,2221.676944,8660.409521
1090.176675,-2812.782580,612.876398,8586.388927
1090.177005,-1628.453072,-689.485948,8068.244768
1090.177334,-1406.391290,-2145.067394,6883.915261
1090.177664,-1924.535449,-2374.896044,5995.668130
1090.177994,-1850.514855,-842.705048,5551.544565
1090.178323,0.000000,689.485948,7402.059420
1090.178653,2664.741391,842.705048,9326.594869
1090.178983,2590.720797,919.314598,11399.171507
1090.179312,0.000000,1762.019645,12361.439231
1090.179642,-3330.926739,2911.162892,13397.727550
1090.179971,-4737.318029,3294.210641,14211.954086
1090.180301,-3701.029710,2145.067394,13841.851115
1090.180631,-1628.453072,0.000000,12139.377449
1090.180960,74.020594,-2681.334243,9992.780217
1090.181290,666.185348,-2834.553343,7254.018232
1090.181620,888.247130,-2221.676944,5995.668130
1090.181949,2738.761985,-689.485948,7179.997637
1090.182279,4367.215058,995.924147,9474.636058
1090.182609,3552.988522,2987.772442,12213.398043
1090.182938,814.226536,4903.011187,13619.789333
1090.183268,-2590.720797,5439.278036,12287.418637
1090.183598,-3478.967927,3064.381992,11547.212695
1090.183927,-3108.864956,995.924147,11843.295072
1090.184257,-2220.617826,229.828649,11695.253884
1090.184587,-2146.597232,0.000000,9326.594869
1090.184916,-2812.782580,-995.924147,4959.379811
1090.185246,-1776.494261,-2604.724693,2442.679609
1090.185576,0.000000,-2681.334243,4737.318029
1090.185905,1184.329507,-536.266849,7624.121203
1090.186235,-592.164754,2604.724693,9474.636058
1090.186564,-3330.926739,4519.963438,10288.862594
1090.186894,-5255.462188,3983.696590,10510.924376
1090.187224,-4515.256246,2911.162892,11547.212695
1090.187553,-3404.947333,919.314598,11547.212695
1090.187883,-2294.638420,-153.219100,9622.677246
1090.188213,-1924.535449,-612.876398,7550.100608
1090.188542,-1258.350101,-2374.896044,6069.688724
1090.188872,0.000000,-3064.381992,5921.647536
1090.189202,962.267725,-1915.238745,6957.935855
1090.189531,2664.741391,459.657299,7994.224174
1090.189861,2886.803174,1378.971896,9252.574275
1090.190191,1628.453072,1532.190996,11843.295072
1090.190520,-962.267725,2757.943793,12509.480420
1090.190850,-2368.659014,2528.115143,12879.583391
1090.191180,-1776.494261,1838.629195,12953.603985
1090.191509,-592.164754,1302.362347,12731.542202
1090.191839,-296.082377,153.219100,11621.233289
1090.192168,-962.267725,-1685.410096,8290.306550
1090.192498,-592.164754,-3294.210641,6291.750507
1090.192828,962.267725,-2911.162892,7402.059420
1090.193157,1998.556043,0.000000,9770.718434
1090.193487,296.082377,1608.800546,11769.274478
1090.193817,-3256.906145,2987.772442,12879.583391
1090.194146,-5773.606348,3524.039291,11917.315666
1090.194476,-4663.297435,2528.115143,12583.501014
1090.194806,-2146.597232,1302.362347,13175.665768
1090.195135,-1628.453072,995.924147,11547.212695
1090.195465,-2516.700203,842.705048,8882.471304
1090.195795,-2072.576638,0.000000,6587.832884
1090.196124,0.000000,-689.485948,5403.503377
1090.196454,1554.432478,459.657299,5699.585753
1090.196784,2368.659014,1532.190996,7550.100608
1090.197113,1998.556043,2681.334243,9400.615463
1090.197443,-1110.308913,3983.696590,10288.862594
1090.197772,-2812.782580,5056.230287,9844.739029
1090.198102,-2960.823768,3600.648841,8882.471304
1090.198432,-1480.411884,1532.190996,9030.512492
1090.198761,-740.205942,383.047749,8290.306550
1090.199091,-1406.391290,536.266849,7846.182985
1090.199421,-1480.411884,919.314598,5921.647536
1090.199750,-666.185348,919.314598,4219.173869
1090.200080,518.144159,-919.314598,4663.297435
1090.200410,2220.617826,-1225.752797,7179.997637
1090.200739,1184.329507,766.095498,10362.883188
1090.201069,-2146.597232,2681.334243,11547.212695
1090.201399,-4959.379811,3753.867940,11251.130318
1090.201728,-4885.359217,1991.848295,12657.521608
1090.202058,-3034.844362,153.219100,14137.933492
1090.202388,-2220.617826,0.000000,13841.851115
1090.202717,-2368.659014,-153.219100,11843.295072
1090.203047,-2072.576638,-459.657299,7846.182985
1090.203377,-296.082377,-2374.896044,6587.832884
1090.203706,2590.720797,-2604.724693,8956.491898
1090.204036,3627.009116,0.000000,11103.089130
1090.204365,2072.576638,2145.067394,12509.480420
1090.204695,-1036.288319,4443.353888,12805.562797
1090.205025,-3182.885551,3830.477490,12287.418637
1090.205354,-2220.617826,1838.629195,13027.624579
1090.205684,-740.205942,842.705048,13545.768739
1090.206014,-1110.308913,689.485948,11399.171507
1090.206343,-2516.700203,689.485948,8882.471304
1090.206673,-2812.782580,229.828649,6661.853478
1090.207003,-962.267725,0.000000,5921.647536
1090.207332,666.185348,459.657299,5921.647536
1090.207662,1406.391290,995.924147,6217.729913
1090.207992,74.020594,1608.800546,6735.874072
1090.208321,-2368.659014,1991.848295,8512.368333
1090.208651,-5181.441594,3447.429741,9474.636058
1090.208981,-5773.606348,4290.134789,10288.862594
1090.209310,-4515.256246,2911.162892,10510.924376
1090.209640,-3108.864956,1455.581446,9474.636058
1090.209969,-2664.741391,536.266849,8142.265362
1090.210299,-2220.617826,-536.266849,6513.812290
1090.210629,-592.164754,-612.876398,4811.338623
1090.210958,1480.411884,0.000000,5255.462188
1090.211288,2368.659014,1072.533697,6957.935855
1090.211618,2368.659014,1685.410096,9400.615463
1090.211947,74.020594,2068.457845,11325.150913
1090.212277,-2294.638420,3064.381992,11769.274478
1090.212607,-3034.844362,3983.696590,12139.377449
1090.212936,-1628.453072,1915.238745,12731.542202
1090.213266,0.000000,0.000000,11843.295072
1090.213596,518.144159,-1608.800546,10584.944971
1090.213925,222.061783,-1838.629195,8512.368333
1090.214255,0.000000,-842.705048,7179.997637
1090.214585,888.247130,536.266849,8956.491898
1090.214914,1628.453072,1532.190996,11251.130318
1090.215244,296.082377,1915.238745,12361.439231
1090.215573,-2146.597232,1455.581446,12805.562797
1090.215903,-4071.132681,766.095498,11843.295072
1090.216233,-4293.194464,1685.410096,12583.501014
1090.216562,-3849.070898,842.705048,12657.521608
1090.216892,-3701.029710,153.219100,11769.274478
1090.217222,-3330.926739,-842.705048,10288.862594
1090.217551,-2368.659014,-689.485948,9252.574275
1090.217881,-740.205942,1225.752797,7772.162391
1090.218211,518.144159,1072.533697,6735.874072
1090.218540,1628.453072,-229.828649,5995.668130
1090.218870,1406.391290,-153.219100,7624.121203
1090.219200,-592.164754,2221.676944,10881.027347
1090.219529,-3108.864956,4979.620737,11843.295072
1090.219859,-4071.132681,6128.763984,10584.944971
1090.220189,-2738.761985,2757.943793,9474.636058
1090.220518,-592.164754,76.609550,8660.409521
1090.220848,148.041188,-766.095498,7772.162391
1090.221178,-296.082377,689.485948,5403.503377
1090.221507,0.000000,1685.410096,3849.070898
1090.221837,444.123565,995.924147,3849.070898
1090.222166,1184.329507,919.314598,6513.812290
1090.222496,518.144159,2068.457845,9400.615463
1090.222826,-1554.432478,2987.772442,11029.068536
1090.223155,-4367.215058,3294.210641,10140.821405
1090.223485,-5403.503377,2145.067394,10288.862594
1090.223815,-4145.153275,229.828649,11399.171507
1090.224144,-2146.597232,-842.705048,11473.192101
1090.224474,-1480.411884,-153.219100,11325.150913
1090.224804,-1184.329507,1225.752797,9474.636058
1090.225133,-888.247130,1608.800546,8512.368333
1090.225463,518.144159,0.000000,8734.430116
1090.225793,2146.597232,153.219100,10584.944971
1090.226122,2146.597232,1685.410096,12139.377449
1090.226452,444.123565,2987.772442,13249.686362
1090.226782,-2072.576638,3294.210641,12435.459826
1090.227111,-2886.803174,2068.457845,12657.521608
1090.227441,-2294.638420,842.705048,13323.706956
1090.227770,-888.247130,995.924147,12805.562797
1090.228100,0.000000,1532.190996,10955.047942
1090.228430,74.020594,1225.752797,7698.141797
1090.228759,888.247130,-153.219100,4811.338623
1090.229089,2220.617826,-689.485948,4737.318029
1090.229419,2368.659014,-153.219100,7254.018232
1090.229748,592.164754,2757.943793,9844.739029
1090.230078,-3182.885551,5898.935335,10881.027347
1090.230408,-5699.585753,4749.792088,9770.718434
1090.230737,-5403.503377,1378.971896,9178.553681
1090.231067,-3627.009116,-766.095498,9992.780217
1090.231397,-2812.782580,-689.485948,9474.636058
1090.231726,-3552.988522,306.438199,7846.182985
1090.232056,-3330.926739,919.314598,6365.771101
1090.232386,-1776.494261,306.438199,5181.441594
1090.232716,814.226536,-1072.533697,6217.729913
1090.233045,1924.535449,0.000000,7402.059420
1090.233375,740.205942,1915.238745,8660.409521
1090.233705,-1036.288319,1838.629195,10066.800811
1090.234034,-2886.803174,1685.410096,10807.006753
1090.234364,-3256.906145,919.314598,11547.212695
1090.234694,-2368.659014,-612.876398,12731.542202
1090.235024,-888.247130,536.266849,12213.398043
1090.235353,-148.041188,842.705048,10288.862594
1090.235683,888.247130,-1302.362347,8660.409521
1090.236013,1998.556043,-1685.410096,7402.059420
1090.236342,2960.823768,76.609550,8068.244768
1090.236672,3478.967927,1149.143247,9400.615463
1090.237002,2664.741391,1685.410096,10584.944971
1090.237332,-296.082377,2374.896044,12361.439231
1090.237661,-3478.967927,1838.629195,13249.686362
1090.237991,-4737.318029,1991.848295,13545.768739
1090.238321,-3923.091493,1149.143247,13841.851115
1090.238650,-2738.761985,0.000000,12509.480420
1090.238980,-2812.782580,-229.828649,9696.697840
1090.239310,-2368.659014,-919.314598,7624.121203
1090.239639,-962.267725,-229.828649,6809.894666
1090.239969,1184.329507,1149.143247,7402.059420
1090.240299,1702.473667,2757.943793,8586.388927
1090.240629,222.061783,3600.648841,9548.656652
1090.240958,-2146.597232,3524.039291,10584.944971
1090.241288,-3997.112087,4290.134789,10881.027347
1090.241618,-3923.091493,3217.601092,10955.047942
1090.241947,-3330.926739,1608.800546,10807.006753
1090.242277,-2664.741391,1225.752797,9252.574275
1090.242607,-2072.576638,76.609550,7772.162391
1090.242937,-592.164754,536.266849,6439.791695
1090.243266,1036.288319,1991.848295,4959.379811
1090.243596,2812.782580,2987.772442,4367.215058
1090.243926,3552.988522,1455.581446,4441.235652
1090.244255,3330.926739,1532.190996,6513.812290
1090.244585,370.102971,2528.115143,9474.636058
1090.244915,-3034.844362,4443.353888,10732.986159
1090.245244,-4959.379811,4213.525239,11103.089130
1090.245574,-4589.276840,1455.581446,11399.171507
1090.245904,-3256.906145,-1608.800546,10436.903782
1090.246234,-2072.576638,-2681.334243,9474.636058
1090.246563,-1554.432478,-3370.820191,8660.409521
1090.246893,-1628.453072,-1532.190996,7031.956449
1090.247223,-444.123565,-383.047749,7179.997637
1090.247552,1258.350101,-229.828649,9474.636058
1090.247882,2516.700203,-306.438199,12435.459826
1090.248212,0.000000,1455.581446,14508.036463
1090.248542,-3108.864956,3447.429741,14137.933492
1090.248871,-3923.091493,1762.019645,13323.706956
1090.249201,-2294.638420,-1532.190996,13619.789333
1090.249531,-666.185348,-2834.553343,13693.809927
1090.249860,-518.144159,-2451.505594,12361.439231
1090.250190,-518.144159,-995.924147,10066.800811
1090.250520,444.123565,536.266849,7846.182985
1090.250849,2294.638420,-229.828649,7550.100608
1090.251179,3330.926739,-459.657299,8438.347739
1090.251509,2812.782580,919.314598,9548.656652
1090.251839,222.061783,2987.772442,11029.068536
1090.252168,-2960.823768,4213.525239,10066.800811
1090.252498,-4293.194464,3294.210641,9252.574275
1090.252828,-3701.029710,612.876398,10510.924376
1090.253157,-3627.009116,-306.438199,9844.739029
1090.253487,-4219.173869,689.485948,8438.347739
1090.253817,-4145.153275,689.485948,6069.688724
1090.254147,-2368.659014,-842.705048,3478.967927
1090.254476,-296.082377,-1608.800546,3923.091493
1090.254806,1110.308913,-995.924147,5551.544565
1090.255136,592.164754,1685.410096,7772.162391
1090.255465,-1480.411884,4290.134789,10066.800811
1090.255795,-3923.091493,5592.497135,11251.130318
1090.256125,-4737.318029,4060.306139,11325.150913
1090.256455,-3182.885551,1302.362347,11103.089130
1090.256784,-814.226536,689.485948,10510.924376
1090.257114,518.144159,0.000000,8734.430116
1090.257444,1184.329507,-1302.362347,7402.059420
1090.257773,1036.288319,-1455.581446,6513.812290
1090.258103,1628.453072,-689.485948,7105.977043
1090.258433,2886.803174,919.314598,9252.574275
1090.258762,3478.967927,2374.896044,11029.068536
1090.259092,1924.535449,2068.457845,12805.562797
1090.259422,-814.226536,1991.848295,13101.645173
1090.259752,-2812.782580,1915.238745,14359.995275
1090.260081,-2738.761985,2528.115143,14211.954086
1090.260411,-1776.494261,1838.629195,13767.830521
1090.260741,-1184.329507,383.047749,12139.377449
1090.261070,-1554.432478,689.485948,9770.718434
1090.261400,-1110.308913,76.609550,6883.915261
1090.261730,296.082377,153.219100,6069.688724
1090.262060,1110.308913,-766.095498,5847.626942
1090.262389,518.144159,-459.657299,8956.491898
1090.262719,-2368.659014,1532.190996,11769.274478
1090.263049,-5107.421000,2298.286494,11621.233289
1090.263378,-5403.503377,2068.457845,10362.883188
1090.263708,-4367.215058,919.314598,10288.862594
1090.264038,-3552.988522,-536.266849,11029.068536
1090.264367,-3034.844362,536.266849,11103.089130
1090.264697,-2072.576638,1302.362347,8882.471304
1090.265027,370.102971,1608.800546,4367.215058
1090.265357,2738.761985,306.438199,2590.720797
1090.265686,4293.194464,-689.485948,4367.215058
1090.266016,4219.173869,1072.533697,7550.100608
1090.266346,1776.494261,2987.772442,10584.944971
1090.266675,-2294.638420,5132.839837,11251.130318
1090.267005,-4441.235652,4903.011187,10436.903782
1090.267335,-3997.112087,459.657299,11029.068536
1090.267665,-2516.700203,-2068.457845,10436.903782
1090.267994,-1480.411884,-1915.238745,8956.491898
1090.268324,-962.267725,-1532.190996,7105.977043
1090.268654,-1036.288319,-1838.629195,5551.544565
1090.268983,-1110.308913,-1532.190996,6291.750507
1090.269313,296.082377,-919.314598,8142.265362
1090.269643,1998.556043,-766.095498,9474.636058
1090.269973,1110.308913,1532.190996,11843.295072
1090.270302,-1332.370696,1302.362347,12509.480420
1090.270632,-3330.926739,919.314598,13693.809927
1090.270962,-3552.988522,459.657299,15470.304188
1090.271291,-2368.659014,689.485948,16210.510130
1090.271621,-1924.535449,1225.752797,13619.789333
1090.271951,-518.144159,0.000000,10955.047942
1090.272280,1480.411884,-2528.115143,7624.121203
1090.272610,3034.844362,-2834.553343,7254.018232
1090.272940,3627.009116,0.000000,8290.306550
1090.273270,3034.844362,2145.067394,9992.780217
1090.273599,814.226536,3447.429741,11399.171507
1090.273929,-2368.659014,3830.477490,11991.336260
1090.274259,-3330.926739,2528.115143,11251.130318
1090.274588,-2886.803174,919.314598,11547.212695
1090.274918,-2590.720797,459.657299,10288.862594
1090.275248,-3330.926739,612.876398,8512.368333
1090.275578,-3330.926739,-536.266849,6809.894666
1090.275907,-1776.494261,0.000000,5033.400406
1090.276237,-148.041188,1072.533697,3701.029710
1090.276567,1480.411884,1915.238745,4515.256246
1090.276896,1702.473667,1762.019645,5699.585753
1090.277226,0.000000,1762.019645,8216.285956
1090.277556,-2664.741391,4060.306139,10732.986159
1090.277885,-4737.318029,5132.839837,11473.192101
1090.278215,-4959.379811,3907.087040,11621.233289
1090.278545,-3849.070898,1149.143247,10436.903782
1090.278875,-3034.844362,-1302.362347,9252.574275
1090.279204,-1480.411884,-2451.505594,8660.409521
1090.279534,-518.144159,-1072.533697,7179.997637
1090.279864,518.144159,153.219100,5329.482782
1090.280193,2072.576638,0.000000,5921.647536
1090.280523,3701.029710,-383.047749,8068.244768
1090.280853,3182.885551,1378.971896,11029.068536
1090.281183,740.205942,2757.943793,13175.665768
1090.281512,-1998.556043,4213.525239,13101.645173
1090.281842,-2294.638420,3447.429741,14508.036463
1090.282172,-1036.288319,1532.190996,15248.242405
1090.282501,-592.164754,153.219100,13175.665768
1090.282831,0.000000,-1072.533697,10066.800811
1090.283161,222.061783,-1378.971896,7105.977043
1090.283491,1184.329507,-1838.629195,6661.853478
1090.283820,1258.350101,-612.876398,8808.450710
1090.284150,1332.370696,459.657299,9696.697840
1090.284480,-296.082377,1455.581446,10510.924376
1090.284809,-3256.906145,2451.505594,10807.006753
1090.285139,-4663.297435,2757.943793,11103.089130
1090.285469,-4441.235652,1072.533697,11399.171507
1090.285798,-2812.782580,0.000000,11325.150913
1090.286128,-2442.679609,-306.438199,10807.006753
1090.286458,-2442.679609,766.095498,9474.636058
1090.286788,-2072.576638,1072.533697,7105.977043
1090.287117,-592.164754,76.609550,4811.338623
1090.287447,2072.576638,-1302.362347,4885.359217
1090.287777,2516.700203,0.000000,6513.812290
1090.288106,1332.370696,1991.848295,8808.450710
1090.288436,-1406.391290,4136.915689,10658.965565
1090.288766,-3701.029710,4519.963438,10288.862594
1090.289096,-3552.988522,2374.896044,10584.944971
1090.289425,-962.267725,383.047749,10436.903782
1090.289755,-296.082377,-1225.752797,9104.533087
1090.290085,0.000000,-689.485948,7994.224174
1090.290414,-814.226536,-536.266849,6143.709319
1090.290744,-370.102971,-229.828649,5477.523971
1090.291074,1036.288319,-612.876398,7105.977043
1090.291403,1702.473667,383.047749,9104.533087
1090.291733,592.164754,1608.800546,10362.883188
1090.292063,-1776.494261,1378.971896,11399.171507
1090.292393,-3404.947333,306.438199,11325.150913
1090.292722,-4071.132681,0.000000,13101.645173
1090.293052,-3108.864956,-229.828649,14508.036463
1090.293382,-2220.617826,689.485948,13989.892304
1090.293711,-1776.494261,995.924147,11843.295072
1090.294041,-888.247130,-995.924147,8734.430116
1090.294371,814.226536,-1762.019645,7698.141797
1090.294701,2294.638420,-1302.362347,8734.430116
1090.295030,3552.988522,229.828649,10066.800811
1090.295360,2368.659014,1991.848295,11695.253884
1090.295690,-740.205942,3294.210641,11843.295072
1090.296019,-3108.864956,2681.334243,11251.130318
1090.296349,-2516.700203,1378.971896,12065.356855
1090.296679,-1036.288319,1608.800546,12361.439231
1090.297008,-740.205942,2451.505594,10658.965565
1090.297338,-1406.391290,1685.410096,8586.388927
1090.297668,-962.267725,1149.143247,5773.606348
1090.297998,518.144159,153.219100,4071.132681
1090.298327,1406.391290,306.438199,4663.297435
1090.298657,1554.432478,1608.800546,5625.565159
1090.298987,-518.144159,3064.381992,8438.347739
1090.299316,-3627.009116,4060.306139,9770.718434
1090.299646,-6069.688724,4519.963438,8956.491898
1090.299976,-5329.482782,2221.676944,9252.574275
1090.300306,-3108.864956,153.219100,9548.656652
1090.300635,-2072.576638,995.924147,9030.512492
1090.300965,-2220.617826,229.828649,8068.244768
1090.301295,-2220.617826,-995.924147,7179.997637
1090.301624,-1628.453072,153.219100,7402.059420
1090.301954,-592.164754,1685.410096,8290.306550
1090.302284,1332.370696,1455.581446,8956.491898
1090.302614,2368.659014,1072.533697,9844.739029
1090.302943,1998.556043,612.876398,10584.944971
1090.303273,-148.041188,536.266849,11251.130318
1090.303603,-1554.432478,1378.971896,12731.542202
1090.303932,-1258.350101,2681.334243,14137.933492
1090.304262,-666.185348,2757.943793,13323.706956
1090.304592,-222.061783,1225.752797,11769.274478
1090.304921,444.123565,-1532.190996,8660.409521
1090.305251,1258.350101,-2681.334243,6809.894666
1090.305581,2590.720797,-1532.190996,7550.100608
1090.305911,3256.906145,383.047749,9030.512492
1090.306240,2368.659014,1915.238745,11621.233289
1090.306570,-740.205942,3140.991542,12435.459826
1090.306900,-3627.009116,3600.648841,11473.192101
1090.307229,-4737.318029,2987.772442,10510.924376
1090.307559,-3182.885551,1378.971896,11251.130318
1090.307889,-1776.494261,919.314598,11325.150913
1090.308219,-2368.659014,153.219100,9400.615463
1090.308548,-2886.803174,-536.266849,6291.750507
1090.308878,-1850.514855,-1915.238745,5403.503377
1090.309208,-370.102971,-766.095498,6143.709319
1090.309537,-444.123565,536.266849,7772.162391
1090.309867,-888.247130,1838.629195,9992.780217
1090.310197,-2442.679609,2911.162892,11177.109724
1090.310526,-3627.009116,4213.525239,10881.027347
1090.310856,-2886.803174,3600.648841,9696.697840
1090.311186,-518.144159,766.095498,8808.450710
1090.311516,518.144159,0.000000,8290.306550
1090.311845,666.185348,842.705048,7994.224174
1090.312175,0.000000,1225.752797,7846.182985
1090.312505,444.123565,919.314598,5625.565159
1090.312834,1258.350101,-842.705048,5625.565159
1090.313164,1776.494261,-1149.143247,7105.977043
1090.313494,1554.432478,-153.219100,9844.739029
1090.313824,0.000000,612.876398,11991.336260
1090.314153,-2664.741391,2451.505594,11769.274478
1090.314483,-4219.173869,2757.943793,11843.295072
1090.314813,-3034.844362,1378.971896,12139.377449
1090.315142,-814.226536,306.438199,11991.336260
1090.315472,0.000000,-536.266849,11103.089130
1090.315802,-888.247130,-919.314598,8068.244768
1090.316132,-740.205942,-2298.286494,6217.729913
1090.316461,740.205942,-3064.381992,8956.491898
1090.316791,1036.288319,-842.705048,11843.295072
1090.317121,-592.164754,1762.019645,13249.686362
1090.317450,-2368.659014,2374.896044,14063.912898
1090.317780,-2886.803174,1838.629195,13397.727550
1090.318110,-3627.009116,2145.067394,13249.686362
1090.318439,-2220.617826,1685.410096,12213.398043
1090.318769,74.020594,842.705048,10732.986159
1090.319099,888.247130,1378.971896,9400.615463
1090.319429,370.102971,2451.505594,7179.997637
1090.319758,888.247130,2528.115143,4737.318029
1090.320088,1850.514855,306.438199,5033.400406
1090.320418,2294.638420,0.000000,5255.462188
1090.320747,592.164754,1838.629195,8660.409521
1090.321077,-1480.411884,3753.867940,11029.068536
1090.321407,-3775.050304,5056.230287,10436.903782
1090.321737,-4145.153275,4060.306139,8808.450710
1090.322066,-3404.947333,2145.067394,8734.430116
1090.322396,-2516.700203,1532.190996,8586.388927
1090.322726,-2368.659014,2451.505594,8142.265362
1090.323055,-2664.741391,1838.629195,6365.771101
1090.323385,-1406.391290,842.705048,4145.153275
1090.323715,-666.185348,-536.266849,4737.318029
1090.324044,370.102971,-919.314598,7179.997637
1090.324374,-592.164754,306.438199,9844.739029
1090.324704,-2960.823768,1991.848295,12065.356855
1090.325034,-4515.256246,3753.867940,12879.583391
1090.325363,-4145.153275,1608.800546,13323.706956
1090.325693,-2664.741391,459.657299,13767.830521
1090.326023,-444.123565,1225.752797,12731.542202
1090.326352,1258.350101,919.314598,10584.944971
1090.326682,2146.597232,229.828649,8068.244768
1090.327012,2220.617826,-689.485948,6957.935855
1090.327342,3256.906145,306.438199,8290.306550
1090.327671,3997.112087,0.000000,9400.615463
1090.328001,3108.864956,842.705048,11103.089130
1090.328331,444.123565,1149.143247,12139.377449
1090.328660,-2294.638420,995.924147,12731.542202
1090.328990,-3404.947333,919.314598,13545.768739
1090.329320,-3108.864956,1455.581446,13471.748144
1090.329649,-2368.659014,1149.143247,11769.274478
1090.329979,-2072.576638,842.705048,10214.842000
1090.330309,-2072.576638,459.657299,8142.265362
1090.330638,-1702.473667,1072.533697,5403.503377
1090.330968,0.000000,766.095498,5403.503377
1090.331298,444.123565,536.266849,5921.647536
1090.331627,-888.247130,0.000000,7476.080014
1090.331957,-3404.947333,2068.457845,10214.842000
1090.332287,-6217.729913,2911.162892,10510.924376
1090.332616,-6291.750507,2068.457845,10807.006753
1090.332946,-4737.318029,842.705048,10881.027347
1090.333276,-3034.844362,1072.533697,10140.821405
1090.333605,-2072.576638,995.924147,8956.491898
1090.333935,-888.247130,1225.752797,6587.832884
1090.334265,1184.329507,1225.752797,4293.194464
1090.334594,2886.803174,1072.533697,5033.400406
1090.334924,3552.988522,1149.143247,6143.709319
1090.335254,2516.700203,1838.629195,8142.265362
1090.335583,296.082377,919.314598,9918.759623
1090.335913,-2146.597232,995.924147,10140.821405
1090.336243,-3182.885551,536.266849,11769.274478
1090.336572,-2664.741391,-306.438199,13249.686362
1090.336902,-2072.576638,-612.876398,12435.459826
1090.337232,-1406.391290,-995.924147,11325.150913
1090.337561,-962.267725,-306.438199,11251.130318
1090.337891,-1184.329507,536.266849,8512.368333
1090.338221,0.000000,76.609550,8142.265362
1090.338550,2590.720797,-1072.533697,8808.450710
1090.338880,3108.864956,-76.609550,10510.924376
1090.339210,592.164754,1149.143247,12361.439231
1090.339539,-3034.844362,1838.629195,12435.459826
1090.339869,-5033.400406,1225.752797,12509.480420
1090.340199,-4071.132681,306.438199,13693.809927
1090.340528,-2072.576638,306.438199,14285.974681
1090.340858,-1110.308913,919.314598,12065.356855
1090.341188,-1258.350101,612.876398,8290.306550
1090.341517,-148.041188,-612.876398,5181.441594
1090.341847,2294.638420,-383.047749,5995.668130
1090.342177,2738.761985,842.705048,7698.141797
1090.342506,1702.473667,3447.429741,9178.553681
1090.342836,-1332.370696,4443.353888,9622.677246
1090.343166,-3552.988522,3294.210641,9178.553681
1090.343495,-4219.173869,1838.629195,8438.347739
1090.343825,-2960.823768,306.438199,9918.759623
1090.344155,-2368.659014,842.705048,10214.842000
1090.344484,-2368.659014,2145.067394,8734.430116
1090.344814,-2960.823768,1838.629195,7254.018232
1090.345144,-1924.535449,689.485948,5181.441594
1090.345473,-666.185348,0.000000,5033.400406
1090.345803,444.123565,1378.971896,6439.791695
1090.346133,740.205942,2145.067394,8216.285956
1090.346462,-962.267725,2451.505594,10066.800811
1090.346792,-3478.967927,2221.676944,10510.924376
1090.347122,-4663.297435,1685.410096,10955.047942
1090.347451,-3627.009116,0.000000,11399.171507
1090.347781,-1628.453072,-536.266849,11473.192101
1090.348111,-444.123565,-383.047749,10955.047942
1090.348440,0.000000,-766.095498,10510.924376
1090.348770,0.000000,1225.752797,8882.471304
1090.349099,1258.350101,1915.238745,7402.059420
1090.349429,4071.132681,842.705048,7402.059420
1090.349759,5699.585753,842.705048,9770.718434
1090.350088,2960.823768,2681.334243,11843.295072
1090.350418,-1332.370696,3753.867940,11917.315666
1090.350748,-3997.112087,1762.019645,11547.212695
1090.351077,-4663.297435,-842.705048,11843.295072
1090.351407,-3330.926739,-842.705048,12065.356855
1090.351737,-2812.782580,-919.314598,12361.439231
1090.352066,-3034.844362,-1455.581446,9548.656652
1090.352396,-2368.659014,-1302.362347,5773.606348
1090.352726,-222.061783,-1149.143247,6661.853478
1090.353055,2072.576638,1302.362347,9104.533087
1090.353385,1628.453072,3600.648841,10658.965565
1090.353715,-370.102971,4213.525239,10955.047942
1090.354044,-1924.535449,3524.039291,9992.780217
1090.354374,-3108.864956,2068.457845,9992.780217
1090.354704,-2886.803174,1072.533697,11251.130318
1090.355033,-2516.700203,842.705048,11769.274478
1090.355363,-2368.659014,153.219100,10584.944971
1090.355693,-3034.844362,1072.533697,7698.141797
1090.356022,-2368.659014,0.000000,5403.503377
1090.356352,74.020594,-2298.286494,4959.379811
1090.356682,1480.411884,-1608.800546,5773.606348
1090.357011,1036.288319,1302.362347,7328.038826
1090.357341,-666.185348,2528.115143,9548.656652
1090.357671,-3330.926739,2604.724693,10362.883188
1090.358000,-4737.318029,2374.896044,9992.780217
1090.358330,-3923.091493,0.000000,9696.697840
1090.358660,-2072.576638,-1685.410096,9252.574275
1090.358989,-814.226536,-1838.629195,10066.800811
1090.359319,-1628.453072,-1378.971896,10288.862594
1090.359649,-2886.803174,0.000000,8216.285956
1090.359978,-1258.350101,-153.219100,7402.059420
1090.360308,2220.617826,-612.876398,9178.553681
1090.360638,3478.967927,459.657299,10955.047942
1090.360967,1776.494261,1225.752797,12361.439231
1090.361297,-222.061783,1378.971896,12731.542202
1090.361627,-2442.679609,1378.971896,12139.377449
1090.361956,-3256.906145,1455.581446,12213.398043
1090.362286,-1258.350101,612.876398,13101.645173
1090.362616,-222.061783,-383.047749,12361.439231
1090.362945,-740.205942,-919.314598,9770.718434
1090.363275,-1258.350101,-766.095498,6587.832884
1090.363605,592.164754,-229.828649,6587.832884
1090.363934,2368.659014,459.657299,8438.347739
1090.364264,2294.638420,2834.553343,9252.574275
1090.364594,444.123565,3140.991542,9844.739029
1090.364923,-1110.308913,3140.991542,10214.842000
1090.365253,-2960.823768,4596.572988,10140.821405
1090.365583,-3256.906145,3753.867940,10881.027347
1090.365912,-3108.864956,1915.238745,11029.068536
1090.366242,-3256.906145,1378.971896,10214.842000
1090.366572,-3775.050304,1915.238745,8290.306550
1090.366901,-3404.947333,919.314598,5477.523971
1090.367231,-1776.494261,-995.924147,3775.050304
1090.367561,0.000000,-383.047749,4737.318029
1090.367890,296.082377,766.095498,7846.182985
1090.368220,-1480.411884,2911.162892,10436.903782
1090.368550,-4071.132681,4903.011187,10658.965565
1090.368879,-4663.297435,3830.477490,9696.697840
1090.369209,-2738.761985,842.705048,10066.800811
1090.369539,-1258.350101,-383.047749,9992.780217
1090.369868,-296.082377,76.609550,9622.677246
1090.370198,-296.082377,383.047749,9030.512492
1090.370527,-888.247130,842.705048,7698.141797
1090.370857,-592.164754,1455.581446,7846.182985
1090.371187,1480.411884,306.438199,8660.409521
1090.371516,3182.885551,-919.314598,9104.533087
1090.371846,2590.720797,-1378.971896,10288.862594
1090.372176,296.082377,766.095498,11695.253884
1090.372505,-2072.576638,2145.067394,12731.542202
1090.372835,-3330.926739,1149.143247,14063.912898
1090.373165,-2368.659014,1149.143247,14211.954086
1090.373494,-1998.556043,842.705048,12509.480420
1090.373824,-1554.432478,-1378.971896,9844.739029
1090.374154,-1406.391290,-2987.772442,7402.059420
1090.374483,-444.123565,-2604.724693,7105.977043
1090.374813,518.144159,-689.485948,8586.388927
1090.375143,1480.411884,459.657299,10066.800811
1090.375472,0.000000,1149.143247,11917.315666
1090.375802,-2738.761985,2757.943793,12139.377449
1090.376132,-3775.050304,2374.896044,11547.212695
1090.376461,-2738.761985,1072.533697,10955.047942
1090.376791,-1036.288319,689.485948,11325.150913
1090.377121,-1332.370696,1532.190996,10140.821405
1090.377450,-1776.494261,1455.581446,8068.244768
1090.377780,-1554.432478,0.000000,6365.771101
1090.378110,-518.144159,0.000000,4811.338623
1090.378439,518.144159,0.000000,5181.441594
1090.378769,1702.473667,153.219100,7772.162391
1090.379099,444.123565,2604.724693,9474.636058
1090.379428,-2072.576638,4443.353888,8808.450710
1090.379758,-2664.741391,3064.381992,7698.141797
1090.380088,-2072.576638,1302.362347,8882.471304
1090.380417,-1554.432478,2528.115143,10214.842000
1090.380747,-1998.556043,2221.676944,9622.677246
1090.381077,-2368.659014,229.828649,7920.203579
1090.381406,-2812.782580,-1378.971896,5625.565159
1090.381736,-2664.741391,-2068.457845,6143.709319
1090.382066,-592.164754,-2374.896044,8586.388927
1090.382395,666.185348,-459.657299,9844.739029
1090.382725,444.123565,-153.219100,10584.944971
1090.383055,-370.102971,1455.581446,12435.459826
1090.383384,-2368.659014,2987.772442,14063.912898
1090.383714,-2516.700203,2681.334243,15100.201217
1090.384044,-888.247130,2451.505594,14063.912898
1090.384373,222.061783,842.705048,12361.439231
1090.384703,0.000000,383.047749,10658.965565
1090.385033,-148.041188,-383.047749,8364.327145
1090.385362,518.144159,-1302.362347,7476.080014
1090.385692,2294.638420,-689.485948,8882.471304
1090.386022,2516.700203,1149.143247,10807.006753
1090.386351,1036.288319,3217.601092,11251.130318
1090.386681,-592.164754,1302.362347,10362.883188
1090.387011,-2664.741391,536.266849,9474.636058
1090.387340,-2590.720797,3064.381992,10955.047942
1090.387670,-2294.638420,3753.867940,12065.356855
1090.388000,-2664.741391,3064.381992,10732.986159
1090.388329,-3182.885551,2298.286494,8290.306550
1090.388659,-3404.947333,995.924147,5107.421000
1090.388989,-1850.514855,-1072.533697,4219.173869
1090.389318,-148.041188,-842.705048,4811.338623
1090.389648,74.020594,459.657299,5847.626942
1090.389978,-666.185348,1455.581446,7772.162391
1090.390307,-3108.864956,2681.334243,9696.697840
1090.390637,-4293.194464,4366.744339,10658.965565
1090.390967,-3478.967927,3600.648841,10584.944971
1090.391296,-1332.370696,1838.629195,9548.656652
1090.391626,222.061783,0.000000,9030.512492
1090.391955,666.185348,-689.485948,8956.491898
1090.392285,-666.185348,459.657299,7476.080014
1090.392615,-814.226536,612.876398,6291.750507
1090.392944,666.185348,-383.047749,7105.977043
1090.393274,2442.679609,0.000000,8882.471304
1090.393604,2368.659014,689.485948,11547.212695
1090.393933,1036.288319,1072.533697,11769.274478
1090.394263,-814.226536,766.095498,10955.047942
1090.394593,-1554.432478,459.657299,11547.212695
1090.394922,-1258.350101,612.876398,13027.624579
1090.395252,-1184.329507,1225.752797,13397.727550
1090.395582,-1850.514855,1685.410096,12287.418637
1090.395911,-2368.659014,919.314598,8956.491898
1090.396241,-1480.411884,-1608.800546,7402.059420
1090.396571,74.020594,-2528.115143,8882.471304
1090.396900,1036.288319,-1455.581446,10140.821405
1090.397230,222.061783,229.828649,11621.233289
1090.397560,-2368.659014,1762.019645,11473.192101
1090.397889,-4293.194464,1991.848295,11177.109724
1090.398219,-3701.029710,2145.067394,12287.418637
1090.398549,-1628.453072,1915.238745,13101.645173
1090.398878,-222.061783,2834.553343,11547.212695
1090.399208,-370.102971,3064.381992,8290.306550
1090.399538,-296.082377,383.047749,5329.482782
1090.399867,222.061783,-1685.410096,4441.235652
1090.400197,1036.288319,-612.876398,6143.709319
1090.400527,1184.329507,1608.800546,7402.059420
1090.400856,-518.144159,3064.381992,9104.533087
1090.401186,-2590.720797,3447.429741,9696.697840
1090.401516,-3404.947333,2681.334243,9104.533087
1090.401845,-2220.617826,689.485948,9474.636058
1090.402175,-962.267725,1302.362347,8734.430116
1090.402505,-962.267725,1838.629195,7476.080014
1090.402834,-1480.411884,766.095498,7698.141797
1090.403164,-2220.617826,995.924147,7698.141797
1090.403494,-1998.556043,1378.971896,7402.059420
1090.403823,-444.123565,612.876398,7328.038826
1090.404153,518.144159,306.438199,7772.162391
1090.404483,222.061783,459.657299,9918.759623
1090.404812,-962.267725,153.219100,11177.109724
1090.405142,-2368.659014,306.438199,11473.192101
1090.405472,-2516.700203,1225.752797,13175.665768
1090.405801,-1998.556043,2528.115143,13693.809927
1090.406131,-1406.391290,2757.943793,13693.809927
1090.406461,-666.185348,689.485948,11991.336260
1090.406790,-370.102971,-383.047749,9252.574275
1090.407120,296.082377,-229.828649,7328.038826
1090.407450,1776.494261,-153.219100,8068.244768
1090.407779,3701.029710,153.219100,9474.636058
1090.408109,2886.803174,1302.362347,11103.089130
1090.408439,296.082377,1915.238745,11695.253884
1090.408768,-2368.659014,3064.381992,11621.233289
1090.409098,-3034.844362,3140.991542,11695.253884
1090.409428,-1406.391290,2528.115143,11621.233289
1090.409757,-370.102971,1072.533697,10510.924376
1090.410087,-888.247130,766.095498,8586.388927
1090.410417,-1998.556043,689.485948,6513.812290
1090.410746,-1776.494261,1072.533697,5255.462188
1090.411076,-814.226536,689.485948,5995.668130
1090.411406,222.061783,919.314598,7476.080014
1090.411735,-1332.370696,1915.238745,8660.409521
1090.412065,-2516.700203,2068.457845,8956.491898
1090.412395,-3923.091493,2374.896044,8660.409521
1090.412724,-3627.009116,2298.286494,9548.656652
1090.413054,-2664.741391,1838.629195,9622.677246
1090.413383,-1628.453072,229.828649,9474.636058
1090.413713,-1924.535449,-919.314598,9252.574275
1090.414043,-2516.700203,-766.095498,6883.915261
1090.414372,-2368.659014,-995.924147,5773.606348
1090.414702,444.123565,-1608.800546,6513.812290
1090.415032,2516.700203,-1378.971896,7476.080014
1090.415361,3552.988522,-2451.505594,9770.718434
1090.415691,1776.494261,-1302.362347,12213.398043
1090.416021,-1702.473667,2374.896044,13323.706956
1090.416350,-3478.967927,3524.039291,13767.830521
1090.416680,-1998.556043,2221.676944,14211.954086
1090.417010,-296.082377,-536.266849,12805.562797
1090.417339,-370.102971,-1685.410096,10732.986159
1090.417669,-592.164754,-4213.525239,8068.244768
1090.417999,-518.144159,-4519.963438,5773.606348
1090.418328,74.020594,-3753.867940,5551.544565
1090.418658,2146.597232,-4213.525239,7698.141797
1090.418988,2220.617826,-3907.087040,10658.965565
1090.419317,-296.082377,-2298.286494,13545.768739
1090.419647,-3552.988522,229.828649,13767.830521
1090.419977,-5921.647536,1302.362347,13841.851115
1090.420306,-5107.421000,842.705048,14878.139434
1090.420636,-3330.926739,1532.190996,14804.118840
1090.420966,-2146.597232,-306.438199,11843.295072
1090.421295,-888.247130,-2604.724693,7550.100608
1090.421625,888.247130,-4443.353888,3701.029710
1090.421955,1332.370696,-4213.525239,2368.659014
1090.422284,2664.741391,-2757.943793,3775.050304
1090.422614,3701.029710,-2451.505594,6217.729913
1090.422944,3034.844362,-1838.629195,8512.368333
1090.423273,444.123565,-1455.581446,10436.903782
1090.423603,-2886.803174,0.000000,12139.377449
1090.423933,-4293.194464,995.924147,14211.954086
1090.424262,-4589.276840,1225.752797,14656.077652
1090.424592,-3552.988522,306.438199,11843.295072
1090.424922,-1776.494261,-2681.334243,8734.430116
1090.425251,518.144159,-4213.525239,5773.606348
1090.425581,-148.041188,-2834.553343,3182.885551
1090.425911,518.144159,-1685.410096,2738.761985
1090.426240,1628.453072,-1149.143247,3997.112087
1090.426570,1628.453072,-1149.143247,5551.544565
1090.426900,1110.308913,-2604.724693,9326.594869
1090.427229,-740.205942,-3907.087040,12509.480420
1090.427559,-3330.926739,-2374.896044,14211.954086
1090.427889,-5921.647536,-689.485948,16062.468941
1090.428218,-7476.080014,-1225.752797,16802.674883
1090.428548,-7031.956449,-842.705048,15322.262999
1090.428878,-4071.132681,-2604.724693,13175.665768
1090.429207,0.000000,-5515.887586,8660.409521
1090.429537,2146.597232,-6205.373534,3701.029710
1090.429867,3552.988522,-4903.011187,2664.741391
1090.430196,4441.235652,-3983.696590,5625.565159
1090.430526,3701.029710,-1225.752797,8660.409521
1090.430856,2220.617826,1072.533697,11843.295072
1090.431185,1332.370696,459.657299,13915.871710
1090.431515,0.000000,-689.485948,15248.242405
1090.431845,-1998.556043,-1378.971896,16358.551318
1090.432174,-3478.967927,-1378.971896,16580.613101
1090.432504,-5477.523971,-1991.848295,14359.995275
1090.432834,-6439.791695,-1225.752797,10881.027347
1090.433163,-4663.297435,-2145.067394,6365.771101
1090.433493,-962.267725,-4903.011187,2368.659014
1090.433823,2738.761985,-6894.859482,-666.185348
1090.434152,4515.256246,-6128.763984,-666.185348
1090.434482,4145.153275,-3600.648841,2516.700203
1090.434812,2220.617826,0.000000,7328.038826
1090.435141,-1258.350101,2834.553343,12509.480420
1090.435471,-4663.297435,3983.696590,15470.304188
1090.435801,-5625.565159,3447.429741,17542.880825
1090.436130,-5403.503377,1762.019645,17764.942608
1090.436460,-4737.318029,-153.219100,15692.365970
1090.436790,-3849.070898,-2757.943793,11621.233289
1090.437119,-2664.741391,-4596.572988,7105.977043
1090.437449,-888.247130,-3677.258390,3849.070898
1090.437779,444.123565,-3294.210641,3330.926739
1090.438108,1184.329507,-2681.334243,1998.556043
1090.438438,2516.700203,-2834.553343,962.267725
1090.438767,4589.276840,-3983.696590,2516.700203
1090.439097,5033.400406,-2834.553343,6513.812290
1090.439427,2960.823768,-995.924147,11547.212695
1090.439756,222.061783,536.266849,15840.407159
1090.440086,-2442.679609,1838.629195,18949.272115
1090.440416,-4737.318029,2681.334243,20133.601622
1090.440745,-5773.606348,2681.334243,18579.169144
1090.441075,-5033.400406,-1225.752797,14359.995275
1090.441405,-2886.803174,-4903.011187,8660.409521
1090.441734,-222.061783,-6205.373534,4811.338623
1090.442064,1776.494261,-6894.859482,2960.823768
1090.442394,2072.576638,-6358.592633,3182.885551
1090.442723,1332.370696,-3677.258390,4737.318029
1090.443053,-740.205942,-1378.971896,7476.080014
1090.443383,-1998.556043,459.657299,11177.109724
1090.443712,-2664.741391,689.485948,13767.830521
1090.444042,-2812.782580,-536.266849,14063.912898
1090.444372,-3404.947333,-2757.943793,12657.521608
1090.444701,-3923.091493,-4290.134789,11917.315666
1090.445031,-3182.885551,-4979.620737,10732.986159
1090.445361,-2146.597232,-5592.497135,9400.615463
1090.445690,-1110.308913,-5286.058936,7772.162391
1090.446020,-222.061783,-3600.648841,6439.791695
1090.446350,1406.391290,-2604.724693,6143.709319
1090.446679,2442.679609,-2834.553343,6291.750507
1090.447009,2368.659014,-1915.238745,7179.997637
1090.447339,814.226536,153.219100,9622.677246
1090.447668,-1184.329507,2374.896044,11843.295072
1090.447998,-2368.659014,1149.143247,12435.459826
1090.448328,-2146.597232,-1225.752797,11843.295072
1090.448657,-1110.308913,-3983.696590,10584.944971
1090.448987,-592.164754,-6205.373534,9474.636058
1090.449317,-444.123565,-7048.078582,8734.430116
1090.449646,-1110.308913,-5898.935335,7624.121203
1090.449976,-1480.411884,-5286.058936,8290.306550
1090.450306,-1998.556043,-3447.429741,10214.842000
1090.450635,-2812.782580,-383.047749,12361.439231
1090.450965,-3034.844362,1685.410096,13175.665768
1090.451295,-2072.576638,2374.896044,11177.109724
1090.451624,-592.164754,383.047749,9548.656652
1090.451954,740.205942,-1532.190996,9326.594869
1090.452284,1258.350101,-2145.067394,9992.780217
1090.452613,518.144159,-1838.629195,9474.636058
1090.452943,0.000000,-2068.457845,7994.224174
1090.453273,-518.144159,-2681.334243,8216.285956
1090.453602,-1480.411884,-3677.258390,9770.718434
1090.453932,-2294.638420,-2911.162892,10658.965565
1090.454262,-2368.659014,-2145.067394,10214.842000
1090.454591,-1776.494261,-1991.848295,9326.594869
1090.454921,-740.205942,-1455.581446,10066.800811
1090.455251,-1184.329507,-689.485948,11843.295072
1090.455580,-1702.473667,1225.752797,11843.295072
1090.455910,-1924.535449,2911.162892,9992.780217
1090.456240,-666.185348,2757.943793,7402.059420
1090.456569,962.267725,-153.219100,5181.441594
1090.456899,2146.597232,-4213.525239,4737.318029
1090.457229,1628.453072,-5975.544884,5477.523971
1090.457558,-444.123565,-4060.306139,7105.977043
1090.457888,-2886.803174,-2604.724693,9178.553681
1090.458218,-4441.235652,-2451.505594,11769.274478
1090.458547,-5107.421000,-2298.286494,13693.809927
1090.458877,-4145.153275,-1225.752797,15174.221811
1090.459207,-2738.761985,0.000000,13915.871710
1090.459536,-1850.514855,306.438199,11251.130318
1090.459866,-962.267725,76.609550,8364.327145
1090.460196,296.082377,-1072.533697,7105.977043
1090.460525,1702.473667,-1685.410096,7031.956449
1090.460855,2220.617826,-1991.848295,7105.977043
1090.461185,1332.370696,-2681.334243,6217.729913
1090.461514,-592.164754,-4213.525239,5995.668130
1090.461844,-1554.432478,-6205.373534,7624.121203
1090.462174,-2220.617826,-6052.154434,10732.986159
1090.462503,-2072.576638,-4979.620737,12509.480420
1090.462833,-1850.514855,-3447.429741,13323.706956
1090.463163,-1850.514855,-2451.505594,13767.830521
1090.463492,-1776.494261,-1378.971896,13471.748144
1090.463822,-740.205942,-842.705048,13027.624579
