#time,accel_x,accel_y,accel_z
967.717482,-888.247130,766.095498,9474.636058
967.717811,-1184.329507,1149.143247,9400.615463
967.718141,-666.185348,1378.971896,9844.739029
967.718470,-1184.329507,995.924147,9474.636058
967.718800,-1036.288319,995.924147,9548.656652
967.719129,-962.267725,842.705048,9548.656652
967.719459,-962.267725,919.314598,9622.677246
967.719788,-518.144159,919.314598,9400.615463
967.720117,-1036.288319,995.924147,9474.636058
967.720447,-1036.288319,995.924147,9548.656652
967.720776,-888.247130,1149.143247,9770.718434
967.721106,-888.247130,1072.533697,9474.636058
967.721435,-814.226536,766.095498,9252.574275
967.721765,-1110.308913,612.876398,9400.615463
967.722094,-1110.308913,1072.533697,9844.739029
967.722423,-1036.288319,919.314598,9548.656652
967.722753,-1110.308913,919.314598,9696.697840
967.723082,-740.205942,1225.752797,9474.636058
967.723412,-1110.308913,995.924147,9474.636058
967.723741,-1110.308913,842.705048,9696.697840
967.724070,-1036.288319,536.266849,9548.656652
967.724400,-888.247130,995.924147,9548.656652
967.724729,-1036.288319,995.924147,9548.656652
967.725059,-888.247130,766.095498,9474.636058
967.725388,-1184.329507,919.314598,9400.615463
967.725718,-1110.308913,919.314598,9474.636058
967.726047,-888.247130,1072.533697,9548.656652
967.726376,-1036.288319,995.924147,9474.636058
967.726706,-814.226536,766.095498,9844.739029
967.727035,-888.247130,612.876398,9474.636058
967.727365,-962.267725,842.705048,9400.615463
967.727694,-888.247130,1149.143247,9474.636058
967.728023,-962.267725,995.924147,9474.636058
967.728353,-1036.288319,1532.190996,9474.636058
967.728682,-1036.288319,919.314598,9326.594869
967.729012,-1110.308913,1149.143247,9400.615463
967.729341,-1036.288319,919.314598,9548.656652
967.729671,-1036.288319,919.314598,9252.574275
967.730000,-1110.308913,919.314598,9474.636058
967.730329,-1258.350101,1302.362347,9252.574275
967.730659,-1184.329507,919.314598,9474.636058
967.730988,-1110.308913,1149.143247,9474.636058
967.731318,-962.267725,612.876398,9474.636058
967.731647,-1110.308913,995.924147,9474.636058
967.731977,-814.226536,1225.752797,9770.718434
967.732306,-1110.308913,766.095498,9252.574275
967.732635,-962.267725,919.314598,9622.677246
967.732965,-888.247130,995.924147,9622.677246
967.733294,-1036.288319,842.705048,9548.656652
967.733624,-888.247130,1072.533697,9474.636058
967.733953,-1184.329507,766.095498,9548.656652
967.734282,-1258.350101,842.705048,9622.677246
967.734612,-1036.288319,995.924147,9696.697840
967.734941,-1110.308913,1149.143247,9622.677246
967.735271,-1036.288319,0.000000,9474.636058
967.735600,-888.247130,842.705048,9400.615463
967.735930,-1110.308913,766.095498,9548.656652
967.736259,-962.267725,842.705048,9696.697840
967.736588,-1036.288319,842.705048,9622.677246
967.736918,-888.247130,995.924147,9622.677246
967.737247,-666.185348,1532.190996,9474.636058
967.737577,-1036.288319,766.095498,9548.656652
967.737906,-1036.288319,842.705048,9326.594869
967.738236,-962.267725,842.705048,9474.636058
967.738565,-1036.288319,919.314598,9326.594869
967.738894,-1184.329507,766.095498,9178.553681
967.739224,-666.185348,1072.533697,9400.615463
967.739553,-1110.308913,766.095498,9326.594869
967.739883,-1036.288319,842.705048,9400.615463
967.740212,-962.267725,919.314598,9474.636058
967.740541,-1258.350101,1532.190996,9030.512492
967.740871,-1332.370696,842.705048,8956.491898
967.741200,-740.205942,919.314598,9400.615463
967.741530,-962.267725,1072.533697,9474.636058
967.741859,-962.267725,919.314598,9548.656652
967.742189,-1258.350101,919.314598,9400.615463
967.742518,-814.226536,1532.190996,9178.553681
967.742847,-1110.308913,919.314598,9178.553681
967.743177,-444.123565,842.705048,9178.553681
967.743506,444.123565,536.266849,9178.553681
967.743836,1036.288319,383.047749,9622.677246
967.744165,888.247130,612.876398,8808.450710
967.744494,666.185348,536.266849,9770.718434
967.744824,0.000000,689.485948,9992.780217
967.745153,-370.102971,995.924147,10658.965565
967.745483,-814.226536,689.485948,10807.006753
967.745812,-518.144159,459.657299,10214.842000
967.746142,0.000000,-306.438199,9400.615463
967.746471,1036.288319,0.000000,9252.574275
967.746800,1850.514855,0.000000,9030.512492
967.747130,2886.803174,383.047749,8808.450710
967.747459,3330.926739,1072.533697,8956.491898
967.747789,3627.009116,1685.410096,9178.553681
967.748118,3404.947333,2068.457845,9252.574275
967.748448,3404.947333,1608.800546,9992.780217
967.748777,2886.803174,919.314598,10436.903782
967.749106,1850.514855,766.095498,10510.924376
967.749436,1480.411884,689.485948,10510.924376
967.749765,1702.473667,76.609550,10955.047942
967.750095,1776.494261,-536.266849,10288.862594
967.750424,2220.617826,-306.438199,9474.636058
967.750753,3034.844362,0.000000,9104.533087
967.751083,3997.112087,536.266849,8734.430116
967.751412,4515.256246,1072.533697,9104.533087
967.751742,4367.215058,2374.896044,9474.636058
967.752071,3256.906145,2681.334243,9844.739029
967.752401,1924.535449,2987.772442,10510.924376
967.752730,0.000000,3064.381992,10214.842000
967.753059,-1702.473667,2911.162892,9548.656652
967.753389,-2072.576638,766.095498,8586.388927
967.753718,-1110.308913,-383.047749,7772.162391
967.754048,592.164754,-1302.362347,7031.956449
967.754377,2220.617826,-995.924147,6587.832884
967.754707,3478.967927,0.000000,6883.915261
967.755036,4145.153275,842.705048,7698.141797
967.755365,2886.803174,2987.772442,9474.636058
967.755695,2072.576638,4366.744339,11325.150913
967.756024,1036.288319,4366.744339,12435.459826
967.756354,370.102971,2681.334243,13101.645173
967.756683,-518.144159,1378.971896,12139.377449
967.757012,-1110.308913,-766.095498,11621.233289
967.757342,-962.267725,-1915.238745,10732.986159
967.757671,0.000000,-2374.896044,9474.636058
967.758001,1480.411884,-2068.457845,8364.327145
967.758330,2886.803174,-1302.362347,7994.224174
967.758660,4515.256246,-229.828649,7550.100608
967.758989,4737.318029,1378.971896,7624.121203
967.759318,4663.297435,3370.820191,7920.203579
967.759648,4441.235652,3600.648841,9178.553681
967.759977,3627.009116,4136.915689,9992.780217
967.760307,2738.761985,4136.915689,11251.130318
967.760636,1406.391290,2604.724693,11399.171507
967.760965,0.000000,842.705048,11177.109724
967.761295,-1036.288319,-383.047749,10214.842000
967.761624,-1554.432478,-1532.190996,9770.718434
967.761954,-1998.556043,-2145.067394,9622.677246
967.762283,-1850.514855,-1762.019645,9474.636058
967.762613,-1110.308913,-1149.143247,9252.574275
967.762942,0.000000,-766.095498,8586.388927
967.763271,1554.432478,-306.438199,8216.285956
967.763601,3701.029710,-153.219100,8216.285956
967.763930,4663.297435,229.828649,8438.347739
967.764260,5699.585753,612.876398,8512.368333
967.764589,5847.626942,1072.533697,9252.574275
967.764919,5329.482782,1608.800546,10066.800811
967.765248,4293.194464,2987.772442,10584.944971
967.765577,3330.926739,2911.162892,11473.192101
967.765907,2812.782580,2068.457845,11547.212695
967.766236,2812.782580,1915.238745,11251.130318
967.766566,2368.659014,1838.629195,10658.965565
967.766895,1998.556043,1455.581446,9252.574275
967.767224,2220.617826,306.438199,7698.141797
967.767554,2516.700203,-536.266849,7402.059420
967.767883,1998.556043,0.000000,7772.162391
967.768213,1036.288319,766.095498,8290.306550
967.768542,-444.123565,842.705048,9400.615463
967.768872,-1850.514855,459.657299,9548.656652
967.769201,-2516.700203,612.876398,10584.944971
967.769530,-2368.659014,229.828649,11843.295072
967.769860,-2368.659014,-306.438199,11769.274478
967.770189,-2220.617826,153.219100,11325.150913
967.770519,-518.144159,229.828649,10214.842000
967.770848,888.247130,-536.266849,9400.615463
967.771178,2960.823768,459.657299,8660.409521
967.771507,5255.462188,1762.019645,7698.141797
967.771836,7772.162391,2834.553343,7550.100608
967.772166,9696.697840,3677.258390,7772.162391
967.772495,9992.780217,4213.525239,8808.450710
967.772825,7402.059420,5439.278036,9770.718434
967.773154,4441.235652,5669.106685,10955.047942
967.773483,1480.411884,4673.182538,12361.439231
967.773813,-1924.535449,2987.772442,13619.789333
967.774142,-5403.503377,0.000000,13323.706956
967.774472,-8882.471304,-1991.848295,11695.253884
967.774801,-9326.594869,-3447.429741,9474.636058
967.775131,-7328.038826,-3907.087040,6587.832884
967.775460,-3330.926739,-4290.134789,4145.153275
967.775789,2516.700203,-4060.306139,2960.823768
967.776119,6143.709319,-1991.848295,3182.885551
967.776448,6957.935855,2298.286494,4663.297435
967.776778,5699.585753,6511.811733,6883.915261
967.777107,4589.276840,8350.440928,9992.780217
967.777437,2886.803174,8580.269578,14434.015869
967.777766,-592.164754,7354.516781,17320.819043
967.778095,-4885.359217,4596.572988,16654.633695
967.778425,-8068.244768,842.705048,14434.015869
967.778754,-8290.306550,-3753.867940,12361.439231
967.779084,-6439.791695,-6128.763984,10362.883188
967.779413,-1998.556043,-6818.249932,7698.141797
967.779742,2590.720797,-6818.249932,5403.503377
967.780072,5995.668130,-3524.039291,3552.988522
967.780401,8586.388927,306.438199,3627.009116
967.780731,9474.636058,2681.334243,5995.668130
967.781060,8808.450710,6052.154434,9918.759623
967.781390,4589.276840,9269.755526,12805.562797
967.781719,-962.267725,8810.098227,14656.077652
967.782048,-5921.647536,5056.230287,15692.365970
967.782378,-9030.512492,1072.533697,14730.098246
967.782707,-9548.656652,-3064.381992,12583.501014
967.783037,-7031.956449,-6894.859482,9400.615463
967.783366,-4219.173869,-8503.660028,6365.771101
967.783695,-1110.308913,-7048.078582,3701.029710
967.784025,2072.576638,-4060.306139,2220.617826
967.784354,5403.503377,-766.095498,2960.823768
967.784684,7031.956449,2528.115143,7402.059420
967.785013,4737.318029,7354.516781,12287.418637
967.785343,-814.226536,10572.117872,14730.098246
967.785672,-5921.647536,9116.536426,15100.201217
967.786001,-7846.182985,3830.477490,15618.345376
967.786331,-6957.935855,-766.095498,14359.995275
967.786660,-5329.482782,-4903.011187,11695.253884
967.786990,-3256.906145,-7814.174080,6439.791695
967.787319,-222.061783,-8273.831378,2960.823768
967.787649,4219.173869,-6971.469032,2960.823768
967.787978,7402.059420,-3217.601092,5329.482782
967.788307,7328.038826,2757.943793,7920.203579
967.788637,3330.926739,7507.735880,9992.780217
967.788966,-592.164754,11338.213370,12139.377449
967.789296,-2960.823768,11184.994271,14730.098246
967.789625,-4293.194464,7354.516781,14878.139434
967.789954,-4959.379811,1838.629195,13323.706956
967.790284,-5699.585753,-2145.067394,9918.759623
967.790613,-5329.482782,-4060.306139,6513.812290
967.790943,-3701.029710,-6358.592633,5181.441594
967.791272,-1924.535449,-6358.592633,5625.565159
967.791601,-1332.370696,-3064.381992,5995.668130
967.791931,-1110.308913,766.095498,8438.347739
967.792260,-2072.576638,4826.401637,10140.821405
967.792590,-2886.803174,8120.612279,11103.089130
967.792919,-2442.679609,7354.516781,11917.315666
967.793249,-1776.494261,4749.792088,12361.439231
967.793578,-888.247130,2604.724693,11769.274478
967.793907,-148.041188,1455.581446,9844.739029
967.794237,0.000000,-1455.581446,7846.182985
967.794566,1036.288319,-3677.258390,7772.162391
967.794896,1776.494261,-2987.772442,8586.388927
967.795225,1776.494261,-153.219100,8808.450710
967.795554,222.061783,2528.115143,9474.636058
967.795884,-1406.391290,4749.792088,9844.739029
967.796213,-1850.514855,5132.839837,10288.862594
967.796543,-666.185348,4443.353888,10510.924376
967.796872,370.102971,3447.429741,9474.636058
967.797201,1110.308913,1762.019645,8290.306550
967.797531,1110.308913,612.876398,7105.977043
967.797860,814.226536,0.000000,7550.100608
967.798190,296.082377,-842.705048,8956.491898
967.798519,-1406.391290,0.000000,9400.615463
967.798848,-2516.700203,1225.752797,10214.842000
967.799178,-4737.318029,2528.115143,10584.944971
967.799507,-4959.379811,2451.505594,11177.109724
967.799837,-4367.215058,1072.533697,10807.006753
967.800166,-2368.659014,995.924147,9844.739029
967.800496,-296.082377,306.438199,8512.368333
967.800825,1406.391290,0.000000,7402.059420
967.801154,3108.864956,-153.219100,7772.162391
967.801484,4219.173869,-536.266849,8734.430116
967.801813,3552.988522,536.266849,9622.677246
967.802143,2072.576638,2068.457845,10510.924376
967.802472,-1110.308913,2681.334243,11325.150913
967.802801,-2886.803174,2374.896044,12509.480420
967.803131,-3627.009116,1685.410096,12731.542202
967.803460,-2664.741391,383.047749,11843.295072
967.803790,-518.144159,-1455.581446,9252.574275
967.804119,1480.411884,-2451.505594,7179.997637
967.804448,2812.782580,-2604.724693,6217.729913
967.804778,2738.761985,-1685.410096,7105.977043
967.805107,1702.473667,0.000000,8216.285956
967.805437,-1110.308913,2911.162892,9844.739029
967.805766,-5107.421000,4136.915689,10955.047942
967.806095,-7476.080014,3064.381992,12065.356855
967.806425,-7402.059420,1149.143247,12805.562797
967.806754,-6735.874072,-1378.971896,11399.171507
967.807084,-5181.441594,-3907.087040,9400.615463
967.807413,-2960.823768,-4443.353888,7402.059420
967.807743,0.000000,-4213.525239,6883.915261
967.808072,2738.761985,-2604.724693,7402.059420
967.808401,4219.173869,0.000000,8216.285956
967.808731,4145.153275,3294.210641,9696.697840
967.809060,2516.700203,5132.839837,10584.944971
967.809390,592.164754,6052.154434,11843.295072
967.809719,-1258.350101,5439.278036,12065.356855
967.810048,-2368.659014,3600.648841,12139.377449
967.810378,-2664.741391,536.266849,11621.233289
967.810707,-2516.700203,-1608.800546,9252.574275
967.811037,-1850.514855,-2604.724693,7105.977043
967.811366,-740.205942,-3677.258390,6957.935855
967.811695,-296.082377,-2451.505594,7994.224174
967.812025,-814.226536,76.609550,9030.512492
967.812354,-2442.679609,2451.505594,9770.718434
967.812684,-4145.153275,4596.572988,10140.821405
967.813013,-4811.338623,5362.668486,10881.027347
967.813342,-4441.235652,4136.915689,10881.027347
967.813672,-3330.926739,1991.848295,10288.862594
967.814001,-1776.494261,-383.047749,9252.574275
967.814331,-814.226536,-459.657299,7328.038826
967.814660,518.144159,-1149.143247,7105.977043
967.814989,1776.494261,-1149.143247,8068.244768
967.815319,2368.659014,459.657299,9622.677246
967.815648,1406.391290,3294.210641,10881.027347
967.815978,-1110.308913,5669.106685,10955.047942
967.816307,-1628.453072,6511.811733,10658.965565
967.816637,-1110.308913,5132.839837,10658.965565
967.816966,-518.144159,2911.162892,9696.697840
967.817295,0.000000,689.485948,8438.347739
967.817625,1036.288319,-612.876398,6957.935855
967.817954,1628.453072,-842.705048,6587.832884
967.818284,2072.576638,-766.095498,6957.935855
967.818613,2368.659014,-153.219100,8364.327145
967.818942,1406.391290,1302.362347,9474.636058
967.819272,-888.247130,3600.648841,10140.821405
967.819601,-2812.782580,4596.572988,10881.027347
967.819931,-4145.153275,4519.963438,12435.459826
967.820260,-4293.194464,3370.820191,11991.336260
967.820589,-3478.967927,919.314598,10732.986159
967.820919,-2072.576638,-1762.019645,8216.285956
967.821248,296.082377,-2604.724693,7105.977043
967.821578,1702.473667,-2604.724693,7031.956449
967.821907,2368.659014,-1991.848295,7920.203579
967.822236,2368.659014,-536.266849,8882.471304
967.822566,888.247130,2451.505594,10510.924376
967.822895,-592.164754,4290.134789,11769.274478
967.823225,-2368.659014,4749.792088,11843.295072
967.823554,-2664.741391,2987.772442,11473.192101
967.823884,-2072.576638,383.047749,10807.006753
967.824213,-1184.329507,-2451.505594,9844.739029
967.824542,-962.267725,-2681.334243,8586.388927
967.824872,-222.061783,-2604.724693,7550.100608
967.825201,1184.329507,-2911.162892,6957.935855
967.825531,2146.597232,-1991.848295,8438.347739
967.825860,1628.453072,-229.828649,10214.842000
967.826189,-1036.288319,2604.724693,11177.109724
967.826519,-4071.132681,4213.525239,11769.274478
967.826848,-5551.544565,3907.087040,12361.439231
967.827178,-5403.503377,2528.115143,12731.542202
967.827507,-4663.297435,-612.876398,11177.109724
967.827836,-3552.988522,-3677.258390,8290.306550
967.828166,-2294.638420,-4213.525239,6069.688724
967.828495,-296.082377,-3830.477490,5625.565159
967.828825,888.247130,-3753.867940,7402.059420
967.829154,518.144159,-1225.752797,9326.594869
967.829483,-1924.535449,2451.505594,10214.842000
967.829813,-3404.947333,4903.011187,10881.027347
967.830142,-2738.761985,5286.058936,11547.212695
967.830472,-1998.556043,3983.696590,11695.253884
967.830801,-1406.391290,1378.971896,10362.883188
967.831131,-814.226536,-383.047749,8734.430116
967.831460,-370.102971,-383.047749,7254.018232
967.831789,444.123565,-1225.752797,7328.038826
967.832119,1110.308913,-1302.362347,8882.471304
967.832448,148.041188,0.000000,10140.821405
967.832778,-1258.350101,1838.629195,10584.944971
967.833107,-2812.782580,3907.087040,11251.130318
967.833436,-3701.029710,5056.230287,11843.295072
967.833766,-4071.132681,4596.572988,11399.171507
967.834095,-3108.864956,2374.896044,9622.677246
967.834425,-1924.535449,76.609550,8216.285956
967.834754,-592.164754,-536.266849,6735.874072
967.835083,888.247130,-766.095498,6735.874072
967.835413,1776.494261,-766.095498,7846.182985
967.835742,1480.411884,842.705048,9696.697840
967.836072,222.061783,2681.334243,10510.924376
967.836401,-1628.453072,5132.839837,10807.006753
967.836730,-2664.741391,5745.716235,11029.068536
967.837060,-2146.597232,4826.401637,11177.109724
967.837389,-740.205942,3370.820191,10881.027347
967.837719,222.061783,1302.362347,9252.574275
967.838048,1110.308913,153.219100,6365.771101
967.838378,1924.535449,-383.047749,5921.647536
967.838707,2812.782580,-919.314598,7105.977043
967.839036,2960.823768,0.000000,7994.224174
967.839366,1850.514855,1608.800546,9400.615463
967.839695,-592.164754,3600.648841,9696.697840
967.840025,-2590.720797,4903.011187,10214.842000
967.840354,-3034.844362,3524.039291,11547.212695
967.840683,-3034.844362,1991.848295,11991.336260
967.841013,-3182.885551,383.047749,10807.006753
967.841342,-2886.803174,-995.924147,8438.347739
967.841672,-1258.350101,-2528.115143,7105.977043
967.842001,740.205942,-3370.820191,7402.059420
967.842330,2146.597232,-2451.505594,8660.409521
967.842660,1628.453072,-1072.533697,9474.636058
967.842989,296.082377,2068.457845,10510.924376
967.843319,-962.267725,4519.963438,11399.171507
967.843648,-2072.576638,4060.306139,12065.356855
967.843977,-2294.638420,2451.505594,12139.377449
967.844307,-3034.844362,1991.848295,10658.965565
967.844636,-2516.700203,-1455.581446,8882.471304
967.844966,-1924.535449,-2987.772442,7772.162391
967.845295,-1480.411884,-3524.039291,8068.244768
967.845624,-1406.391290,-3064.381992,8438.347739
967.845954,-518.144159,-2604.724693,8882.471304
967.846283,0.000000,-1378.971896,9844.739029
967.846613,-1406.391290,1532.190996,10881.027347
967.846942,-3108.864956,2451.505594,11325.150913
967.847272,-3552.988522,2451.505594,12213.398043
967.847601,-2886.803174,2221.676944,12583.501014
967.847930,-2146.597232,1302.362347,11177.109724
967.848260,-1776.494261,-842.705048,8956.491898
967.848589,-740.205942,-2298.286494,7550.100608
967.848919,1036.288319,-2834.553343,7105.977043
967.849248,1924.535449,-2757.943793,7550.100608
967.849577,1628.453072,-1685.410096,8364.327145
967.849907,-888.247130,1608.800546,9696.697840
967.850236,-3849.070898,4290.134789,10732.986159
967.850566,-4959.379811,4519.963438,11621.233289
967.850895,-4071.132681,4060.306139,11473.192101
967.851224,-2886.803174,2145.067394,9474.636058
967.851554,-2294.638420,-306.438199,7402.059420
967.851883,-1258.350101,-1762.019645,6439.791695
967.852213,-222.061783,-1225.752797,6661.853478
967.852542,296.082377,-1302.362347,7846.182985
967.852871,-370.102971,0.000000,9696.697840
967.853201,-2442.679609,2604.724693,11695.253884
967.853530,-4071.132681,4749.792088,11917.315666
967.853860,-3997.112087,5056.230287,11991.336260
967.854189,-2664.741391,4519.963438,11399.171507
967.854519,-1480.411884,2528.115143,9770.718434
967.854848,0.000000,306.438199,8068.244768
967.855177,1184.329507,-383.047749,7402.059420
967.855507,2146.597232,383.047749,7402.059420
967.855836,2516.700203,459.657299,8290.306550
967.856166,2368.659014,1149.143247,9178.553681
967.856495,1406.391290,2757.943793,9992.780217
967.856824,0.000000,4213.525239,10584.944971
967.857154,-1702.473667,4673.182538,10658.965565
967.857483,-2442.679609,4443.353888,10955.047942
967.857813,-2738.761985,3370.820191,10732.986159
967.858142,-2516.700203,1149.143247,9474.636058
967.858471,-666.185348,-766.095498,7920.203579
967.858801,296.082377,-995.924147,6661.853478
967.859130,1480.411884,-1302.362347,6809.894666
967.859460,1998.556043,-306.438199,7920.203579
967.859789,1258.350101,1072.533697,9252.574275
967.860118,-1406.391290,4060.306139,10436.903782
967.860448,-3627.009116,5745.716235,11103.089130
967.860777,-4219.173869,4443.353888,11325.150913
967.861107,-3404.947333,2374.896044,11103.089130
967.861436,-2294.638420,-153.219100,10140.821405
967.861766,-962.267725,-1915.238745,8438.347739
967.862095,444.123565,-3064.381992,7328.038826
967.862424,1406.391290,-2451.505594,7254.018232
967.862754,1924.535449,-1455.581446,8660.409521
967.863083,2368.659014,-306.438199,10288.862594
967.863413,1036.288319,2221.676944,11251.130318
967.863742,-666.185348,3907.087040,10807.006753
967.864071,-2294.638420,3677.258390,11399.171507
967.864401,-3182.885551,2528.115143,11917.315666
967.864730,-2886.803174,1149.143247,11843.295072
967.865060,-2368.659014,-1532.190996,9992.780217
967.865389,-2220.617826,-2221.676944,7476.080014
967.865718,-444.123565,-3524.039291,6883.915261
967.866048,888.247130,-3294.210641,7550.100608
967.866377,1184.329507,-2298.286494,8660.409521
967.866707,-148.041188,0.000000,9918.759623
967.867036,-2812.782580,2681.334243,10881.027347
967.867365,-4737.318029,3677.258390,12065.356855
967.867695,-5847.626942,3907.087040,13027.624579
967.868024,-5181.441594,2068.457845,12213.398043
967.868354,-3849.070898,-689.485948,9992.780217
967.868683,-1998.556043,-3064.381992,7476.080014
967.869013,222.061783,-3677.258390,5995.668130
967.869342,1036.288319,-3753.867940,6735.874072
967.869671,1554.432478,-2221.676944,8068.244768
967.870001,740.205942,-229.828649,9548.656652
967.870330,-1184.329507,2757.943793,10658.965565
967.870660,-2442.679609,4979.620737,11251.130318
967.870989,-2812.782580,5132.839837,11769.274478
967.871318,-2368.659014,3907.087040,10807.006753
967.871648,-1702.473667,1915.238745,9178.553681
967.871977,-814.226536,-766.095498,7476.080014
967.872307,0.000000,-995.924147,6735.874072
967.872636,592.164754,-842.705048,7179.997637
967.872965,222.061783,-919.314598,8438.347739
967.873295,-296.082377,229.828649,9770.718434
967.873624,-1924.535449,1762.019645,11325.150913
967.873954,-3330.926739,4673.182538,12287.418637
967.874283,-4811.338623,5439.278036,11991.336260
967.874612,-4663.297435,4366.744339,11621.233289
967.874942,-3404.947333,2681.334243,10362.883188
967.875271,-1850.514855,0.000000,8660.409521
967.875601,0.000000,-612.876398,7328.038826
967.875930,1184.329507,-1149.143247,6661.853478
967.876260,2294.638420,-459.657299,7476.080014
967.876589,2294.638420,612.876398,9104.533087
967.876918,1332.370696,2221.676944,9992.780217
967.877248,-296.082377,4673.182538,10362.883188
967.877577,-1184.329507,5209.449386,10807.006753
967.877907,-1480.411884,5209.449386,11251.130318
967.878236,-962.267725,3907.087040,10732.986159
967.878565,0.000000,1225.752797,9030.512492
967.878895,740.205942,-383.047749,7179.997637
967.879224,888.247130,-536.266849,6291.750507
967.879554,1554.432478,-612.876398,7105.977043
967.879883,1850.514855,-153.219100,9104.533087
967.880212,444.123565,1302.362347,10066.800811
967.880542,-2516.700203,3677.258390,10362.883188
967.880871,-4367.215058,4596.572988,10807.006753
967.881201,-4293.194464,3294.210641,11325.150913
967.881530,-3997.112087,1838.629195,11029.068536
967.881859,-3034.844362,-306.438199,10066.800811
967.882189,-1776.494261,-1991.848295,8290.306550
967.882518,296.082377,-2451.505594,6957.935855
967.882848,2368.659014,-2451.505594,7179.997637
967.883177,3330.926739,-1762.019645,8734.430116
967.883506,2368.659014,153.219100,9992.780217
967.883836,-148.041188,2911.162892,10881.027347
967.884165,-2812.782580,4749.792088,11547.212695
967.884495,-4219.173869,4366.744339,12065.356855
967.884824,-4293.194464,1685.410096,12287.418637
967.885154,-3627.009116,-612.876398,11769.274478
967.885483,-2442.679609,-2604.724693,9326.594869
967.885812,-666.185348,-3830.477490,7476.080014
967.886142,666.185348,-3830.477490,7031.956449
967.886471,2516.700203,-2911.162892,7550.100608
967.886801,2368.659014,-766.095498,9030.512492
967.887130,1036.288319,1685.410096,10436.903782
967.887459,-1480.411884,4749.792088,10881.027347
967.887789,-3404.947333,5975.544884,11843.295072
967.888118,-3997.112087,4290.134789,12509.480420
967.888448,-4441.235652,2145.067394,11917.315666
967.888777,-3552.988522,-919.314598,9992.780217
967.889107,-2442.679609,-3064.381992,7920.203579
967.889437,-1184.329507,-4060.306139,6883.915261
967.889766,-148.041188,-3447.429741,7328.038826
967.890096,592.164754,-1762.019645,8734.430116
967.890426,0.000000,0.000000,9030.512492
967.890755,-1554.432478,3370.820191,9696.697840
967.891085,-2886.803174,4749.792088,10288.862594
967.891414,-2812.782580,4060.306139,10362.883188
967.891744,-2368.659014,3217.601092,10732.986159
967.892074,-1776.494261,1378.971896,9252.574275
967.892403,-1036.288319,-766.095498,7624.121203
967.892733,-518.144159,-1149.143247,6661.853478
967.893063,518.144159,-1149.143247,6735.874072
967.893392,1850.514855,-1378.971896,8216.285956
967.893722,1184.329507,-459.657299,9844.739029
967.894052,-888.247130,2604.724693,11473.192101
967.894381,-3627.009116,4979.620737,12953.603985
967.894711,-5255.462188,6205.373534,13027.624579
967.895040,-4441.235652,5286.058936,12065.356855
967.895370,-2294.638420,1915.238745,10288.862594
967.895700,-888.247130,-1455.581446,8438.347739
967.896029,518.144159,-2221.676944,6883.915261
967.896359,1258.350101,-2221.676944,6661.853478
967.896689,1702.473667,-1532.190996,7846.182985
967.897018,1554.432478,76.609550,9474.636058
967.897348,370.102971,2145.067394,10807.006753
967.897677,-1628.453072,4596.572988,11399.171507
967.898007,-2664.741391,5669.106685,11695.253884
967.898337,-2516.700203,4979.620737,11473.192101
967.898666,-1924.535449,2681.334243,10436.903782
967.898996,-592.164754,153.219100,9178.553681
967.899326,74.020594,-1225.752797,7105.977043
967.899655,962.267725,-1455.581446,6661.853478
967.899985,1628.453072,-919.314598,7328.038826
967.900314,1850.514855,0.000000,8290.306550
967.900644,1258.350101,1838.629195,8882.471304
967.900974,-740.205942,3830.477490,9992.780217
967.901303,-2590.720797,4903.011187,10584.944971
967.901633,-3627.009116,4290.134789,10955.047942
967.901963,-3627.009116,2911.162892,10955.047942
967.902292,-3256.906145,1072.533697,9696.697840
967.902622,-1998.556043,-1762.019645,8216.285956
967.902951,-444.123565,-2221.676944,7105.977043
967.903281,1184.329507,-3064.381992,7328.038826
967.903611,2146.597232,-1608.800546,8512.368333
967.903940,1702.473667,306.438199,9622.677246
967.904270,0.000000,2221.676944,10436.903782
967.904600,-1998.556043,4290.134789,11029.068536
967.904929,-2886.803174,4443.353888,11917.315666
967.905259,-2664.741391,3294.210641,12213.398043
967.905588,-2072.576638,1149.143247,11325.150913
967.905918,-1480.411884,-1302.362347,8956.491898
967.906248,-592.164754,-2451.505594,7476.080014
967.906577,370.102971,-2451.505594,7179.997637
967.906907,1036.288319,-1762.019645,7920.203579
967.907237,1184.329507,-842.705048,9548.656652
967.907566,148.041188,689.485948,10288.862594
967.907896,-2220.617826,3753.867940,11029.068536
967.908225,-3627.009116,4060.306139,11991.336260
967.908555,-4071.132681,3294.210641,12509.480420
967.908885,-4145.153275,2298.286494,11621.233289
967.909214,-3701.029710,-153.219100,9474.636058
967.909544,-2146.597232,-2911.162892,8068.244768
967.909874,-222.061783,-3370.820191,7031.956449
967.910203,740.205942,-2681.334243,7698.141797
967.910533,1110.308913,-1991.848295,8808.450710
967.910862,592.164754,-306.438199,8956.491898
967.911192,-592.164754,2451.505594,9030.512492
967.911522,-2146.597232,3677.258390,10362.883188
967.911851,-2368.659014,3907.087040,11325.150913
967.912181,-2368.659014,3830.477490,11177.109724
967.912511,-1850.514855,1378.971896,9178.553681
967.912840,-1110.308913,-1225.752797,7179.997637
967.913170,0.000000,-1838.629195,6069.688724
967.913500,1184.329507,-2221.676944,6883.915261
967.913829,1332.370696,-1991.848295,8364.327145
967.914159,0.000000,-383.047749,9770.718434
967.914488,-1924.535449,2987.772442,11621.233289
967.914818,-4145.153275,4290.134789,13027.624579
967.915148,-5107.421000,4673.182538,13619.789333
967.915477,-4959.379811,3677.258390,12139.377449
967.915807,-3182.885551,612.876398,10362.883188
967.916137,-666.185348,-1838.629195,8808.450710
967.916466,666.185348,-3370.820191,7550.100608
967.916796,1480.411884,-2451.505594,7550.100608
967.917125,2146.597232,-689.485948,8364.327145
967.917455,2368.659014,612.876398,9252.574275
967.917785,1776.494261,2451.505594,10066.800811
967.918114,0.000000,3524.039291,10214.842000
967.918444,-1036.288319,4596.572988,11029.068536
967.918774,-1702.473667,4826.401637,11473.192101
967.919103,-1702.473667,3294.210641,10955.047942
967.919433,-1184.329507,1149.143247,9622.677246
967.919762,-592.164754,-536.266849,7994.224174
967.920092,0.000000,-1302.362347,6883.915261
967.920422,1332.370696,-919.314598,7254.018232
967.920751,1184.329507,0.000000,8438.347739
967.921081,296.082377,1225.752797,9326.594869
967.921411,-2368.659014,3753.867940,9622.677246
967.921740,-3997.112087,5822.325785,10066.800811
967.922070,-4145.153275,4979.620737,10881.027347
967.922399,-2886.803174,2681.334243,10658.965565
967.922729,-1998.556043,689.485948,9326.594869
967.923059,-1628.453072,-1455.581446,7254.018232
967.923388,-962.267725,-1455.581446,6217.729913
967.923718,222.061783,-1685.410096,6587.832884
967.924048,1184.329507,-1532.190996,8438.347739
967.924377,1110.308913,-689.485948,9992.780217
967.924707,-740.205942,2298.286494,11251.130318
967.925036,-2368.659014,4673.182538,12287.418637
967.925366,-2220.617826,4443.353888,12361.439231
967.925696,-1776.494261,2681.334243,11843.295072
967.926025,-740.205942,1685.410096,10881.027347
967.926355,370.102971,-766.095498,9474.636058
967.926685,1184.329507,-1608.800546,8290.306550
967.927014,2294.638420,-842.705048,7328.038826
967.927344,2368.659014,-383.047749,7994.224174
967.927673,2442.679609,-612.876398,9030.512492
967.928003,1184.329507,995.924147,10140.821405
967.928333,-1628.453072,3294.210641,10584.944971
967.928662,-3627.009116,3907.087040,10955.047942
967.928992,-5107.421000,2987.772442,11473.192101
967.929322,-4885.359217,1072.533697,11547.212695
967.929651,-4219.173869,-536.266849,10807.006753
967.929981,-3404.947333,-2681.334243,9030.512492
967.930311,-1998.556043,-3217.601092,7920.203579
967.930640,-296.082377,-2681.334243,7698.141797
967.930970,592.164754,-2221.676944,7994.224174
967.931299,740.205942,-1149.143247,8956.491898
967.931629,-518.144159,1838.629195,9622.677246
967.931959,-1480.411884,4826.401637,10362.883188
967.932288,-1850.514855,4443.353888,10732.986159
967.932618,-1480.411884,2911.162892,10732.986159
967.932948,-962.267725,1455.581446,9474.636058
967.933277,-444.123565,-1225.752797,7402.059420
967.933607,222.061783,-2298.286494,6957.935855
967.933936,1406.391290,-1149.143247,7328.038826
967.934266,1406.391290,-842.705048,8068.244768
967.934596,518.144159,-689.485948,9252.574275
967.934925,-888.247130,1072.533697,10732.986159
967.935255,-3034.844362,3907.087040,11769.274478
967.935585,-4145.153275,4519.963438,11991.336260
967.935914,-4367.215058,3064.381992,11843.295072
967.936244,-3923.091493,995.924147,10732.986159
967.936573,-2738.761985,-1532.190996,9326.594869
967.936903,-1554.432478,-3217.601092,7846.182985
967.937233,0.000000,-2451.505594,8142.265362
967.937562,814.226536,-1225.752797,8808.450710
967.937892,962.267725,-459.657299,9548.656652
967.938222,0.000000,919.314598,9992.780217
967.938551,-962.267725,3447.429741,10584.944971
967.938881,-1554.432478,4366.744339,11177.109724
967.939210,-1702.473667,4060.306139,11473.192101
967.939540,-1110.308913,3447.429741,10584.944971
967.939870,-370.102971,995.924147,9252.574275
967.940199,444.123565,-1302.362347,7920.203579
967.940529,1184.329507,-536.266849,7254.018232
967.940859,2220.617826,0.000000,7624.121203
967.941188,2368.659014,536.266849,9030.512492
967.941518,1184.329507,1685.410096,9548.656652
967.941847,-1184.329507,3983.696590,10140.821405
967.942177,-2960.823768,5056.230287,10510.924376
967.942507,-3627.009116,4290.134789,11103.089130
967.942836,-3627.009116,3524.039291,10510.924376
967.943166,-2812.782580,1455.581446,9326.594869
967.943496,-1332.370696,-1302.362347,7476.080014
967.943825,-444.123565,-2145.067394,6365.771101
967.944155,666.185348,-1532.190996,6513.812290
967.944484,1628.453072,-536.266849,7772.162391
967.944814,1258.350101,536.266849,9326.594869
967.945144,-592.164754,3217.601092,10584.944971
967.945473,-1998.556043,4903.011187,11177.109724
967.945803,-2664.741391,4596.572988,11547.212695
967.946133,-2072.576638,4136.915689,11547.212695
967.946462,-1406.391290,1762.019645,10510.924376
967.946792,-592.164754,-536.266849,9030.512492
967.947121,296.082377,-1378.971896,7550.100608
967.947451,1554.432478,-1302.362347,7402.059420
967.947781,2442.679609,-1532.190996,8142.265362
967.948110,2886.803174,-383.047749,9696.697840
967.948440,1036.288319,1762.019645,10584.944971
967.948770,-1554.432478,4060.306139,11103.089130
967.949099,-3256.906145,4443.353888,11843.295072
967.949429,-3923.091493,2911.162892,12139.377449
967.949759,-3330.926739,1838.629195,12287.418637
967.950088,-3256.906145,-766.095498,10881.027347
967.950418,-2220.617826,-2451.505594,8512.368333
967.950747,-740.205942,-2757.943793,6957.935855
967.951077,1332.370696,-3370.820191,7254.018232
967.951407,2368.659014,-2757.943793,8586.388927
967.951736,666.185348,-306.438199,9770.718434
967.952066,-1850.514855,2911.162892,10288.862594
967.952396,-3404.947333,4290.134789,11103.089130
967.952725,-3552.988522,4366.744339,11251.130318
967.953055,-2886.803174,2911.162892,10362.883188
967.953384,-1628.453072,-689.485948,8808.450710
967.953714,-740.205942,-2528.115143,7328.038826
967.954044,222.061783,-2528.115143,7031.956449
967.954373,74.020594,-1915.238745,7476.080014
967.954703,0.000000,-229.828649,8438.347739
967.955033,0.000000,229.828649,9622.677246
967.955362,-1406.391290,2145.067394,11029.068536
967.955692,-2812.782580,3907.087040,11399.171507
967.956021,-4071.132681,4290.134789,11177.109724
967.956351,-3997.112087,2298.286494,10658.965565
967.956681,-3701.029710,689.485948,10214.842000
967.957010,-2516.700203,-1685.410096,9252.574275
967.957340,-1406.391290,-2528.115143,7994.224174
967.957670,0.000000,-2451.505594,7402.059420
967.957999,1036.288319,-1838.629195,8290.306550
967.958329,1628.453072,0.000000,9252.574275
967.958658,740.205942,1302.362347,10436.903782
967.958988,-1258.350101,3753.867940,10732.986159
967.959318,-2738.761985,5286.058936,11769.274478
967.959647,-3108.864956,4903.011187,12287.418637
967.959977,-2664.741391,2757.943793,11769.274478
967.960307,-1924.535449,689.485948,9844.739029
967.960636,-518.144159,-1302.362347,7846.182985
967.960966,1036.288319,-1608.800546,7031.956449
967.961295,2072.576638,-1225.752797,7476.080014
967.961625,2368.659014,0.000000,8660.409521
967.961955,1628.453072,1608.800546,9622.677246
967.962284,-518.144159,4443.353888,10214.842000
967.962614,-2368.659014,5745.716235,11251.130318
967.962944,-3552.988522,4749.792088,11843.295072
967.963273,-3627.009116,4136.915689,10955.047942
967.963603,-3330.926739,1532.190996,8142.265362
967.963932,-1924.535449,-1225.752797,6957.935855
967.964262,-740.205942,-2528.115143,6291.750507
967.964592,444.123565,-2221.676944,6957.935855
967.964921,1184.329507,-1302.362347,7846.182985
967.965251,1702.473667,-383.047749,8956.491898
967.965581,962.267725,2911.162892,9918.759623
967.965910,-814.226536,4903.011187,10881.027347
967.966240,-1406.391290,4903.011187,11251.130318
967.966570,-1480.411884,5362.668486,10732.986159
967.966899,-592.164754,3064.381992,9918.759623
967.967229,740.205942,306.438199,8438.347739
967.967558,1184.329507,-1225.752797,7105.977043
967.967888,1702.473667,-2068.457845,6957.935855
967.968218,2072.576638,-2068.457845,8290.306550
967.968547,592.164754,-689.485948,9622.677246
967.968877,-1036.288319,1685.410096,10807.006753
967.969207,-3627.009116,3217.601092,11695.253884
967.969536,-4959.379811,4060.306139,12213.398043
967.969866,-4959.379811,3370.820191,12435.459826
967.970195,-3552.988522,1225.752797,11843.295072
967.970525,-2516.700203,-612.876398,10436.903782
967.970855,-1702.473667,-2834.553343,7994.224174
967.971184,-222.061783,-3370.820191,7254.018232
967.971514,1184.329507,-2757.943793,7698.141797
967.971844,1924.535449,-1302.362347,9104.533087
967.972173,1406.391290,306.438199,9918.759623
967.972503,-370.102971,2604.724693,10584.944971
967.972832,-1702.473667,4596.572988,11251.130318
967.973162,-2220.617826,4366.744339,11325.150913
967.973492,-1998.556043,2451.505594,10881.027347
967.973821,-1628.453072,536.266849,9918.759623
967.974151,-1258.350101,-1378.971896,8438.347739
967.974481,-518.144159,-1455.581446,7476.080014
967.974810,148.041188,-1762.019645,7105.977043
967.975140,740.205942,-2374.896044,8068.244768
967.975469,0.000000,-1149.143247,9400.615463
967.975799,-2368.659014,1608.800546,9548.656652
967.976129,-4293.194464,3524.039291,9770.718434
967.976458,-5107.421000,3524.039291,10658.965565
967.976788,-4737.318029,2528.115143,11325.150913
967.977118,-3997.112087,1072.533697,10658.965565
967.977447,-2960.823768,-1225.752797,8956.491898
967.977777,-1332.370696,-2298.286494,7179.997637
967.978106,740.205942,-2374.896044,7105.977043
967.978436,1776.494261,-2068.457845,8068.244768
967.978766,1924.535449,-459.657299,9474.636058
967.979095,444.123565,1991.848295,10584.944971
967.979425,-1258.350101,4213.525239,11399.171507
967.979755,-2664.741391,5209.449386,11621.233289
967.980084,-2442.679609,4673.182538,11843.295072
967.980414,-1628.453072,2068.457845,11251.130318
967.980743,-888.247130,-459.657299,9622.677246
967.981073,-444.123565,-1378.971896,7994.224174
967.981403,148.041188,-1302.362347,7624.121203
967.981732,518.144159,-995.924147,8364.327145
967.982062,740.205942,229.828649,9252.574275
967.982392,0.000000,1225.752797,10140.821405
967.982721,-1924.535449,3830.477490,10436.903782
967.983051,-3627.009116,5209.449386,10140.821405
967.983381,-4367.215058,4290.134789,10955.047942
967.983710,-3701.029710,2604.724693,11103.089130
967.984040,-2664.741391,1378.971896,10807.006753
967.984369,-1702.473667,-383.047749,8808.450710
967.984699,148.041188,-995.924147,7105.977043
967.985029,1850.514855,-1378.971896,6217.729913
967.985358,3108.864956,-1378.971896,7105.977043
967.985688,3182.885551,459.657299,9104.533087
967.986018,518.144159,3753.867940,10214.842000
967.986347,-1702.473667,6818.249932,10510.924376
967.986677,-2812.782580,6128.763984,10658.965565
967.987006,-2294.638420,4213.525239,10658.965565
967.987336,-1036.288319,1608.800546,9400.615463
967.987666,0.000000,-995.924147,7105.977043
967.987995,814.226536,-1762.019645,5847.626942
967.988325,1184.329507,-1532.190996,6809.894666
967.988655,1110.308913,-689.485948,8290.306550
967.988984,370.102971,229.828649,9844.739029
967.989314,-1406.391290,2145.067394,11177.109724
967.989643,-3404.947333,4443.353888,11621.233289
967.989973,-4145.153275,4136.915689,12065.356855
967.990303,-3701.029710,2145.067394,12213.398043
967.990633,-3108.864956,153.219100,11843.295072
967.990962,-2516.700203,-1149.143247,9992.780217
967.991292,-1554.432478,-2068.457845,8216.285956
967.991622,222.061783,-2681.334243,7328.038826
967.991951,1480.411884,-2451.505594,8142.265362
967.992281,2072.576638,-1608.800546,8882.471304
967.992611,2220.617826,153.219100,9622.677246
967.992940,592.164754,2987.772442,10140.821405
967.993270,-1258.350101,4749.792088,10881.027347
967.993600,-2664.741391,3753.867940,11103.089130
967.993929,-2738.761985,2451.505594,11621.233289
967.994259,-2664.741391,383.047749,10658.965565
967.994589,-2368.659014,-1685.410096,9548.656652
967.994918,-1628.453072,-2068.457845,8808.450710
967.995248,-518.144159,-2757.943793,8068.244768
967.995578,0.000000,-2987.772442,8290.306550
967.995907,-444.123565,-1608.800546,9104.533087
967.996237,-1998.556043,919.314598,10066.800811
967.996567,-3552.988522,3064.381992,11029.068536
967.996896,-4293.194464,3677.258390,11325.150913
967.997226,-3923.091493,2451.505594,10658.965565
967.997556,-2812.782580,995.924147,9252.574275
967.997885,-1332.370696,-612.876398,7031.956449
967.998215,370.102971,-2068.457845,5625.565159
967.998545,1924.535449,-2681.334243,5847.626942
967.998874,1850.514855,-1072.533697,7550.100608
967.999204,962.267725,306.438199,9474.636058
967.999533,-740.205942,2298.286494,11103.089130
967.999863,-2590.720797,4366.744339,11473.192101
968.000193,-3478.967927,4979.620737,11917.315666
968.000522,-3108.864956,2987.772442,11843.295072
968.000852,-2294.638420,1532.190996,10732.986159
968.001182,-1406.391290,-229.828649,9252.574275
968.001511,-740.205942,-1149.143247,7476.080014
968.001841,0.000000,-995.924147,7179.997637
968.002171,666.185348,-612.876398,8142.265362
968.002500,740.205942,306.438199,9178.553681
968.002830,-1332.370696,1455.581446,9918.759623
968.003160,-4219.173869,3753.867940,10732.986159
968.003489,-5033.400406,3830.477490,11695.253884
968.003819,-4589.276840,2374.896044,12657.521608
968.004149,-3108.864956,1838.629195,11917.315666
968.004478,-1924.535449,-306.438199,10436.903782
968.004808,-444.123565,-1302.362347,7994.224174
968.005138,1702.473667,-536.266849,7105.977043
968.005467,4071.132681,76.609550,7846.182985
968.005797,5255.462188,383.047749,8734.430116
968.006127,3701.029710,2604.724693,9474.636058
968.006456,1110.308913,4826.401637,9474.636058
968.006786,-1110.308913,5286.058936,10140.821405
968.007116,-2220.617826,4596.572988,11177.109724
968.007445,-2886.803174,3217.601092,10140.821405
968.007775,-2886.803174,689.485948,8438.347739
968.008104,-1776.494261,-1762.019645,7105.977043
968.008434,-888.247130,-2221.676944,5699.585753
968.008764,444.123565,-2145.067394,6069.688724
968.009093,1036.288319,-1072.533697,7920.203579
968.009423,740.205942,306.438199,8956.491898
968.009753,-1628.453072,3753.867940,10807.006753
968.010082,-3256.906145,4903.011187,11917.315666
968.010412,-4071.132681,4749.792088,12731.542202
968.010742,-3627.009116,3370.820191,12361.439231
968.011071,-3034.844362,1072.533697,10658.965565
968.011401,-1776.494261,-1838.629195,8438.347739
968.011731,222.061783,-2757.943793,6957.935855
968.012060,2516.700203,-2834.553343,6513.812290
968.012390,3923.091493,-2221.676944,7402.059420
968.012720,4219.173869,-842.705048,9104.533087
968.013049,2294.638420,2451.505594,9770.718434
968.013379,0.000000,4979.620737,11029.068536
968.013709,-2368.659014,5132.839837,11991.336260
968.014038,-3182.885551,4136.915689,12879.583391
968.014368,-3552.988522,2528.115143,11991.336260
968.014698,-3404.947333,-1072.533697,10066.800811
968.015027,-2664.741391,-3140.991542,8364.327145
968.015357,-1998.556043,-3983.696590,7179.997637
968.015686,-518.144159,-4060.306139,7105.977043
968.016016,296.082377,-3677.258390,8586.388927
968.016346,0.000000,-689.485948,9992.780217
968.016675,-1998.556043,2528.115143,11251.130318
968.017005,-4145.153275,4443.353888,11843.295072
968.017335,-4737.318029,4673.182538,12139.377449
968.017664,-4441.235652,3217.601092,11843.295072
968.017994,-2886.803174,1302.362347,9992.780217
968.018324,-1554.432478,-1762.019645,7550.100608
968.018653,-740.205942,-3447.429741,5921.647536
968.018983,370.102971,-4060.306139,6069.688724
968.019313,1110.308913,-3294.210641,7772.162391
968.019642,1480.411884,-1302.362347,9474.636058
968.019972,-518.144159,1991.848295,9918.759623
968.020302,-2590.720797,4290.134789,10436.903782
968.020631,-3330.926739,5056.230287,11103.089130
968.020961,-2886.803174,3907.087040,11251.130318
968.021291,-2590.720797,2145.067394,10510.924376
968.021620,-2220.617826,459.657299,9030.512492
968.021950,-1776.494261,-1378.971896,7698.141797
968.022280,-518.144159,-2221.676944,7846.182985
968.022609,444.123565,-2068.457845,8512.368333
968.022939,962.267725,-1378.971896,9104.533087
968.023269,222.061783,459.657299,9400.615463
968.023598,-1702.473667,3907.087040,9918.759623
968.023928,-3552.988522,5286.058936,11695.253884
968.024257,-4145.153275,4903.011187,11991.336260
968.024587,-3552.988522,3677.258390,11621.233289
968.024917,-1924.535449,1608.800546,10436.903782
968.025246,-1332.370696,-612.876398,8882.471304
968.025576,-444.123565,-1608.800546,7550.100608
968.025906,1480.411884,-1838.629195,7328.038826
968.026235,2886.803174,-1608.800546,8586.388927
968.026565,2368.659014,383.047749,9918.759623
968.026895,518.144159,3140.991542,10658.965565
968.027224,-1554.432478,5515.887586,11029.068536
968.027554,-2442.679609,5592.497135,10732.986159
968.027884,-1406.391290,4903.011187,10436.903782
968.028213,0.000000,3217.601092,9030.512492
968.028543,592.164754,229.828649,6883.915261
968.028873,1480.411884,-842.705048,4959.379811
968.029202,2146.597232,-1225.752797,6217.729913
968.029532,2220.617826,0.000000,7772.162391
968.029862,1110.308913,1149.143247,9030.512492
968.030191,-888.247130,2451.505594,9918.759623
968.030521,-3108.864956,4366.744339,11251.130318
968.030851,-4441.235652,3677.258390,12361.439231
968.031180,-4737.318029,2604.724693,12805.562797
968.031510,-4293.194464,2298.286494,11695.253884
968.031840,-2664.741391,153.219100,8734.430116
968.032169,-592.164754,-1915.238745,6143.709319
968.032499,2368.659014,-3294.210641,5107.421000
968.032828,3330.926739,-2604.724693,6291.750507
968.033158,3552.988522,-842.705048,8290.306550
968.033488,1332.370696,1762.019645,10584.944971
968.033817,-1554.432478,5056.230287,11843.295072
968.034147,-3627.009116,5669.106685,13101.645173
968.034477,-4145.153275,3600.648841,13175.665768
968.034806,-3775.050304,1608.800546,12509.480420
968.035136,-2590.720797,-995.924147,11325.150913
968.035466,-1480.411884,-2834.553343,8956.491898
968.035795,-1036.288319,-3600.648841,7476.080014
968.036125,222.061783,-3600.648841,7476.080014
968.036455,814.226536,-2451.505594,8512.368333
968.036784,814.226536,-995.924147,9400.615463
968.037114,-1258.350101,2068.457845,9918.759623
968.037444,-3034.844362,4366.744339,10510.924376
968.037773,-4219.173869,4060.306139,11325.150913
968.038103,-3997.112087,2145.067394,11399.171507
968.038433,-3256.906145,383.047749,10140.821405
968.038762,-2294.638420,-1838.629195,8142.265362
968.039092,-1332.370696,-2987.772442,6883.915261
968.039422,74.020594,-3370.820191,6957.935855
968.039751,1628.453072,-2681.334243,8586.388927
968.040081,1998.556043,-1685.410096,10288.862594
968.040411,-222.061783,1149.143247,11251.130318
968.040740,-2960.823768,4826.401637,11473.192101
968.041070,-4737.318029,5439.278036,11103.089130
968.041399,-4145.153275,3907.087040,10066.800811
968.041729,-2960.823768,1072.533697,8956.491898
968.042059,-1850.514855,-1685.410096,7698.141797
968.042388,-888.247130,-2911.162892,6883.915261
968.042718,666.185348,-2911.162892,7550.100608
968.043048,1036.288319,-1685.410096,8438.347739
968.043377,1480.411884,-536.266849,9104.533087
968.043707,962.267725,766.095498,10066.800811
968.044037,148.041188,2068.457845,11917.315666
968.044366,-1480.411884,4290.134789,13693.809927
968.044696,-3108.864956,5745.716235,14285.974681
968.045026,-3034.844362,4596.572988,13397.727550
968.045355,-2146.597232,1991.848295,11325.150913
968.045685,222.061783,-766.095498,8216.285956
968.046015,2516.700203,-2221.676944,5995.668130
968.046344,3997.112087,-2834.553343,5255.462188
968.046674,3923.091493,-1302.362347,6735.874072
968.047004,2368.659014,1072.533697,8882.471304
968.047333,-518.144159,4673.182538,10807.006753
968.047663,-3627.009116,6971.469032,11103.089130
968.047993,-4811.338623,6741.640382,11399.171507
968.048322,-4071.132681,4673.182538,10955.047942
968.048652,-2738.761985,1838.629195,9474.636058
968.048981,-1332.370696,-536.266849,7402.059420
968.049311,-222.061783,-1838.629195,5699.585753
968.049641,592.164754,-1455.581446,5921.647536
968.049970,1406.391290,-306.438199,7402.059420
968.050300,1332.370696,459.657299,9622.677246
968.050630,-296.082377,2451.505594,11325.150913
968.050959,-2664.741391,5669.106685,11621.233289
968.051289,-3478.967927,6665.030833,11695.253884
968.051619,-2664.741391,4749.792088,11695.253884
968.051948,-1554.432478,2911.162892,9696.697840
968.052278,74.020594,459.657299,7031.956449
968.052608,2220.617826,-1685.410096,4885.359217
968.052937,3701.029710,-2068.457845,5329.482782
968.053267,3552.988522,-919.314598,7179.997637
968.053597,1924.535449,-306.438199,9474.636058
968.053926,-666.185348,1915.238745,11547.212695
968.054256,-3552.988522,4596.572988,12509.480420
968.054586,-5107.421000,4903.011187,13397.727550
968.054915,-5255.462188,3370.820191,12879.583391
968.055245,-5033.400406,689.485948,12065.356855
968.055575,-4515.256246,-1838.629195,9622.677246
968.055904,-2738.761985,-3140.991542,7698.141797
968.056234,-592.164754,-3524.039291,6513.812290
968.056564,1258.350101,-3983.696590,6883.915261
968.056893,2220.617826,-2911.162892,8068.244768
968.057223,1332.370696,0.000000,9992.780217
968.057552,-592.164754,2451.505594,11399.171507
968.057882,-2368.659014,4290.134789,12509.480420
968.058212,-3330.926739,4519.963438,12879.583391
968.058541,-3330.926739,2221.676944,12583.501014
968.058871,-2368.659014,-536.266849,11103.089130
968.059201,-1258.350101,-2374.896044,8438.347739
968.059530,296.082377,-2834.553343,6735.874072
968.059860,1850.514855,-3447.429741,6365.771101
968.060190,2368.659014,-2834.553343,7105.977043
968.060519,2072.576638,-1225.752797,8882.471304
968.060849,-296.082377,1149.143247,9992.780217
968.061179,-3330.926739,4136.915689,10436.903782
968.061508,-4737.318029,4596.572988,11177.109724
968.061838,-4737.318029,3753.867940,11177.109724
968.062168,-3775.050304,1225.752797,9622.677246
968.062497,-2738.761985,-1685.410096,7476.080014
968.062827,-1184.329507,-3447.429741,5847.626942
968.063157,148.041188,-3600.648841,6143.709319
968.063486,888.247130,-2604.724693,7624.121203
968.063816,1406.391290,-995.924147,9400.615463
968.064146,148.041188,1762.019645,10510.924376
968.064475,-1702.473667,4596.572988,11473.192101
968.064805,-2368.659014,4519.963438,12805.562797
968.065135,-2368.659014,4060.306139,13841.851115
968.065464,-3108.864956,2911.162892,12435.459826
968.065794,-2220.617826,842.705048,10288.862594
968.066123,-518.144159,-995.924147,8068.244768
968.066453,1554.432478,-1915.238745,7179.997637
968.066783,3256.906145,-2298.286494,7105.977043
968.067112,3775.050304,-842.705048,7846.182985
968.067442,2516.700203,995.924147,8882.471304
968.067772,-370.102971,4213.525239,10732.986159
968.068101,-3330.926739,6511.811733,12213.398043
968.068431,-4737.318029,6818.249932,12435.459826
968.068761,-3997.112087,5132.839837,11103.089130
968.069090,-2664.741391,2604.724693,9178.553681
968.069420,-1036.288319,-766.095498,7105.977043
968.069750,296.082377,-2145.067394,5403.503377
968.070079,1332.370696,-1991.848295,5699.585753
968.070409,1850.514855,-459.657299,7550.100608
968.070739,1036.288319,1915.238745,9030.512492
968.071068,-1110.308913,3907.087040,10288.862594
968.071398,-3108.864956,4979.620737,11399.171507
968.071728,-3627.009116,5592.497135,12139.377449
968.072057,-3330.926739,5209.449386,11769.274478
968.072387,-2294.638420,2451.505594,9992.780217
968.072717,-1110.308913,-689.485948,7476.080014
968.073046,-296.082377,-1378.971896,5551.544565
968.073376,1258.350101,-1685.410096,5255.462188
968.073705,3182.885551,-2298.286494,7105.977043
968.074035,3256.906145,-383.047749,8808.450710
968.074365,740.205942,1685.410096,9918.759623
968.074694,-2664.741391,3983.696590,10955.047942
968.075024,-4589.276840,5209.449386,12361.439231
968.075354,-4589.276840,4290.134789,13027.624579
968.075683,-4441.235652,2451.505594,12065.356855
968.076013,-3182.885551,-153.219100,9696.697840
968.076343,-1702.473667,-2911.162892,7254.018232
968.076672,222.061783,-3983.696590,6661.853478
968.077002,1480.411884,-3064.381992,7105.977043
968.077332,1702.473667,-1838.629195,8882.471304
968.077661,814.226536,-383.047749,10140.821405
968.077991,-1850.514855,2911.162892,11399.171507
968.078321,-3627.009116,3753.867940,13175.665768
968.078650,-4293.194464,3447.429741,13767.830521
968.078980,-4367.215058,2528.115143,13619.789333
968.079310,-3701.029710,459.657299,11029.068536
968.079639,-1628.453072,-2068.457845,9030.512492
968.079969,592.164754,-3677.258390,7179.997637
968.080299,2664.741391,-3907.087040,6957.935855
968.080628,3552.988522,-3140.991542,7550.100608
968.080958,2812.782580,-689.485948,8438.347739
968.081288,814.226536,2451.505594,9844.739029
968.081617,-2072.576638,4979.620737,9918.759623
968.081947,-4367.215058,5592.497135,10140.821405
968.082276,-4959.379811,3983.696590,11103.089130
968.082606,-4367.215058,1378.971896,10436.903782
968.082936,-3478.967927,-1532.190996,8586.388927
968.083265,-2368.659014,-3447.429741,6513.812290
968.083595,-1332.370696,-4443.353888,6439.791695
968.083925,74.020594,-3907.087040,7105.977043
968.084254,1036.288319,-2528.115143,8808.450710
968.084584,740.205942,-153.219100,10658.965565
968.084914,-1332.370696,4366.744339,11473.192101
968.085243,-2812.782580,6052.154434,12213.398043
968.085573,-1850.514855,5362.668486,12139.377449
968.085903,0.000000,3524.039291,11029.068536
968.086232,1184.329507,689.485948,8956.491898
968.086562,2442.679609,-1149.143247,7105.977043
968.086892,2886.803174,-1455.581446,6661.853478
968.087221,3034.844362,-995.924147,8290.306550
968.087551,2960.823768,-766.095498,10362.883188
968.087881,1184.329507,1072.533697,11769.274478
968.088210,-2368.659014,3983.696590,11917.315666
968.088540,-4293.194464,4979.620737,12583.501014
968.088870,-4959.379811,5056.230287,12139.377449
968.089199,-4145.153275,3370.820191,11029.068536
968.089529,-2960.823768,229.828649,9104.533087
968.089859,-2516.700203,-1455.581446,6439.791695
968.090188,-666.185348,-842.705048,5551.544565
968.090518,740.205942,-1378.971896,6217.729913
968.090847,1924.535449,-459.657299,7550.100608
968.091177,1628.453072,1302.362347,8438.347739
968.091507,222.061783,2528.115143,10140.821405
968.091836,-1702.473667,4443.353888,11399.171507
968.092166,-2664.741391,6052.154434,12583.501014
968.092496,-2664.741391,5439.278036,12361.439231
968.092825,-1924.535449,3064.381992,10658.965565
968.093155,-296.082377,536.266849,8660.409521
968.093484,1258.350101,-1532.190996,6513.812290
968.093814,2368.659014,-1991.848295,5625.565159
968.094143,2812.782580,-536.266849,6291.750507
968.094473,2368.659014,0.000000,8438.347739
968.094802,814.226536,1532.190996,10066.800811
968.095132,-2590.720797,4749.792088,10362.883188
968.095461,-5181.441594,5286.058936,11325.150913
968.095791,-5477.523971,4290.134789,11991.336260
968.096120,-4441.235652,2374.896044,11103.089130
968.096450,-3256.906145,-842.705048,9252.574275
968.096779,-2072.576638,-3140.991542,7031.956449
968.097108,-1036.288319,-3217.601092,5699.585753
968.097438,518.144159,-2681.334243,7254.018232
968.097767,1702.473667,-1608.800546,9770.718434
968.098097,518.144159,229.828649,10510.924376
968.098426,-1628.453072,2834.553343,11251.130318
968.098756,-2664.741391,4366.744339,12731.542202
968.099085,-2368.659014,4443.353888,14063.912898
968.099415,-2442.679609,3524.039291,13767.830521
968.099744,-1998.556043,919.314598,11325.150913
968.100074,-444.123565,-1455.581446,8512.368333
968.100403,1258.350101,-2604.724693,6513.812290
968.100733,2664.741391,-3294.210641,7031.956449
968.101062,2516.700203,-2604.724693,8364.327145
968.101392,1480.411884,0.000000,9252.574275
968.101721,-370.102971,1685.410096,10288.862594
968.102051,-3182.885551,3753.867940,11325.150913
968.102380,-4737.318029,4673.182538,11473.192101
968.102710,-4737.318029,3140.991542,10881.027347
968.103039,-3775.050304,689.485948,9326.594869
968.103369,-2812.782580,-1455.581446,7476.080014
968.103698,-1702.473667,-2911.162892,6217.729913
968.104028,-666.185348,-3294.210641,6365.771101
968.104357,-148.041188,-1685.410096,8142.265362
968.104687,-296.082377,-153.219100,9326.594869
968.105016,-814.226536,1685.410096,9622.677246
968.105345,-2294.638420,3370.820191,10362.883188
968.105675,-3182.885551,2604.724693,11399.171507
968.106004,-3108.864956,2834.553343,12287.418637
968.106334,-3034.844362,2451.505594,11843.295072
968.106663,-2146.597232,1072.533697,10140.821405
968.106993,-962.267725,-1302.362347,7846.182985
968.107322,962.267725,-2145.067394,6735.874072
968.107652,3478.967927,-2757.943793,7105.977043
968.107981,4293.194464,-1532.190996,8364.327145
968.108311,3034.844362,766.095498,9770.718434
968.108640,0.000000,3907.087040,11177.109724
968.108970,-2886.803174,5745.716235,11991.336260
968.109299,-3627.009116,5362.668486,11843.295072
968.109629,-2812.782580,3600.648841,11399.171507
968.109958,-2220.617826,842.705048,10066.800811
968.110288,-1332.370696,-1378.971896,8068.244768
968.110617,-592.164754,-2298.286494,6957.935855
968.110947,0.000000,-2528.115143,6883.915261
968.111276,148.041188,-1378.971896,8364.327145
968.111606,370.102971,459.657299,10362.883188
968.111935,-1036.288319,2911.162892,11325.150913
968.112265,-2442.679609,4903.011187,11473.192101
968.112594,-3034.844362,4903.011187,11325.150913
968.112924,-2590.720797,3217.601092,10510.924376
968.113253,-1628.453072,1762.019645,9992.780217
968.113582,-740.205942,383.047749,8734.430116
968.113912,74.020594,-383.047749,6439.791695
968.114241,1628.453072,-1072.533697,5699.585753
968.114571,3182.885551,-995.924147,7179.997637
968.114900,2886.803174,-306.438199,9178.553681
968.115230,518.144159,2298.286494,10732.986159
968.115559,-2368.659014,5209.449386,11547.212695
968.115889,-4441.235652,5975.544884,11991.336260
968.116218,-4737.318029,5056.230287,11103.089130
968.116548,-3552.988522,2374.896044,10140.821405
968.116877,-1776.494261,-612.876398,8068.244768
968.117207,-296.082377,-2068.457845,5995.668130
968.117536,296.082377,-2221.676944,5033.400406
968.117866,1258.350101,-1149.143247,6661.853478
968.118195,1554.432478,-536.266849,8660.409521
968.118525,-666.185348,1532.190996,10362.883188
968.118854,-2590.720797,3677.258390,10955.047942
968.119184,-3775.050304,3524.039291,11991.336260
968.119513,-3849.070898,2528.115143,13767.830521
968.119843,-3701.029710,1302.362347,14211.954086
968.120172,-3701.029710,-153.219100,12657.521608
968.120502,-1998.556043,-1532.190996,9918.759623
968.120831,296.082377,-2145.067394,7698.141797
968.121161,3404.947333,-3140.991542,6883.915261
968.121490,4589.276840,-2068.457845,7179.997637
968.121819,4219.173869,0.000000,7772.162391
968.122149,1702.473667,3370.820191,9178.553681
968.122478,-1850.514855,5132.839837,10658.965565
968.122808,-4515.256246,5286.058936,12435.459826
968.123137,-5625.565159,4596.572988,12805.562797
968.123467,-4737.318029,383.047749,11103.089130
968.123796,-3256.906145,-2911.162892,8956.491898
968.124126,-2368.659014,-4673.182538,7031.956449
968.124455,-1332.370696,-4826.401637,6217.729913
968.124785,0.000000,-3830.477490,7031.956449
968.125114,0.000000,-1838.629195,8438.347739
968.125444,-518.144159,1915.238745,9918.759623
968.125773,-2220.617826,3524.039291,11399.171507
968.126103,-3330.926739,4826.401637,11621.233289
968.126432,-2960.823768,4673.182538,11399.171507
968.126762,-1702.473667,2451.505594,10436.903782
968.127091,-518.144159,76.609550,8808.450710
968.127421,74.020594,-1762.019645,7254.018232
968.127750,814.226536,-2374.896044,6809.894666
968.128080,1850.514855,-2221.676944,7624.121203
968.128409,2368.659014,-1302.362347,9104.533087
968.128739,1480.411884,383.047749,10214.842000
968.129068,-1480.411884,2834.553343,11621.233289
968.129398,-3627.009116,5209.449386,12657.521608
968.129727,-4293.194464,5362.668486,12879.583391
968.130056,-4145.153275,3524.039291,11917.315666
968.130386,-3552.988522,689.485948,9844.739029
968.130715,-2220.617826,-1532.190996,7550.100608
968.131045,-592.164754,-2604.724693,6217.729913
968.131374,1776.494261,-2681.334243,6365.771101
968.131704,2442.679609,-2221.676944,6883.915261
968.132033,1924.535449,-459.657299,7994.224174
968.132363,148.041188,2298.286494,10881.027347
968.132692,-2220.617826,5439.278036,12287.418637
968.133022,-3478.967927,7201.297681,13471.748144
968.133351,-3034.844362,5592.497135,12879.583391
968.133681,-1850.514855,2987.772442,11399.171507
968.134010,-518.144159,-229.828649,9474.636058
968.134340,592.164754,-1378.971896,7105.977043
968.134669,1554.432478,-1072.533697,6365.771101
968.134999,2368.659014,-842.705048,6809.894666
968.135328,2146.597232,-229.828649,8290.306550
968.135658,740.205942,1378.971896,9548.656652
968.135987,-1850.514855,4136.915689,9844.739029
968.136317,-3627.009116,5209.449386,9992.780217
968.136646,-3552.988522,4443.353888,10140.821405
968.136976,-2812.782580,3600.648841,9992.780217
968.137305,-1702.473667,689.485948,8438.347739
968.137635,-1110.308913,-1838.629195,7031.956449
968.137964,222.061783,-1302.362347,6143.709319
968.138293,1110.308913,-919.314598,7105.977043
968.138623,1406.391290,-766.095498,8734.430116
968.138952,296.082377,306.438199,10288.862594
968.139282,-1554.432478,2757.943793,11843.295072
968.139611,-3701.029710,4903.011187,12953.603985
968.139941,-4441.235652,4979.620737,13175.665768
968.140270,-3552.988522,2681.334243,12731.542202
968.140600,-2368.659014,76.609550,10362.883188
968.140929,-1036.288319,-2298.286494,7476.080014
968.141259,1036.288319,-2834.553343,6587.832884
968.141588,2220.617826,-2604.724693,6809.894666
968.141918,2368.659014,-1225.752797,8364.327145
968.142247,1480.411884,-459.657299,9844.739029
968.142577,-370.102971,1991.848295,11251.130318
968.142906,-2812.782580,4290.134789,11695.253884
968.143236,-4219.173869,4519.963438,11917.315666
968.143565,-4071.132681,2757.943793,11843.295072
968.143895,-3034.844362,842.705048,10584.944971
968.144224,-2146.597232,-1532.190996,8660.409521
968.144554,-1184.329507,-2451.505594,6957.935855
968.144883,0.000000,-2374.896044,6883.915261
968.145213,370.102971,-2145.067394,7920.203579
968.145542,518.144159,-1532.190996,9178.553681
968.145872,-740.205942,76.609550,9918.759623
968.146201,-2960.823768,2451.505594,10955.047942
968.146530,-4885.359217,3294.210641,12139.377449
968.146860,-5107.421000,3600.648841,12361.439231
968.147189,-4071.132681,2221.676944,11103.089130
968.147519,-2146.597232,-919.314598,8956.491898
968.147848,370.102971,-2987.772442,6439.791695
968.148178,2294.638420,-2757.943793,5255.462188
968.148507,3108.864956,-1915.238745,6661.853478
968.148837,3256.906145,-536.266849,8660.409521
968.149166,1110.308913,1532.190996,10510.924376
968.149496,-1628.453072,3830.477490,11621.233289
968.149825,-3108.864956,5669.106685,12213.398043
968.150155,-3775.050304,5056.230287,11991.336260
968.150484,-3256.906145,2604.724693,11547.212695
968.150814,-2294.638420,0.000000,9474.636058
968.151143,-1258.350101,-1608.800546,7105.977043
968.151473,0.000000,-2834.553343,6883.915261
968.151802,962.267725,-1532.190996,8364.327145
968.152132,888.247130,153.219100,9104.533087
968.152461,962.267725,612.876398,9622.677246
968.152791,0.000000,2451.505594,10584.944971
968.153120,-2220.617826,4673.182538,11473.192101
968.153450,-3182.885551,4979.620737,11917.315666
968.153779,-3627.009116,3907.087040,12065.356855
968.154109,-3108.864956,2528.115143,10881.027347
968.154438,-1628.453072,0.000000,8882.471304
968.154767,740.205942,-1762.019645,6957.935855
968.155097,3108.864956,-1225.752797,6513.812290
968.155426,3404.947333,-689.485948,7254.018232
968.155756,3404.947333,536.266849,8438.347739
968.156085,1480.411884,3140.991542,10066.800811
968.156415,-1554.432478,5975.544884,11029.068536
968.156744,-3627.009116,6358.592633,11547.212695
968.157074,-4219.173869,5898.935335,11029.068536
968.157403,-3108.864956,2604.724693,9178.553681
968.157733,-1406.391290,-1072.533697,7254.018232
968.158062,-666.185348,-2681.334243,5329.482782
968.158392,148.041188,-2374.896044,5107.421000
968.158721,740.205942,-1762.019645,6735.874072
968.159051,740.205942,-536.266849,9178.553681
968.159380,-888.247130,2221.676944,10732.986159
968.159710,-2664.741391,3753.867940,11917.315666
968.160039,-3849.070898,3983.696590,13323.706956
968.160369,-4737.318029,4826.401637,13619.789333
968.160698,-3923.091493,2528.115143,13175.665768
968.161028,-2294.638420,0.000000,11251.130318
968.161357,-296.082377,-2068.457845,8068.244768
968.161687,962.267725,-2757.943793,5625.565159
968.162016,3034.844362,-3600.648841,5699.585753
968.162346,4293.194464,-1608.800546,7254.018232
968.162675,2368.659014,1378.971896,8438.347739
968.163004,-814.226536,2911.162892,10066.800811
968.163334,-3775.050304,4673.182538,12213.398043
968.163663,-5329.482782,5439.278036,13693.809927
968.163993,-5773.606348,2911.162892,13175.665768
968.164322,-4737.318029,-383.047749,11473.192101
968.164652,-3701.029710,-2528.115143,9030.512492
968.164981,-1924.535449,-4366.744339,7031.956449
968.165311,0.000000,-4903.011187,6883.915261
968.165640,1110.308913,-2604.724693,7772.162391
968.165970,1110.308913,-919.314598,8586.388927
968.166299,-296.082377,1072.533697,9844.739029
968.166629,-1850.514855,3600.648841,10881.027347
968.166958,-3034.844362,4903.011187,11399.171507
968.167288,-2960.823768,3294.210641,11547.212695
968.167617,-2516.700203,2528.115143,11029.068536
968.167947,-2146.597232,306.438199,9696.697840
968.168276,-592.164754,-2374.896044,7476.080014
968.168606,1332.370696,-3217.601092,6365.771101
968.168935,2368.659014,-2451.505594,7105.977043
968.169265,2960.823768,-1302.362347,8808.450710
968.169594,1776.494261,306.438199,10066.800811
968.169924,-1332.370696,3753.867940,11325.150913
968.170253,-3627.009116,4979.620737,12287.418637
968.170583,-4219.173869,4826.401637,12805.562797
968.170912,-3997.112087,3294.210641,11695.253884
968.171241,-2664.741391,229.828649,9326.594869
968.171571,-1406.391290,-2528.115143,6661.853478
968.171900,814.226536,-2681.334243,5403.503377
968.172230,2738.761985,-2451.505594,6587.832884
968.172559,3256.906145,-1225.752797,8586.388927
968.172889,1628.453072,2145.067394,9992.780217
968.173218,-518.144159,4060.306139,11177.109724
968.173548,-2220.617826,5132.839837,12731.542202
968.173877,-3108.864956,6205.373534,13545.768739
968.174207,-3552.988522,5286.058936,13915.871710
968.174536,-2072.576638,2221.676944,11843.295072
968.174866,-1332.370696,-766.095498,8660.409521
968.175195,518.144159,-2068.457845,6735.874072
968.175525,2368.659014,-2911.162892,5921.647536
968.175854,3552.988522,-1608.800546,6957.935855
968.176184,2960.823768,306.438199,7402.059420
968.176513,1184.329507,2681.334243,9178.553681
968.176843,-1406.391290,5132.839837,10214.842000
968.177172,-3182.885551,6588.421283,11621.233289
968.177502,-3923.091493,6205.373534,11695.253884
968.177831,-3330.926739,4213.525239,10066.800811
968.178161,-2812.782580,536.266849,7772.162391
968.178490,-1184.329507,-2221.676944,5625.565159
968.178820,-222.061783,-3370.820191,5551.544565
968.179149,592.164754,-2604.724693,7328.038826
968.179478,444.123565,-536.266849,8734.430116
968.179808,-814.226536,1455.581446,9696.697840
968.180137,-2590.720797,3907.087040,11473.192101
968.180467,-4071.132681,4673.182538,12065.356855
968.180796,-3997.112087,4213.525239,12657.521608
968.181126,-3108.864956,3294.210641,12213.398043
968.181455,-2368.659014,1072.533697,10584.944971
968.181785,-1184.329507,-995.924147,8364.327145
968.182114,444.123565,-2451.505594,6735.874072
968.182444,2368.659014,-3524.039291,6957.935855
968.182773,3256.906145,-2528.115143,8216.285956
968.183103,2812.782580,-383.047749,9696.697840
968.183432,74.020594,2298.286494,10214.842000
968.183762,-2516.700203,3830.477490,11695.253884
968.184091,-3923.091493,4443.353888,13101.645173
968.184421,-4219.173869,3983.696590,13027.624579
968.184750,-3775.050304,1838.629195,10807.006753
968.185080,-2146.597232,-1532.190996,9252.574275
968.185409,-1258.350101,-3294.210641,7254.018232
968.185739,0.000000,-3447.429741,6661.853478
968.186068,1036.288319,-3064.381992,7476.080014
968.186398,740.205942,-1225.752797,8142.265362
968.186727,-370.102971,1532.190996,9770.718434
968.187057,-2368.659014,3217.601092,11103.089130
968.187386,-3627.009116,3370.820191,12139.377449
968.187715,-3849.070898,3447.429741,12287.418637
968.188045,-3775.050304,2298.286494,11473.192101
968.188374,-2294.638420,-306.438199,9104.533087
968.188704,-518.144159,-2068.457845,7179.997637
968.189033,1480.411884,-3140.991542,5995.668130
968.189363,2886.803174,-3140.991542,6661.853478
968.189692,3627.009116,-1455.581446,7994.224174
968.190022,2294.638420,1149.143247,9622.677246
968.190351,74.020594,3907.087040,11399.171507
968.190681,-2886.803174,5286.058936,11473.192101
968.191010,-3627.009116,5209.449386,11695.253884
968.191340,-3182.885551,3370.820191,11843.295072
968.191669,-2590.720797,689.485948,10214.842000
968.191999,-1702.473667,-842.705048,7254.018232
968.192328,-370.102971,-3064.381992,5995.668130
968.192658,1554.432478,-3294.210641,6365.771101
968.192987,1998.556043,-2451.505594,7772.162391
968.193317,740.205942,-536.266849,10066.800811
968.193646,-1554.432478,2451.505594,11325.150913
968.193976,-4219.173869,5132.839837,12879.583391
968.194305,-4737.318029,5822.325785,14137.933492
968.194635,-4071.132681,4749.792088,13841.851115
968.194964,-2516.700203,2298.286494,11769.274478
968.195294,-962.267725,-536.266849,8586.388927
968.195623,592.164754,-2528.115143,6217.729913
968.195953,2220.617826,-1991.848295,5773.606348
968.196282,3478.967927,-1149.143247,7328.038826
968.196612,3108.864956,229.828649,8882.471304
968.196941,1110.308913,3064.381992,9178.553681
968.197271,-962.267725,5592.497135,9474.636058
968.197600,-2294.638420,6281.983084,10066.800811
968.197930,-2146.597232,5515.887586,10732.986159
968.198259,-2220.617826,3370.820191,10436.903782
968.198589,-1924.535449,995.924147,8734.430116
968.198918,-1998.556043,-459.657299,6365.771101
968.199248,-1110.308913,-1762.019645,6291.750507
968.199577,0.000000,-2221.676944,7402.059420
968.199907,222.061783,-1608.800546,9770.718434
968.200237,-814.226536,-689.485948,10807.006753
968.200566,-2812.782580,2757.943793,11547.212695
968.200896,-4293.194464,4519.963438,11695.253884
968.201225,-3775.050304,4136.915689,11325.150913
968.201555,-2146.597232,3447.429741,10362.883188
968.201884,-518.144159,1991.848295,8364.327145
968.202214,1036.288319,0.000000,5921.647536
968.202543,2072.576638,-1838.629195,5625.565159
968.202873,2220.617826,-1685.410096,7920.203579
968.203202,1332.370696,0.000000,10807.006753
968.203532,0.000000,76.609550,11991.336260
968.203861,-1998.556043,1378.971896,12657.521608
968.204191,-3701.029710,3753.867940,12953.603985
968.204520,-4293.194464,2681.334243,13101.645173
968.204850,-3182.885551,1225.752797,12139.377449
968.205179,-1850.514855,306.438199,10436.903782
968.205509,-370.102971,-536.266849,8142.265362
968.205838,814.226536,-1838.629195,5551.544565
968.206168,2072.576638,-2145.067394,4885.359217
968.206497,3034.844362,-1991.848295,6661.853478
968.206827,2442.679609,-995.924147,8882.471304
968.207156,74.020594,2145.067394,10881.027347
968.207486,-3552.988522,4673.182538,11621.233289
968.207815,-5033.400406,4290.134789,12657.521608
968.208145,-5477.523971,2221.676944,13101.645173
968.208474,-4885.359217,1302.362347,12065.356855
968.208804,-3182.885551,-1072.533697,9770.718434
968.209133,-1776.494261,-2757.943793,7031.956449
968.209463,148.041188,-2681.334243,5625.565159
968.209792,1924.535449,-2604.724693,6513.812290
968.210122,2368.659014,-1532.190996,8142.265362
968.210451,1036.288319,995.924147,9474.636058
968.210781,-1924.535449,4136.915689,9918.759623
968.211110,-3552.988522,4596.572988,10288.862594
968.211440,-3256.906145,3217.601092,11029.068536
968.211769,-2368.659014,2374.896044,10584.944971
968.212099,-1184.329507,76.609550,8956.491898
968.212428,-222.061783,-2145.067394,6957.935855
968.212758,814.226536,-1991.848295,6069.688724
968.213087,1184.329507,-2374.896044,7105.977043
968.213417,1702.473667,-1072.533697,9326.594869
968.213746,814.226536,383.047749,11325.150913
968.214076,-1480.411884,3064.381992,12287.418637
968.214405,-3923.091493,4366.744339,13101.645173
968.214735,-4663.297435,3753.867940,13767.830521
968.215064,-3923.091493,2681.334243,13175.665768
968.215394,-2886.803174,919.314598,11251.130318
968.215723,-1480.411884,-1302.362347,8364.327145
968.216053,814.226536,-1838.629195,6291.750507
968.216382,3034.844362,-2451.505594,6217.729913
968.216712,3775.050304,-1302.362347,7772.162391
968.217042,2516.700203,842.705048,9474.636058
968.217371,74.020594,4366.744339,10436.903782
968.217701,-2072.576638,5592.497135,10881.027347
968.218030,-3034.844362,5822.325785,11103.089130
968.218360,-2960.823768,4596.572988,10658.965565
968.218689,-2220.617826,1685.410096,9548.656652
968.219019,-1110.308913,-842.705048,7994.224174
968.219348,-592.164754,-919.314598,6513.812290
968.219678,222.061783,-689.485948,6291.750507
968.220007,962.267725,-1072.533697,6957.935855
968.220337,1628.453072,-229.828649,8586.388927
968.220666,148.041188,1685.410096,10066.800811
968.220996,-2368.659014,4136.915689,11029.068536
968.221325,-4145.153275,5056.230287,11843.295072
968.221655,-4441.235652,4673.182538,12213.398043
968.221984,-3627.009116,2451.505594,11177.109724
968.222314,-2072.576638,229.828649,8734.430116
968.222643,740.205942,-1838.629195,5995.668130
968.222973,2738.761985,-2911.162892,4811.338623
968.223302,3552.988522,-3064.381992,6513.812290
968.223632,3330.926739,-536.266849,8956.491898
968.223961,1332.370696,1838.629195,11843.295072
968.224291,-1702.473667,4903.011187,13323.706956
968.224620,-4515.256246,6358.592633,13101.645173
968.224950,-4959.379811,4519.963438,12953.603985
968.225279,-3997.112087,1302.362347,11621.233289
968.225609,-1998.556043,-1608.800546,9696.697840
968.225938,-888.247130,-2987.772442,7402.059420
968.226268,-222.061783,-3370.820191,5921.647536
968.226597,814.226536,-2604.724693,6661.853478
968.226927,1850.514855,-1685.410096,8068.244768
968.227256,1850.514855,153.219100,9992.780217
968.227586,0.000000,2528.115143,11029.068536
968.227915,-2590.720797,4136.915689,12139.377449
968.228245,-4293.194464,4443.353888,13175.665768
968.228574,-5107.421000,3294.210641,13101.645173
968.228904,-4663.297435,1149.143247,11843.295072
968.229233,-2960.823768,-1455.581446,9474.636058
968.229563,-1258.350101,-2681.334243,7031.956449
968.229892,1184.329507,-3140.991542,5551.544565
968.230222,2886.803174,-3447.429741,6143.709319
968.230551,3478.967927,-1838.629195,7550.100608
968.230881,740.205942,1532.190996,9178.553681
968.231210,-2516.700203,4979.620737,10658.965565
968.231540,-4367.215058,5898.935335,11325.150913
968.231869,-4367.215058,4903.011187,11695.253884
968.232199,-3627.009116,2528.115143,10140.821405
968.232528,-2294.638420,-1072.533697,8364.327145
968.232858,-888.247130,-2987.772442,6587.832884
968.233187,0.000000,-3140.991542,5773.606348
968.233517,740.205942,-2451.505594,6883.915261
968.233847,1480.411884,-2221.676944,9030.512492
968.234176,814.226536,383.047749,10510.924376
968.234506,-1258.350101,3217.601092,12287.418637
968.234835,-3404.947333,4979.620737,13101.645173
968.235165,-3997.112087,4903.011187,13841.851115
968.235494,-3849.070898,2987.772442,13323.706956
968.235824,-2664.741391,1149.143247,11621.233289
968.236153,-1036.288319,-1225.752797,8586.388927
968.236483,814.226536,-2145.067394,6217.729913
968.236812,3034.844362,-2451.505594,5773.606348
968.237142,3923.091493,-2145.067394,7254.018232
968.237471,3330.926739,766.095498,9252.574275
968.237801,814.226536,3294.210641,10584.944971
968.238130,-2664.741391,5515.887586,11769.274478
968.238460,-4441.235652,6665.030833,12213.398043
968.238789,-4737.318029,5286.058936,12213.398043
968.239119,-3034.844362,2145.067394,10288.862594
968.239448,-1628.453072,-1915.238745,8142.265362
968.239778,0.000000,-2298.286494,6735.874072
968.240107,1110.308913,-2068.457845,5921.647536
968.240437,1998.556043,-1838.629195,6661.853478
968.240766,1924.535449,229.828649,8068.244768
968.241096,740.205942,3830.477490,9030.512492
968.241425,-1554.432478,5898.935335,9474.636058
968.241755,-3775.050304,5745.716235,10584.944971
968.242084,-4737.318029,4903.011187,12213.398043
968.242414,-4959.379811,3447.429741,12139.377449
968.242743,-3701.029710,995.924147,10288.862594
968.243073,-2368.659014,-2068.457845,7476.080014
968.243402,-444.123565,-3140.991542,5699.585753
968.243732,2146.597232,-3677.258390,5921.647536
968.244061,3997.112087,-2987.772442,7846.182985
968.244391,3256.906145,919.314598,9548.656652
968.244720,296.082377,5132.839837,10510.924376
968.245050,-2368.659014,6588.421283,11843.295072
968.245379,-3034.844362,6588.421283,12361.439231
968.245709,-2442.679609,4596.572988,11843.295072
968.246038,-1406.391290,1455.581446,9622.677246
968.246368,296.082377,-2451.505594,7994.224174
968.246697,592.164754,-2911.162892,6291.750507
968.247027,1332.370696,-3677.258390,6735.874072
968.247356,1480.411884,-3140.991542,8882.471304
968.247686,148.041188,-1608.800546,10436.903782
968.248015,-2294.638420,1608.800546,11843.295072
968.248345,-3997.112087,3753.867940,12731.542202
968.248674,-4737.318029,3677.258390,13693.809927
968.249004,-4145.153275,2911.162892,13545.768739
968.249333,-3404.947333,1455.581446,11917.315666
968.249663,-1998.556043,-1225.752797,10140.821405
968.249992,-1184.329507,-1838.629195,6883.915261
968.250322,518.144159,-2451.505594,5847.626942
968.250652,2294.638420,-3294.210641,7031.956449
968.250981,2886.803174,-2298.286494,8438.347739
968.251311,1776.494261,766.095498,8882.471304
968.251640,-370.102971,3677.258390,9770.718434
968.251970,-2886.803174,4060.306139,10658.965565
968.252299,-3478.967927,5286.058936,11621.233289
968.252629,-3849.070898,3907.087040,11177.109724
968.252958,-3478.967927,766.095498,9030.512492
968.253288,-2072.576638,-1225.752797,6809.894666
968.253617,296.082377,-3447.429741,5699.585753
968.253947,1184.329507,-4290.134789,6883.915261
968.254276,814.226536,-2604.724693,8438.347739
968.254606,-370.102971,0.000000,9548.656652
968.254935,-1850.514855,2451.505594,11103.089130
968.255265,-3330.926739,3064.381992,13027.624579
968.255594,-4219.173869,4366.744339,14211.954086
968.255924,-4145.153275,3370.820191,12953.603985
968.256253,-2886.803174,1608.800546,10955.047942
968.256583,-1036.288319,-536.266849,8660.409521
968.256912,1110.308913,-1455.581446,6587.832884
968.257242,2812.782580,-2451.505594,6661.853478
968.257571,3330.926739,-1378.971896,7920.203579
968.257901,2442.679609,383.047749,9474.636058
968.258230,444.123565,3447.429741,10584.944971
968.258560,-2368.659014,5822.325785,11473.192101
968.258889,-3997.112087,5439.278036,11843.295072
968.259219,-4071.132681,4749.792088,11695.253884
968.259548,-3108.864956,2604.724693,10510.924376
968.259878,-1924.535449,76.609550,8734.430116
968.260207,-962.267725,-1378.971896,6439.791695
968.260537,-148.041188,-2221.676944,5847.626942
968.260866,1036.288319,-1455.581446,7402.059420
968.261196,1554.432478,0.000000,8956.491898
968.261525,370.102971,2068.457845,9844.739029
968.261855,-2146.597232,3983.696590,9844.739029
968.262184,-3330.926739,4826.401637,10658.965565
968.262514,-3330.926739,4596.572988,11917.315666
968.262843,-2812.782580,3677.258390,11473.192101
968.263173,-2146.597232,1455.581446,9178.553681
968.263502,-296.082377,-306.438199,6365.771101
968.263832,1628.453072,-1532.190996,5477.523971
968.264161,3108.864956,-1915.238745,6883.915261
968.264491,2812.782580,-306.438199,8438.347739
968.264820,1554.432478,1685.410096,9918.759623
968.265150,-1332.370696,4136.915689,11399.171507
968.265479,-3775.050304,5975.544884,11621.233289
968.265809,-4515.256246,4903.011187,11917.315666
968.266138,-3923.091493,2604.724693,11029.068536
968.266468,-2368.659014,536.266849,9252.574275
968.266797,-1258.350101,-2451.505594,7254.018232
968.267127,0.000000,-3753.867940,6143.709319
968.267457,592.164754,-3370.820191,6587.832884
968.267786,1406.391290,-2298.286494,8586.388927
968.268116,962.267725,-153.219100,10510.924376
968.268445,-518.144159,2374.896044,11843.295072
968.268775,-2368.659014,3294.210641,12805.562797
968.269104,-3404.947333,3600.648841,12953.603985
968.269434,-3552.988522,2911.162892,13767.830521
968.269763,-2886.803174,1608.800546,12583.501014
968.270093,-1850.514855,-766.095498,10288.862594
968.270422,-1110.308913,-2145.067394,7476.080014
968.270752,962.267725,-2451.505594,5995.668130
968.271081,3108.864956,-3677.258390,6439.791695
968.271411,3182.885551,-2145.067394,8216.285956
968.271740,1110.308913,842.705048,9474.636058
968.272070,-1998.556043,3753.867940,10510.924376
968.272399,-4441.235652,5209.449386,11325.150913
968.272729,-4737.318029,4903.011187,11991.336260
968.273058,-4663.297435,2604.724693,10955.047942
968.273388,-3478.967927,0.000000,8438.347739
968.273717,-1924.535449,-2757.943793,6291.750507
968.274047,-148.041188,-3600.648841,5699.585753
968.274376,592.164754,-3064.381992,6291.750507
968.274706,518.144159,-1838.629195,8956.491898
968.275035,-740.205942,229.828649,10510.924376
968.275365,-2590.720797,3064.381992,11843.295072
968.275694,-4367.215058,4519.963438,12583.501014
968.276024,-4737.318029,4903.011187,12065.356855
968.276353,-3330.926739,2911.162892,10807.006753
968.276683,-1776.494261,612.876398,9770.718434
968.277012,-370.102971,-995.924147,7772.162391
968.277342,666.185348,-1685.410096,5995.668130
968.277671,2516.700203,-1838.629195,6439.791695
968.278001,2812.782580,-1608.800546,8142.265362
968.278330,2516.700203,842.705048,9918.759623
968.278660,814.226536,2528.115143,11473.192101
968.278989,-1702.473667,4443.353888,12139.377449
968.279319,-3701.029710,5132.839837,12509.480420
968.279648,-3997.112087,4673.182538,12287.418637
968.279978,-2886.803174,2528.115143,10955.047942
968.280307,-1628.453072,536.266849,8364.327145
968.280637,-296.082377,-842.705048,5477.523971
968.280966,814.226536,-1838.629195,4811.338623
968.281296,1924.535449,-1991.848295,7105.977043
968.281625,1258.350101,-229.828649,9622.677246
968.281955,-1258.350101,2528.115143,11325.150913
968.282284,-3701.029710,4519.963438,11769.274478
968.282614,-4663.297435,4596.572988,12805.562797
968.282943,-4071.132681,3294.210641,12509.480420
968.283273,-2220.617826,2221.676944,11177.109724
968.283602,-518.144159,76.609550,9030.512492
968.283932,888.247130,-536.266849,7031.956449
968.284262,2368.659014,-383.047749,5181.441594
968.284591,3849.070898,-1072.533697,5773.606348
968.284921,4663.297435,0.000000,7476.080014
968.285250,2886.803174,2068.457845,8438.347739
968.285580,0.000000,4213.525239,9918.759623
968.285909,-2442.679609,5132.839837,11621.233289
968.286239,-4219.173869,4519.963438,12213.398043
968.286568,-3997.112087,2528.115143,11695.253884
968.286898,-3478.967927,306.438199,9918.759623
968.287227,-2368.659014,-2298.286494,7994.224174
968.287557,-888.247130,-2834.553343,6661.853478
968.287886,-148.041188,-3294.210641,6661.853478
968.288216,666.185348,-2221.676944,8364.327145
968.288545,148.041188,-229.828649,9918.759623
968.288875,-1184.329507,2374.896044,11695.253884
968.289204,-3404.947333,3600.648841,12213.398043
968.289534,-4367.215058,3370.820191,12731.542202
968.289863,-4441.235652,1991.848295,12805.562797
968.290193,-2886.803174,612.876398,11399.171507
968.290522,-1184.329507,-1455.581446,9622.677246
968.290852,592.164754,-2451.505594,7846.182985
968.291181,2146.597232,-2451.505594,7254.018232
968.291511,3256.906145,-2451.505594,7698.141797
968.291840,3256.906145,-1532.190996,8734.430116
968.292170,2220.617826,1915.238745,10807.006753
968.292499,-1184.329507,5056.230287,11325.150913
968.292829,-3849.070898,5132.839837,11621.233289
968.293158,-3775.050304,3600.648841,11843.295072
968.293488,-3330.926739,2374.896044,10658.965565
968.293817,-2664.741391,-536.266849,8438.347739
968.294147,-2072.576638,-2451.505594,6735.874072
968.294477,-1554.432478,-2528.115143,5995.668130
968.294806,-296.082377,-2834.553343,6661.853478
968.295136,148.041188,-1685.410096,8364.327145
968.295465,-296.082377,459.657299,9326.594869
968.295795,-2220.617826,2911.162892,11621.233289
968.296124,-4589.276840,4060.306139,12287.418637
968.296454,-5329.482782,4826.401637,12583.501014
968.296784,-4293.194464,3677.258390,11843.295072
968.297113,-1850.514855,995.924147,9918.759623
968.297443,222.061783,-1532.190996,7179.997637
968.297772,1924.535449,-2068.457845,5551.544565
968.298102,3775.050304,-2221.676944,5773.606348
968.298432,4589.276840,-1149.143247,7698.141797
968.298761,3108.864956,1302.362347,9474.636058
968.299091,1036.288319,3983.696590,11103.089130
968.299420,-1850.514855,5515.887586,11991.336260
968.299750,-3404.947333,5515.887586,12361.439231
968.300080,-3775.050304,4673.182538,12731.542202
968.300409,-3256.906145,1915.238745,11399.171507
968.300739,-2442.679609,-536.266849,8882.471304
968.301068,-1406.391290,-1838.629195,6365.771101
968.301398,-148.041188,-2451.505594,6069.688724
968.301727,1332.370696,-2451.505594,6957.935855
968.302057,1628.453072,-766.095498,8364.327145
968.302387,666.185348,1685.410096,9696.697840
968.302716,-2368.659014,4213.525239,10732.986159
968.303046,-3849.070898,5209.449386,12287.418637
968.303375,-3849.070898,4903.011187,12731.542202
968.303705,-3182.885551,3524.039291,11917.315666
968.304035,-1702.473667,919.314598,10288.862594
968.304364,0.000000,-1455.581446,7402.059420
968.304694,1628.453072,-2221.676944,6217.729913
968.305023,2812.782580,-2221.676944,6661.853478
968.305353,3108.864956,-919.314598,8808.450710
968.305683,2072.576638,1378.971896,9844.739029
968.306012,-370.102971,4213.525239,9992.780217
968.306342,-2812.782580,4979.620737,10288.862594
968.306671,-3701.029710,5056.230287,10881.027347
968.307001,-3108.864956,3370.820191,10584.944971
968.307330,-1998.556043,536.266849,9548.656652
968.307660,-888.247130,-1378.971896,7698.141797
968.307990,-444.123565,-1915.238745,5699.585753
968.308319,222.061783,-2451.505594,6069.688724
968.308649,962.267725,-2451.505594,8512.368333
968.308978,592.164754,-153.219100,10214.842000
968.309308,-1628.453072,1838.629195,11769.274478
968.309638,-3404.947333,3830.477490,11917.315666
968.309967,-4515.256246,3753.867940,12879.583391
968.310297,-4367.215058,2604.724693,12953.603985
968.310626,-2960.823768,1302.362347,11843.295072
968.310956,-1628.453072,-766.095498,9030.512492
968.311285,296.082377,-2834.553343,6439.791695
968.311615,2220.617826,-3064.381992,5995.668130
968.311945,3849.070898,-2757.943793,7698.141797
968.312274,3256.906145,-995.924147,9326.594869
968.312604,1184.329507,1455.581446,10510.924376
968.312933,-1480.411884,3907.087040,11251.130318
968.313263,-3627.009116,5592.497135,11695.253884
968.313593,-4293.194464,3830.477490,12583.501014
968.313922,-3552.988522,1915.238745,10881.027347
968.314252,-2442.679609,-383.047749,8882.471304
968.314581,-1480.411884,-2145.067394,6809.894666
968.314911,-444.123565,-2451.505594,6217.729913
968.315241,0.000000,-2681.334243,7179.997637
968.315570,444.123565,-1455.581446,9104.533087
968.315900,-740.205942,153.219100,10288.862594
968.316229,-2516.700203,2911.162892,11325.150913
968.316559,-3775.050304,4366.744339,12139.377449
968.316888,-4367.215058,3524.039291,11843.295072
968.317218,-4071.132681,3217.601092,10436.903782
968.317548,-2368.659014,919.314598,8882.471304
968.317877,-222.061783,-1302.362347,6957.935855
968.318207,1554.432478,-919.314598,5551.544565
968.318536,2960.823768,-995.924147,6217.729913
968.318866,3404.947333,-612.876398,7772.162391
968.319196,2738.761985,0.000000,9474.636058
968.319525,296.082377,2528.115143,11473.192101
968.319855,-2590.720797,5056.230287,12805.562797
968.320184,-4219.173869,5132.839837,13693.809927
968.320514,-4737.318029,4213.525239,13101.645173
968.320844,-3552.988522,2374.896044,10881.027347
968.321173,-1480.411884,-689.485948,7328.038826
968.321503,296.082377,-2528.115143,4737.318029
968.321832,1628.453072,-2911.162892,4737.318029
968.322162,1850.514855,-1762.019645,7105.977043
968.322491,1406.391290,1072.533697,9696.697840
968.322821,-666.185348,2834.553343,11103.089130
968.323151,-3108.864956,4136.915689,11991.336260
968.323480,-4663.297435,4213.525239,12805.562797
968.323810,-4145.153275,3677.258390,13619.789333
968.324139,-2960.823768,1685.410096,12435.459826
968.324469,-1554.432478,-536.266849,10288.862594
968.324799,0.000000,-1149.143247,7476.080014
968.325128,1776.494261,-2298.286494,5847.626942
968.325458,3997.112087,-2374.896044,6143.709319
968.325787,4737.318029,-612.876398,8216.285956
968.326117,3552.988522,1991.848295,9400.615463
968.326446,592.164754,4366.744339,9844.739029
968.326776,-1998.556043,5362.668486,10881.027347
968.327106,-3256.906145,4749.792088,11103.089130
968.327435,-3256.906145,3600.648841,11621.233289
968.327765,-2960.823768,612.876398,9474.636058
968.328094,-2072.576638,-1302.362347,7402.059420
968.328424,-1036.288319,-2757.943793,6291.750507
968.328754,518.144159,-2987.772442,6735.874072
968.329083,888.247130,-2451.505594,7994.224174
968.329413,518.144159,-536.266849,10066.800811
968.329742,-1702.473667,2681.334243,11473.192101
968.330072,-4441.235652,4596.572988,11769.274478
968.330402,-4959.379811,4519.963438,12435.459826
968.330731,-4293.194464,3370.820191,12435.459826
968.331061,-3034.844362,1838.629195,11177.109724
968.331390,-962.267725,-919.314598,8364.327145
968.331720,666.185348,-3140.991542,6069.688724
968.332049,2368.659014,-3217.601092,5699.585753
968.332379,3552.988522,-1838.629195,6883.915261
968.332709,3478.967927,-536.266849,9178.553681
968.333038,1702.473667,2757.943793,11177.109724
968.333368,-1036.288319,4596.572988,11843.295072
968.333697,-3034.844362,4903.011187,12139.377449
968.334027,-4293.194464,3907.087040,12435.459826
968.334357,-3849.070898,1915.238745,11843.295072
968.334686,-3108.864956,-459.657299,10214.842000
968.335016,-1850.514855,-2374.896044,7624.121203
968.335345,-296.082377,-3064.381992,6069.688724
968.335675,1554.432478,-3983.696590,6513.812290
968.336005,2146.597232,-2068.457845,7994.224174
968.336334,518.144159,689.485948,9030.512492
968.336664,-1628.453072,3140.991542,9992.780217
968.336993,-3627.009116,4290.134789,11473.192101
968.337323,-4589.276840,4673.182538,13101.645173
968.337652,-3923.091493,3524.039291,12879.583391
968.337982,-3034.844362,612.876398,10584.944971
968.338312,-1480.411884,-1685.410096,7920.203579
968.338641,148.041188,-2451.505594,6291.750507
968.338971,2072.576638,-3064.381992,6439.791695
968.339300,2960.823768,-2451.505594,7476.080014
968.339630,1850.514855,229.828649,8438.347739
968.339960,296.082377,2757.943793,10066.800811
968.340289,-2146.597232,4213.525239,11473.192101
968.340619,-3552.988522,4979.620737,12065.356855
968.340948,-3849.070898,4136.915689,11769.274478
968.341278,-2960.823768,2221.676944,10214.842000
968.341607,-1628.453072,-612.876398,8290.306550
968.341937,-444.123565,-2451.505594,6661.853478
968.342267,592.164754,-3447.429741,6809.894666
968.342596,1036.288319,-2298.286494,8364.327145
968.342926,1036.288319,-153.219100,9622.677246
968.343255,-296.082377,1608.800546,11325.150913
968.343585,-2738.761985,4213.525239,11843.295072
968.343915,-4219.173869,5362.668486,12139.377449
968.344244,-3997.112087,4290.134789,12287.418637
968.344574,-2886.803174,2528.115143,10658.965565
968.344903,-2146.597232,153.219100,9252.574275
968.345233,-370.102971,-1455.581446,7402.059420
968.345563,814.226536,-1915.238745,6661.853478
968.345892,2294.638420,-2374.896044,7105.977043
968.346222,2886.803174,-612.876398,8660.409521
968.346551,1776.494261,1685.410096,9844.739029
968.346881,-518.144159,3907.087040,10658.965565
968.347210,-2664.741391,5056.230287,11769.274478
968.347540,-3701.029710,5286.058936,11547.212695
968.347870,-3404.947333,4213.525239,10881.027347
968.348199,-2368.659014,1072.533697,8956.491898
968.348529,-1036.288319,-995.924147,6365.771101
968.348858,74.020594,-2145.067394,5329.482782
968.349188,1554.432478,-2604.724693,6143.709319
968.349518,2072.576638,-1455.581446,8068.244768
968.349847,1184.329507,1072.533697,9400.615463
968.350177,-592.164754,3064.381992,10881.027347
968.350506,-2442.679609,4136.915689,11769.274478
968.350836,-3552.988522,4826.401637,12213.398043
968.351166,-3701.029710,3830.477490,12361.439231
968.351495,-2664.741391,1915.238745,11177.109724
968.351825,-1554.432478,-766.095498,9178.553681
968.352154,-370.102971,-2068.457845,7402.059420
968.352484,592.164754,-2757.943793,6365.771101
968.352813,2146.597232,-2451.505594,6587.832884
968.353143,2960.823768,-1225.752797,8364.327145
968.353473,2294.638420,689.485948,9622.677246
968.353802,-740.205942,3447.429741,11177.109724
968.354132,-3701.029710,4366.744339,11991.336260
968.354461,-4589.276840,4136.915689,13175.665768
968.354791,-4441.235652,3217.601092,13027.624579
968.355121,-3182.885551,995.924147,10955.047942
968.355450,-1480.411884,-2298.286494,7994.224174
968.355780,148.041188,-3753.867940,6217.729913
968.356109,1702.473667,-3753.867940,6661.853478
968.356439,2072.576638,-2451.505594,8438.347739
968.356768,1184.329507,689.485948,9918.759623
968.357098,-1258.350101,4213.525239,10584.944971
968.357428,-3701.029710,4519.963438,11547.212695
968.357757,-4367.215058,4673.182538,11917.315666
968.358087,-3330.926739,3370.820191,11473.192101
968.358416,-2072.576638,1072.533697,9992.780217
968.358746,-888.247130,-1378.971896,7772.162391
968.359076,-370.102971,-2145.067394,6513.812290
968.359405,814.226536,-2911.162892,6883.915261
968.359735,1258.350101,-2757.943793,8364.327145
968.360064,518.144159,-459.657299,9622.677246
968.360394,-1258.350101,1838.629195,10584.944971
968.360724,-2886.803174,3370.820191,11399.171507
968.361053,-3923.091493,4290.134789,11917.315666
968.361383,-3552.988522,3907.087040,11843.295072
968.361712,-2442.679609,2145.067394,9770.718434
968.362042,-1332.370696,-306.438199,7031.956449
968.362371,148.041188,-1072.533697,5181.441594
968.362701,1554.432478,-2068.457845,5255.462188
968.363031,2294.638420,-2068.457845,7179.997637
968.363360,1406.391290,-306.438199,9696.697840
968.363690,-1036.288319,2298.286494,11843.295072
968.364019,-3775.050304,3907.087040,12953.603985
968.364349,-4959.379811,4060.306139,13989.892304
968.364679,-4811.338623,2604.724693,14063.912898
968.365008,-3923.091493,1608.800546,12583.501014
968.365338,-1702.473667,-229.828649,10214.842000
968.365667,370.102971,-1455.581446,7624.121203
968.365997,1924.535449,-1991.848295,5403.503377
968.366327,3478.967927,-1608.800546,5847.626942
968.366656,4737.318029,0.000000,7328.038826
968.366986,3997.112087,1991.848295,8512.368333
968.367315,1628.453072,4596.572988,9400.615463
968.367645,-1406.391290,5515.887586,10584.944971
968.367974,-2886.803174,5439.278036,11843.295072
968.368304,-3256.906145,4366.744339,12213.398043
968.368634,-3182.885551,1991.848295,11251.130318
968.368963,-2442.679609,-229.828649,8882.471304
968.369293,-1776.494261,-1762.019645,6883.915261
968.369622,-592.164754,-2757.943793,6587.832884
968.369952,444.123565,-1991.848295,7846.182985
968.370282,666.185348,0.000000,9474.636058
968.370611,-888.247130,2374.896044,10288.862594
968.370941,-3034.844362,4443.353888,10807.006753
968.371270,-4367.215058,4903.011187,11547.212695
968.371600,-3701.029710,3983.696590,11325.150913
968.371929,-2072.576638,2834.553343,10288.862594
968.372259,-666.185348,0.000000,7994.224174
968.372589,1258.350101,-1915.238745,5921.647536
968.372918,2738.761985,-2068.457845,6143.709319
968.373248,3404.947333,-1685.410096,7624.121203
968.373577,2886.803174,-306.438199,9696.697840
968.373907,444.123565,1991.848295,11399.171507
968.374237,-2664.741391,4443.353888,12213.398043
968.374566,-4071.132681,5209.449386,12953.603985
968.374896,-4441.235652,3370.820191,12435.459826
968.375225,-3627.009116,1532.190996,11103.089130
968.375555,-2960.823768,-842.705048,8734.430116
968.375885,-2220.617826,-2451.505594,6143.709319
968.376214,-444.123565,-2528.115143,5477.523971
968.376544,518.144159,-2528.115143,7105.977043
968.376873,962.267725,-1532.190996,8734.430116
968.377203,0.000000,536.266849,9696.697840
968.377532,-2368.659014,2221.676944,10807.006753
968.377862,-4219.173869,2987.772442,11917.315666
968.378192,-5255.462188,3600.648841,12805.562797
968.378521,-4737.318029,2528.115143,12731.542202
968.378851,-3627.009116,153.219100,11473.192101
968.379180,-2072.576638,-1685.410096,9474.636058
968.379510,-296.082377,-2681.334243,6587.832884
968.379840,1554.432478,-2834.553343,6217.729913
968.380169,2664.741391,-2451.505594,7920.203579
968.380499,2072.576638,383.047749,9178.553681
968.380828,-740.205942,3064.381992,10214.842000
968.381158,-3701.029710,4136.915689,11251.130318
968.381488,-5181.441594,5362.668486,11991.336260
968.381817,-6143.709319,4673.182538,11473.192101
968.382147,-5181.441594,1608.800546,9918.759623
968.382476,-3108.864956,-1378.971896,7994.224174
968.382806,-1924.535449,-3447.429741,6143.709319
968.383135,-1480.411884,-3140.991542,5921.647536
968.383465,-592.164754,-2604.724693,6957.935855
968.383795,0.000000,-306.438199,9252.574275
968.384124,-1110.308913,2604.724693,10732.986159
968.384454,-3552.988522,4366.744339,11325.150913
968.384783,-5477.523971,5056.230287,11991.336260
968.385113,-6291.750507,4136.915689,13101.645173
968.385443,-6439.791695,2834.553343,13619.789333
968.385772,-5847.626942,1378.971896,11843.295072
968.386102,-3997.112087,-842.705048,8956.491898
968.386431,-1554.432478,-3294.210641,6587.832884
968.386761,666.185348,-3524.039291,5625.565159
968.387090,1628.453072,-2145.067394,6365.771101
968.387420,2590.720797,1072.533697,7846.182985
968.387750,1110.308913,4596.572988,9474.636058
968.388079,-2072.576638,6281.983084,10955.047942
968.388409,-5329.482782,6665.030833,11843.295072
968.388738,-7254.018232,4903.011187,12805.562797
968.389068,-8586.388927,3983.696590,12065.356855
968.389398,-8068.244768,1455.581446,10140.821405
968.389727,-5921.647536,-2221.676944,7698.141797
968.390057,-3701.029710,-4596.572988,5773.606348
968.390386,-1998.556043,-4596.572988,4441.235652
968.390716,-962.267725,-2068.457845,5181.441594
968.391046,0.000000,2221.676944,6883.915261
968.391375,-370.102971,5362.668486,8882.471304
968.391705,-1702.473667,7124.688131,11177.109724
968.392034,-3701.029710,7277.907231,12583.501014
968.392364,-6513.812290,5515.887586,13101.645173
968.392694,-8956.491898,3370.820191,12805.562797
968.393023,-10214.842000,76.609550,12287.418637
968.393353,-10140.821405,-2911.162892,11695.253884
968.393682,-8882.471304,-5515.887586,9992.780217
968.394012,-6365.771101,-5822.325785,7105.977043
968.394342,-2294.638420,-4903.011187,5033.400406
968.394671,1924.535449,-1915.238745,5033.400406
968.395001,4219.173869,1685.410096,6513.812290
968.395331,3923.091493,4979.620737,8438.347739
968.395660,2294.638420,8503.660028,10140.821405
968.395990,-296.082377,9193.145976,12657.521608
968.396320,-3701.029710,7890.783629,13397.727550
968.396649,-7105.977043,2987.772442,13841.851115
968.396979,-9548.656652,-1072.533697,13101.645173
968.397308,-11177.109724,-5439.278036,12065.356855
968.397638,-11769.274478,-7584.345430,10510.924376
968.397968,-10436.903782,-6894.859482,8586.388927
968.398297,-7920.203579,-5592.497135,6513.812290
968.398627,-4219.173869,-3524.039291,5477.523971
968.398957,-592.164754,-153.219100,5847.626942
968.399286,1184.329507,3217.601092,7179.997637
968.399616,1110.308913,7354.516781,8586.388927
968.399946,-518.144159,8273.831378,10288.862594
968.400275,-3108.864956,7124.688131,11843.295072
968.400605,-5181.441594,3600.648841,12065.356855
968.400934,-7179.997637,766.095498,11251.130318
968.401264,-7920.203579,-2528.115143,10066.800811
968.401594,-7179.997637,-5362.668486,9104.533087
968.401923,-5255.462188,-5669.106685,8734.430116
968.402253,-3108.864956,-3600.648841,7920.203579
968.402583,-1184.329507,-842.705048,6365.771101
968.402912,1036.288319,1378.971896,7254.018232
968.403242,1702.473667,4136.915689,9474.636058
968.403572,1258.350101,7048.078582,11103.089130
968.403901,-666.185348,7660.954980,11769.274478
968.404231,-3627.009116,4903.011187,12213.398043
968.404561,-5847.626942,1838.629195,13397.727550
968.404890,-8290.306550,995.924147,13249.686362
968.405220,-9770.718434,-919.314598,10214.842000
968.405549,-8290.306550,-4519.963438,6735.874072
968.405879,-4737.318029,-5898.935335,5181.441594
968.406209,-1776.494261,-3983.696590,4737.318029
968.406538,-222.061783,-459.657299,6069.688724
968.406868,-296.082377,2451.505594,7328.038826
968.407198,-1702.473667,6435.202183,8882.471304
968.407527,-2442.679609,9269.755526,10955.047942
968.407857,-3108.864956,8580.269578,12509.480420
968.408187,-4811.338623,5362.668486,13323.706956
968.408516,-5921.647536,2451.505594,12879.583391
968.408846,-6291.750507,306.438199,11991.336260
968.409175,-6587.832884,-1685.410096,10732.986159
968.409505,-5921.647536,-2757.943793,8808.450710
968.409835,-4885.359217,-2451.505594,7476.080014
968.410164,-2738.761985,0.000000,6587.832884
968.410494,-222.061783,2068.457845,6365.771101
968.410824,1036.288319,3830.477490,7254.018232
968.411153,592.164754,6358.592633,8068.244768
968.411483,-888.247130,6511.811733,8734.430116
968.411813,-2812.782580,6205.373534,10214.842000
968.412142,-4441.235652,4519.963438,11325.150913
968.412472,-5329.482782,2451.505594,11399.171507
968.412801,-5847.626942,459.657299,10510.924376
968.413131,-5329.482782,-1532.190996,9104.533087
968.413461,-3997.112087,-1915.238745,8438.347739
968.413790,-2368.659014,-1072.533697,8216.285956
968.414120,-2072.576638,1685.410096,8216.285956
968.414450,-1850.514855,4136.915689,9030.512492
968.414779,-1702.473667,4826.401637,9844.739029
968.415109,-1406.391290,6205.373534,10658.965565
968.415439,-1554.432478,6588.421283,11029.068536
968.415768,-1924.535449,5132.839837,10955.047942
968.416098,-1924.535449,2911.162892,10732.986159
968.416428,-740.205942,1608.800546,9770.718434
968.416757,-222.061783,766.095498,9400.615463
968.417087,-592.164754,1072.533697,8660.409521
968.417416,-592.164754,1915.238745,8808.450710
968.417746,370.102971,3140.991542,9622.677246
968.418076,296.082377,5822.325785,10362.883188
968.418405,-222.061783,7201.297681,11177.109724
968.418735,-1850.514855,7660.954980,10807.006753
968.419065,-2664.741391,7048.078582,10214.842000
968.419394,-3478.967927,5975.544884,9252.574275
968.419724,-3701.029710,4060.306139,8438.347739
968.420054,-2664.741391,2451.505594,7105.977043
968.420383,-1998.556043,995.924147,5773.606348
968.420713,-1110.308913,0.000000,6217.729913
968.421042,-1406.391290,842.705048,7031.956449
968.421372,-1480.411884,2604.724693,7994.224174
968.421702,-1998.556043,5286.058936,8882.471304
968.422031,-2368.659014,7048.078582,10214.842000
968.422361,-2072.576638,7507.735880,11177.109724
968.422691,-1628.453072,6894.859482,11029.068536
968.423020,-814.226536,5592.497135,10584.944971
968.423350,-296.082377,4443.353888,10362.883188
968.423680,-296.082377,3753.867940,9844.739029
968.424009,-740.205942,3064.381992,9252.574275
968.424339,-740.205942,2834.553343,9030.512492
968.424668,-370.102971,3140.991542,8734.430116
968.424998,814.226536,3294.210641,9030.512492
968.425328,1628.453072,3753.867940,9104.533087
968.425657,518.144159,4060.306139,9622.677246
968.425987,-1332.370696,5439.278036,10214.842000
968.426317,-2072.576638,5745.716235,11029.068536
968.426646,-2072.576638,5439.278036,11769.274478
968.426976,-2294.638420,4213.525239,11473.192101
968.427306,-2072.576638,4060.306139,10066.800811
968.427635,-1998.556043,3447.429741,9770.718434
968.427965,-1776.494261,3524.039291,9622.677246
968.428295,-1184.329507,4596.572988,9326.594869
968.428624,-148.041188,5056.230287,8364.327145
968.428954,296.082377,4443.353888,6661.853478
968.429283,1036.288319,2987.772442,6069.688724
968.429613,740.205942,2451.505594,6217.729913
968.429943,-148.041188,2068.457845,7550.100608
968.430272,-1776.494261,2298.286494,8882.471304
968.430602,-3256.906145,2987.772442,10140.821405
968.430932,-3182.885551,3064.381992,11029.068536
968.431261,-2516.700203,3524.039291,11769.274478
968.431591,-1850.514855,4213.525239,11695.253884
968.431921,-1036.288319,4903.011187,10658.965565
968.432250,-148.041188,5745.716235,10214.842000
968.432580,518.144159,5822.325785,9918.759623
968.432909,814.226536,5592.497135,9030.512492
968.433239,148.041188,5056.230287,7920.203579
968.433569,-518.144159,4136.915689,6735.874072
968.433898,-888.247130,2298.286494,6365.771101
968.434228,-1184.329507,536.266849,6291.750507
968.434558,-1776.494261,-306.438199,7476.080014
968.434887,-2590.720797,-689.485948,9178.553681
968.435217,-3034.844362,76.609550,10658.965565
968.435547,-2886.803174,1915.238745,12435.459826
968.435876,-2442.679609,3983.696590,13915.871710
968.436206,-1628.453072,5669.106685,13915.871710
968.436535,-888.247130,6281.983084,13027.624579
968.436865,74.020594,6588.421283,12213.398043
968.437195,740.205942,6358.592633,11177.109724
968.437524,666.185348,6128.763984,10140.821405
968.437854,-444.123565,4213.525239,8216.285956
968.438184,-962.267725,2298.286494,7031.956449
968.438513,-1776.494261,995.924147,6587.832884
968.438843,-2220.617826,1225.752797,7031.956449
968.439173,-1924.535449,995.924147,7254.018232
968.439502,-1332.370696,612.876398,6735.874072
968.439832,-296.082377,1225.752797,7772.162391
968.440162,296.082377,1915.238745,9178.553681
968.440491,0.000000,3983.696590,10658.965565
968.440821,-592.164754,6205.373534,11621.233289
968.441150,-1332.370696,7277.907231,11547.212695
968.441480,-814.226536,6052.154434,11399.171507
968.441810,-1184.329507,5592.497135,11547.212695
968.442139,-1998.556043,5132.839837,10436.903782
968.442469,-2294.638420,3907.087040,7772.162391
968.442799,-1776.494261,3064.381992,5477.523971
968.443128,0.000000,459.657299,4737.318029
968.443458,1036.288319,0.000000,5329.482782
968.443788,1258.350101,229.828649,5995.668130
968.444117,592.164754,612.876398,7105.977043
968.444447,-888.247130,1532.190996,9622.677246
968.444776,-2738.761985,3064.381992,12065.356855
968.445106,-4663.297435,4290.134789,14656.077652
968.445436,-4959.379811,3907.087040,16358.551318
968.445765,-5107.421000,4060.306139,15470.304188
968.446095,-4737.318029,3064.381992,13027.624579
968.446425,-3552.988522,1225.752797,9622.677246
968.446754,-814.226536,-306.438199,6513.812290
968.447084,2294.638420,-1225.752797,4293.194464
968.447414,5181.441594,-1072.533697,3701.029710
968.447743,6143.709319,0.000000,4293.194464
968.448073,5181.441594,612.876398,6883.915261
968.448402,2072.576638,2145.067394,9474.636058
968.448732,-1850.514855,4290.134789,12953.603985
968.449062,-4367.215058,5132.839837,16580.613101
968.449391,-5847.626942,3677.258390,17987.004391
968.449721,-7105.977043,2681.334243,16062.468941
968.450051,-7031.956449,536.266849,11399.171507
968.450380,-3849.070898,-2911.162892,7698.141797
968.450710,-296.082377,-4443.353888,4515.256246
968.451040,2072.576638,-3677.258390,3182.885551
968.451369,3108.864956,-2145.067394,3108.864956
968.451699,3108.864956,-229.828649,4071.132681
968.452028,2072.576638,1685.410096,6439.791695
968.452358,74.020594,3677.258390,10436.903782
968.452688,-2812.782580,4213.525239,13915.871710
968.453017,-4885.359217,4290.134789,16210.510130
968.453347,-5773.606348,3217.601092,16580.613101
968.453677,-5551.544565,1455.581446,14804.118840
968.454006,-3034.844362,-1455.581446,11769.274478
968.454336,-222.061783,-4290.134789,7772.162391
968.454666,1998.556043,-4519.963438,5329.482782
968.454995,3182.885551,-2451.505594,4367.215058
968.455325,3849.070898,383.047749,4441.235652
968.455655,3478.967927,1225.752797,5847.626942
968.455984,1258.350101,3217.601092,7846.182985
968.456314,-1554.432478,4673.182538,10288.862594
968.456643,-3182.885551,3600.648841,12435.459826
968.456973,-3923.091493,2068.457845,13027.624579
968.457303,-3330.926739,229.828649,12953.603985
968.457632,-2442.679609,-1532.190996,11843.295072
968.457962,-1184.329507,-2374.896044,10288.862594
968.458292,0.000000,-2451.505594,8586.388927
968.458621,222.061783,-919.314598,7328.038826
968.458951,-370.102971,995.924147,7624.121203
968.459281,-148.041188,2451.505594,9696.697840
968.459610,-1184.329507,3294.210641,10658.965565
968.459940,-3404.947333,4366.744339,10140.821405
968.460269,-3849.070898,3600.648841,9548.656652
968.460599,-2960.823768,919.314598,9918.759623
968.460929,-962.267725,0.000000,10510.924376
968.461258,0.000000,229.828649,10362.883188
968.461588,814.226536,842.705048,9622.677246
968.461918,1184.329507,1685.410096,8882.471304
968.462247,962.267725,1915.238745,8438.347739
968.462577,666.185348,2681.334243,9474.636058
968.462907,0.000000,3830.477490,10214.842000
968.463236,-1258.350101,4136.915689,9474.636058
968.463566,-2516.700203,3064.381992,8364.327145
968.463895,-2960.823768,1455.581446,7698.141797
968.464225,-1776.494261,306.438199,7920.203579
968.464555,-740.205942,0.000000,8808.450710
968.464884,-148.041188,612.876398,8808.450710
968.465214,-296.082377,1685.410096,8586.388927
968.465544,-518.144159,1762.019645,9400.615463
968.465873,-962.267725,2298.286494,11251.130318
968.466203,-2368.659014,3983.696590,11991.336260
968.466533,-3108.864956,4979.620737,11473.192101
968.466862,-3404.947333,3677.258390,9622.677246
968.467192,-2442.679609,919.314598,8142.265362
968.467522,-1110.308913,-1302.362347,7476.080014
968.467851,592.164754,-1838.629195,7402.059420
968.468181,1258.350101,-1225.752797,7105.977043
968.468510,1110.308913,459.657299,7476.080014
968.468840,962.267725,842.705048,8808.450710
968.469170,444.123565,1455.581446,10955.047942
968.469499,-666.185348,2451.505594,12509.480420
968.469829,-1998.556043,3830.477490,12805.562797
968.470159,-2590.720797,3064.381992,11917.315666
968.470488,-2442.679609,1302.362347,10584.944971
968.470818,-1776.494261,-919.314598,8808.450710
968.471148,296.082377,-2757.943793,7624.121203
968.471477,1110.308913,-2987.772442,7031.956449
968.471807,888.247130,-1838.629195,6809.894666
968.472136,-370.102971,-383.047749,7772.162391
968.472466,-592.164754,229.828649,9992.780217
968.472796,-1554.432478,1072.533697,11695.253884
968.473125,-3330.926739,2068.457845,12361.439231
968.473455,-3923.091493,2221.676944,12731.542202
968.473785,-4515.256246,1302.362347,12213.398043
968.474114,-4071.132681,-306.438199,10732.986159
968.474444,-1850.514855,-1838.629195,8956.491898
968.474774,518.144159,-3370.820191,7994.224174
968.475103,1776.494261,-2221.676944,7772.162391
968.475433,1258.350101,-229.828649,7254.018232
968.475762,1184.329507,0.000000,7402.059420
968.476092,1184.329507,536.266849,8734.430116
968.476422,518.144159,2221.676944,10955.047942
968.476751,-1332.370696,3830.477490,11843.295072
968.477081,-2368.659014,2528.115143,11695.253884
968.477411,-2664.741391,612.876398,10732.986159
968.477740,-1850.514855,-842.705048,9696.697840
968.478070,-148.041188,-2987.772442,8586.388927
968.478400,296.082377,-2604.724693,8438.347739
968.478729,-222.061783,-536.266849,8216.285956
968.479059,-740.205942,919.314598,7846.182985
968.479389,0.000000,919.314598,8734.430116
968.479718,-74.020594,1762.019645,10140.821405
968.480048,-1184.329507,3064.381992,10658.965565
968.480377,-3182.885551,3294.210641,10955.047942
968.480707,-3404.947333,2528.115143,10140.821405
968.481037,-2442.679609,766.095498,9178.553681
968.481366,-740.205942,-766.095498,8956.491898
968.481696,444.123565,-1072.533697,9178.553681
968.482026,666.185348,842.705048,9696.697840
968.482355,370.102971,1302.362347,8586.388927
968.482685,518.144159,919.314598,8586.388927
968.483015,74.020594,2145.067394,10288.862594
968.483344,-740.205942,3753.867940,11547.212695
968.483674,-2220.617826,4519.963438,11251.130318
968.484003,-2886.803174,3140.991542,9326.594869
968.484333,-2294.638420,1762.019645,7698.141797
968.484663,-666.185348,0.000000,7105.977043
968.484992,888.247130,-1149.143247,7698.141797
968.485322,814.226536,229.828649,7698.141797
968.485652,0.000000,2298.286494,7476.080014
968.485981,-962.267725,2145.067394,7846.182985
968.486311,-1554.432478,1838.629195,10066.800811
968.486641,-2146.597232,3294.210641,12509.480420
968.486970,-3256.906145,4060.306139,12139.377449
968.487300,-3923.091493,3753.867940,10807.006753
968.487629,-3775.050304,1532.190996,9030.512492
968.487959,-2368.659014,-766.095498,7920.203579
968.488289,0.000000,-1762.019645,8142.265362
968.488618,1406.391290,-612.876398,8364.327145
968.488948,1480.411884,1455.581446,7846.182985
968.489278,592.164754,1991.848295,7846.182985
968.489607,666.185348,1302.362347,9474.636058
968.489937,-370.102971,1915.238745,11325.150913
968.490267,-1110.308913,3217.601092,11695.253884
968.490596,-2220.617826,2298.286494,10732.986159
968.490926,-2368.659014,842.705048,9474.636058
968.491256,-1998.556043,-1838.629195,8956.491898
968.491585,-740.205942,-3830.477490,8956.491898
968.491915,-222.061783,-2681.334243,8512.368333
968.492244,222.061783,-459.657299,8808.450710
968.492574,0.000000,229.828649,8882.471304
968.492904,0.000000,-612.876398,9622.677246
968.493233,-222.061783,-306.438199,11177.109724
968.493563,-1480.411884,1072.533697,12139.377449
968.493893,-3108.864956,2068.457845,11843.295072
968.494222,-3627.009116,1072.533697,10955.047942
968.494552,-3108.864956,-536.266849,10362.883188
968.494882,-1480.411884,-1915.238745,9696.697840
968.495211,444.123565,-2911.162892,8734.430116
968.495541,1480.411884,-2681.334243,8364.327145
968.495871,1036.288319,-1225.752797,8068.244768
968.496200,74.020594,-383.047749,8660.409521
968.496530,-518.144159,-229.828649,10066.800811
968.496859,-1110.308913,612.876398,11769.274478
968.497189,-1924.535449,2145.067394,11695.253884
968.497519,-2590.720797,1991.848295,10658.965565
968.497848,-2590.720797,306.438199,9474.636058
968.498178,-1332.370696,-2145.067394,8660.409521
968.498508,222.061783,-2834.553343,7846.182985
968.498837,740.205942,-1762.019645,7772.162391
968.499167,962.267725,229.828649,7772.162391
968.499497,592.164754,76.609550,8512.368333
968.499826,0.000000,1072.533697,9992.780217
968.500156,-1184.329507,2221.676944,11399.171507
968.500486,-2368.659014,3140.991542,11991.336260
968.500815,-3256.906145,3064.381992,11547.212695
968.501145,-3256.906145,1532.190996,9918.759623
968.501475,-2220.617826,229.828649,9030.512492
968.501804,0.000000,-1762.019645,7920.203579
968.502134,888.247130,-1149.143247,7624.121203
968.502464,888.247130,1685.410096,7476.080014
968.502793,-148.041188,2451.505594,7994.224174
968.503123,74.020594,2451.505594,9326.594869
968.503452,-74.020594,2987.772442,10288.862594
968.503782,-1184.329507,4136.915689,10732.986159
968.504112,-1998.556043,3830.477490,10436.903782
968.504441,-2516.700203,2451.505594,9918.759623
968.504771,-1702.473667,1685.410096,8882.471304
968.505101,-888.247130,689.485948,8586.388927
968.505430,518.144159,229.828649,8438.347739
968.505760,1036.288319,919.314598,8364.327145
968.506090,666.185348,2298.286494,8068.244768
968.506419,222.061783,2451.505594,8882.471304
968.506749,-962.267725,2221.676944,10362.883188
968.507079,-2146.597232,3294.210641,11843.295072
968.507408,-3627.009116,4290.134789,11843.295072
968.507738,-4441.235652,3217.601092,10658.965565
968.508068,-3108.864956,1455.581446,9030.512492
968.508397,-1702.473667,-689.485948,8290.306550
968.508727,0.000000,-1072.533697,7846.182985
968.509057,1184.329507,76.609550,7920.203579
968.509386,1702.473667,1225.752797,7994.224174
968.509716,1184.329507,1532.190996,8364.327145
968.510045,0.000000,1915.238745,9918.759623
968.510375,-962.267725,2987.772442,11917.315666
968.510705,-2368.659014,3370.820191,11843.295072
968.511034,-3256.906145,2145.067394,11251.130318
968.511364,-3182.885551,612.876398,9696.697840
968.511694,-2072.576638,-1532.190996,8882.471304
968.512023,-148.041188,-3064.381992,7698.141797
968.512353,740.205942,-2681.334243,7105.977043
968.512683,592.164754,-995.924147,7105.977043
968.513012,740.205942,-76.609550,7772.162391
968.513342,0.000000,383.047749,9770.718434
968.513672,-814.226536,995.924147,11843.295072
968.514001,-2294.638420,1915.238745,12287.418637
968.514331,-3330.926739,2068.457845,11473.192101
968.514661,-3404.947333,0.000000,10510.924376
968.514990,-2368.659014,-2298.286494,9770.718434
968.515320,-666.185348,-2528.115143,9622.677246
968.515650,296.082377,-2451.505594,9326.594869
968.515979,370.102971,-1302.362347,8882.471304
968.516309,148.041188,0.000000,9030.512492
968.516638,0.000000,689.485948,9844.739029
968.516968,-370.102971,459.657299,10955.047942
968.517298,-1332.370696,1608.800546,11547.212695
968.517627,-2368.659014,1225.752797,11399.171507
968.517957,-3108.864956,612.876398,10362.883188
968.518287,-2812.782580,-459.657299,9548.656652
968.518616,-1850.514855,-1378.971896,8586.388927
968.518946,0.000000,-2145.067394,8142.265362
968.519276,1184.329507,-842.705048,7846.182985
968.519605,1110.308913,383.047749,7920.203579
968.519935,962.267725,1302.362347,8808.450710
968.520265,296.082377,1991.848295,10955.047942
968.520594,-740.205942,3447.429741,11251.130318
968.520924,-2368.659014,3907.087040,11547.212695
968.521254,-3552.988522,2757.943793,10955.047942
968.521583,-3775.050304,1532.190996,9548.656652
968.521913,-2664.741391,-612.876398,7772.162391
968.522243,-148.041188,-2145.067394,7105.977043
968.522572,888.247130,-1608.800546,7772.162391
968.522902,740.205942,1455.581446,8660.409521
968.523231,0.000000,2911.162892,8586.388927
968.523561,-296.082377,3140.991542,9252.574275
968.523891,-814.226536,3907.087040,10955.047942
968.524220,-1850.514855,4519.963438,11991.336260
968.524550,-2812.782580,4366.744339,11621.233289
968.524880,-3256.906145,2987.772442,9992.780217
968.525209,-2368.659014,919.314598,8660.409521
968.525539,-296.082377,-153.219100,8216.285956
968.525869,888.247130,-306.438199,7624.121203
968.526198,1258.350101,766.095498,7476.080014
968.526528,1036.288319,1762.019645,7254.018232
968.526858,1036.288319,2374.896044,8290.306550
968.527187,814.226536,2681.334243,10214.842000
968.527517,-1258.350101,3524.039291,11399.171507
968.527847,-3034.844362,4519.963438,11991.336260
968.528176,-4071.132681,4060.306139,11621.233289
968.528506,-3775.050304,2681.334243,10288.862594
968.528836,-1924.535449,689.485948,8734.430116
968.529165,0.000000,-1608.800546,8142.265362
968.529495,740.205942,-306.438199,7550.100608
968.529824,592.164754,1685.410096,7698.141797
968.530154,74.020594,1915.238745,7920.203579
968.530484,-518.144159,1838.629195,9104.533087
968.530813,-1776.494261,2987.772442,10881.027347
968.531143,-3034.844362,3600.648841,11695.253884
968.531473,-3775.050304,2528.115143,11103.089130
968.531802,-3182.885551,995.924147,9992.780217
968.532132,-2146.597232,-689.485948,8660.409521
968.532462,-222.061783,-2451.505594,8068.244768
968.532791,1110.308913,-1762.019645,8068.244768
968.533121,1110.308913,689.485948,7772.162391
968.533451,814.226536,995.924147,7846.182985
968.533780,666.185348,766.095498,9400.615463
968.534110,296.082377,1455.581446,11251.130318
968.534440,-814.226536,2298.286494,11991.336260
968.534769,-2664.741391,1072.533697,10955.047942
968.535099,-3182.885551,0.000000,10510.924376
968.535429,-2590.720797,-842.705048,10362.883188
968.535758,-1332.370696,-1915.238745,10362.883188
968.536088,74.020594,-2145.067394,9548.656652
968.536417,296.082377,-995.924147,9104.533087
968.536747,148.041188,612.876398,9178.553681
968.537077,0.000000,383.047749,9696.697840
968.537406,-370.102971,842.705048,11103.089130
968.537736,-1406.391290,1685.410096,11547.212695
968.538066,-3034.844362,1838.629195,11103.089130
968.538395,-4219.173869,919.314598,10510.924376
968.538725,-3849.070898,-689.485948,9622.677246
968.539055,-2368.659014,-2298.286494,8882.471304
968.539384,-814.226536,-2911.162892,7920.203579
968.539714,148.041188,-1455.581446,8142.265362
968.540044,0.000000,383.047749,7994.224174
968.540373,296.082377,612.876398,8142.265362
968.540703,148.041188,1532.190996,9474.636058
968.541033,0.000000,2298.286494,10732.986159
968.541362,-666.185348,3217.601092,11473.192101
968.541692,-2664.741391,2757.943793,11177.109724
968.542022,-3108.864956,2374.896044,10140.821405
968.542351,-2146.597232,842.705048,8808.450710
968.542681,0.000000,-766.095498,8216.285956
968.543010,1480.411884,-1072.533697,7994.224174
968.543340,1924.535449,995.924147,8216.285956
968.543670,592.164754,2757.943793,8438.347739
968.543999,296.082377,3140.991542,9252.574275
968.544329,-370.102971,3600.648841,10214.842000
