#time,accel_x,accel_y,accel_z
828.262070,-1110.308913,919.314598,9474.636058
828.262400,-888.247130,995.924147,9474.636058
828.262729,-1110.308913,842.705048,9474.636058
828.263058,-888.247130,612.876398,9622.677246
828.263388,-1184.329507,919.314598,9474.636058
828.263717,-962.267725,1378.971896,9622.677246
828.264047,-666.185348,536.266849,9474.636058
828.264376,-1184.329507,995.924147,9474.636058
828.264705,-1184.329507,995.924147,9474.636058
828.265035,-962.267725,766.095498,9548.656652
828.265364,-1110.308913,1072.533697,9474.636058
828.265694,-814.226536,995.924147,9252.574275
828.266023,-1184.329507,1072.533697,9474.636058
828.266353,-1184.329507,919.314598,9400.615463
828.266682,-1036.288319,995.924147,9696.697840
828.267011,-888.247130,995.924147,9548.656652
828.267341,-1258.350101,995.924147,9474.636058
828.267670,-962.267725,1225.752797,9400.615463
828.268000,-962.267725,1225.752797,9474.636058
828.268329,-1036.288319,1225.752797,9474.636058
828.268658,-962.267725,919.314598,9474.636058
828.268988,-1184.329507,1302.362347,9770.718434
828.269317,-888.247130,689.485948,9252.574275
828.269647,-1036.288319,766.095498,9400.615463
828.269976,-962.267725,1072.533697,9474.636058
828.270305,-1184.329507,689.485948,9400.615463
828.270635,-962.267725,612.876398,9400.615463
828.270964,-888.247130,1072.533697,9548.656652
828.271294,-740.205942,842.705048,9696.697840
828.271623,-1184.329507,1072.533697,9548.656652
828.271953,-962.267725,842.705048,9474.636058
828.272282,-962.267725,842.705048,9622.677246
828.272611,-1036.288319,995.924147,9400.615463
828.272941,-1184.329507,612.876398,9178.553681
828.273270,-1036.288319,919.314598,9474.636058
828.273600,-962.267725,995.924147,9548.656652
828.273929,-962.267725,766.095498,9474.636058
828.274258,-888.247130,1302.362347,9252.574275
828.274588,-1184.329507,766.095498,9400.615463
828.274917,-1184.329507,536.266849,9548.656652
828.275247,-1036.288319,842.705048,9474.636058
828.275576,-1036.288319,1072.533697,9622.677246
828.275906,-962.267725,766.095498,9400.615463
828.276235,-814.226536,766.095498,9548.656652
828.276564,-1036.288319,919.314598,9548.656652
828.276894,-1184.329507,1072.533697,9474.636058
828.277223,-1110.308913,919.314598,9548.656652
828.277553,-1110.308913,995.924147,9622.677246
828.277882,-666.185348,995.924147,9400.615463
828.278211,-1406.391290,995.924147,9548.656652
828.278541,-1036.288319,842.705048,9622.677246
828.278870,-962.267725,766.095498,9548.656652
828.279200,-962.267725,919.314598,9622.677246
828.279529,-1036.288319,1072.533697,9622.677246
828.279859,-888.247130,689.485948,9474.636058
828.280188,-1184.329507,995.924147,9474.636058
828.280517,-1184.329507,1225.752797,9622.677246
828.280847,-1036.288319,766.095498,9474.636058
828.281176,-814.226536,919.314598,9622.677246
828.281506,-962.267725,689.485948,9474.636058
828.281835,-1110.308913,612.876398,9474.636058
828.282164,-1110.308913,842.705048,9622.677246
828.282494,-1110.308913,689.485948,9474.636058
828.282823,-1036.288319,919.314598,9548.656652
828.283153,-592.164754,689.485948,9400.615463
828.283482,-814.226536,842.705048,9548.656652
828.283812,-1036.288319,919.314598,9326.594869
828.284141,-1036.288319,919.314598,9474.636058
828.284470,-814.226536,995.924147,9622.677246
828.284800,-814.226536,1225.752797,9104.533087
828.285129,74.020594,995.924147,8808.450710
828.285459,518.144159,536.266849,8956.491898
828.285788,1110.308913,536.266849,9252.574275
828.286117,592.164754,689.485948,9326.594869
828.286447,74.020594,536.266849,9400.615463
828.286776,-296.082377,995.924147,10214.842000
828.287106,-740.205942,1149.143247,10510.924376
828.287435,-592.164754,459.657299,10288.862594
828.287764,-370.102971,76.609550,9474.636058
828.288094,370.102971,-153.219100,9326.594869
828.288423,962.267725,153.219100,9104.533087
828.288753,2072.576638,689.485948,8808.450710
828.289082,2738.761985,766.095498,8882.471304
828.289412,3552.988522,995.924147,8808.450710
828.289741,3701.029710,1762.019645,9326.594869
828.290070,3478.967927,2221.676944,9622.677246
828.290400,2886.803174,1378.971896,9696.697840
828.290729,2442.679609,1072.533697,10362.883188
828.291059,1480.411884,842.705048,10658.965565
828.291388,1258.350101,383.047749,10881.027347
828.291717,1480.411884,-536.266849,10658.965565
828.292047,2072.576638,-229.828649,10140.821405
828.292376,2368.659014,-383.047749,9400.615463
828.292706,3330.926739,-306.438199,9178.553681
828.293035,4219.173869,383.047749,9326.594869
828.293365,4219.173869,1532.190996,9178.553681
828.293694,3775.050304,2681.334243,9326.594869
828.294023,3034.844362,2911.162892,10214.842000
828.294353,1332.370696,2987.772442,10584.944971
828.294682,-888.247130,2757.943793,10288.862594
828.295012,-2146.597232,2145.067394,9696.697840
828.295341,-1702.473667,689.485948,8660.409521
828.295670,-444.123565,-995.924147,7476.080014
828.296000,518.144159,-1455.581446,6957.935855
828.296329,1628.453072,-689.485948,6735.874072
828.296659,2146.597232,306.438199,6883.915261
828.296988,2294.638420,1838.629195,7476.080014
828.297318,2072.576638,3217.601092,9548.656652
828.297647,814.226536,4366.744339,11399.171507
828.297976,-518.144159,4213.525239,11917.315666
828.298306,-2072.576638,3217.601092,11843.295072
828.298635,-2812.782580,1378.971896,11399.171507
828.298965,-2590.720797,-306.438199,10732.986159
828.299294,-2146.597232,-2528.115143,10140.821405
828.299623,-1702.473667,-2604.724693,9326.594869
828.299953,-814.226536,-1685.410096,8586.388927
828.300282,740.205942,-1072.533697,8660.409521
828.300612,2220.617826,0.000000,8438.347739
828.300941,2516.700203,1225.752797,8364.327145
828.301271,2368.659014,3370.820191,9326.594869
828.301600,1702.473667,3753.867940,9992.780217
828.301929,814.226536,3753.867940,10510.924376
828.302259,-222.061783,3140.991542,10288.862594
828.302588,-1628.453072,1608.800546,10362.883188
828.302918,-1776.494261,-229.828649,10066.800811
828.303247,-1924.535449,-1378.971896,9474.636058
828.303576,-1628.453072,-1762.019645,9178.553681
828.303906,-1776.494261,-1378.971896,9622.677246
828.304235,-1998.556043,-995.924147,10436.903782
828.304565,-2294.638420,919.314598,11399.171507
828.304894,-3330.926739,2834.553343,10955.047942
828.305224,-2886.803174,2757.943793,10288.862594
828.305553,-1998.556043,1685.410096,9474.636058
828.305882,-1110.308913,0.000000,8142.265362
828.306212,0.000000,-919.314598,6587.832884
828.306541,1184.329507,-1608.800546,6069.688724
828.306871,2294.638420,-1225.752797,6291.750507
828.307200,3108.864956,-229.828649,7476.080014
828.307529,3775.050304,1149.143247,8808.450710
828.307859,4071.132681,2834.553343,10732.986159
828.308188,3552.988522,3830.477490,12213.398043
828.308518,1258.350101,4903.011187,12805.562797
828.308847,-1184.329507,4826.401637,13101.645173
828.309176,-3034.844362,3140.991542,13027.624579
828.309506,-4589.276840,1838.629195,12805.562797
828.309835,-5107.421000,536.266849,10436.903782
828.310165,-5255.462188,-1991.848295,8290.306550
828.310494,-3849.070898,-3677.258390,5551.544565
828.310824,-1628.453072,-4673.182538,3923.091493
828.311153,814.226536,-2604.724693,3256.906145
828.311482,2294.638420,-612.876398,4219.173869
828.311812,2664.741391,2374.896044,7105.977043
828.312141,1184.329507,4443.353888,10066.800811
828.312471,-1184.329507,5822.325785,13397.727550
828.312800,-3923.091493,6205.373534,15692.365970
828.313129,-6587.832884,5669.106685,15840.407159
828.313459,-7846.182985,3217.601092,14656.077652
828.313788,-7105.977043,229.828649,12139.377449
828.314118,-4811.338623,-4060.306139,9548.656652
828.314447,-2368.659014,-5669.106685,7402.059420
828.314777,0.000000,-4443.353888,5477.523971
828.315106,2072.576638,-1838.629195,4737.318029
828.315435,4515.256246,1302.362347,5107.421000
828.315765,5995.668130,2834.553343,7031.956449
828.316094,6143.709319,4903.011187,9030.512492
828.316424,4441.235652,6511.811733,11251.130318
828.316753,1110.308913,7431.126331,12731.542202
828.317082,-2590.720797,5898.935335,13693.809927
828.317412,-5625.565159,3064.381992,13767.830521
828.317741,-6809.894666,-536.266849,12583.501014
828.318071,-7031.956449,-3677.258390,10807.006753
828.318400,-6069.688724,-5132.839837,8660.409521
828.318730,-4367.215058,-4903.011187,6587.832884
828.319059,-1776.494261,-4136.915689,5477.523971
828.319388,1184.329507,-2221.676944,5403.503377
828.319718,3182.885551,919.314598,6217.729913
828.320047,4367.215058,4903.011187,6439.791695
828.320377,4959.379811,6435.202183,8216.285956
828.320706,3849.070898,6511.811733,10214.842000
828.321035,1184.329507,5362.668486,12361.439231
828.321365,-2072.576638,4060.306139,13619.789333
828.321694,-5033.400406,2757.943793,13841.851115
828.322024,-6217.729913,383.047749,12731.542202
828.322353,-5699.585753,-2681.334243,10658.965565
828.322683,-4071.132681,-5439.278036,7846.182985
828.323012,-1332.370696,-5822.325785,6365.771101
828.323341,1184.329507,-3140.991542,5773.606348
828.323671,3108.864956,-459.657299,6291.750507
828.324000,3997.112087,2068.457845,7846.182985
828.324330,3923.091493,3447.429741,8956.491898
828.324659,3552.988522,4903.011187,10436.903782
828.324988,2294.638420,4903.011187,12139.377449
828.325318,-592.164754,5056.230287,12361.439231
828.325647,-2664.741391,3064.381992,13471.748144
828.325977,-5551.544565,536.266849,13323.706956
828.326306,-6513.812290,-1378.971896,12435.459826
828.326635,-6587.832884,-2451.505594,10140.821405
828.326965,-5181.441594,-3447.429741,7846.182985
828.327294,-2960.823768,-3294.210641,5921.647536
828.327624,-814.226536,-2145.067394,4441.235652
828.327953,1628.453072,-842.705048,4367.215058
828.328283,2738.761985,1532.190996,5921.647536
828.328612,2812.782580,4826.401637,8364.327145
828.328941,1184.329507,4903.011187,10955.047942
828.329271,-1554.432478,5515.887586,13767.830521
828.329600,-4589.276840,5056.230287,14878.139434
828.329930,-6587.832884,2757.943793,14656.077652
828.330259,-6809.894666,306.438199,13175.665768
828.330588,-5181.441594,-1608.800546,10584.944971
828.330918,-3997.112087,-4366.744339,7624.121203
828.331247,-1628.453072,-4673.182538,5699.585753
828.331577,444.123565,-2911.162892,4959.379811
828.331906,2664.741391,-153.219100,4885.359217
828.332236,4219.173869,1991.848295,5551.544565
828.332565,4663.297435,3370.820191,7254.018232
828.332894,4959.379811,4826.401637,9474.636058
828.333224,3775.050304,5515.887586,12361.439231
828.333553,592.164754,5822.325785,13249.686362
828.333883,-2442.679609,5439.278036,13249.686362
828.334212,-4293.194464,1532.190996,12805.562797
828.334541,-4737.318029,-995.924147,12805.562797
828.334871,-4885.359217,-1991.848295,11473.192101
828.335200,-4441.235652,-2911.162892,8808.450710
828.335530,-2664.741391,-2834.553343,6365.771101
828.335859,-592.164754,-2145.067394,4515.256246
828.336188,2072.576638,-1302.362347,4515.256246
828.336518,3552.988522,0.000000,5699.585753
828.336847,4071.132681,2528.115143,7402.059420
828.337177,4145.153275,5439.278036,9770.718434
828.337506,2886.803174,5745.716235,11621.233289
828.337835,444.123565,4826.401637,12509.480420
828.338165,-1998.556043,2604.724693,13545.768739
828.338494,-3775.050304,1302.362347,13619.789333
828.338824,-4515.256246,536.266849,12657.521608
828.339153,-4589.276840,-689.485948,10881.027347
828.339483,-3478.967927,-2528.115143,8586.388927
828.339812,-2146.597232,-3830.477490,6439.791695
828.340141,518.144159,-2911.162892,5921.647536
828.340471,2294.638420,-689.485948,6069.688724
828.340800,2960.823768,1149.143247,7254.018232
828.341130,2812.782580,2834.553343,8438.347739
828.341459,2516.700203,3447.429741,10436.903782
828.341788,962.267725,3830.477490,11695.253884
828.342118,-888.247130,3294.210641,12435.459826
828.342447,-2812.782580,2604.724693,12805.562797
828.342777,-4663.297435,1225.752797,12879.583391
828.343106,-5699.585753,-229.828649,11843.295072
828.343435,-6069.688724,-1991.848295,10066.800811
828.343765,-5255.462188,-2987.772442,7698.141797
828.344094,-3034.844362,-3447.429741,6661.853478
828.344424,-1258.350101,-2298.286494,5921.647536
828.344753,518.144159,536.266849,5329.482782
828.345082,1850.514855,1302.362347,5477.523971
828.345412,2960.823768,2221.676944,7698.141797
828.345741,2368.659014,3907.087040,10881.027347
828.346071,-444.123565,4596.572988,13101.645173
828.346400,-3404.947333,4443.353888,14211.954086
828.346729,-6069.688724,3524.039291,14508.036463
828.347059,-6957.935855,1915.238745,13693.809927
828.347388,-6291.750507,-1072.533697,11177.109724
828.347718,-4737.318029,-3524.039291,8068.244768
828.348047,-2368.659014,-4213.525239,5847.626942
828.348377,0.000000,-3753.867940,4811.338623
828.348706,1776.494261,-995.924147,4367.215058
828.349035,3256.906145,766.095498,5255.462188
828.349365,4367.215058,2145.067394,7179.997637
828.349694,4737.318029,4519.963438,9918.759623
828.350024,3775.050304,6128.763984,12287.418637
828.350353,1184.329507,6358.592633,13841.851115
828.350682,-1702.473667,5515.887586,13619.789333
828.351012,-3552.988522,2604.724693,13323.706956
828.351341,-4367.215058,-153.219100,13175.665768
828.351671,-5181.441594,-1608.800546,11843.295072
828.352000,-5625.565159,-2451.505594,8956.491898
828.352329,-4441.235652,-3447.429741,6365.771101
828.352659,-1702.473667,-3447.429741,5033.400406
828.352988,962.267725,-2221.676944,4515.256246
828.353318,2960.823768,-1378.971896,4885.359217
828.353647,3923.091493,1762.019645,6587.832884
828.353976,3701.029710,5362.668486,9400.615463
828.354306,2590.720797,6205.373534,11547.212695
828.354635,888.247130,6205.373534,12879.583391
828.354965,-1554.432478,4596.572988,13101.645173
828.355294,-2368.659014,2298.286494,13249.686362
828.355623,-3923.091493,1072.533697,12805.562797
828.355953,-4367.215058,-383.047749,11177.109724
828.356282,-3627.009116,-2681.334243,9104.533087
828.356612,-2368.659014,-3600.648841,7031.956449
828.356941,-370.102971,-2987.772442,5699.585753
828.357271,2220.617826,-1378.971896,5551.544565
828.357600,3182.885551,383.047749,6735.874072
828.357929,3478.967927,2834.553343,7920.203579
828.358259,2738.761985,4366.744339,9548.656652
828.358588,1554.432478,4136.915689,10807.006753
828.358918,-370.102971,4443.353888,12435.459826
828.359247,-3108.864956,3370.820191,12879.583391
828.359576,-5181.441594,1149.143247,13249.686362
828.359906,-6439.791695,-229.828649,12657.521608
828.360235,-6735.874072,-1838.629195,10658.965565
828.360565,-6143.709319,-3294.210641,8290.306550
828.360894,-4293.194464,-3753.867940,6957.935855
828.361223,-1924.535449,-2374.896044,5847.626942
828.361553,0.000000,0.000000,4811.338623
828.361882,1924.535449,459.657299,5403.503377
828.362212,3330.926739,2298.286494,7920.203579
828.362541,2220.617826,4136.915689,10584.944971
828.362870,-222.061783,4826.401637,13397.727550
828.363200,-3552.988522,4903.011187,14878.139434
828.363529,-6217.729913,4136.915689,14952.160028
828.363859,-6809.894666,1685.410096,13915.871710
828.364188,-6069.688724,-995.924147,11695.253884
828.364517,-4071.132681,-3370.820191,8438.347739
828.364847,-1850.514855,-4749.792088,5847.626942
828.365176,222.061783,-4213.525239,4589.276840
828.365506,2220.617826,-1072.533697,4367.215058
828.365835,3404.947333,1532.190996,4737.318029
828.366165,4367.215058,1915.238745,6809.894666
828.366494,4737.318029,4213.525239,9770.718434
828.366823,3997.112087,5669.106685,12435.459826
828.367153,1332.370696,6052.154434,13841.851115
828.367482,-1554.432478,5822.325785,13027.624579
828.367812,-3330.926739,2604.724693,13175.665768
828.368141,-4145.153275,-383.047749,13397.727550
828.368470,-4959.379811,-1532.190996,12287.418637
828.368800,-5403.503377,-2374.896044,9474.636058
828.369129,-4219.173869,-2757.943793,7031.956449
828.369459,-1258.350101,-2681.334243,4959.379811
828.369788,1184.329507,-1915.238745,4145.153275
828.370117,3552.988522,-1225.752797,4737.318029
828.370447,4589.276840,1915.238745,6217.729913
828.370776,4441.235652,5132.839837,8956.491898
828.371106,3478.967927,6971.469032,10955.047942
828.371435,1628.453072,6281.983084,12435.459826
828.371764,-1036.288319,4673.182538,13323.706956
828.372094,-2738.761985,2604.724693,13915.871710
828.372423,-4219.173869,1378.971896,13545.768739
828.372753,-4737.318029,689.485948,11547.212695
828.373082,-4589.276840,-2221.676944,9178.553681
828.373411,-3627.009116,-3447.429741,7254.018232
828.373741,-1480.411884,-2757.943793,6143.709319
828.374070,962.267725,-1915.238745,5699.585753
828.374400,2442.679609,-536.266849,6069.688724
828.374729,2812.782580,2987.772442,7624.121203
828.375059,2146.597232,4443.353888,8808.450710
828.375388,1628.453072,3983.696590,10881.027347
828.375717,0.000000,4519.963438,12435.459826
828.376047,-3034.844362,4060.306139,13175.665768
828.376376,-5107.421000,2451.505594,13471.748144
828.376706,-6661.853478,383.047749,12805.562797
828.377035,-6513.812290,-1685.410096,11029.068536
828.377364,-5551.544565,-2987.772442,8734.430116
828.377694,-3997.112087,-3140.991542,6513.812290
828.378023,-1850.514855,-2604.724693,4811.338623
828.378353,148.041188,-2068.457845,4737.318029
828.378682,1554.432478,229.828649,6143.709319
828.379011,2368.659014,2451.505594,8660.409521
828.379341,1480.411884,4213.525239,11769.274478
828.379670,-370.102971,5669.106685,13471.748144
828.380000,-2960.823768,5209.449386,14730.098246
828.380329,-5033.400406,3064.381992,14434.015869
828.380658,-6217.729913,1149.143247,13471.748144
828.380988,-5625.565159,-383.047749,11399.171507
828.381317,-5033.400406,-3370.820191,8512.368333
828.381647,-2220.617826,-4060.306139,6069.688724
828.381976,-592.164754,-4136.915689,4811.338623
828.382305,1332.370696,-1532.190996,4293.194464
828.382635,3182.885551,536.266849,4737.318029
828.382964,4441.235652,2145.067394,6587.832884
828.383294,5255.462188,3907.087040,9474.636058
828.383623,3552.988522,4979.620737,12139.377449
828.383953,1184.329507,5975.544884,13989.892304
828.384282,-1332.370696,6052.154434,13767.830521
828.384611,-2886.803174,3370.820191,13397.727550
828.384941,-3627.009116,-306.438199,13101.645173
828.385270,-4219.173869,-1685.410096,12139.377449
828.385600,-4589.276840,-2834.553343,9400.615463
828.385929,-3627.009116,-2834.553343,7105.977043
828.386258,-1258.350101,-2451.505594,5477.523971
828.386588,1110.308913,-1838.629195,4293.194464
828.386917,3478.967927,-1455.581446,4885.359217
828.387247,4367.215058,842.705048,6587.832884
828.387576,4293.194464,4979.620737,8882.471304
828.387905,3034.844362,6435.202183,10732.986159
828.388235,1110.308913,5745.716235,12139.377449
828.388564,-1184.329507,4443.353888,12879.583391
828.388894,-3034.844362,2451.505594,13693.809927
828.389223,-4367.215058,1302.362347,13545.768739
828.389552,-5181.441594,306.438199,11695.253884
828.389882,-5107.421000,-1915.238745,9252.574275
828.390211,-3923.091493,-3524.039291,7550.100608
828.390541,-1702.473667,-2911.162892,6735.874072
828.390870,1184.329507,-1838.629195,5699.585753
828.391199,2590.720797,459.657299,6143.709319
828.391529,3034.844362,2604.724693,7105.977043
828.391858,2738.761985,3983.696590,8808.450710
828.392188,2368.659014,4213.525239,10436.903782
828.392517,444.123565,4136.915689,11843.295072
828.392847,-2368.659014,4136.915689,12805.562797
828.393176,-4885.359217,2604.724693,13323.706956
828.393505,-6291.750507,229.828649,13175.665768
828.393835,-6587.832884,-1378.971896,11621.233289
828.394164,-6069.688724,-2911.162892,9178.553681
828.394494,-4441.235652,-3983.696590,7254.018232
828.394823,-2294.638420,-2604.724693,5995.668130
828.395152,-370.102971,-1149.143247,4811.338623
828.395482,1702.473667,0.000000,5477.523971
828.395811,2960.823768,1838.629195,6883.915261
828.396141,2516.700203,4290.134789,9992.780217
828.396470,740.205942,4826.401637,12435.459826
828.396799,-2072.576638,4979.620737,14211.954086
828.397129,-4219.173869,4290.134789,15026.180623
828.397458,-5921.647536,2451.505594,13989.892304
828.397788,-6217.729913,0.000000,11991.336260
828.398117,-4885.359217,-2528.115143,9474.636058
828.398446,-3182.885551,-4443.353888,6513.812290
828.398776,-888.247130,-4903.011187,5107.421000
828.399105,888.247130,-2374.896044,4589.276840
828.399435,2738.761985,-153.219100,4515.256246
828.399764,4145.153275,842.705048,6217.729913
828.400093,4441.235652,2604.724693,9030.512492
828.400423,3997.112087,4749.792088,11547.212695
828.400752,1998.556043,5898.935335,13619.789333
828.401082,-666.185348,5745.716235,13471.748144
828.401411,-2664.741391,3830.477490,13323.706956
828.401741,-3256.906145,0.000000,13767.830521
828.402070,-4145.153275,-1915.238745,13101.645173
828.402399,-5107.421000,-2145.067394,10288.862594
828.402729,-4293.194464,-2757.943793,7698.141797
828.403058,-2368.659014,-2604.724693,6217.729913
828.403388,296.082377,-2221.676944,4885.359217
828.403717,2664.741391,-2068.457845,4885.359217
828.404046,4145.153275,0.000000,6291.750507
828.404376,4441.235652,3983.696590,8512.368333
828.404705,3182.885551,6358.592633,10510.924376
828.405035,1332.370696,6281.983084,11991.336260
828.405364,-740.205942,5286.058936,12953.603985
828.405693,-2812.782580,3217.601092,13323.706956
828.406023,-4441.235652,1762.019645,13619.789333
828.406352,-4737.318029,1532.190996,12213.398043
828.406682,-5255.462188,-1225.752797,9844.739029
828.407011,-4367.215058,-3447.429741,7772.162391
828.407340,-2368.659014,-3140.991542,6143.709319
828.407670,444.123565,-1455.581446,5255.462188
828.407999,2812.782580,-383.047749,5699.585753
828.408329,2812.782580,1685.410096,6513.812290
828.408658,2442.679609,4060.306139,7994.224174
828.408987,2072.576638,4366.744339,10214.842000
828.409317,592.164754,4749.792088,11843.295072
828.409646,-1998.556043,5669.106685,12583.501014
828.409976,-4515.256246,2987.772442,13101.645173
828.410305,-5847.626942,1225.752797,13101.645173
828.410635,-6661.853478,-536.266849,11843.295072
828.410964,-5921.647536,-2374.896044,9252.574275
828.411293,-4589.276840,-3140.991542,6513.812290
828.411623,-2294.638420,-2298.286494,4737.318029
828.411952,-148.041188,-2145.067394,4293.194464
828.412282,1554.432478,-919.314598,5107.421000
828.412611,2368.659014,1149.143247,7105.977043
828.412940,2294.638420,4290.134789,10140.821405
828.413270,74.020594,4903.011187,12657.521608
828.413599,-2442.679609,5286.058936,14730.098246
828.413929,-4737.318029,3830.477490,15100.201217
828.414258,-5847.626942,1608.800546,14434.015869
828.414587,-6069.688724,306.438199,12213.398043
828.414917,-4959.379811,-2221.676944,9622.677246
828.415246,-3034.844362,-4673.182538,7105.977043
828.415576,-1332.370696,-4826.401637,5699.585753
828.415905,666.185348,-2298.286494,4737.318029
828.416234,2886.803174,-229.828649,4515.256246
828.416564,4441.235652,995.924147,5699.585753
828.416893,4885.359217,2987.772442,8216.285956
828.417223,4293.194464,4213.525239,11325.150913
828.417552,2368.659014,5209.449386,13915.871710
828.417881,-518.144159,5975.544884,14434.015869
828.418211,-3108.864956,4903.011187,13693.809927
828.418540,-3701.029710,1302.362347,12657.521608
828.418870,-3997.112087,-2451.505594,11695.253884
828.419199,-3849.070898,-3753.867940,10140.821405
828.419528,-3775.050304,-3217.601092,7920.203579
828.419858,-2590.720797,-2451.505594,6439.791695
828.420187,-666.185348,-2221.676944,5329.482782
828.420517,1924.535449,-1455.581446,4589.276840
828.420846,3701.029710,0.000000,5847.626942
828.421176,4737.318029,3294.210641,8290.306550
828.421505,3997.112087,6128.763984,10436.903782
828.421834,2072.576638,6665.030833,11473.192101
828.422164,-518.144159,5592.497135,12213.398043
828.422493,-2442.679609,3524.039291,12879.583391
828.422823,-3627.009116,1991.848295,12953.603985
828.423152,-4589.276840,612.876398,11843.295072
828.423481,-4737.318029,-459.657299,9696.697840
828.423811,-3997.112087,-2451.505594,7772.162391
828.424140,-2516.700203,-3294.210641,6661.853478
828.424470,0.000000,-1915.238745,6365.771101
828.424799,1850.514855,459.657299,5403.503377
828.425128,2738.761985,2145.067394,6291.750507
828.425458,2960.823768,3140.991542,8290.306550
828.425787,2442.679609,3447.429741,10436.903782
828.426117,518.144159,3983.696590,12139.377449
828.426446,-2220.617826,4443.353888,13101.645173
828.426775,-4589.276840,3600.648841,13767.830521
828.427105,-5625.565159,1762.019645,13175.665768
828.427434,-6069.688724,-1455.581446,11325.150913
828.427764,-5477.523971,-3830.477490,9178.553681
828.428093,-4219.173869,-3524.039291,7698.141797
828.428422,-2664.741391,-1915.238745,6735.874072
828.428752,-1110.308913,-766.095498,5477.523971
828.429081,814.226536,0.000000,5403.503377
828.429411,2294.638420,1838.629195,7031.956449
828.429740,2812.782580,3677.258390,9622.677246
828.430070,1406.391290,5056.230287,12139.377449
828.430399,-1480.411884,4979.620737,14063.912898
828.430728,-4367.215058,3907.087040,14211.954086
828.431058,-6291.750507,2451.505594,13693.809927
828.431387,-6217.729913,76.609550,12065.356855
828.431717,-5403.503377,-2298.286494,9548.656652
828.432046,-3627.009116,-4749.792088,6957.935855
828.432375,-1702.473667,-4673.182538,5477.523971
828.432705,592.164754,-3447.429741,4737.318029
828.433034,2738.761985,-842.705048,5255.462188
828.433364,4071.132681,1685.410096,6587.832884
828.433693,4737.318029,3600.648841,8438.347739
828.434022,5107.421000,4903.011187,10732.986159
828.434352,3849.070898,5286.058936,11991.336260
828.434681,1628.453072,5669.106685,12657.521608
828.435011,-740.205942,3907.087040,12583.501014
828.435340,-2294.638420,1072.533697,13397.727550
828.435669,-3627.009116,-766.095498,13323.706956
828.435998,-4959.379811,-1915.238745,11399.171507
828.436328,-4959.379811,-3064.381992,8438.347739
828.436657,-3034.844362,-2911.162892,6439.791695
828.436986,-592.164754,-2451.505594,5107.421000
828.437315,1998.556043,-1915.238745,4737.318029
828.437644,3997.112087,-229.828649,5847.626942
828.437973,4293.194464,3217.601092,8290.306550
828.438303,3108.864956,5745.716235,10066.800811
828.438632,1332.370696,5975.544884,11695.253884
828.438961,-296.082377,4903.011187,12879.583391
828.439290,-2368.659014,3447.429741,13249.686362
828.439619,-3256.906145,1762.019645,13249.686362
828.439948,-4293.194464,612.876398,12139.377449
828.440278,-4589.276840,-1225.752797,9992.780217
828.440607,-3849.070898,-2757.943793,8142.265362
828.440936,-2442.679609,-2451.505594,7105.977043
828.441265,-296.082377,-1532.190996,6439.791695
828.441594,1628.453072,0.000000,6661.853478
828.441923,2812.782580,1915.238745,7179.997637
828.442253,2886.803174,3370.820191,8364.327145
828.442582,2368.659014,3983.696590,9622.677246
828.442911,888.247130,4136.915689,10584.944971
828.443240,-1184.329507,4136.915689,11695.253884
828.443569,-3552.988522,3064.381992,12361.439231
828.443898,-5477.523971,1302.362347,12213.398043
828.444228,-6217.729913,-1072.533697,11177.109724
828.444557,-6217.729913,-2145.067394,9252.574275
828.444886,-5181.441594,-3064.381992,7476.080014
828.445215,-3330.926739,-3217.601092,6883.915261
828.445544,-1776.494261,-1838.629195,6587.832884
828.445873,-222.061783,919.314598,5921.647536
828.446203,1258.350101,2374.896044,6365.771101
828.446532,3108.864956,2757.943793,8290.306550
828.446861,2812.782580,3677.258390,10658.965565
828.447190,444.123565,4213.525239,12731.542202
828.447519,-2738.761985,4136.915689,14211.954086
828.447849,-5773.606348,3140.991542,14211.954086
828.448178,-7105.977043,2145.067394,12731.542202
828.448507,-5773.606348,-1991.848295,10436.903782
828.448836,-3701.029710,-4596.572988,8290.306550
828.449165,-1628.453072,-4979.620737,6291.750507
828.449494,370.102971,-4136.915689,5329.482782
828.449824,2516.700203,-1685.410096,5773.606348
828.450153,3330.926739,1378.971896,6883.915261
828.450482,4219.173869,2681.334243,8660.409521
828.450811,4737.318029,4443.353888,10807.006753
828.451140,3552.988522,6205.373534,12287.418637
828.451469,1628.453072,5898.935335,12287.418637
828.451799,-1036.288319,3370.820191,12213.398043
828.452128,-2886.803174,689.485948,13249.686362
828.452457,-4885.359217,0.000000,13471.748144
828.452786,-6661.853478,-1302.362347,11547.212695
828.453115,-6883.915261,-2911.162892,8364.327145
828.453444,-4737.318029,-3677.258390,5699.585753
828.453774,-1036.288319,-4826.401637,4367.215058
828.454103,1628.453072,-3370.820191,4293.194464
828.454432,3330.926739,-995.924147,5847.626942
828.454761,3775.050304,3217.601092,8216.285956
828.455090,2960.823768,6435.202183,10066.800811
828.455419,2072.576638,6511.811733,11547.212695
828.455749,740.205942,5209.449386,12287.418637
828.456078,-592.164754,3370.820191,12731.542202
828.456407,-1998.556043,1685.410096,13175.665768
828.456736,-3701.029710,919.314598,12435.459826
828.457065,-4071.132681,-1302.362347,10732.986159
828.457394,-3923.091493,-2911.162892,8808.450710
828.457724,-2368.659014,-2911.162892,7254.018232
828.458053,-222.061783,-2068.457845,6217.729913
828.458382,1776.494261,-766.095498,6365.771101
828.458711,2590.720797,1149.143247,6883.915261
828.459040,2812.782580,3370.820191,8068.244768
828.459369,2368.659014,4366.744339,9918.759623
828.459699,740.205942,4673.182538,11251.130318
828.460028,-1554.432478,4366.744339,11843.295072
828.460357,-3923.091493,2911.162892,12287.418637
828.460686,-5625.565159,1149.143247,12805.562797
828.461015,-6735.874072,-306.438199,12065.356855
828.461344,-6735.874072,-1991.848295,10140.821405
828.461674,-5921.647536,-2987.772442,8068.244768
828.462003,-4071.132681,-3064.381992,7402.059420
828.462332,-1998.556043,-1685.410096,6735.874072
828.462661,74.020594,689.485948,5625.565159
828.462990,2072.576638,2298.286494,5847.626942
828.463320,3701.029710,2911.162892,8142.265362
828.463649,3330.926739,3753.867940,10732.986159
828.463978,740.205942,4443.353888,12139.377449
828.464307,-2368.659014,4903.011187,13545.768739
828.464636,-4663.297435,3830.477490,13693.809927
828.464965,-5921.647536,2298.286494,12583.501014
828.465295,-5477.523971,-995.924147,10658.965565
828.465624,-3330.926739,-3983.696590,8364.327145
828.465953,-1628.453072,-3830.477490,6069.688724
828.466282,148.041188,-3064.381992,5403.503377
828.466611,1628.453072,-1302.362347,5107.421000
828.466940,2738.761985,689.485948,6069.688724
828.467270,3552.988522,2145.067394,7846.182985
828.467599,3849.070898,3983.696590,9992.780217
828.467928,3404.947333,5592.497135,11917.315666
828.468257,1628.453072,5515.887586,12879.583391
828.468586,-1258.350101,4136.915689,12361.439231
828.468915,-3034.844362,1378.971896,12361.439231
828.469245,-4367.215058,-766.095498,12509.480420
828.469574,-5255.462188,-1532.190996,11843.295072
828.469903,-5847.626942,-2298.286494,9548.656652
828.470232,-4145.153275,-3447.429741,7254.018232
828.470561,-1184.329507,-3677.258390,5625.565159
828.470890,1776.494261,-2757.943793,4737.318029
828.471220,3923.091493,-919.314598,5477.523971
828.471549,4737.318029,2298.286494,7772.162391
828.471878,3923.091493,5745.716235,9548.656652
828.472207,3034.844362,6358.592633,11399.171507
828.472536,1258.350101,5362.668486,12657.521608
828.472865,-740.205942,3983.696590,13175.665768
828.473195,-2664.741391,2528.115143,13175.665768
828.473524,-4367.215058,995.924147,12361.439231
828.473853,-4959.379811,-689.485948,10510.924376
828.474182,-4737.318029,-2757.943793,8660.409521
828.474511,-3478.967927,-3753.867940,7328.038826
828.474840,-1628.453072,-3140.991542,6217.729913
828.475170,222.061783,-766.095498,6217.729913
828.475499,1776.494261,1225.752797,6661.853478
828.475828,2294.638420,3140.991542,7920.203579
828.476157,1998.556043,4673.182538,9104.533087
828.476486,962.267725,4519.963438,10881.027347
828.476815,-814.226536,4519.963438,11843.295072
828.477145,-3256.906145,3677.258390,12583.501014
828.477474,-4959.379811,1991.848295,12657.521608
828.477803,-5995.668130,-229.828649,11621.233289
828.478132,-6217.729913,-2221.676944,9696.697840
828.478461,-4663.297435,-3524.039291,8142.265362
828.478791,-3108.864956,-3140.991542,7105.977043
828.479120,-1628.453072,-1838.629195,6143.709319
828.479449,444.123565,153.219100,5699.585753
828.479778,2146.597232,1915.238745,6291.750507
828.480107,3256.906145,3370.820191,8290.306550
828.480436,2960.823768,4749.792088,10658.965565
828.480766,888.247130,4979.620737,12731.542202
828.481095,-2368.659014,4826.401637,13915.871710
828.481424,-5181.441594,3830.477490,14359.995275
828.481753,-7105.977043,1838.629195,13175.665768
828.482082,-6661.853478,-842.705048,10881.027347
828.482411,-4885.359217,-4213.525239,8364.327145
828.482741,-2738.761985,-5592.497135,5995.668130
828.483070,-814.226536,-4290.134789,5033.400406
828.483399,1406.391290,-1762.019645,4959.379811
828.483728,2516.700203,536.266849,6069.688724
828.484057,3404.947333,2681.334243,8068.244768
828.484386,3923.091493,4596.572988,10510.924376
828.484716,3627.009116,5822.325785,12583.501014
828.485045,1924.535449,6281.983084,13027.624579
828.485374,-296.082377,4979.620737,12583.501014
828.485703,-1850.514855,2374.896044,12435.459826
828.486032,-2812.782580,-766.095498,12805.562797
828.486361,-3701.029710,-2298.286494,11621.233289
828.486691,-4811.338623,-2298.286494,9326.594869
828.487020,-3552.988522,-2451.505594,7105.977043
828.487349,-1184.329507,-2374.896044,5921.647536
828.487678,1258.350101,-1991.848295,4737.318029
828.488007,3404.947333,-1455.581446,5255.462188
828.488336,4515.256246,1838.629195,7105.977043
828.488666,3849.070898,5439.278036,9030.512492
828.488995,2294.638420,6511.811733,10732.986159
828.489324,296.082377,5439.278036,12287.418637
828.489653,-1998.556043,4290.134789,12805.562797
828.489982,-3404.947333,2068.457845,12879.583391
828.490311,-4367.215058,842.705048,11695.253884
828.490641,-4811.338623,-383.047749,10510.924376
828.490970,-4737.318029,-2528.115143,8734.430116
828.491299,-3849.070898,-3524.039291,7254.018232
828.491628,-1924.535449,-2528.115143,6809.894666
828.491957,518.144159,-689.485948,6291.750507
828.492286,2294.638420,1455.581446,7698.141797
828.492616,2960.823768,3294.210641,8142.265362
828.492945,3034.844362,4443.353888,9252.574275
828.493274,2516.700203,3983.696590,10658.965565
828.493603,888.247130,3600.648841,11843.295072
828.493932,-2294.638420,3677.258390,12583.501014
828.494262,-4367.215058,2145.067394,12953.603985
828.494591,-5625.565159,-229.828649,11991.336260
828.494920,-5847.626942,-2374.896044,10584.944971
828.495249,-4811.338623,-3447.429741,8660.409521
828.495578,-3404.947333,-3830.477490,7476.080014
828.495907,-2072.576638,-2681.334243,6957.935855
828.496237,-518.144159,-919.314598,6809.894666
828.496566,888.247130,1991.848295,6735.874072
828.496895,2220.617826,3217.601092,7772.162391
828.497224,2590.720797,3907.087040,9400.615463
828.497553,1184.329507,4519.963438,11399.171507
828.497882,-1480.411884,3907.087040,12879.583391
828.498212,-4515.256246,3064.381992,13397.727550
828.498541,-6809.894666,2451.505594,12879.583391
828.498870,-7254.018232,306.438199,11103.089130
828.499199,-5551.544565,-3524.039291,8660.409521
828.499528,-3330.926739,-5132.839837,6957.935855
828.499857,-1110.308913,-4290.134789,5329.482782
828.500187,1110.308913,-2528.115143,5107.421000
828.500516,2812.782580,0.000000,5921.647536
828.500845,3627.009116,2374.896044,7994.224174
828.501174,4441.235652,3524.039291,10066.800811
828.501503,3923.091493,5439.278036,11991.336260
828.501832,2590.720797,6205.373534,13323.706956
828.502162,592.164754,5592.497135,12953.603985
828.502491,-1332.370696,3064.381992,12583.501014
828.502820,-2368.659014,536.266849,12583.501014
828.503149,-3701.029710,-1685.410096,11843.295072
828.503478,-4737.318029,-2298.286494,9992.780217
828.503807,-4737.318029,-2374.896044,7698.141797
828.504137,-2516.700203,-2834.553343,6143.709319
828.504466,0.000000,-2681.334243,5033.400406
828.504795,1998.556043,-1302.362347,5477.523971
828.505124,2960.823768,842.705048,7179.997637
828.505453,3330.926739,4443.353888,9104.533087
828.505782,2146.597232,5822.325785,10436.903782
828.506112,1036.288319,5592.497135,11547.212695
828.506441,-1110.308913,4213.525239,12583.501014
828.506770,-2886.803174,3140.991542,12879.583391
828.507099,-4071.132681,1532.190996,12435.459826
828.507428,-4737.318029,0.000000,11029.068536
828.507757,-4737.318029,-1225.752797,9030.512492
828.508087,-3627.009116,-2681.334243,7328.038826
828.508416,-1924.535449,-2528.115143,6883.915261
828.508745,222.061783,-919.314598,6291.750507
828.509074,2220.617826,842.705048,6735.874072
828.509403,2960.823768,2528.115143,7476.080014
828.509733,2960.823768,3217.601092,7994.224174
828.510062,2664.741391,3830.477490,10436.903782
828.510391,814.226536,4060.306139,11399.171507
828.510720,-1998.556043,3830.477490,12583.501014
828.511049,-4663.297435,2451.505594,12731.542202
828.511378,-6217.729913,766.095498,12139.377449
828.511708,-6661.853478,-1532.190996,10732.986159
828.512037,-5477.523971,-3217.601092,8660.409521
828.512366,-3923.091493,-3600.648841,7550.100608
828.512695,-2368.659014,-2681.334243,6365.771101
828.513024,-666.185348,-536.266849,5625.565159
828.513353,1036.288319,919.314598,5477.523971
828.513683,2368.659014,2145.067394,7846.182985
828.514012,2738.761985,3983.696590,10584.944971
828.514341,888.247130,4826.401637,12435.459826
828.514670,-1924.535449,4826.401637,14063.912898
828.514999,-4811.338623,3677.258390,14359.995275
828.515328,-6735.874072,2451.505594,13767.830521
828.515658,-6661.853478,-536.266849,11917.315666
828.515987,-5477.523971,-3294.210641,9178.553681
828.516316,-3182.885551,-4826.401637,6735.874072
828.516645,-740.205942,-4366.744339,4589.276840
828.516974,1850.514855,-2757.943793,4441.235652
828.517303,3256.906145,-536.266849,4737.318029
828.517633,4219.173869,1991.848295,7105.977043
828.517962,4589.276840,4136.915689,9844.739029
828.518291,4071.132681,6818.249932,12139.377449
828.518620,2516.700203,6588.421283,13915.871710
828.518949,0.000000,5362.668486,13767.830521
828.519278,-2220.617826,3600.648841,12731.542202
828.519608,-3478.967927,536.266849,12287.418637
828.519937,-4367.215058,-1838.629195,11547.212695
828.520266,-4811.338623,-2528.115143,9622.677246
828.520595,-4737.318029,-3370.820191,7624.121203
828.520924,-2886.803174,-3064.381992,6439.791695
828.521253,-592.164754,-2221.676944,5625.565159
828.521583,1702.473667,-536.266849,5625.565159
828.521912,3108.864956,612.876398,6439.791695
828.522241,4441.235652,3907.087040,7994.224174
828.522570,3182.885551,6052.154434,9696.697840
828.522899,1776.494261,5745.716235,11177.109724
828.523229,-222.061783,4826.401637,12583.501014
828.523558,-2590.720797,3524.039291,12509.480420
828.523887,-3849.070898,2451.505594,12213.398043
828.524216,-4219.173869,306.438199,11103.089130
828.524545,-3701.029710,-1991.848295,9326.594869
828.524874,-3108.864956,-2834.553343,8142.265362
828.525204,-1702.473667,-2757.943793,6883.915261
828.525533,222.061783,-995.924147,6291.750507
828.525862,1702.473667,1455.581446,6735.874072
828.526191,2442.679609,3064.381992,7698.141797
828.526520,2664.741391,3447.429741,9252.574275
828.526849,2220.617826,3524.039291,10881.027347
828.527179,222.061783,3447.429741,11695.253884
828.527508,-2368.659014,3140.991542,12361.439231
828.527837,-4737.318029,2451.505594,12731.542202
828.528166,-6069.688724,459.657299,12065.356855
828.528495,-6291.750507,-1762.019645,10214.842000
828.528824,-5625.565159,-3447.429741,8216.285956
828.529154,-4071.132681,-3524.039291,6883.915261
828.529483,-2738.761985,-2528.115143,5921.647536
828.529812,-666.185348,-1072.533697,5699.585753
828.530141,814.226536,383.047749,6513.812290
828.530470,2146.597232,2145.067394,8808.450710
828.530799,2442.679609,3907.087040,10732.986159
828.531129,1110.308913,4596.572988,13175.665768
828.531458,-1480.411884,4826.401637,14434.015869
828.531787,-4145.153275,3600.648841,14359.995275
828.532116,-5699.585753,1991.848295,12509.480420
828.532445,-5033.400406,-383.047749,10881.027347
828.532774,-4293.194464,-2451.505594,8068.244768
828.533104,-2590.720797,-4749.792088,6661.853478
828.533433,-666.185348,-4443.353888,5181.441594
828.533762,740.205942,-2604.724693,4737.318029
828.534091,2220.617826,153.219100,4885.359217
828.534421,3256.906145,2221.676944,6809.894666
828.534750,4219.173869,3370.820191,9622.677246
828.535079,3849.070898,5132.839837,11547.212695
828.535409,2072.576638,5669.106685,12879.583391
828.535738,-222.061783,5209.449386,12953.603985
828.536067,-1924.535449,3677.258390,12657.521608
828.536397,-3552.988522,536.266849,13027.624579
828.536726,-4219.173869,-1608.800546,12065.356855
828.537056,-4811.338623,-2604.724693,10362.883188
828.537385,-4293.194464,-2451.505594,8142.265362
828.537714,-2516.700203,-2451.505594,6587.832884
828.538044,-296.082377,-2834.553343,5329.482782
828.538373,2072.576638,-1302.362347,5625.565159
828.538703,3701.029710,842.705048,7031.956449
828.539032,4145.153275,4213.525239,8734.430116
828.539361,3478.967927,6052.154434,10288.862594
828.539691,2294.638420,6358.592633,11843.295072
828.540020,0.000000,4519.963438,12583.501014
828.540350,-2220.617826,3140.991542,12731.542202
828.540679,-3849.070898,1762.019645,12287.418637
828.541008,-4737.318029,459.657299,10955.047942
828.541338,-4367.215058,-1455.581446,9326.594869
828.541667,-3701.029710,-2834.553343,8068.244768
828.541997,-2368.659014,-2528.115143,6439.791695
828.542326,-148.041188,-1302.362347,6069.688724
828.542655,1628.453072,459.657299,6513.812290
828.542985,2664.741391,2298.286494,7624.121203
828.543314,2294.638420,3907.087040,9030.512492
828.543644,1776.494261,4366.744339,10214.842000
828.543973,370.102971,4213.525239,11177.109724
828.544302,-1924.535449,4136.915689,11991.336260
828.544632,-3775.050304,2374.896044,12509.480420
828.544961,-5033.400406,0.000000,12065.356855
828.545291,-5773.606348,-1455.581446,10658.965565
828.545620,-5403.503377,-2451.505594,9178.553681
828.545949,-4293.194464,-3370.820191,7698.141797
828.546279,-2590.720797,-2834.553343,6883.915261
828.546608,-814.226536,-1608.800546,6735.874072
828.546938,814.226536,919.314598,7031.956449
828.547267,2294.638420,2834.553343,7772.162391
828.547596,2886.803174,3677.258390,9326.594869
828.547926,2368.659014,4290.134789,11325.150913
828.548255,74.020594,4290.134789,12435.459826
828.548585,-2812.782580,3830.477490,13767.830521
828.548914,-5477.523971,2451.505594,13397.727550
828.549243,-6809.894666,919.314598,11991.336260
828.549573,-6439.791695,-2374.896044,10140.821405
828.549902,-4589.276840,-5209.449386,8290.306550
828.550232,-2812.782580,-4519.963438,6291.750507
828.550561,-814.226536,-3447.429741,5625.565159
828.550890,962.267725,-1532.190996,5625.565159
828.551220,2220.617826,766.095498,6735.874072
828.551549,3256.906145,2451.505594,8142.265362
828.551878,4219.173869,3524.039291,10436.903782
828.552208,2886.803174,5362.668486,11547.212695
828.552537,814.226536,5362.668486,12213.398043
828.552867,-1184.329507,3294.210641,12657.521608
828.553196,-2664.741391,842.705048,13101.645173
828.553525,-3701.029710,-306.438199,12287.418637
828.553855,-4145.153275,-1378.971896,10732.986159
828.554184,-3997.112087,-2604.724693,8438.347739
828.554514,-1850.514855,-2911.162892,7031.956449
828.554843,370.102971,-2757.943793,5699.585753
828.555172,2442.679609,-1532.190996,5181.441594
828.555502,3923.091493,842.705048,6661.853478
828.555831,4367.215058,4060.306139,8586.388927
828.556161,3552.988522,5669.106685,10214.842000
828.556490,1998.556043,5439.278036,11029.068536
828.556819,0.000000,4366.744339,11917.315666
828.557149,-2516.700203,3140.991542,12287.418637
828.557478,-5033.400406,1455.581446,12287.418637
828.557808,-5921.647536,153.219100,11843.295072
828.558137,-5699.585753,-1685.410096,9844.739029
828.558466,-4737.318029,-3140.991542,8068.244768
828.558796,-2886.803174,-2834.553343,6439.791695
828.559125,-888.247130,-1762.019645,6291.750507
828.559455,1036.288319,0.000000,6513.812290
828.559784,2146.597232,2145.067394,7920.203579
828.560113,2590.720797,3907.087040,9326.594869
828.560443,2220.617826,5286.058936,10436.903782
828.560772,740.205942,3830.477490,11399.171507
828.561102,-1258.350101,3983.696590,12139.377449
828.561431,-3182.885551,2757.943793,12805.562797
828.561760,-4737.318029,919.314598,12361.439231
828.562090,-4959.379811,-536.266849,11473.192101
828.562419,-5403.503377,-2068.457845,9104.533087
828.562749,-4145.153275,-2681.334243,7772.162391
828.563078,-2294.638420,-2834.553343,6809.894666
828.563407,-444.123565,-1608.800546,6735.874072
828.563737,1036.288319,919.314598,6587.832884
828.564066,2072.576638,2987.772442,6883.915261
828.564396,2886.803174,3524.039291,8290.306550
828.564725,2294.638420,3830.477490,10584.944971
828.565054,-296.082377,4136.915689,12435.459826
828.565384,-3552.988522,3830.477490,13471.748144
828.565713,-6439.791695,3064.381992,13397.727550
828.566042,-7550.100608,1762.019645,12139.377449
828.566372,-6809.894666,-1378.971896,10214.842000
828.566701,-4663.297435,-4826.401637,7550.100608
828.567031,-1924.535449,-4673.182538,5847.626942
828.567360,444.123565,-2834.553343,4737.318029
828.567689,2294.638420,-1685.410096,4885.359217
828.568019,3404.947333,995.924147,6439.791695
828.568348,4071.132681,2528.115143,8660.409521
828.568678,4219.173869,4443.353888,11177.109724
828.569007,3404.947333,5515.887586,12731.542202
828.569336,1702.473667,5745.716235,12583.501014
828.569666,-296.082377,3753.867940,12213.398043
828.569995,-1924.535449,229.828649,12583.501014
828.570325,-3108.864956,-1225.752797,12731.542202
828.570654,-4441.235652,-1608.800546,11843.295072
828.570983,-4737.318029,-1991.848295,9696.697840
828.571313,-3775.050304,-2374.896044,7550.100608
828.571642,-1258.350101,-2528.115143,5847.626942
828.571972,1776.494261,-2604.724693,5551.544565
828.572301,3182.885551,-383.047749,6439.791695
828.572630,3034.844362,3524.039291,7772.162391
828.572960,2664.741391,5515.887586,9474.636058
828.573289,888.247130,5669.106685,10881.027347
828.573619,-740.205942,4826.401637,12065.356855
828.573948,-2738.761985,3294.210641,12805.562797
828.574277,-4145.153275,1915.238745,12805.562797
828.574607,-5181.441594,383.047749,11621.233289
828.574936,-5255.462188,-766.095498,9696.697840
828.575266,-4219.173869,-2528.115143,7994.224174
828.575595,-2146.597232,-3064.381992,6957.935855
828.575924,0.000000,-1685.410096,5995.668130
828.576254,2072.576638,459.657299,6217.729913
828.576583,3182.885551,1762.019645,6957.935855
828.576913,3256.906145,3600.648841,8586.388927
828.577242,2886.803174,4443.353888,10140.821405
828.577571,1480.411884,4596.572988,11399.171507
828.577901,-666.185348,4979.620737,12287.418637
828.578230,-3256.906145,3370.820191,12435.459826
828.578560,-5255.462188,1149.143247,12139.377449
828.578889,-5847.626942,-766.095498,11029.068536
828.579218,-5773.606348,-2374.896044,9548.656652
828.579548,-4811.338623,-2911.162892,7624.121203
828.579877,-3552.988522,-2911.162892,6661.853478
828.580207,-1480.411884,-2298.286494,6365.771101
828.580536,74.020594,0.000000,5921.647536
828.580865,1480.411884,2451.505594,6661.853478
828.581195,2590.720797,3600.648841,8364.327145
828.581524,2368.659014,4519.963438,10732.986159
828.581853,-148.041188,4290.134789,12583.501014
828.582183,-3256.906145,4136.915689,13989.892304
828.582512,-5847.626942,3064.381992,13841.851115
828.582842,-6957.935855,1838.629195,12953.603985
828.583171,-5921.647536,-919.314598,10881.027347
828.583500,-3849.070898,-4596.572988,8068.244768
828.583830,-1480.411884,-5056.230287,6143.709319
828.584159,962.267725,-3753.867940,5329.482782
828.584489,2664.741391,-1608.800546,4959.379811
828.584818,3701.029710,919.314598,6439.791695
828.585147,4071.132681,3064.381992,8882.471304
828.585477,3923.091493,4596.572988,11029.068536
828.585806,3182.885551,5822.325785,12953.603985
828.586136,1406.391290,6052.154434,13027.624579
828.586465,-888.247130,4290.134789,12435.459826
828.586794,-2590.720797,612.876398,11917.315666
828.587124,-3775.050304,-1149.143247,12139.377449
828.587453,-4737.318029,-2145.067394,11177.109724
828.587783,-5329.482782,-2451.505594,9030.512492
828.588112,-3849.070898,-2451.505594,7105.977043
828.588441,-1332.370696,-2834.553343,5551.544565
828.588771,1480.411884,-1915.238745,4811.338623
828.589100,3034.844362,-459.657299,5921.647536
828.589430,3627.009116,3140.991542,7846.182985
828.589759,2886.803174,5822.325785,9696.697840
828.590088,1406.391290,5822.325785,11325.150913
828.590418,0.000000,4903.011187,12361.439231
828.590747,-2146.597232,3524.039291,12731.542202
828.591077,-3404.947333,2145.067394,12509.480420
828.591406,-4145.153275,919.314598,11399.171507
828.591735,-4293.194464,-842.705048,9548.656652
828.592065,-3182.885551,-2757.943793,7772.162391
828.592394,-1776.494261,-2604.724693,7105.977043
828.592724,-370.102971,-1378.971896,6513.812290
828.593053,1628.453072,459.657299,6661.853478
828.593382,2590.720797,1838.629195,7476.080014
828.593712,2960.823768,2757.943793,8956.491898
828.594041,2516.700203,4596.572988,10362.883188
828.594371,1184.329507,4366.744339,11399.171507
828.594700,-1036.288319,4290.134789,12139.377449
828.595029,-3552.988522,2681.334243,12657.521608
828.595359,-5181.441594,919.314598,12509.480420
828.595688,-5847.626942,-1072.533697,11695.253884
828.596017,-5477.523971,-2145.067394,9770.718434
828.596347,-4663.297435,-2681.334243,7920.203579
828.596676,-2664.741391,-2451.505594,7105.977043
828.597006,-962.267725,-2221.676944,6587.832884
828.597335,1184.329507,-229.828649,6883.915261
828.597664,1702.473667,2451.505594,7328.038826
828.597994,2516.700203,4060.306139,8660.409521
828.598323,2664.741391,3677.258390,10436.903782
828.598653,888.247130,4213.525239,11917.315666
828.598982,-2146.597232,3600.648841,12509.480420
828.599311,-4737.318029,2528.115143,12953.603985
828.599641,-6217.729913,1762.019645,12361.439231
828.599970,-6291.750507,-459.657299,10584.944971
828.600300,-4737.318029,-3753.867940,8882.471304
828.600629,-2442.679609,-5056.230287,7031.956449
828.600958,-370.102971,-3370.820191,5477.523971
828.601288,1554.432478,-1532.190996,5403.503377
828.601617,3034.844362,76.609550,6587.832884
828.601947,3627.009116,2145.067394,8290.306550
828.602276,3775.050304,3830.477490,10362.883188
828.602605,2738.761985,5056.230287,11621.233289
828.602935,1406.391290,5515.887586,12287.418637
828.603264,-222.061783,4290.134789,12287.418637
828.603594,-1924.535449,1149.143247,12583.501014
828.603923,-3404.947333,-766.095498,12435.459826
828.604252,-4441.235652,-1225.752797,11547.212695
828.604582,-4367.215058,-1915.238745,9548.656652
828.604911,-3330.926739,-2145.067394,7698.141797
828.605241,-1332.370696,-2681.334243,6587.832884
828.605570,888.247130,-2221.676944,5773.606348
828.605899,2590.720797,-306.438199,6513.812290
828.606229,3775.050304,2451.505594,8290.306550
828.606558,2738.761985,5592.497135,9992.780217
828.606888,1628.453072,5975.544884,11177.109724
828.607217,0.000000,4596.572988,11843.295072
828.607546,-1924.535449,3294.210641,12139.377449
828.607876,-3627.009116,2451.505594,12213.398043
828.608205,-4737.318029,1149.143247,11399.171507
828.608535,-4737.318029,-842.705048,10066.800811
828.608864,-4367.215058,-2374.896044,8216.285956
828.609193,-2738.761985,-2528.115143,6883.915261
828.609523,-666.185348,-2451.505594,6069.688724
828.609852,1258.350101,-153.219100,5551.544565
828.610182,2072.576638,1455.581446,6809.894666
828.610511,2738.761985,2911.162892,8438.347739
828.610840,2590.720797,4213.525239,9770.718434
828.611170,1776.494261,4979.620737,11029.068536
828.611499,0.000000,4443.353888,11769.274478
828.611828,-2368.659014,2987.772442,12435.459826
828.612158,-4663.297435,1072.533697,12361.439231
828.612487,-5255.462188,-306.438199,11843.295072
828.612817,-5403.503377,-1685.410096,10214.842000
828.613146,-4515.256246,-2681.334243,8586.388927
828.613475,-3182.885551,-3064.381992,7550.100608
828.613805,-1776.494261,-2528.115143,6883.915261
828.614134,0.000000,-766.095498,6291.750507
828.614464,1258.350101,1991.848295,6365.771101
828.614793,2516.700203,3294.210641,7550.100608
828.615122,2220.617826,3677.258390,10362.883188
828.615452,444.123565,3907.087040,11991.336260
828.615781,-2442.679609,3524.039291,13397.727550
828.616111,-5181.441594,2911.162892,13841.851115
828.616440,-6883.915261,1608.800546,13175.665768
828.616769,-6661.853478,-306.438199,11399.171507
828.617099,-4885.359217,-4060.306139,9252.574275
828.617428,-2516.700203,-4826.401637,7254.018232
828.617758,-370.102971,-3447.429741,5847.626942
828.618087,1776.494261,-1991.848295,5329.482782
828.618416,3404.947333,-306.438199,5921.647536
828.618746,3701.029710,1838.629195,7624.121203
828.619075,4219.173869,3753.867940,10066.800811
828.619405,3775.050304,5362.668486,11843.295072
828.619734,1998.556043,5898.935335,12731.542202
828.620063,-592.164754,4749.792088,12287.418637
828.620393,-2368.659014,1915.238745,12065.356855
828.620722,-3478.967927,0.000000,11843.295072
828.621052,-4145.153275,-1608.800546,10732.986159
828.621381,-4663.297435,-2604.724693,9326.594869
828.621710,-3923.091493,-2451.505594,7328.038826
828.622040,-2072.576638,-2451.505594,6069.688724
828.622369,0.000000,-2068.457845,5625.565159
828.622699,1924.535449,-153.219100,6291.750507
828.623028,2960.823768,2528.115143,7698.141797
828.623357,3182.885551,4979.620737,9252.574275
828.623687,2590.720797,6128.763984,10436.903782
828.624016,740.205942,4903.011187,11325.150913
828.624346,-962.267725,3983.696590,12805.562797
828.624675,-3108.864956,2911.162892,13175.665768
828.625004,-4737.318029,1915.238745,12139.377449
828.625334,-5107.421000,76.609550,9918.759623
828.625663,-3923.091493,-1915.238745,8364.327145
828.625992,-2220.617826,-2834.553343,7328.038826
828.626322,-518.144159,-2451.505594,6291.750507
828.626651,962.267725,-459.657299,6069.688724
828.626981,2220.617826,1302.362347,7105.977043
828.627310,2664.741391,3447.429741,8512.368333
828.627639,2220.617826,4673.182538,10214.842000
828.627969,1406.391290,4519.963438,11399.171507
828.628298,-222.061783,4213.525239,12139.377449
828.628628,-2516.700203,3447.429741,12435.459826
828.628957,-3849.070898,1455.581446,12509.480420
828.629286,-5107.421000,-766.095498,11843.295072
828.629616,-5847.626942,-1532.190996,10066.800811
828.629945,-4959.379811,-2145.067394,8290.306550
828.630275,-3108.864956,-2604.724693,6957.935855
828.630604,-1702.473667,-2068.457845,5699.585753
828.630933,296.082377,-1149.143247,6217.729913
828.631263,1406.391290,842.705048,7179.997637
828.631592,2220.617826,4060.306139,8364.327145
828.631922,1850.514855,5132.839837,9474.636058
828.632251,962.267725,4290.134789,11251.130318
828.632580,-1184.329507,3524.039291,12657.521608
828.632910,-4071.132681,2451.505594,13101.645173
828.633239,-5847.626942,1608.800546,12361.439231
828.633569,-6661.853478,-229.828649,11103.089130
828.633898,-5773.606348,-2757.943793,9178.553681
828.634227,-3849.070898,-4673.182538,7402.059420
828.634557,-1184.329507,-4673.182538,6069.688724
828.634886,962.267725,-1991.848295,5329.482782
828.635216,2664.741391,-383.047749,6291.750507
828.635545,3552.988522,1455.581446,8364.327145
828.635874,3775.050304,3370.820191,10658.965565
828.636204,3330.926739,4903.011187,12139.377449
828.636533,1924.535449,5669.106685,12731.542202
828.636863,148.041188,4366.744339,12583.501014
828.637192,-1258.350101,1532.190996,12731.542202
828.637521,-2590.720797,-842.705048,13175.665768
828.637851,-4219.173869,-1378.971896,11695.253884
828.638180,-4663.297435,-1838.629195,9474.636058
828.638509,-3404.947333,-2298.286494,7624.121203
828.638839,-1258.350101,-2757.943793,5995.668130
828.639168,814.226536,-2221.676944,5181.441594
828.639498,2812.782580,-842.705048,5995.668130
828.639827,3330.926739,2757.943793,7698.141797
828.640156,2664.741391,5822.325785,9622.677246
828.640486,1258.350101,6281.983084,11029.068536
828.640815,-296.082377,4903.011187,11843.295072
828.641145,-2146.597232,3600.648841,11917.315666
828.641474,-3330.926739,2451.505594,11917.315666
828.641803,-4885.359217,1302.362347,11547.212695
828.642133,-5551.544565,-306.438199,9844.739029
828.642462,-4885.359217,-2451.505594,8290.306550
828.642792,-3330.926739,-2911.162892,7105.977043
828.643121,-1110.308913,-1378.971896,6143.709319
828.643450,1110.308913,0.000000,6069.688724
828.643780,2220.617826,1608.800546,6661.853478
828.644109,3108.864956,3294.210641,8216.285956
828.644438,3552.988522,4290.134789,9918.759623
828.644768,2812.782580,4826.401637,11177.109724
828.645097,814.226536,5209.449386,11769.274478
828.645427,-2146.597232,4213.525239,12139.377449
828.645756,-4071.132681,1915.238745,12435.459826
828.646085,-5107.421000,0.000000,11621.233289
828.646415,-5255.462188,-1225.752797,9918.759623
828.646744,-4663.297435,-2987.772442,8808.450710
828.647074,-3701.029710,-2451.505594,7402.059420
828.647403,-2368.659014,-2374.896044,6735.874072
828.647732,-518.144159,-1149.143247,6217.729913
828.648062,962.267725,919.314598,7550.100608
828.648391,1554.432478,3983.696590,9104.533087
828.648721,1258.350101,4979.620737,10362.883188
828.649050,148.041188,4596.572988,10881.027347
828.649379,-1406.391290,3753.867940,11621.233289
828.649709,-3552.988522,2374.896044,11991.336260
828.650038,-5847.626942,1072.533697,11547.212695
828.650367,-6513.812290,-612.876398,11399.171507
828.650697,-6809.894666,-2604.724693,9622.677246
828.651026,-4737.318029,-4136.915689,8216.285956
828.651356,-2146.597232,-4443.353888,6735.874072
828.651685,888.247130,-3064.381992,6143.709319
828.652014,2590.720797,-842.705048,6291.750507
828.652344,4219.173869,842.705048,7920.203579
828.652673,4589.276840,3370.820191,9918.759623
828.653003,4293.194464,5056.230287,11695.253884
828.653332,3256.906145,5132.839837,12361.439231
828.653661,1924.535449,4519.963438,12139.377449
828.653991,0.000000,1991.848295,12805.562797
828.654320,-1628.453072,-459.657299,12731.542202
828.654649,-3404.947333,-1455.581446,11843.295072
828.654979,-4293.194464,-2145.067394,10140.821405
828.655308,-3552.988522,-2757.943793,8216.285956
828.655638,-2072.576638,-2834.553343,6587.832884
828.655967,-296.082377,-2757.943793,5551.544565
828.656296,1110.308913,-1149.143247,5847.626942
828.656626,2146.597232,1532.190996,7550.100608
828.656955,2368.659014,4749.792088,9548.656652
828.657285,962.267725,5592.497135,10066.800811
828.657614,-296.082377,4903.011187,10955.047942
828.657943,-1850.514855,3600.648841,11991.336260
828.658273,-3627.009116,2528.115143,12213.398043
828.658602,-4737.318029,1685.410096,11917.315666
828.658932,-4737.318029,0.000000,10807.006753
828.659261,-5107.421000,-1608.800546,9326.594869
828.659590,-3775.050304,-2221.676944,8068.244768
828.659920,-1776.494261,-1532.190996,7179.997637
828.660249,666.185348,-306.438199,6513.812290
828.660578,2368.659014,1455.581446,7105.977043
828.660908,3182.885551,2834.553343,8364.327145
828.661237,3701.029710,4136.915689,9474.636058
828.661567,3034.844362,4749.792088,10288.862594
828.661896,1406.391290,4903.011187,11251.130318
828.662225,-888.247130,4136.915689,11917.315666
828.662555,-3256.906145,2145.067394,12287.418637
828.662884,-5033.400406,689.485948,11917.315666
828.663214,-5847.626942,-995.924147,10807.006753
828.663543,-5921.647536,-1838.629195,9252.574275
828.663872,-4959.379811,-2451.505594,7920.203579
828.664202,-3478.967927,-2528.115143,6957.935855
828.664531,-1776.494261,-1455.581446,6291.750507
828.664861,-296.082377,383.047749,6735.874072
828.665190,814.226536,3217.601092,7402.059420
828.665519,1480.411884,4290.134789,8290.306550
828.665849,1184.329507,3907.087040,9622.677246
828.666178,-518.144159,3370.820191,11473.192101
828.666507,-2960.823768,3140.991542,12731.542202
828.666837,-5255.462188,1915.238745,12879.583391
828.667166,-6513.812290,536.266849,12139.377449
828.667496,-6069.688724,-1225.752797,10066.800811
828.667825,-3775.050304,-4213.525239,8438.347739
828.668154,-1110.308913,-4519.963438,6957.935855
828.668484,1110.308913,-2681.334243,6069.688724
828.668813,3256.906145,-1455.581446,6143.709319
828.669143,4219.173869,459.657299,7550.100608
828.669472,4589.276840,2987.772442,9770.718434
828.669801,4071.132681,4596.572988,11547.212695
828.670131,2960.823768,4903.011187,12583.501014
828.670460,1332.370696,4519.963438,12509.480420
828.670790,-888.247130,2681.334243,12213.398043
828.671119,-2368.659014,0.000000,11991.336260
828.671448,-4071.132681,-1532.190996,11843.295072
828.671778,-4811.338623,-2451.505594,10584.944971
828.672107,-5033.400406,-3064.381992,9252.574275
828.672436,-3552.988522,-2834.553343,7550.100608
828.672766,-1332.370696,-2451.505594,6439.791695
828.673095,814.226536,-1532.190996,5847.626942
828.673425,2294.638420,536.266849,7031.956449
828.673754,2886.803174,3600.648841,8364.327145
828.674083,2516.700203,5286.058936,9918.759623
828.674413,1184.329507,5056.230287,10436.903782
828.674742,-592.164754,4749.792088,11695.253884
828.675072,-2368.659014,3370.820191,12213.398043
828.675401,-3849.070898,2068.457845,12435.459826
828.675730,-4515.256246,689.485948,11177.109724
828.676060,-4515.256246,-995.924147,9400.615463
828.676389,-3404.947333,-2834.553343,7550.100608
828.676718,-1702.473667,-2068.457845,6587.832884
828.677048,444.123565,-689.485948,6291.750507
828.677377,1850.514855,1072.533697,6661.853478
828.677707,2812.782580,2528.115143,7846.182985
828.678036,3108.864956,3753.867940,9104.533087
828.678365,2220.617826,4519.963438,10140.821405
828.678695,444.123565,4596.572988,10955.047942
828.679024,-1332.370696,3907.087040,11695.253884
828.679354,-3552.988522,2298.286494,12287.418637
828.679683,-5181.441594,995.924147,12213.398043
828.680012,-5477.523971,-612.876398,10955.047942
828.680342,-5995.668130,-1838.629195,9252.574275
828.680671,-4589.276840,-2298.286494,7846.182985
828.681001,-2960.823768,-2374.896044,6957.935855
828.681330,-740.205942,-1072.533697,6587.832884
828.681659,1036.288319,1302.362347,6439.791695
828.681989,2072.576638,2604.724693,6661.853478
828.682318,2812.782580,3983.696590,8808.450710
828.682647,1998.556043,4213.525239,10807.006753
828.682977,-592.164754,4213.525239,12509.480420
828.683306,-3478.967927,3600.648841,13397.727550
828.683636,-5921.647536,2604.724693,13249.686362
828.683965,-6661.853478,612.876398,12213.398043
828.684294,-5403.503377,-2451.505594,10362.883188
828.684624,-3552.988522,-4213.525239,8364.327145
828.684953,-1480.411884,-4290.134789,6587.832884
828.685283,444.123565,-2757.943793,5403.503377
828.685612,2442.679609,-766.095498,5921.647536
828.685941,3404.947333,1302.362347,7105.977043
828.686271,3849.070898,2834.553343,9326.594869
828.686600,3997.112087,4213.525239,11325.150913
828.686930,2886.803174,4903.011187,12731.542202
828.687259,444.123565,4749.792088,12435.459826
828.687588,-1702.473667,2834.553343,12287.418637
828.687918,-2664.741391,229.828649,12435.459826
828.688247,-3701.029710,-1378.971896,11917.315666
828.688576,-4367.215058,-2145.067394,10362.883188
828.688906,-4219.173869,-2528.115143,8438.347739
828.689235,-2664.741391,-2834.553343,7328.038826
828.689565,-740.205942,-2221.676944,6291.750507
828.689894,1480.411884,-1532.190996,5995.668130
828.690223,3108.864956,612.876398,7105.977043
828.690553,3552.988522,3447.429741,8734.430116
828.690882,2664.741391,4979.620737,9844.739029
828.691212,1480.411884,4903.011187,10955.047942
828.691541,0.000000,4519.963438,12435.459826
828.691870,-2294.638420,2987.772442,12657.521608
828.692200,-3997.112087,1762.019645,11843.295072
828.692529,-4737.318029,919.314598,10732.986159
828.692859,-4367.215058,-1455.581446,9548.656652
828.693188,-3330.926739,-2145.067394,8142.265362
828.693517,-2072.576638,-1838.629195,7105.977043
828.693847,-370.102971,-536.266849,6069.688724
828.694176,1406.391290,1072.533697,5921.647536
828.694505,2294.638420,2145.067394,7179.997637
828.694835,2442.679609,3524.039291,8660.409521
828.695164,2072.576638,3753.867940,9918.759623
828.695494,592.164754,3907.087040,11325.150913
828.695823,-1406.391290,3524.039291,12065.356855
828.696152,-3775.050304,2834.553343,12435.459826
828.696482,-4959.379811,1149.143247,12213.398043
828.696811,-5107.421000,-842.705048,11251.130318
828.697141,-4885.359217,-1915.238745,9696.697840
828.697470,-3775.050304,-2068.457845,8068.244768
828.697799,-2146.597232,-2298.286494,7179.997637
828.698129,-1332.370696,-1378.971896,6661.853478
828.698458,74.020594,842.705048,6439.791695
828.698787,1406.391290,2374.896044,7105.977043
828.699117,2442.679609,4060.306139,8660.409521
828.699446,1998.556043,3524.039291,10584.944971
828.699776,-222.061783,3370.820191,11917.315666
828.700105,-2886.803174,3217.601092,13249.686362
828.700434,-5329.482782,2451.505594,13471.748144
828.700764,-6587.832884,1532.190996,12213.398043
828.701093,-6291.750507,-1532.190996,9992.780217
828.701423,-3997.112087,-3447.429741,8142.265362
828.701752,-1628.453072,-4136.915689,6735.874072
828.702081,518.144159,-3217.601092,5625.565159
828.702411,2368.659014,-1378.971896,5625.565159
828.702740,3404.947333,536.266849,6439.791695
828.703070,3701.029710,2604.724693,8882.471304
828.703399,3404.947333,4136.915689,10955.047942
828.703728,2664.741391,4903.011187,12065.356855
828.704058,1258.350101,4749.792088,12583.501014
828.704387,-814.226536,3907.087040,11991.336260
828.704716,-1924.535449,842.705048,12213.398043
828.705046,-3108.864956,-689.485948,11843.295072
828.705375,-3997.112087,-1685.410096,10732.986159
828.705705,-4441.235652,-2681.334243,9326.594869
828.706034,-3330.926739,-2451.505594,7846.182985
828.706363,-1406.391290,-2298.286494,6513.812290
828.706693,666.185348,-1838.629195,5921.647536
828.707022,2220.617826,-229.828649,6735.874072
828.707352,2886.803174,2757.943793,7920.203579
828.707681,2738.761985,4596.572988,9178.553681
828.708010,2072.576638,4060.306139,10140.821405
828.708340,518.144159,4519.963438,11473.192101
828.708669,-1850.514855,3140.991542,12065.356855
828.708999,-3330.926739,1915.238745,12361.439231
828.709328,-4515.256246,1072.533697,11695.253884
828.709657,-4441.235652,-766.095498,9696.697840
828.709987,-3478.967927,-1838.629195,8512.368333
828.710316,-2368.659014,-2451.505594,7624.121203
828.710645,-1036.288319,-1149.143247,7031.956449
828.710975,814.226536,229.828649,6883.915261
828.711304,2072.576638,1838.629195,7179.997637
828.711634,2590.720797,3753.867940,8882.471304
828.711963,2368.659014,3907.087040,9770.718434
828.712292,1480.411884,3600.648841,10584.944971
828.712622,-444.123565,3600.648841,11325.150913
828.712951,-2664.741391,2528.115143,12139.377449
828.713281,-4737.318029,1915.238745,12065.356855
828.713610,-5403.503377,-229.828649,11251.130318
828.713939,-5403.503377,-1915.238745,10066.800811
828.714269,-4737.318029,-2528.115143,8734.430116
828.714598,-3552.988522,-2451.505594,7476.080014
828.714927,-1924.535449,-1762.019645,6069.688724
828.715257,-296.082377,76.609550,5847.626942
828.715586,1184.329507,1225.752797,7031.956449
828.715916,2220.617826,2681.334243,8734.430116
828.716245,1554.432478,3524.039291,10288.862594
828.716574,-148.041188,3677.258390,11843.295072
828.716904,-2590.720797,3677.258390,12879.583391
828.717233,-4737.318029,2757.943793,13841.851115
828.717563,-5995.668130,1378.971896,13101.645173
828.717892,-5477.523971,-1225.752797,10955.047942
828.718221,-4145.153275,-2911.162892,8438.347739
828.718551,-2294.638420,-4519.963438,6513.812290
828.718880,0.000000,-3524.039291,5699.585753
828.719210,1776.494261,-1532.190996,5551.544565
828.719539,2960.823768,536.266849,6439.791695
828.719868,3627.009116,2068.457845,8216.285956
828.720198,3552.988522,4213.525239,9992.780217
828.720527,2886.803174,4443.353888,11547.212695
828.720856,1480.411884,4749.792088,12435.459826
828.721186,-518.144159,3830.477490,12509.480420
828.721515,-2146.597232,1838.629195,12361.439231
828.721845,-3108.864956,-383.047749,11843.295072
828.722174,-3775.050304,-1378.971896,10881.027347
828.722503,-4219.173869,-2604.724693,9474.636058
828.722833,-3404.947333,-2604.724693,8364.327145
828.723162,-2072.576638,-2145.067394,7105.977043
828.723492,0.000000,-1149.143247,6291.750507
828.723821,2072.576638,0.000000,6883.915261
828.724150,2960.823768,1762.019645,7698.141797
828.724480,2812.782580,4136.915689,9104.533087
828.724809,2146.597232,4366.744339,10140.821405
828.725139,518.144159,4443.353888,11621.233289
828.725468,-1554.432478,4443.353888,12805.562797
828.725797,-3404.947333,2757.943793,12361.439231
828.726127,-4737.318029,1149.143247,11917.315666
828.726456,-4737.318029,-536.266849,10362.883188
828.726785,-3997.112087,-1685.410096,8808.450710
828.727115,-2294.638420,-2145.067394,7402.059420
828.727444,-592.164754,-1072.533697,6069.688724
828.727774,1184.329507,-383.047749,6365.771101
828.728103,2516.700203,1532.190996,7031.956449
828.728432,2886.803174,3294.210641,8068.244768
828.728762,2886.803174,4136.915689,9474.636058
828.729091,2294.638420,4060.306139,10881.027347
828.729421,-148.041188,4060.306139,11399.171507
828.729750,-2072.576638,3370.820191,12287.418637
828.730079,-4145.153275,1532.190996,12509.480420
828.730409,-5403.503377,229.828649,11621.233289
828.730738,-5995.668130,-1302.362347,9548.656652
828.731068,-4737.318029,-2298.286494,7920.203579
828.731397,-3330.926739,-2911.162892,6809.894666
828.731726,-1554.432478,-2374.896044,6291.750507
828.732056,0.000000,-995.924147,6957.935855
828.732385,1036.288319,1302.362347,8068.244768
828.732714,1332.370696,3677.258390,8660.409521
828.733044,1554.432478,4826.401637,9696.697840
828.733373,962.267725,4060.306139,11103.089130
828.733703,-740.205942,2987.772442,12509.480420
828.734032,-3330.926739,2451.505594,13027.624579
828.734361,-5551.544565,1532.190996,11843.295072
828.734691,-6587.832884,0.000000,11103.089130
828.735020,-5107.421000,-2604.724693,9844.739029
828.735350,-3330.926739,-4673.182538,8586.388927
828.735679,-1332.370696,-4136.915689,7179.997637
828.736008,1406.391290,-2451.505594,6069.688724
828.736338,2738.761985,-153.219100,6513.812290
828.736667,3775.050304,1685.410096,8364.327145
828.736996,3849.070898,3524.039291,9844.739029
828.737326,3404.947333,4673.182538,11251.130318
828.737655,1998.556043,4979.620737,11917.315666
828.737985,0.000000,4826.401637,12213.398043
828.738314,-1924.535449,1762.019645,12583.501014
828.738643,-3552.988522,-306.438199,12435.459826
828.738973,-4663.297435,-1225.752797,11177.109724
828.739302,-4589.276840,-1915.238745,9178.553681
828.739632,-3034.844362,-2528.115143,7328.038826
828.739961,-1184.329507,-2681.334243,6069.688724
828.740291,518.144159,-2068.457845,5403.503377
828.740620,1998.556043,76.609550,5995.668130
828.740949,2886.803174,2911.162892,7920.203579
828.741279,2886.803174,5822.325785,9918.759623
828.741608,1184.329507,5592.497135,10807.006753
828.741938,-222.061783,4443.353888,11695.253884
828.742267,-1628.453072,3140.991542,12287.418637
828.742597,-3330.926739,2068.457845,12287.418637
828.742926,-4737.318029,766.095498,11695.253884
828.743255,-5033.400406,-1072.533697,10288.862594
828.743585,-3627.009116,-2757.943793,8660.409521
828.743914,-1850.514855,-2451.505594,7179.997637
828.744244,0.000000,-1225.752797,6365.771101
828.744573,1776.494261,229.828649,6217.729913
828.744902,2664.741391,2298.286494,7254.018232
828.745232,3182.885551,3524.039291,8808.450710
828.745561,2960.823768,4749.792088,10288.862594
828.745891,1776.494261,4673.182538,11473.192101
828.746220,-296.082377,4136.915689,12065.356855
828.746550,-2442.679609,2834.553343,12435.459826
828.746879,-3701.029710,153.219100,12879.583391
828.747208,-5329.482782,-383.047749,11917.315666
828.747538,-5847.626942,-995.924147,9696.697840
828.747867,-5033.400406,-1838.629195,8142.265362
828.748197,-3330.926739,-1991.848295,6957.935855
828.748526,-1628.453072,-1532.190996,5995.668130
828.748855,74.020594,-612.876398,5995.668130
828.749185,740.205942,1378.971896,7550.100608
828.749514,1036.288319,3677.258390,9252.574275
828.749844,814.226536,4596.572988,10362.883188
828.750173,-222.061783,3983.696590,10732.986159
828.750503,-1702.473667,2757.943793,11399.171507
828.750832,-3404.947333,1685.410096,11843.295072
828.751161,-5181.441594,612.876398,11843.295072
828.751491,-5995.668130,-766.095498,11029.068536
828.751820,-5033.400406,-2681.334243,9992.780217
828.752150,-3404.947333,-3753.867940,7920.203579
828.752479,-1332.370696,-3370.820191,7476.080014
828.752809,1258.350101,-2145.067394,6883.915261
828.753138,3552.988522,-612.876398,6957.935855
828.753467,4737.318029,1532.190996,8142.265362
828.753797,4959.379811,3370.820191,9622.677246
828.754126,3997.112087,4596.572988,10881.027347
828.754456,2886.803174,4366.744339,11695.253884
828.754785,888.247130,3064.381992,12213.398043
828.755114,-1258.350101,1302.362347,13249.686362
828.755444,-3404.947333,306.438199,13175.665768
828.755773,-4885.359217,-689.485948,11769.274478
828.756103,-5033.400406,-1685.410096,9992.780217
828.756432,-3997.112087,-2528.115143,7772.162391
828.756762,-1998.556043,-3064.381992,6069.688724
828.757091,148.041188,-2221.676944,5625.565159
828.757420,1184.329507,-306.438199,6217.729913
828.757750,1850.514855,2911.162892,7698.141797
828.758079,1776.494261,4979.620737,9474.636058
828.758409,1110.308913,5209.449386,10658.965565
828.758738,0.000000,4596.572988,11325.150913
828.759067,-1184.329507,3830.477490,11843.295072
828.759397,-2738.761985,2451.505594,11991.336260
828.759726,-4219.173869,1378.971896,11399.171507
828.760056,-4515.256246,-536.266849,9918.759623
828.760385,-3552.988522,-2451.505594,8956.491898
828.760715,-1924.535449,-1838.629195,7772.162391
828.761044,74.020594,-995.924147,7402.059420
828.761373,1924.535449,306.438199,6439.791695
828.761703,3034.844362,1685.410096,7105.977043
828.762032,3478.967927,3064.381992,8068.244768
828.762362,3404.947333,4443.353888,9844.739029
828.762691,2294.638420,4826.401637,10881.027347
828.763021,296.082377,4443.353888,11473.192101
828.763350,-2072.576638,2757.943793,11991.336260
828.763679,-3923.091493,1149.143247,12805.562797
828.764009,-5551.544565,0.000000,11991.336260
828.764338,-6069.688724,-229.828649,10362.883188
828.764668,-5847.626942,-1608.800546,8808.450710
828.764997,-4219.173869,-2298.286494,7476.080014
828.765326,-2294.638420,-2374.896044,6069.688724
828.765656,-370.102971,-1838.629195,6217.729913
828.765985,888.247130,842.705048,7402.059420
828.766315,1184.329507,3370.820191,9252.574275
828.766644,1184.329507,4519.963438,9992.780217
828.766974,518.144159,3753.867940,10362.883188
828.767303,-592.164754,3217.601092,11029.068536
828.767632,-2294.638420,2221.676944,11473.192101
828.767962,-3923.091493,995.924147,11473.192101
828.768291,-5181.441594,0.000000,11029.068536
828.768621,-5403.503377,-1685.410096,9918.759623
828.768950,-3775.050304,-2834.553343,9252.574275
828.769280,-2220.617826,-3064.381992,8142.265362
828.769609,-74.020594,-1991.848295,7179.997637
828.769938,1554.432478,-689.485948,6809.894666
828.770268,2590.720797,689.485948,7772.162391
828.770597,3108.864956,2298.286494,9548.656652
828.770927,2590.720797,2911.162892,10955.047942
828.771256,1554.432478,3140.991542,11029.068536
828.771585,0.000000,3677.258390,11991.336260
828.771915,-1924.535449,1838.629195,11991.336260
828.772244,-3108.864956,-383.047749,12213.398043
828.772574,-4219.173869,-1455.581446,11621.233289
828.772903,-4367.215058,-2451.505594,10140.821405
828.773233,-4219.173869,-1762.019645,8882.471304
828.773562,-2368.659014,-1915.238745,7402.059420
828.773891,-444.123565,-1838.629195,6439.791695
828.774221,1332.370696,-766.095498,6661.853478
828.774550,2664.741391,1685.410096,7846.182985
828.774880,3256.906145,4290.134789,9178.553681
828.775209,2368.659014,4826.401637,10436.903782
828.775538,814.226536,4673.182538,10955.047942
828.775868,-1036.288319,3753.867940,11695.253884
828.776197,-2516.700203,2757.943793,11843.295072
828.776527,-3552.988522,1532.190996,11695.253884
828.776856,-3997.112087,229.828649,9770.718434
828.777186,-3849.070898,-1455.581446,8882.471304
828.777515,-2812.782580,-2068.457845,7550.100608
828.777844,-1036.288319,-1532.190996,6883.915261
828.778174,814.226536,-229.828649,6069.688724
828.778503,1776.494261,1149.143247,6809.894666
828.778833,2664.741391,2681.334243,7772.162391
828.779162,2812.782580,4060.306139,9252.574275
828.779492,2368.659014,3830.477490,10510.924376
828.779821,518.144159,3907.087040,11547.212695
828.780150,-1702.473667,3294.210641,11917.315666
828.780480,-3923.091493,2145.067394,12805.562797
828.780809,-5403.503377,766.095498,12213.398043
828.781139,-5699.585753,-153.219100,10881.027347
828.781468,-4885.359217,-1608.800546,8808.450710
828.781797,-3256.906145,-1838.629195,7179.997637
828.782127,-1184.329507,-2298.286494,6513.812290
828.782456,296.082377,-1302.362347,6439.791695
828.782786,1628.453072,689.485948,7105.977043
828.783115,1776.494261,3294.210641,8142.265362
828.783445,1776.494261,4749.792088,9770.718434
828.783774,1258.350101,4673.182538,10140.821405
828.784103,-296.082377,3907.087040,11473.192101
828.784433,-2368.659014,2451.505594,11991.336260
828.784762,-4737.318029,1455.581446,11843.295072
828.785092,-5921.647536,612.876398,11621.233289
828.785421,-5403.503377,-1532.190996,10584.944971
828.785750,-4737.318029,-3370.820191,9252.574275
828.786080,-2960.823768,-3294.210641,7920.203579
828.786409,-666.185348,-2221.676944,6735.874072
828.786739,1406.391290,-1302.362347,6513.812290
828.787068,3108.864956,153.219100,7550.100608
828.787398,3627.009116,2451.505594,9252.574275
828.787727,3108.864956,3830.477490,10436.903782
828.788056,1776.494261,4290.134789,10955.047942
828.788386,444.123565,3753.867940,11473.192101
828.788715,-1110.308913,2451.505594,11843.295072
828.789045,-2442.679609,-306.438199,12213.398043
828.789374,-3627.009116,-1532.190996,12213.398043
828.789704,-4663.297435,-1685.410096,11029.068536
828.790033,-4145.153275,-1991.848295,9326.594869
828.790362,-2442.679609,-2221.676944,7624.121203
828.790692,-148.041188,-2374.896044,5921.647536
828.791021,1850.514855,-1072.533697,6217.729913
828.791351,3182.885551,1378.971896,7328.038826
828.791680,3256.906145,3983.696590,8808.450710
828.792009,2294.638420,5439.278036,10066.800811
828.792339,296.082377,5592.497135,11325.150913
828.792668,-1258.350101,3753.867940,11843.295072
828.792998,-3330.926739,2757.943793,12361.439231
828.793327,-4737.318029,1302.362347,11843.295072
828.793657,-4959.379811,0.000000,10510.924376
828.793986,-4589.276840,-1608.800546,8882.471304
828.794315,-3256.906145,-2451.505594,7550.100608
828.794645,-1406.391290,-2145.067394,6883.915261
828.794974,666.185348,-229.828649,6365.771101
828.795304,2368.659014,1225.752797,6587.832884
828.795633,3552.988522,2987.772442,7846.182985
828.795963,3330.926739,3600.648841,9178.553681
828.796292,2664.741391,4443.353888,10658.965565
828.796621,1184.329507,4596.572988,11991.336260
828.796951,-888.247130,3600.648841,12583.501014
828.797280,-3330.926739,2528.115143,13027.624579
828.797610,-4959.379811,842.705048,12657.521608
828.797939,-5329.482782,-689.485948,10807.006753
828.798268,-4811.338623,-1608.800546,9030.512492
828.798598,-3552.988522,-2145.067394,7550.100608
828.798927,-1776.494261,-2145.067394,6439.791695
828.799257,-370.102971,-1378.971896,5699.585753
828.799586,962.267725,459.657299,6883.915261
828.799916,1258.350101,2911.162892,8216.285956
828.800245,962.267725,4290.134789,9548.656652
828.800574,222.061783,4596.572988,9770.718434
828.800904,-814.226536,3830.477490,10658.965565
828.801233,-2072.576638,1685.410096,11843.295072
828.801563,-4441.235652,1378.971896,11843.295072
828.801892,-6069.688724,536.266849,11325.150913
828.802221,-6217.729913,-1072.533697,10140.821405
828.802551,-4589.276840,-2604.724693,9104.533087
828.802880,-2442.679609,-2757.943793,7920.203579
828.803210,0.000000,-2374.896044,7105.977043
828.803539,1628.453072,-842.705048,6661.853478
828.803869,2960.823768,766.095498,7328.038826
828.804198,3256.906145,2757.943793,9030.512492
828.804527,2960.823768,3447.429741,10658.965565
828.804857,2146.597232,3830.477490,11769.274478
828.805186,222.061783,4213.525239,11917.315666
828.805516,-1406.391290,2451.505594,11917.315666
828.805845,-2516.700203,-229.828649,12287.418637
828.806175,-3552.988522,-1685.410096,11991.336260
828.806504,-4441.235652,-1608.800546,10881.027347
828.806833,-4071.132681,-2221.676944,9326.594869
828.807163,-2590.720797,-2374.896044,7624.121203
828.807492,-666.185348,-1991.848295,6291.750507
828.807822,1480.411884,-1378.971896,6143.709319
828.808151,2886.803174,536.266849,7550.100608
828.808480,2960.823768,3370.820191,8586.388927
828.808810,2220.617826,4979.620737,9844.739029
828.809139,888.247130,4596.572988,10807.006753
828.809469,-888.247130,3830.477490,11843.295072
828.809798,-2516.700203,2604.724693,12213.398043
828.810128,-4219.173869,1838.629195,11843.295072
828.810457,-5033.400406,689.485948,10881.027347
828.810786,-4441.235652,-1302.362347,9326.594869
828.811116,-3034.844362,-2681.334243,7994.224174
828.811445,-1554.432478,-2221.676944,6809.894666
828.811775,666.185348,-689.485948,5995.668130
828.812104,2146.597232,689.485948,6217.729913
828.812434,3034.844362,2604.724693,7254.018232
828.812763,3256.906145,3524.039291,9030.512492
828.813092,3034.844362,3524.039291,10436.903782
828.813422,1850.514855,4596.572988,11103.089130
828.813751,-592.164754,3983.696590,11769.274478
828.814081,-2664.741391,2681.334243,12583.501014
828.814410,-4145.153275,919.314598,12879.583391
828.814739,-5107.421000,-459.657299,11769.274478
828.815069,-4737.318029,-1532.190996,9844.739029
828.815398,-3775.050304,-1608.800546,8364.327145
828.815728,-2368.659014,-1991.848295,7179.997637
828.816057,-1110.308913,-1455.581446,6439.791695
828.816387,74.020594,0.000000,6735.874072
828.816716,1110.308913,2298.286494,8364.327145
828.817045,888.247130,4136.915689,9622.677246
828.817375,296.082377,4366.744339,10066.800811
828.817704,-814.226536,3983.696590,10436.903782
828.818034,-2146.597232,2298.286494,11251.130318
828.818363,-3701.029710,1149.143247,11695.253884
828.818692,-5255.462188,766.095498,11473.192101
828.819022,-5699.585753,-766.095498,10658.965565
828.819351,-5033.400406,-2221.676944,9252.574275
828.819681,-3108.864956,-2911.162892,8290.306550
828.820010,-962.267725,-2604.724693,7328.038826
828.820340,666.185348,-612.876398,6735.874072
828.820669,2368.659014,383.047749,7105.977043
828.820998,2960.823768,2298.286494,8882.471304
828.821328,2886.803174,3524.039291,10214.842000
828.821657,1850.514855,3830.477490,11103.089130
828.821987,666.185348,3140.991542,11547.212695
828.822316,-962.267725,2145.067394,12213.398043
828.822646,-2442.679609,1072.533697,12435.459826
828.822975,-3627.009116,-842.705048,11991.336260
828.823304,-4515.256246,-2221.676944,10807.006753
828.823634,-4441.235652,-2451.505594,9252.574275
828.823963,-2960.823768,-2298.286494,7698.141797
828.824293,-814.226536,-2374.896044,6513.812290
828.824622,888.247130,-1302.362347,6217.729913
828.824951,2146.597232,459.657299,7031.956449
828.825281,2738.761985,2451.505594,8734.430116
828.825610,2442.679609,4596.572988,9770.718434
828.825940,1036.288319,4903.011187,11177.109724
828.826269,-1036.288319,4136.915689,12065.356855
828.826599,-2590.720797,2604.724693,12583.501014
828.826928,-3701.029710,1455.581446,12213.398043
828.827257,-4663.297435,536.266849,11547.212695
828.827587,-3330.926739,-1149.143247,9548.656652
828.827916,-2738.761985,-1991.848295,7846.182985
828.828246,-1258.350101,-2068.457845,6587.832884
828.828575,888.247130,-689.485948,5847.626942
828.828904,2516.700203,995.924147,6217.729913
828.829234,3552.988522,2451.505594,7254.018232
828.829563,3108.864956,3677.258390,9030.512492
828.829893,2442.679609,4290.134789,10362.883188
828.830222,1332.370696,4366.744339,11399.171507
828.830552,-666.185348,3370.820191,12287.418637
828.830881,-3182.885551,2068.457845,12583.501014
828.831210,-4737.318029,1225.752797,11991.336260
828.831540,-5551.544565,-459.657299,11029.068536
828.831869,-4885.359217,-1455.581446,9252.574275
828.832199,-3627.009116,-1838.629195,7476.080014
828.832528,-1924.535449,-2221.676944,6365.771101
828.832858,-222.061783,-459.657299,6365.771101
828.833187,518.144159,306.438199,6957.935855
828.833516,888.247130,2681.334243,8734.430116
828.833846,814.226536,4443.353888,9770.718434
828.834175,296.082377,4366.744339,10140.821405
828.834505,-740.205942,3370.820191,10584.944971
828.834834,-1776.494261,2604.724693,11547.212695
828.835163,-3627.009116,1149.143247,11473.192101
828.835493,-5181.441594,153.219100,11399.171507
828.835822,-5921.647536,-919.314598,10362.883188
828.836152,-5329.482782,-2528.115143,9400.615463
828.836481,-3627.009116,-2987.772442,8512.368333
828.836811,-1258.350101,-2451.505594,7698.141797
828.837140,814.226536,-1149.143247,6883.915261
828.837468,2516.700203,229.828649,7105.977043
828.837797,3701.029710,1915.238745,8586.388927
828.838127,3330.926739,3294.210641,9992.780217
828.838456,2516.700203,3983.696590,11103.089130
828.838786,814.226536,3677.258390,11473.192101
828.839115,-592.164754,2681.334243,12065.356855
828.839444,-2146.597232,536.266849,12953.603985
828.839774,-3478.967927,-536.266849,12213.398043
828.840103,-4885.359217,-1302.362347,10584.944971
828.840432,-4145.153275,-1991.848295,8882.471304
828.840762,-2664.741391,-2451.505594,7254.018232
828.841091,-592.164754,-2298.286494,5921.647536
828.841421,1480.411884,-1149.143247,5181.441594
828.841750,2738.761985,229.828649,6439.791695
828.842079,2664.741391,3370.820191,8290.306550
828.842409,2368.659014,4903.011187,10288.862594
828.842738,962.267725,4903.011187,11177.109724
828.843068,-888.247130,4903.011187,11843.295072
828.843397,-2220.617826,3217.601092,12361.439231
828.843726,-4071.132681,1991.848295,12731.542202
828.844056,-4737.318029,459.657299,11695.253884
828.844385,-4219.173869,-1072.533697,9918.759623
828.844714,-3108.864956,-2757.943793,8216.285956
828.845044,-1776.494261,-2374.896044,6587.832884
828.845373,518.144159,-766.095498,5847.626942
828.845703,2368.659014,306.438199,6069.688724
828.846032,3552.988522,2221.676944,7179.997637
828.846361,3775.050304,3753.867940,8956.491898
828.846691,3552.988522,5132.839837,10436.903782
828.847020,1998.556043,4519.963438,11325.150913
828.847350,-740.205942,3983.696590,12731.542202
828.847679,-3256.906145,2834.553343,13101.645173
828.848008,-4885.359217,1378.971896,12731.542202
828.848338,-5625.565159,-383.047749,10955.047942
828.848667,-5329.482782,-1838.629195,8734.430116
828.848996,-4589.276840,-2834.553343,7105.977043
828.849326,-2886.803174,-3064.381992,5921.647536
828.849655,-1406.391290,-2451.505594,6217.729913
828.849985,-444.123565,0.000000,7328.038826
828.850314,-296.082377,3447.429741,8808.450710
828.850643,296.082377,4366.744339,9696.697840
828.850973,370.102971,4366.744339,10288.862594
828.851302,222.061783,3370.820191,10584.944971
828.851632,-1110.308913,2451.505594,11399.171507
828.851961,-2960.823768,1149.143247,12139.377449
828.852290,-4811.338623,383.047749,11917.315666
828.852620,-5551.544565,-459.657299,11029.068536
828.852949,-4589.276840,-2681.334243,9622.677246
828.853278,-2220.617826,-3447.429741,8512.368333
828.853608,0.000000,-2298.286494,7179.997637
828.853937,1998.556043,-1225.752797,5995.668130
828.854267,3701.029710,0.000000,6883.915261
828.854596,3849.070898,2451.505594,8808.450710
828.854925,3404.947333,4443.353888,10362.883188
828.855255,2146.597232,4443.353888,10881.027347
828.855584,592.164754,4060.306139,11621.233289
828.855913,-1110.308913,1915.238745,12583.501014
828.856243,-3330.926739,76.609550,13323.706956
828.856572,-4959.379811,-536.266849,12583.501014
828.856902,-5773.606348,-1225.752797,10807.006753
828.857231,-4811.338623,-1915.238745,9030.512492
828.857560,-2590.720797,-2451.505594,7031.956449
828.857890,-444.123565,-2451.505594,5329.482782
828.858219,1776.494261,-1455.581446,5255.462188
828.858549,2960.823768,1072.533697,6365.771101
828.858878,3108.864956,4596.572988,8808.450710
828.859207,2738.761985,5515.887586,10436.903782
828.859537,1628.453072,5439.278036,11251.130318
828.859866,148.041188,4443.353888,11843.295072
828.860195,-1332.370696,2911.162892,12509.480420
828.860525,-2664.741391,1762.019645,12583.501014
828.860854,-4515.256246,1149.143247,11547.212695
828.861184,-4441.235652,-1455.581446,10066.800811
828.861513,-3404.947333,-2374.896044,8808.450710
828.861842,-1924.535449,-1762.019645,7254.018232
828.862172,0.000000,-689.485948,6069.688724
828.862501,2368.659014,153.219100,5699.585753
828.862831,2886.803174,1532.190996,6439.791695
828.863160,3701.029710,3294.210641,8586.388927
828.863489,3034.844362,4213.525239,10362.883188
828.863819,1110.308913,4213.525239,11473.192101
828.864148,-888.247130,3753.867940,12065.356855
828.864477,-3034.844362,2451.505594,12805.562797
828.864807,-4737.318029,612.876398,12805.562797
828.865136,-5625.565159,-536.266849,11769.274478
828.865466,-5329.482782,-1225.752797,9696.697840
828.865795,-4293.194464,-2145.067394,7920.203579
828.866124,-2368.659014,-2145.067394,6365.771101
828.866454,-814.226536,-2221.676944,5477.523971
828.866783,740.205942,-919.314598,6439.791695
828.867113,1110.308913,1991.848295,8364.327145
828.867442,1184.329507,4443.353888,9622.677246
828.867771,1184.329507,4290.134789,9992.780217
828.868101,296.082377,3064.381992,10362.883188
828.868430,-1036.288319,2681.334243,11473.192101
828.868759,-3108.864956,1685.410096,11769.274478
828.869089,-5107.421000,766.095498,11843.295072
828.869418,-6069.688724,-536.266849,11251.130318
828.869748,-5403.503377,-2298.286494,10066.800811
828.870077,-3849.070898,-3140.991542,9104.533087
828.870406,-1628.453072,-3064.381992,8068.244768
828.870736,444.123565,-1838.629195,6809.894666
828.871065,2368.659014,-536.266849,6883.915261
828.871394,3627.009116,1762.019645,8438.347739
828.871724,3849.070898,3447.429741,10066.800811
828.872053,2960.823768,4366.744339,10807.006753
828.872383,1554.432478,4060.306139,11251.130318
828.872712,-222.061783,3140.991542,11917.315666
828.873041,-1702.473667,1072.533697,13323.706956
828.873371,-3701.029710,-383.047749,13249.686362
828.873700,-5403.503377,-459.657299,11843.295072
828.874030,-4885.359217,-1455.581446,9770.718434
828.874359,-3108.864956,-2374.896044,7920.203579
828.874688,-888.247130,-2451.505594,5773.606348
828.875018,1258.350101,-2451.505594,4663.297435
828.875347,2886.803174,-306.438199,5625.565159
828.875676,3256.906145,3217.601092,7624.121203
828.876006,2590.720797,4903.011187,9474.636058
828.876335,1406.391290,5439.278036,10807.006753
828.876665,-296.082377,5439.278036,11843.295072
828.876994,-1850.514855,3907.087040,12657.521608
828.877323,-3478.967927,2298.286494,12657.521608
828.877653,-4885.359217,995.924147,11695.253884
828.877982,-5255.462188,-995.924147,10436.903782
828.878312,-4737.318029,-2374.896044,8512.368333
828.878641,-3256.906145,-2145.067394,6883.915261
828.878970,-740.205942,-1455.581446,6217.729913
828.879300,1332.370696,-612.876398,5625.565159
828.879629,2664.741391,1072.533697,6217.729913
828.879958,3478.967927,3830.477490,8142.265362
828.880288,3404.947333,4596.572988,10066.800811
828.880617,1998.556043,4519.963438,11177.109724
828.880947,148.041188,4290.134789,12435.459826
828.881276,-1998.556043,2911.162892,13471.748144
828.881605,-3701.029710,1072.533697,13471.748144
828.881935,-5033.400406,153.219100,12435.459826
828.882264,-5403.503377,-1072.533697,10436.903782
828.882594,-4441.235652,-1762.019645,8660.409521
828.882923,-2664.741391,-2068.457845,7031.956449
828.883252,-444.123565,-2451.505594,5995.668130
828.883582,1332.370696,-1685.410096,6217.729913
828.883911,1628.453072,1149.143247,8068.244768
828.884240,1184.329507,4060.306139,9326.594869
828.884570,592.164754,4903.011187,10362.883188
828.884899,-296.082377,4443.353888,10807.006753
828.885229,-1628.453072,3140.991542,11695.253884
828.885558,-3478.967927,1991.848295,11917.315666
828.885887,-5625.565159,766.095498,11769.274478
828.886217,-6957.935855,-612.876398,10436.903782
828.886546,-6291.750507,-2221.676944,9918.759623
828.886875,-4071.132681,-3370.820191,8808.450710
828.887205,-1776.494261,-3140.991542,7105.977043
828.887534,592.164754,-1915.238745,5995.668130
828.887864,2886.803174,-766.095498,6439.791695
828.888193,4293.194464,1685.410096,7698.141797
828.888522,4515.256246,3753.867940,9474.636058
828.888852,3923.091493,4366.744339,10214.842000
828.889181,2516.700203,4519.963438,11695.253884
828.889511,666.185348,3370.820191,12805.562797
828.889840,-1480.411884,1455.581446,13767.830521
828.890169,-3701.029710,229.828649,13397.727550
828.890499,-4515.256246,-766.095498,11547.212695
828.890828,-4811.338623,-1378.971896,9474.636058
828.891157,-2960.823768,-2528.115143,7179.997637
828.891487,-814.226536,-2681.334243,5329.482782
828.891816,962.267725,-2681.334243,4367.215058
828.892146,2072.576638,-229.828649,5699.585753
828.892475,2368.659014,2987.772442,8216.285956
828.892804,1628.453072,5056.230287,10066.800811
828.893134,370.102971,5362.668486,11251.130318
828.893463,-888.247130,4979.620737,11769.274478
828.893793,-2220.617826,3524.039291,12509.480420
828.894122,-3182.885551,2221.676944,12287.418637
828.894451,-4367.215058,536.266849,11991.336260
828.894781,-5107.421000,-995.924147,10658.965565
828.895110,-4737.318029,-1915.238745,9104.533087
828.895439,-2590.720797,-2068.457845,7624.121203
828.895769,148.041188,-1608.800546,6513.812290
828.896098,2146.597232,0.000000,5477.523971
828.896428,3849.070898,1072.533697,6069.688724
828.896757,4367.215058,3064.381992,8216.285956
828.897086,3997.112087,4903.011187,10140.821405
828.897416,2072.576638,5362.668486,11399.171507
828.897745,-222.061783,4979.620737,11991.336260
828.898075,-2516.700203,3140.991542,12953.603985
828.898404,-4441.235652,1225.752797,13175.665768
828.898733,-5699.585753,-306.438199,11991.336260
828.899063,-6069.688724,-1302.362347,9992.780217
828.899392,-5181.441594,-2604.724693,7772.162391
828.899721,-3034.844362,-3294.210641,6217.729913
828.900051,-1110.308913,-2681.334243,5477.523971
828.900380,518.144159,-1072.533697,5477.523971
828.900710,1554.432478,995.924147,7254.018232
828.901039,1480.411884,3907.087040,8956.491898
828.901368,1184.329507,5132.839837,10140.821405
828.901698,222.061783,4366.744339,10807.006753
828.902027,-1258.350101,2987.772442,11621.233289
828.902356,-3256.906145,2145.067394,12509.480420
828.902686,-5107.421000,766.095498,12213.398043
828.903015,-6069.688724,0.000000,11103.089130
828.903345,-5551.544565,-1991.848295,9918.759623
828.903674,-3923.091493,-3447.429741,8808.450710
828.904003,-1702.473667,-3140.991542,7476.080014
828.904333,740.205942,-1991.848295,6513.812290
828.904662,2738.761985,-459.657299,6365.771101
828.904992,3923.091493,1455.581446,8142.265362
828.905321,3923.091493,3753.867940,9622.677246
828.905650,3404.947333,4519.963438,10881.027347
828.905980,2294.638420,4366.744339,11473.192101
828.906309,666.185348,3294.210641,12583.501014
828.906638,-1406.391290,1302.362347,13989.892304
828.906968,-4071.132681,0.000000,13841.851115
828.907297,-5699.585753,-612.876398,11843.295072
828.907627,-5033.400406,-1532.190996,9696.697840
828.907956,-3256.906145,-2451.505594,7476.080014
828.908285,-666.185348,-3064.381992,5551.544565
828.908615,1110.308913,-2681.334243,4515.256246
828.908944,2368.659014,-766.095498,5625.565159
828.909274,2368.659014,3064.381992,7994.224174
828.909603,1628.453072,5592.497135,10362.883188
828.909932,666.185348,6205.373534,10807.006753
828.910262,-592.164754,5439.278036,11695.253884
828.910591,-1480.411884,3370.820191,11991.336260
828.910920,-2886.803174,1532.190996,11991.336260
828.911250,-4219.173869,766.095498,11695.253884
828.911579,-5181.441594,-1149.143247,10066.800811
828.911909,-4737.318029,-1991.848295,8586.388927
828.912238,-2960.823768,-2298.286494,7402.059420
828.912567,-592.164754,-1149.143247,6069.688724
828.912897,1924.535449,-229.828649,5329.482782
828.913226,3627.009116,459.657299,5921.647536
828.913556,4293.194464,2911.162892,7402.059420
828.913885,3849.070898,4749.792088,9918.759623
828.914214,2220.617826,5056.230287,11695.253884
828.914544,0.000000,4826.401637,12657.521608
828.914873,-2220.617826,3140.991542,13175.665768
828.915202,-3552.988522,1455.581446,13249.686362
828.915532,-4811.338623,-229.828649,12065.356855
828.915861,-5551.544565,-1225.752797,10214.842000
828.916191,-4811.338623,-1915.238745,8290.306550
828.916520,-3404.947333,-2681.334243,6735.874072
828.916849,-1258.350101,-2987.772442,5773.606348
828.917179,74.020594,-1302.362347,5699.585753
828.917508,1184.329507,536.266849,7254.018232
828.917837,1258.350101,3140.991542,9104.533087
828.918167,1036.288319,4213.525239,10214.842000
828.918496,370.102971,4596.572988,10881.027347
828.918826,-888.247130,3447.429741,11621.233289
828.919155,-2886.803174,2451.505594,11991.336260
828.919484,-4589.276840,1072.533697,11991.336260
828.919814,-5625.565159,-383.047749,11251.130318
828.920143,-5477.523971,-1915.238745,10140.821405
828.920473,-3701.029710,-2987.772442,9178.553681
828.920802,-2220.617826,-2757.943793,7994.224174
828.921131,0.000000,-1762.019645,7105.977043
828.921461,1850.514855,-766.095498,6661.853478
828.921790,2960.823768,1072.533697,7846.182985
828.922119,3849.070898,2834.553343,9104.533087
828.922449,3182.885551,4060.306139,10510.924376
828.922778,1850.514855,3753.867940,10584.944971
828.923108,370.102971,2911.162892,11843.295072
828.923437,-1628.453072,842.705048,13249.686362
828.923766,-4145.153275,229.828649,13915.871710
828.924096,-5625.565159,153.219100,12509.480420
828.924425,-5625.565159,-1149.143247,9918.759623
828.924755,-3701.029710,-1838.629195,7772.162391
828.925084,-962.267725,-2604.724693,5773.606348
828.925413,1258.350101,-2528.115143,4441.235652
828.925743,2516.700203,-919.314598,4589.276840
828.926072,2442.679609,2987.772442,7624.121203
828.926401,2072.576638,5132.839837,10140.821405
828.926731,518.144159,5898.935335,11325.150913
828.927060,-592.164754,5439.278036,12065.356855
828.927390,-1554.432478,3677.258390,12509.480420
828.927719,-2664.741391,1608.800546,12731.542202
828.928048,-4441.235652,689.485948,11917.315666
828.928378,-5773.606348,-536.266849,10288.862594
828.928707,-4737.318029,-2298.286494,8290.306550
828.929037,-2886.803174,-2068.457845,6661.853478
828.929366,0.000000,-1915.238745,5551.544565
828.929695,2220.617826,-612.876398,5033.400406
828.930025,3330.926739,536.266849,5477.523971
828.930354,3552.988522,2757.943793,7698.141797
828.930683,3256.906145,4903.011187,10214.842000
828.931013,1776.494261,5439.278036,11843.295072
828.931342,-370.102971,4673.182538,13027.624579
828.931672,-2368.659014,3064.381992,14211.954086
828.932001,-4145.153275,1225.752797,13841.851115
828.932330,-5255.462188,-459.657299,12879.583391
828.932660,-5699.585753,-1302.362347,10658.965565
828.932989,-4885.359217,-1991.848295,8512.368333
828.933318,-3627.009116,-2451.505594,6513.812290
828.933648,-1258.350101,-2757.943793,5255.462188
828.933977,666.185348,-2221.676944,5107.421000
828.934307,1554.432478,383.047749,7031.956449
828.934636,1480.411884,3294.210641,8808.450710
828.934965,888.247130,4903.011187,10510.924376
828.935295,222.061783,4290.134789,10732.986159
828.935624,-888.247130,3370.820191,11325.150913
828.935954,-2516.700203,1685.410096,12213.398043
828.936283,-4515.256246,842.705048,12435.459826
828.936612,-5773.606348,383.047749,11325.150913
828.936942,-6291.750507,-1455.581446,10584.944971
828.937271,-4737.318029,-3064.381992,9326.594869
828.937600,-2220.617826,-2987.772442,7698.141797
828.937930,0.000000,-2068.457845,5699.585753
828.938259,2368.659014,-1149.143247,5329.482782
828.938589,3923.091493,612.876398,7105.977043
828.938918,4219.173869,3294.210641,9178.553681
828.939247,3552.988522,4519.963438,10584.944971
828.939577,2368.659014,4213.525239,11695.253884
828.939906,444.123565,3217.601092,12953.603985
828.940235,-1332.370696,2145.067394,13619.789333
828.940565,-3478.967927,1072.533697,13175.665768
828.940894,-4811.338623,-229.828649,11325.150913
828.941223,-4515.256246,-1532.190996,9252.574275
828.941553,-2886.803174,-2451.505594,7254.018232
828.941882,-888.247130,-2911.162892,5329.482782
828.942211,740.205942,-2221.676944,4885.359217
828.942540,1776.494261,-153.219100,5773.606348
828.942870,2368.659014,2451.505594,8068.244768
828.943199,2220.617826,5132.839837,10140.821405
828.943528,1554.432478,5669.106685,11251.130318
828.943858,444.123565,4979.620737,12287.418637
828.944187,-1110.308913,3217.601092,13619.789333
828.944516,-3108.864956,2145.067394,13915.871710
828.944846,-4737.318029,1072.533697,12731.542202
828.945175,-5329.482782,229.828649,10436.903782
828.945504,-4663.297435,-2068.457845,7994.224174
828.945833,-2220.617826,-2681.334243,6217.729913
828.946163,296.082377,-2068.457845,4515.256246
828.946492,2368.659014,-842.705048,3701.029710
828.946821,3404.947333,766.095498,4885.359217
828.947151,3256.906145,2987.772442,8216.285956
828.947480,2368.659014,5515.887586,10732.986159
828.947809,444.123565,6052.154434,11917.315666
828.948139,-1184.329507,4903.011187,13027.624579
828.948468,-2590.720797,2757.943793,13989.892304
828.948797,-4589.276840,536.266849,13841.851115
828.949126,-5921.647536,-536.266849,12879.583391
828.949456,-6587.832884,-1762.019645,10584.944971
828.949785,-5551.544565,-2298.286494,8290.306550
828.950114,-3034.844362,-2757.943793,6291.750507
828.950444,-296.082377,-2681.334243,4737.318029
828.950773,2072.576638,-2221.676944,4367.215058
828.951102,2516.700203,229.828649,6513.812290
828.951432,2368.659014,3907.087040,8734.430116
828.951761,1924.535449,5286.058936,10214.842000
828.952090,888.247130,4903.011187,10881.027347
828.952420,-814.226536,3677.258390,12065.356855
828.952749,-2590.720797,2221.676944,12731.542202
828.953078,-4811.338623,842.705048,12731.542202
828.953407,-7031.956449,-229.828649,11769.274478
828.953737,-7328.038826,-1991.848295,10584.944971
828.954066,-5551.544565,-3753.867940,9622.677246
828.954395,-3404.947333,-3370.820191,8438.347739
828.954725,-1184.329507,-2757.943793,6365.771101
828.955054,1406.391290,-1838.629195,5551.544565
828.955383,3330.926739,689.485948,6957.935855
828.955713,4293.194464,3447.429741,8956.491898
828.956042,4145.153275,3907.087040,10658.965565
828.956371,3034.844362,3907.087040,11843.295072
828.956700,962.267725,4136.915689,13101.645173
828.957030,-1184.329507,2757.943793,13767.830521
828.957359,-3182.885551,1532.190996,12879.583391
828.957688,-3701.029710,229.828649,11177.109724
828.958018,-3108.864956,-919.314598,9252.574275
828.958347,-1776.494261,-1762.019645,7179.997637
828.958676,-296.082377,-1991.848295,5403.503377
828.959006,1332.370696,-1532.190996,4515.256246
828.959335,2516.700203,-766.095498,5181.441594
828.959664,2516.700203,2451.505594,7994.224174
828.959993,1924.535449,5209.449386,10214.842000
828.960323,814.226536,6281.983084,11251.130318
828.960652,-518.144159,4979.620737,11843.295072
828.960981,-2220.617826,3294.210641,12361.439231
828.961311,-3404.947333,1455.581446,13323.706956
828.961640,-5625.565159,459.657299,12509.480420
828.961969,-6883.915261,-229.828649,10362.883188
828.962299,-5995.668130,-1915.238745,8512.368333
828.962628,-3478.967927,-3064.381992,6439.791695
828.962957,148.041188,-2374.896044,4811.338623
828.963287,2442.679609,-1455.581446,4293.194464
828.963616,3775.050304,689.485948,5329.482782
828.963945,4293.194464,3677.258390,8142.265362
828.964274,3849.070898,5898.935335,10510.924376
828.964604,3034.844362,6128.763984,11991.336260
828.964933,1258.350101,5286.058936,13175.665768
828.965262,-666.185348,3447.429741,14359.995275
828.965592,-2960.823768,1685.410096,14508.036463
828.965921,-5329.482782,383.047749,13397.727550
828.966250,-6735.874072,-995.924147,11325.150913
828.966580,-6143.709319,-2221.676944,8956.491898
828.966909,-4441.235652,-3064.381992,6735.874072
828.967238,-2072.576638,-3600.648841,4811.338623
828.967567,-222.061783,-3370.820191,4515.256246
828.967897,666.185348,-1838.629195,6069.688724
828.968226,1036.288319,3217.601092,8438.347739
828.968555,592.164754,4979.620737,9622.677246
828.968885,296.082377,4826.401637,10732.986159
828.969214,-888.247130,3983.696590,11325.150913
828.969543,-2220.617826,2528.115143,12065.356855
828.969873,-3701.029710,1302.362347,12065.356855
828.970202,-5403.503377,-229.828649,11769.274478
828.970531,-6069.688724,-1225.752797,11251.130318
828.970861,-4885.359217,-2834.553343,10362.883188
828.971190,-2886.803174,-3524.039291,8882.471304
828.971519,-296.082377,-2451.505594,7179.997637
828.971848,1924.535449,-1838.629195,5773.606348
828.972178,4071.132681,-153.219100,6809.894666
828.972507,4737.318029,2145.067394,8956.491898
828.972836,4367.215058,3370.820191,10658.965565
828.973166,3108.864956,3677.258390,11843.295072
828.973495,1184.329507,3830.477490,12583.501014
828.973824,-888.247130,3140.991542,12953.603985
828.974154,-2368.659014,1302.362347,13101.645173
828.974483,-3627.009116,-383.047749,11547.212695
828.974812,-3997.112087,-1149.143247,9474.636058
828.975141,-3256.906145,-1838.629195,7328.038826
828.975471,-1776.494261,-1838.629195,5847.626942
828.975800,-444.123565,-1838.629195,5033.400406
828.976129,592.164754,-459.657299,5699.585753
828.976459,1480.411884,1762.019645,7698.141797
828.976788,1406.391290,4596.572988,9030.512492
828.977117,888.247130,5898.935335,10362.883188
828.977447,0.000000,4519.963438,11103.089130
828.977776,-888.247130,3064.381992,12213.398043
828.978105,-2442.679609,1532.190996,12879.583391
828.978434,-4219.173869,1455.581446,12509.480420
828.978764,-5181.441594,383.047749,10658.965565
828.979093,-5329.482782,-919.314598,9252.574275
828.979422,-3256.906145,-2374.896044,7328.038826
828.979752,-444.123565,-2298.286494,5625.565159
828.980081,2072.576638,-1378.971896,4293.194464
828.980410,3775.050304,229.828649,4811.338623
828.980740,4293.194464,2528.115143,7402.059420
828.981069,3775.050304,4519.963438,9844.739029
828.981398,2368.659014,5286.058936,11547.212695
828.981728,666.185348,4903.011187,12657.521608
828.982057,-1036.288319,3753.867940,14137.933492
828.982386,-3478.967927,1991.848295,14582.057057
828.982715,-5847.626942,459.657299,13693.809927
828.983045,-7031.956449,-766.095498,11695.253884
828.983374,-6809.894666,-1762.019645,9400.615463
828.983703,-4737.318029,-2528.115143,7254.018232
828.984033,-2738.761985,-2911.162892,5033.400406
828.984362,-592.164754,-3370.820191,4367.215058
828.984691,740.205942,-1608.800546,5625.565159
828.985021,1480.411884,1762.019645,7772.162391
828.985350,1480.411884,4673.182538,9548.656652
828.985679,370.102971,4213.525239,10140.821405
828.986008,-370.102971,4749.792088,11399.171507
828.986338,-1332.370696,3370.820191,12139.377449
828.986667,-3108.864956,1915.238745,12583.501014
828.986996,-4737.318029,766.095498,12583.501014
828.987326,-5921.647536,-919.314598,11399.171507
828.987655,-5699.585753,-2068.457845,10214.842000
828.987984,-3627.009116,-3370.820191,9030.512492
828.988314,-1184.329507,-2681.334243,7105.977043
828.988643,1480.411884,-2145.067394,5847.626942
828.988972,3552.988522,-383.047749,6143.709319
828.989301,4959.379811,1378.971896,7476.080014
828.989631,4663.297435,3370.820191,9548.656652
828.989960,3256.906145,3830.477490,10732.986159
828.990289,1554.432478,4213.525239,12065.356855
828.990619,-592.164754,3600.648841,12879.583391
828.990948,-2664.741391,1685.410096,12731.542202
828.991277,-4145.153275,76.609550,11769.274478
828.991607,-4219.173869,-766.095498,10066.800811
828.991936,-3552.988522,-1532.190996,8290.306550
828.992265,-2146.597232,-2374.896044,6735.874072
828.992595,-444.123565,-1915.238745,5477.523971
828.992924,740.205942,-1225.752797,5477.523971
828.993253,1406.391290,1149.143247,7328.038826
828.993582,1998.556043,3830.477490,9474.636058
828.993912,1702.473667,5515.887586,10658.965565
828.994241,1406.391290,5362.668486,11325.150913
828.994570,0.000000,3370.820191,12509.480420
828.994900,-2220.617826,2145.067394,13471.748144
828.995229,-4515.256246,1302.362347,12953.603985
828.995558,-5477.523971,536.266849,11843.295072
828.995888,-5255.462188,-919.314598,9622.677246
828.996217,-3108.864956,-2451.505594,7476.080014
828.996546,-518.144159,-2681.334243,5551.544565
828.996875,2146.597232,-1685.410096,4219.173869
828.997205,3552.988522,0.000000,4515.256246
828.997534,4071.132681,2528.115143,7105.977043
828.997863,3997.112087,4519.963438,9400.615463
828.998193,1850.514855,6128.763984,11399.171507
828.998522,444.123565,5286.058936,12509.480420
828.998851,-1332.370696,3600.648841,13915.871710
828.999181,-3330.926739,2068.457845,14285.974681
828.999510,-5625.565159,153.219100,13471.748144
828.999839,-7179.997637,-842.705048,11843.295072
829.000169,-6957.935855,-1991.848295,9474.636058
829.000498,-5403.503377,-2604.724693,7031.956449
829.000827,-3034.844362,-3064.381992,5033.400406
829.001156,-518.144159,-3447.429741,4293.194464
829.001486,1554.432478,-1378.971896,4737.318029
829.001815,1850.514855,1838.629195,7105.977043
829.002144,1628.453072,4673.182538,9178.553681
829.002474,740.205942,5439.278036,10214.842000
829.002803,0.000000,4903.011187,11399.171507
829.003132,-1406.391290,3294.210641,12435.459826
829.003462,-2368.659014,1762.019645,13027.624579
829.003791,-4885.359217,689.485948,12583.501014
829.004120,-5847.626942,-919.314598,11547.212695
829.004449,-5403.503377,-2681.334243,10436.903782
829.004779,-3701.029710,-3600.648841,9030.512492
829.005108,-1628.453072,-2374.896044,7328.038826
829.005437,888.247130,-2145.067394,6069.688724
829.005767,3256.906145,-766.095498,6291.750507
829.006096,4441.235652,1149.143247,7994.224174
829.006425,4515.256246,3217.601092,9918.759623
829.006755,3256.906145,3677.258390,10955.047942
829.007084,1406.391290,3983.696590,12213.398043
829.007413,-592.164754,3677.258390,13323.706956
829.007742,-2368.659014,2221.676944,13249.686362
829.008072,-3627.009116,229.828649,11843.295072
829.008401,-3849.070898,-1072.533697,9474.636058
829.008730,-2812.782580,-1685.410096,7846.182985
829.009060,-1776.494261,-1915.238745,6513.812290
829.009389,-370.102971,-1762.019645,5255.462188
829.009718,740.205942,-766.095498,5403.503377
829.010048,1998.556043,1225.752797,7105.977043
829.010377,1628.453072,3600.648841,8808.450710
829.010706,1184.329507,5515.887586,10584.944971
829.011036,740.205942,5439.278036,11177.109724
829.011365,-222.061783,3447.429741,12139.377449
829.011694,-2072.576638,1608.800546,13027.624579
829.012023,-4293.194464,1608.800546,12435.459826
829.012353,-5255.462188,689.485948,11325.150913
829.012682,-5033.400406,-995.924147,9474.636058
829.013011,-3478.967927,-1762.019645,7476.080014
829.013341,-814.226536,-2068.457845,5921.647536
829.013670,1628.453072,-1838.629195,4293.194464
829.013999,3404.947333,-842.705048,4515.256246
829.014329,3404.947333,2374.896044,6735.874072
829.014658,3330.926739,4136.915689,9696.697840
829.014987,2072.576638,5132.839837,11399.171507
829.015316,296.082377,5209.449386,12361.439231
829.015646,-1554.432478,3907.087040,13545.768739
829.015975,-3256.906145,1685.410096,14582.057057
829.016304,-5477.523971,383.047749,13915.871710
829.016634,-7105.977043,-536.266849,12065.356855
829.016963,-6883.915261,-1302.362347,9844.739029
829.017292,-5181.441594,-2604.724693,6883.915261
829.017622,-2368.659014,-3064.381992,5033.400406
829.017951,0.000000,-3753.867940,4663.297435
829.018280,1258.350101,-1838.629195,5403.503377
829.018609,1554.432478,2221.676944,7254.018232
829.018939,1702.473667,4290.134789,9252.574275
829.019268,962.267725,5132.839837,10214.842000
829.019597,148.041188,4443.353888,11695.253884
829.019927,-1480.411884,3140.991542,12213.398043
829.020256,-2812.782580,1991.848295,12879.583391
829.020585,-4737.318029,689.485948,12583.501014
829.020915,-5625.565159,0.000000,11103.089130
829.021244,-5551.544565,-2681.334243,10510.924376
829.021573,-3775.050304,-3677.258390,9252.574275
829.021903,-1850.514855,-2757.943793,7402.059420
829.022232,592.164754,-2221.676944,6069.688724
829.022561,2960.823768,-1302.362347,5921.647536
829.022890,4441.235652,1149.143247,7994.224174
829.023220,4589.276840,2757.943793,9918.759623
829.023549,3627.009116,3524.039291,10955.047942
829.023878,1850.514855,4213.525239,11991.336260
829.024208,-370.102971,4213.525239,12583.501014
829.024537,-1924.535449,2451.505594,13249.686362
829.024866,-3330.926739,689.485948,12139.377449
829.025196,-3701.029710,-229.828649,10288.862594
829.025525,-3108.864956,-1455.581446,8142.265362
829.025854,-1702.473667,-1225.752797,6809.894666
829.026183,-666.185348,-1608.800546,5107.421000
829.026513,370.102971,-1225.752797,5033.400406
829.026842,1258.350101,919.314598,6809.894666
829.027171,1480.411884,3370.820191,8956.491898
829.027501,1184.329507,5209.449386,10510.924376
829.027830,888.247130,4366.744339,11621.233289
829.028159,-666.185348,3294.210641,12509.480420
829.028489,-2294.638420,2604.724693,13027.624579
829.028818,-3923.091493,1762.019645,12953.603985
829.029147,-5329.482782,919.314598,11177.109724
829.029477,-5033.400406,-383.047749,9178.553681
829.029806,-2960.823768,-2298.286494,7476.080014
829.030135,-370.102971,-2298.286494,5477.523971
829.030464,1628.453072,-1532.190996,4515.256246
829.030794,2442.679609,383.047749,4663.297435
829.031123,3034.844362,2221.676944,6957.935855
829.031452,2738.761985,4060.306139,9918.759623
829.031782,1628.453072,5669.106685,11399.171507
829.032111,74.020594,5056.230287,12287.418637
829.032440,-1554.432478,3064.381992,13619.789333
829.032770,-3330.926739,1455.581446,14359.995275
829.033099,-5403.503377,0.000000,13397.727550
829.033428,-6957.935855,-842.705048,11843.295072
829.033757,-7105.977043,-1608.800546,9474.636058
829.034087,-5403.503377,-2451.505594,7402.059420
829.034416,-2812.782580,-3294.210641,5255.462188
829.034745,-148.041188,-3217.601092,3923.091493
829.035075,1036.288319,-1991.848295,4959.379811
829.035404,1406.391290,1532.190996,7328.038826
829.035733,1036.288319,4290.134789,9474.636058
829.036063,518.144159,4903.011187,10732.986159
829.036392,0.000000,3830.477490,11103.089130
829.036721,-1184.329507,3753.867940,12213.398043
829.037050,-2368.659014,1608.800546,13027.624579
829.037380,-4663.297435,536.266849,12805.562797
829.037709,-6143.709319,-536.266849,11843.295072
829.038038,-5921.647536,-2528.115143,11029.068536
829.038368,-3997.112087,-3064.381992,9326.594869
829.038697,-2368.659014,-2604.724693,7179.997637
829.039026,518.144159,-2528.115143,5403.503377
829.039356,3478.967927,-1915.238745,5181.441594
829.039685,5181.441594,612.876398,7179.997637
829.040014,5033.400406,3140.991542,9030.512492
829.040343,3849.070898,4060.306139,10362.883188
829.040673,2146.597232,4519.963438,11843.295072
829.041002,74.020594,4290.134789,13101.645173
829.041331,-1480.411884,2528.115143,13693.809927
829.041661,-3108.864956,766.095498,12657.521608
829.041990,-3775.050304,-229.828649,10436.903782
829.042319,-3256.906145,-995.924147,8882.471304
829.042648,-2294.638420,-1455.581446,6957.935855
829.042978,-592.164754,-2145.067394,5329.482782
829.043307,962.267725,-1378.971896,4885.359217
829.043636,1850.514855,842.705048,6587.832884
829.043966,1998.556043,3524.039291,8438.347739
829.044295,1702.473667,5362.668486,9992.780217
829.044624,888.247130,5132.839837,11029.068536
829.044953,-444.123565,3983.696590,12361.439231
829.045283,-2146.597232,2374.896044,13323.706956
829.045612,-4367.215058,1991.848295,12731.542202
829.045941,-5773.606348,842.705048,11325.150913
829.046271,-6069.688724,-919.314598,9474.636058
829.046600,-4367.215058,-2298.286494,7698.141797
829.046929,-1480.411884,-2374.896044,5847.626942
829.047258,740.205942,-1685.410096,4441.235652
829.047588,2072.576638,-383.047749,4737.318029
829.047917,3108.864956,1532.190996,6883.915261
829.048246,3182.885551,3983.696590,9622.677246
829.048576,2590.720797,6205.373534,11325.150913
829.048905,1628.453072,5975.544884,11991.336260
829.049234,222.061783,4290.134789,13323.706956
829.049563,-2146.597232,2298.286494,14211.954086
829.049893,-4219.173869,766.095498,14063.912898
829.050222,-6365.771101,-459.657299,12139.377449
829.050551,-7031.956449,-1072.533697,9548.656652
829.050881,-5773.606348,-1991.848295,7772.162391
829.051210,-3627.009116,-3600.648841,5403.503377
829.051539,-1110.308913,-3830.477490,4145.153275
829.051868,666.185348,-2834.553343,4589.276840
829.052198,1406.391290,919.314598,6735.874072
829.052527,888.247130,3907.087040,9104.533087
829.052856,222.061783,4979.620737,10732.986159
829.053186,-370.102971,4979.620737,11695.253884
829.053515,-1480.411884,3983.696590,12657.521608
829.053844,-2664.741391,2374.896044,13397.727550
829.054173,-4367.215058,612.876398,12805.562797
829.054503,-5847.626942,-229.828649,11991.336260
829.054832,-6069.688724,-2145.067394,11325.150913
829.055161,-4589.276840,-3217.601092,9770.718434
829.055491,-2294.638420,-2834.553343,7254.018232
829.055820,518.144159,-2528.115143,5625.565159
829.056149,3552.988522,-2068.457845,4885.359217
829.056478,5551.544565,229.828649,6513.812290
829.056808,5625.565159,3064.381992,9030.512492
829.057137,4441.235652,4290.134789,10362.883188
829.057466,2368.659014,4749.792088,12139.377449
829.057795,370.102971,4903.011187,13249.686362
829.058125,-1702.473667,3140.991542,13323.706956
829.058454,-3034.844362,842.705048,12657.521608
829.058783,-3478.967927,-383.047749,10584.944971
829.059113,-3108.864956,-1532.190996,9104.533087
829.059442,-2220.617826,-1838.629195,7328.038826
829.059771,-962.267725,-1762.019645,5847.626942
829.060100,-222.061783,-1532.190996,5033.400406
829.060430,740.205942,383.047749,6217.729913
829.060759,1406.391290,2987.772442,8586.388927
829.061088,962.267725,5209.449386,10288.862594
829.061418,592.164754,5132.839837,11177.109724
829.061747,-370.102971,3524.039291,11843.295072
829.062076,-1998.556043,2681.334243,13175.665768
829.062405,-3997.112087,1838.629195,13471.748144
829.062735,-5847.626942,1302.362347,11769.274478
829.063064,-5625.565159,-536.266849,9474.636058
829.063393,-3775.050304,-1838.629195,7772.162391
829.063723,-740.205942,-2528.115143,6439.791695
829.064052,1850.514855,-2145.067394,4737.318029
829.064381,3256.906145,-229.828649,4441.235652
829.064710,3997.112087,2374.896044,6439.791695
829.065040,3627.009116,4366.744339,9622.677246
829.065369,2368.659014,6052.154434,11621.233289
829.065698,814.226536,5975.544884,12287.418637
829.066028,-666.185348,4596.572988,13175.665768
829.066357,-2590.720797,2451.505594,13767.830521
829.066686,-4441.235652,229.828649,13915.871710
829.067015,-7179.997637,-689.485948,11991.336260
829.067345,-8142.265362,-1378.971896,9770.718434
829.067674,-7031.956449,-2604.724693,7550.100608
829.068003,-3775.050304,-3983.696590,5403.503377
829.068333,-1184.329507,-4213.525239,4293.194464
829.068662,592.164754,-3064.381992,4663.297435
829.068991,1628.453072,459.657299,6513.812290
829.069320,1480.411884,3907.087040,8808.450710
829.069650,740.205942,5209.449386,10510.924376
829.069979,370.102971,4519.963438,11177.109724
829.070308,-370.102971,3677.258390,12583.501014
829.070638,-1850.514855,2528.115143,13323.706956
829.070967,-3701.029710,689.485948,13101.645173
829.071296,-5477.523971,0.000000,12213.398043
829.071625,-5255.462188,-2145.067394,11251.130318
829.071955,-4441.235652,-3140.991542,10362.883188
829.072284,-2590.720797,-2757.943793,8290.306550
829.072613,74.020594,-2528.115143,6217.729913
829.072943,2812.782580,-1838.629195,5477.523971
829.073272,4367.215058,229.828649,6661.853478
829.073601,4737.318029,2681.334243,9400.615463
829.073930,3849.070898,3830.477490,10658.965565
829.074260,2146.597232,4290.134789,11547.212695
829.074589,148.041188,4136.915689,12583.501014
829.074918,-1332.370696,2221.676944,12953.603985
829.075248,-2738.761985,612.876398,12287.418637
829.075577,-3627.009116,-536.266849,10658.965565
829.075906,-3404.947333,-1149.143247,9104.533087
829.076235,-2590.720797,-1455.581446,7476.080014
829.076565,-1406.391290,-1608.800546,6143.709319
829.076894,0.000000,-995.924147,5033.400406
829.077223,1110.308913,229.828649,6069.688724
829.077553,1924.535449,2834.553343,8142.265362
829.077882,1776.494261,4903.011187,9622.677246
829.078211,814.226536,5132.839837,10658.965565
829.078540,0.000000,4519.963438,11399.171507
829.078870,-1702.473667,2911.162892,12731.542202
829.079199,-3404.947333,1991.848295,12953.603985
829.079528,-5033.400406,1378.971896,11917.315666
829.079858,-5773.606348,-306.438199,10066.800811
829.080187,-4663.297435,-1915.238745,8290.306550
829.080516,-2072.576638,-2221.676944,6809.894666
829.080845,444.123565,-1915.238745,4885.359217
829.081175,2072.576638,-689.485948,4515.256246
829.081504,3034.844362,1149.143247,5921.647536
829.081833,3108.864956,3447.429741,8808.450710
829.082163,2738.761985,5898.935335,11103.089130
829.082492,1184.329507,5822.325785,11917.315666
829.082821,-148.041188,4596.572988,12879.583391
829.083150,-1924.535449,2604.724693,14137.933492
829.083480,-4367.215058,612.876398,14063.912898
829.083809,-7031.956449,229.828649,12805.562797
829.084138,-7698.141797,-919.314598,10732.986159
829.084468,-7105.977043,-2068.457845,8956.491898
829.084797,-4811.338623,-2987.772442,6513.812290
829.085126,-1998.556043,-3830.477490,4737.318029
