#time,accel_x,accel_y,accel_z
890.103223,-962.267725,1225.752797,9252.574275
890.103552,-1110.308913,1072.533697,9400.615463
890.103882,-962.267725,1072.533697,9400.615463
890.104212,-1110.308913,919.314598,9474.636058
890.104542,-962.267725,1149.143247,9474.636058
890.104871,-814.226536,536.266849,9252.574275
890.105201,-1184.329507,1072.533697,9474.636058
890.105531,-1110.308913,919.314598,9474.636058
890.105860,-1036.288319,1072.533697,9622.677246
890.106190,-1036.288319,1072.533697,9622.677246
890.106520,-814.226536,919.314598,9474.636058
890.106849,-1184.329507,1072.533697,9400.615463
890.107179,-1110.308913,919.314598,9474.636058
890.107509,-1184.329507,842.705048,9696.697840
890.107839,-1184.329507,842.705048,9622.677246
890.108168,-1036.288319,766.095498,9548.656652
890.108498,-740.205942,612.876398,9696.697840
890.108828,-962.267725,919.314598,9844.739029
890.109157,-1036.288319,842.705048,9770.718434
890.109487,-1184.329507,919.314598,9622.677246
890.109817,-1036.288319,842.705048,9622.677246
890.110146,-740.205942,1072.533697,9622.677246
890.110476,-1258.350101,995.924147,9622.677246
890.110806,-1110.308913,689.485948,9548.656652
890.111136,-1110.308913,919.314598,9548.656652
890.111465,-1036.288319,689.485948,9548.656652
890.111795,-1184.329507,995.924147,9104.533087
890.112125,-888.247130,689.485948,9622.677246
890.112454,-888.247130,919.314598,9474.636058
890.112784,-1110.308913,919.314598,9548.656652
890.113114,-1036.288319,919.314598,9474.636058
890.113443,-1110.308913,995.924147,9326.594869
890.113773,-814.226536,1302.362347,9474.636058
890.114103,-1036.288319,995.924147,9474.636058
890.114433,-1036.288319,766.095498,9474.636058
890.114762,-1184.329507,842.705048,9400.615463
890.115092,-1036.288319,842.705048,9474.636058
890.115422,-740.205942,1149.143247,9474.636058
890.115751,-962.267725,1455.581446,9474.636058
890.116081,-1110.308913,995.924147,9474.636058
890.116411,-1036.288319,1072.533697,9474.636058
890.116741,-962.267725,1072.533697,9400.615463
890.117070,-962.267725,1302.362347,9696.697840
890.117400,-1110.308913,689.485948,8956.491898
890.117730,-1110.308913,689.485948,9474.636058
890.118059,-1184.329507,919.314598,9474.636058
890.118389,-1036.288319,766.095498,9622.677246
890.118719,-666.185348,1225.752797,9770.718434
890.119048,-1110.308913,919.314598,9696.697840
890.119378,-1184.329507,1072.533697,9622.677246
890.119708,-1110.308913,1149.143247,9770.718434
890.120038,-962.267725,919.314598,9622.677246
890.120367,-962.267725,919.314598,9474.636058
890.120697,-814.226536,229.828649,9400.615463
890.121027,-1036.288319,459.657299,9400.615463
890.121356,-1110.308913,766.095498,9770.718434
890.121686,-1184.329507,689.485948,9622.677246
890.122016,-1110.308913,612.876398,9474.636058
890.122345,-1258.350101,995.924147,9548.656652
890.122675,-666.185348,1072.533697,9696.697840
890.123005,-962.267725,919.314598,9474.636058
890.123335,-888.247130,842.705048,9474.636058
890.123664,-592.164754,1072.533697,9252.574275
890.123994,0.000000,919.314598,9104.533087
890.124324,1184.329507,459.657299,9622.677246
890.124653,1036.288319,689.485948,8882.471304
890.124983,444.123565,766.095498,9030.512492
890.125313,444.123565,612.876398,9622.677246
890.125642,0.000000,995.924147,10140.821405
890.125972,-666.185348,1455.581446,10288.862594
890.126302,-814.226536,919.314598,10288.862594
890.126632,-444.123565,153.219100,9844.739029
890.126961,148.041188,0.000000,9326.594869
890.127291,1184.329507,0.000000,9178.553681
890.127621,1924.535449,229.828649,8364.327145
890.127950,3256.906145,919.314598,8364.327145
890.128280,3552.988522,1378.971896,8734.430116
890.128610,3775.050304,1838.629195,9326.594869
890.128939,3627.009116,2145.067394,9770.718434
890.129269,3108.864956,1762.019645,10214.842000
890.129599,3034.844362,766.095498,10658.965565
890.129929,1702.473667,842.705048,10658.965565
890.130258,1332.370696,306.438199,11103.089130
890.130588,1406.391290,-229.828649,10658.965565
890.130918,1850.514855,-229.828649,10214.842000
890.131247,2442.679609,-229.828649,9178.553681
890.131577,3552.988522,-229.828649,8956.491898
890.131907,4293.194464,766.095498,9104.533087
890.132236,4663.297435,1685.410096,9474.636058
890.132566,3849.070898,2528.115143,9622.677246
890.132896,2368.659014,2834.553343,10436.903782
890.133226,1036.288319,3217.601092,10214.842000
890.133555,-888.247130,2757.943793,10436.903782
890.133885,-2220.617826,1838.629195,9474.636058
890.134215,-1702.473667,153.219100,8512.368333
890.134544,0.000000,-995.924147,7476.080014
890.134874,1702.473667,-1762.019645,6735.874072
890.135204,2664.741391,-995.924147,6217.729913
890.135534,3849.070898,229.828649,7031.956449
890.135863,3775.050304,1685.410096,8512.368333
890.136193,2886.803174,3753.867940,10362.883188
890.136523,1776.494261,4366.744339,11843.295072
890.136852,888.247130,4290.134789,12583.501014
890.137182,-148.041188,2451.505594,12361.439231
890.137512,-814.226536,383.047749,11991.336260
890.137841,-1258.350101,-1378.971896,10955.047942
890.138171,-518.144159,-2068.457845,9844.739029
890.138501,296.082377,-2145.067394,8734.430116
890.138831,1998.556043,-1608.800546,7994.224174
890.139160,3701.029710,-1072.533697,7476.080014
890.139490,4811.338623,306.438199,7179.997637
890.139820,5033.400406,2298.286494,7624.121203
890.140149,4367.215058,3600.648841,8290.306550
890.140479,3182.885551,4519.963438,9844.739029
890.140809,2146.597232,4290.134789,10807.006753
890.141138,888.247130,3294.210641,10881.027347
890.141468,-444.123565,1302.362347,11251.130318
890.141798,-1628.453072,-1149.143247,11029.068536
890.142128,-2812.782580,-1608.800546,10436.903782
890.142457,-3923.091493,-1838.629195,10436.903782
890.142787,-3775.050304,-2451.505594,10584.944971
890.143117,-2960.823768,-1455.581446,9992.780217
890.143446,-1110.308913,-842.705048,9178.553681
890.143776,592.164754,76.609550,8290.306550
890.144106,2664.741391,76.609550,7402.059420
890.144435,4589.276840,306.438199,7402.059420
890.144765,5699.585753,1149.143247,8216.285956
890.145095,5625.565159,1532.190996,8734.430116
890.145425,4367.215058,1762.019645,9622.677246
890.145754,2812.782580,2298.286494,10732.986159
890.146084,1258.350101,2451.505594,11769.274478
890.146414,0.000000,2221.676944,12065.356855
890.146743,-1184.329507,1762.019645,11621.233289
890.147073,-1702.473667,919.314598,10288.862594
890.147403,-1554.432478,0.000000,9622.677246
890.147732,-1480.411884,-383.047749,8956.491898
890.148062,-1776.494261,-383.047749,7846.182985
890.148392,-2294.638420,0.000000,7179.997637
890.148722,-2368.659014,612.876398,7179.997637
890.149051,-1258.350101,1149.143247,7698.141797
890.149381,-1258.350101,1302.362347,8364.327145
890.149711,-1776.494261,1072.533697,8660.409521
890.150040,-1998.556043,1225.752797,9178.553681
890.150370,-2072.576638,1455.581446,10436.903782
890.150700,-2590.720797,919.314598,11917.315666
890.151029,-2664.741391,1838.629195,12287.418637
890.151359,-2146.597232,1608.800546,11399.171507
890.151689,-888.247130,383.047749,10658.965565
890.152019,0.000000,383.047749,10140.821405
890.152348,296.082377,1225.752797,9474.636058
890.152678,740.205942,766.095498,9326.594869
890.153008,814.226536,1455.581446,9178.553681
890.153337,1258.350101,2604.724693,9844.739029
890.153667,1702.473667,2987.772442,9030.512492
890.153997,2072.576638,2298.286494,7624.121203
890.154326,2072.576638,2145.067394,7328.038826
890.154656,2072.576638,1685.410096,7994.224174
890.154986,1036.288319,1991.848295,9548.656652
890.155316,-888.247130,1991.848295,10214.842000
890.155645,-2664.741391,1608.800546,10214.842000
890.155975,-4071.132681,1378.971896,10214.842000
890.156305,-4515.256246,689.485948,10658.965565
890.156634,-4219.173869,0.000000,10288.862594
890.156964,-4219.173869,-459.657299,9696.697840
890.157294,-4293.194464,-689.485948,9326.594869
890.157624,-3923.091493,0.000000,8660.409521
890.157953,-3552.988522,459.657299,8808.450710
890.158283,-2368.659014,766.095498,8142.265362
890.158613,-814.226536,1302.362347,7328.038826
890.158942,814.226536,1532.190996,7402.059420
890.159272,2294.638420,1685.410096,7846.182985
890.159602,2664.741391,1225.752797,8364.327145
890.159931,1924.535449,1915.238745,9548.656652
890.160261,740.205942,2298.286494,10732.986159
890.160591,-370.102971,2298.286494,11991.336260
890.160921,-1406.391290,1532.190996,12287.418637
890.161250,-2072.576638,459.657299,11547.212695
890.161580,-2368.659014,-459.657299,11325.150913
890.161910,-2072.576638,-919.314598,10658.965565
890.162239,-1480.411884,-1149.143247,10066.800811
890.162569,-1480.411884,-1149.143247,9770.718434
890.162899,-1480.411884,-536.266849,9622.677246
890.163228,-1924.535449,0.000000,9400.615463
890.163558,-1998.556043,995.924147,8808.450710
890.163888,-1480.411884,842.705048,8808.450710
890.164218,-666.185348,229.828649,8586.388927
890.164547,-518.144159,1302.362347,8734.430116
890.164877,-518.144159,1532.190996,8068.244768
890.165207,0.000000,1608.800546,8438.347739
890.165536,592.164754,1072.533697,8808.450710
890.165866,740.205942,919.314598,9548.656652
890.166196,740.205942,1685.410096,10584.944971
890.166525,296.082377,2145.067394,10955.047942
890.166855,0.000000,2298.286494,11103.089130
890.167185,-444.123565,2451.505594,10658.965565
890.167515,-592.164754,2298.286494,9770.718434
890.167844,-370.102971,689.485948,9400.615463
890.168174,-370.102971,-306.438199,8808.450710
890.168504,-1850.514855,-612.876398,8882.471304
890.168833,-2516.700203,-766.095498,8808.450710
890.169163,-2960.823768,0.000000,8512.368333
890.169493,-2516.700203,-306.438199,7920.203579
890.169822,-962.267725,-153.219100,7550.100608
890.170152,444.123565,459.657299,8068.244768
890.170482,1184.329507,1072.533697,8808.450710
890.170812,962.267725,2987.772442,8956.491898
890.171141,370.102971,4060.306139,9326.594869
890.171471,-296.082377,3600.648841,10066.800811
890.171801,-1184.329507,2681.334243,11029.068536
890.172130,-2294.638420,1991.848295,10955.047942
890.172460,-3701.029710,995.924147,11177.109724
890.172790,-4071.132681,-612.876398,11325.150913
890.173119,-4441.235652,-536.266849,10658.965565
890.173449,-3923.091493,-1378.971896,9622.677246
890.173778,-3108.864956,-1991.848295,8956.491898
890.174107,-1924.535449,-1072.533697,8660.409521
890.174437,-666.185348,-229.828649,8586.388927
890.174766,148.041188,459.657299,8660.409521
890.175095,1184.329507,1915.238745,8808.450710
890.175425,1924.535449,1608.800546,9474.636058
890.175754,1702.473667,2374.896044,9770.718434
890.176083,1480.411884,2911.162892,9918.759623
890.176413,1406.391290,2374.896044,9918.759623
890.176742,814.226536,842.705048,10066.800811
890.177071,0.000000,689.485948,10881.027347
890.177401,-1110.308913,1302.362347,11103.089130
890.177730,-1702.473667,689.485948,11251.130318
890.178060,-1998.556043,995.924147,10510.924376
890.178389,-2368.659014,1225.752797,9918.759623
890.178718,-2294.638420,1072.533697,9030.512492
890.179048,-2294.638420,536.266849,8586.388927
890.179377,-2368.659014,153.219100,8216.285956
890.179706,-2960.823768,0.000000,7624.121203
890.180036,-2960.823768,-612.876398,7624.121203
890.180365,-2738.761985,-689.485948,7550.100608
890.180694,-1702.473667,0.000000,7179.997637
890.181024,-444.123565,0.000000,7994.224174
890.181353,740.205942,153.219100,8216.285956
890.181683,1554.432478,1378.971896,8734.430116
890.182012,1628.453072,2145.067394,9770.718434
890.182341,1628.453072,2987.772442,10732.986159
890.182671,444.123565,3753.867940,12435.459826
890.183000,-962.267725,3753.867940,12805.562797
890.183329,-2146.597232,2374.896044,12065.356855
890.183659,-2368.659014,919.314598,11473.192101
890.183988,-2146.597232,459.657299,10658.965565
890.184317,-1924.535449,-536.266849,9474.636058
890.184647,-2146.597232,-1608.800546,8586.388927
890.184976,-2072.576638,-1762.019645,8142.265362
890.185306,-1850.514855,-995.924147,8290.306550
890.185635,-1480.411884,306.438199,8808.450710
890.185964,-1406.391290,1149.143247,8734.430116
890.186294,-148.041188,2374.896044,9178.553681
890.186623,518.144159,2451.505594,9474.636058
890.186952,740.205942,2451.505594,9474.636058
890.187282,1036.288319,3064.381992,9252.574275
890.187611,814.226536,2298.286494,9400.615463
890.187940,0.000000,1608.800546,10140.821405
890.188270,-814.226536,2068.457845,11177.109724
890.188599,-1554.432478,1608.800546,11325.150913
890.188929,-2220.617826,919.314598,10436.903782
890.189258,-2146.597232,1225.752797,9622.677246
890.189587,-1998.556043,995.924147,10066.800811
890.189917,-1702.473667,766.095498,9622.677246
890.190246,-2146.597232,689.485948,8808.450710
890.190575,-2368.659014,612.876398,7772.162391
890.190905,-2220.617826,383.047749,7476.080014
890.191234,-1924.535449,536.266849,7624.121203
890.191563,-1258.350101,689.485948,7772.162391
890.191893,-962.267725,995.924147,7698.141797
890.192222,-444.123565,1072.533697,8216.285956
890.192552,0.000000,2068.457845,8364.327145
890.192881,444.123565,1532.190996,9326.594869
890.193210,370.102971,1838.629195,10881.027347
890.193540,-666.185348,2528.115143,11695.253884
890.193869,-1776.494261,2911.162892,12213.398043
890.194198,-2442.679609,2528.115143,12287.418637
890.194528,-3034.844362,1378.971896,11177.109724
890.194857,-2812.782580,383.047749,10807.006753
890.195186,-2368.659014,-383.047749,9622.677246
890.195516,-1554.432478,-1149.143247,8586.388927
890.195845,-962.267725,-1378.971896,8438.347739
890.196175,-1184.329507,-919.314598,7994.224174
890.196504,-962.267725,536.266849,8438.347739
890.196833,-740.205942,842.705048,8586.388927
890.197163,-222.061783,1532.190996,8808.450710
890.197492,518.144159,1915.238745,9474.636058
890.197821,666.185348,1915.238745,9696.697840
890.198151,740.205942,2068.457845,9326.594869
890.198480,888.247130,1685.410096,9696.697840
890.198809,518.144159,1072.533697,10214.842000
890.199139,222.061783,995.924147,10807.006753
890.199468,-740.205942,1608.800546,11473.192101
890.199798,-1036.288319,919.314598,10436.903782
890.200127,-1332.370696,766.095498,9770.718434
890.200456,-1628.453072,229.828649,9326.594869
890.200786,-962.267725,76.609550,9474.636058
890.201115,-1332.370696,306.438199,9326.594869
890.201444,-1036.288319,459.657299,8956.491898
890.201774,-2146.597232,-153.219100,8142.265362
890.202103,-2072.576638,-306.438199,8142.265362
890.202432,-1776.494261,-536.266849,7698.141797
890.202762,-888.247130,-766.095498,7994.224174
890.203091,0.000000,229.828649,8882.471304
890.203421,518.144159,1302.362347,9178.553681
890.203750,74.020594,1838.629195,9474.636058
890.204079,222.061783,1915.238745,9770.718434
890.204409,74.020594,2528.115143,10436.903782
890.204738,0.000000,2681.334243,11103.089130
890.205067,-518.144159,2451.505594,11621.233289
890.205397,-592.164754,1608.800546,10881.027347
890.205726,-1554.432478,689.485948,10584.944971
890.206055,-2294.638420,153.219100,10584.944971
890.206385,-3034.844362,76.609550,10066.800811
890.206714,-3034.844362,-306.438199,9104.533087
890.207044,-2664.741391,-1378.971896,8882.471304
890.207373,-2664.741391,-689.485948,8512.368333
890.207702,-2812.782580,-842.705048,8068.244768
890.208032,-2294.638420,-1149.143247,8290.306550
890.208361,-1406.391290,0.000000,9178.553681
890.208690,-1110.308913,1532.190996,10140.821405
890.209020,-592.164754,1608.800546,10436.903782
890.209349,296.082377,1915.238745,9696.697840
890.209678,1628.453072,1608.800546,9252.574275
890.210008,2294.638420,1455.581446,9770.718434
890.210337,2368.659014,2145.067394,10584.944971
890.210667,814.226536,2528.115143,11103.089130
890.210996,-444.123565,2451.505594,10881.027347
890.211325,-1554.432478,1838.629195,10362.883188
890.211655,-1850.514855,1455.581446,9918.759623
890.211984,-1554.432478,459.657299,9622.677246
890.212313,-1702.473667,-995.924147,8808.450710
890.212643,-2442.679609,-306.438199,8290.306550
890.212972,-3034.844362,-536.266849,7698.141797
890.213301,-3182.885551,-612.876398,7402.059420
890.213631,-2738.761985,0.000000,7698.141797
890.213960,-2294.638420,842.705048,8068.244768
890.214290,-1406.391290,1608.800546,8438.347739
890.214619,-518.144159,1685.410096,8586.388927
890.214948,0.000000,1685.410096,9104.533087
890.215278,-370.102971,1991.848295,10288.862594
890.215607,-962.267725,2987.772442,11843.295072
890.215936,-2146.597232,3064.381992,12657.521608
890.216266,-2812.782580,3064.381992,12435.459826
890.216595,-3034.844362,1608.800546,11843.295072
890.216924,-2664.741391,459.657299,11177.109724
890.217254,-1850.514855,383.047749,9770.718434
890.217583,-1332.370696,-919.314598,8660.409521
890.217913,-444.123565,-919.314598,8068.244768
890.218242,0.000000,-383.047749,7846.182985
890.218571,0.000000,76.609550,7846.182985
890.218901,814.226536,995.924147,8364.327145
890.219230,1184.329507,1762.019645,8734.430116
890.219559,1332.370696,2528.115143,9696.697840
890.219889,1332.370696,2757.943793,10066.800811
890.220218,1110.308913,2834.553343,9918.759623
890.220547,666.185348,2451.505594,9844.739029
890.220877,370.102971,1991.848295,9992.780217
890.221206,-740.205942,1991.848295,9992.780217
890.221536,-1480.411884,1838.629195,10436.903782
890.221865,-2368.659014,1072.533697,10362.883188
890.222194,-2960.823768,995.924147,9918.759623
890.222524,-3108.864956,1072.533697,9400.615463
890.222853,-3108.864956,459.657299,8586.388927
890.223182,-2738.761985,-306.438199,8216.285956
890.223512,-2590.720797,-536.266849,8290.306550
890.223841,-2368.659014,0.000000,8216.285956
890.224170,-2368.659014,0.000000,7846.182985
890.224500,-1924.535449,0.000000,7846.182985
890.224829,-740.205942,612.876398,8808.450710
890.225159,148.041188,1072.533697,9252.574275
890.225488,814.226536,1455.581446,9400.615463
890.225817,1258.350101,1991.848295,9400.615463
890.226147,1554.432478,2681.334243,9992.780217
890.226476,1332.370696,1991.848295,11029.068536
890.226805,0.000000,2374.896044,11843.295072
890.227135,-1480.411884,2757.943793,11917.315666
890.227464,-3034.844362,1838.629195,11621.233289
890.227793,-3627.009116,766.095498,11029.068536
890.228123,-4071.132681,-229.828649,10140.821405
890.228452,-3108.864956,-1378.971896,9326.594869
890.228782,-2368.659014,-1991.848295,8512.368333
890.229111,-1850.514855,-2068.457845,7994.224174
890.229440,-1480.411884,-536.266849,7624.121203
890.229770,-1480.411884,-459.657299,8586.388927
890.230099,-1406.391290,1072.533697,8808.450710
890.230428,-740.205942,2145.067394,9548.656652
890.230758,0.000000,2604.724693,10288.862594
890.231087,666.185348,2528.115143,9918.759623
890.231416,1184.329507,2834.553343,9622.677246
890.231746,1406.391290,1225.752797,9474.636058
890.232075,1036.288319,995.924147,10140.821405
890.232405,0.000000,1762.019645,11177.109724
890.232734,-962.267725,1991.848295,11029.068536
890.233063,-1332.370696,1915.238745,10214.842000
890.233393,-1628.453072,1455.581446,9252.574275
890.233722,-1036.288319,229.828649,8956.491898
890.234051,-592.164754,-459.657299,8364.327145
890.234381,-1110.308913,-459.657299,8364.327145
890.234710,-2072.576638,536.266849,8586.388927
890.235039,-2368.659014,536.266849,8068.244768
890.235369,-2294.638420,383.047749,8438.347739
890.235698,-1406.391290,-306.438199,8216.285956
890.236027,-296.082377,0.000000,8808.450710
890.236357,444.123565,689.485948,9252.574275
890.236686,296.082377,1532.190996,9030.512492
890.237016,444.123565,2145.067394,9696.697840
890.237345,0.000000,2528.115143,10288.862594
890.237674,-518.144159,2987.772442,11103.089130
890.238004,-1406.391290,2681.334243,11177.109724
890.238333,-1924.535449,2221.676944,10807.006753
890.238662,-2738.761985,1072.533697,10288.862594
890.238992,-3034.844362,76.609550,10288.862594
890.239321,-2738.761985,-306.438199,9770.718434
890.239650,-2368.659014,-1072.533697,9030.512492
890.239980,-1776.494261,-1532.190996,8734.430116
890.240309,-1036.288319,-1149.143247,8586.388927
890.240639,-888.247130,-306.438199,8956.491898
890.240968,-296.082377,229.828649,9252.574275
890.241297,-222.061783,1072.533697,9622.677246
890.241627,296.082377,1685.410096,10214.842000
890.241956,296.082377,2145.067394,10140.821405
890.242285,222.061783,2374.896044,9844.739029
890.242615,666.185348,2145.067394,9770.718434
890.242944,740.205942,1302.362347,9770.718434
890.243273,222.061783,1072.533697,10140.821405
890.243603,-592.164754,1608.800546,10066.800811
890.243932,-1850.514855,1455.581446,10214.842000
890.244262,-2960.823768,1149.143247,9770.718434
890.244591,-3552.988522,995.924147,9474.636058
890.244920,-3330.926739,383.047749,9252.574275
890.245250,-3404.947333,76.609550,8586.388927
890.245579,-3034.844362,-919.314598,8068.244768
890.245908,-3256.906145,-689.485948,7846.182985
890.246238,-2960.823768,-536.266849,7476.080014
890.246567,-2220.617826,0.000000,7550.100608
890.246896,-1184.329507,459.657299,8068.244768
890.247226,0.000000,842.705048,9030.512492
890.247555,518.144159,1838.629195,9400.615463
890.247885,888.247130,2757.943793,9696.697840
890.248214,814.226536,2451.505594,10584.944971
890.248543,592.164754,2451.505594,11547.212695
890.248873,-444.123565,3064.381992,12435.459826
890.249202,-1702.473667,2451.505594,12139.377449
890.249531,-2664.741391,1378.971896,11843.295072
890.249861,-3034.844362,536.266849,10881.027347
890.250190,-2664.741391,-153.219100,10214.842000
890.250519,-1924.535449,-1149.143247,9104.533087
890.250849,-1480.411884,-1302.362347,8142.265362
890.251178,-962.267725,-995.924147,7772.162391
890.251508,-592.164754,-459.657299,8216.285956
890.251837,-666.185348,919.314598,8734.430116
890.252166,-592.164754,2068.457845,9104.533087
890.252496,222.061783,2987.772442,9696.697840
890.252825,296.082377,2681.334243,9992.780217
890.253154,740.205942,2987.772442,9474.636058
890.253484,814.226536,2528.115143,9252.574275
890.253813,962.267725,1378.971896,9252.574275
890.254142,296.082377,1608.800546,9992.780217
890.254472,-296.082377,2221.676944,10732.986159
890.254801,-1332.370696,1838.629195,11103.089130
890.255131,-2368.659014,1991.848295,9992.780217
890.255460,-2516.700203,1762.019645,9178.553681
890.255789,-1776.494261,1072.533697,8438.347739
890.256119,-1480.411884,229.828649,8290.306550
890.256448,-1998.556043,-306.438199,7772.162391
890.256777,-2590.720797,-536.266849,7698.141797
890.257107,-2738.761985,-306.438199,8216.285956
890.257436,-2442.679609,0.000000,8808.450710
890.257765,-1184.329507,76.609550,8734.430116
890.258095,-666.185348,306.438199,9326.594869
890.258424,222.061783,842.705048,9770.718434
890.258754,1184.329507,1532.190996,9844.739029
890.259083,1332.370696,2757.943793,9918.759623
890.259412,1332.370696,3140.991542,9770.718434
890.259742,962.267725,2757.943793,10955.047942
890.260071,0.000000,3140.991542,10955.047942
890.260400,-1036.288319,2451.505594,10436.903782
890.260730,-2368.659014,1149.143247,10066.800811
890.261059,-3182.885551,306.438199,9844.739029
890.261388,-3330.926739,-766.095498,9844.739029
890.261718,-3627.009116,-1302.362347,9326.594869
890.262047,-3330.926739,-2068.457845,9252.574275
890.262377,-2812.782580,-1302.362347,9104.533087
890.262706,-2294.638420,-766.095498,9104.533087
890.263035,-1850.514855,0.000000,9178.553681
890.263365,-740.205942,1072.533697,9474.636058
890.263694,-296.082377,1838.629195,9844.739029
890.264023,518.144159,1991.848295,10066.800811
890.264353,962.267725,2451.505594,9844.739029
890.264682,1332.370696,2451.505594,9548.656652
890.265011,1702.473667,1378.971896,9548.656652
890.265341,1184.329507,1149.143247,9696.697840
890.265670,444.123565,1455.581446,10214.842000
890.266000,-296.082377,1149.143247,9770.718434
890.266329,-962.267725,1149.143247,9918.759623
890.266658,-1184.329507,1838.629195,9696.697840
890.266988,-1406.391290,842.705048,9030.512492
890.267317,-1480.411884,306.438199,8586.388927
890.267646,-1998.556043,0.000000,8290.306550
890.267976,-2072.576638,0.000000,8438.347739
890.268305,-2664.741391,0.000000,8142.265362
890.268634,-2442.679609,76.609550,7994.224174
890.268964,-1998.556043,0.000000,8290.306550
890.269293,-962.267725,76.609550,9030.512492
890.269623,0.000000,689.485948,9548.656652
890.269952,592.164754,2145.067394,9474.636058
890.270281,888.247130,2451.505594,9548.656652
890.270611,962.267725,2604.724693,10288.862594
890.270940,0.000000,3294.210641,11177.109724
890.271269,-1702.473667,3294.210641,11177.109724
890.271599,-2812.782580,2221.676944,10658.965565
890.271928,-3849.070898,689.485948,10436.903782
890.272257,-3552.988522,-229.828649,10510.924376
890.272587,-3256.906145,-1685.410096,9622.677246
890.272916,-2886.803174,-2451.505594,8808.450710
890.273246,-2146.597232,-2451.505594,8660.409521
890.273575,-962.267725,-1378.971896,8956.491898
890.273904,222.061783,153.219100,9474.636058
890.274234,666.185348,1149.143247,9622.677246
890.274563,1480.411884,2145.067394,9918.759623
890.274892,2294.638420,3140.991542,10436.903782
890.275222,2590.720797,3677.258390,9622.677246
890.275551,2146.597232,2987.772442,9770.718434
890.275880,1628.453072,2145.067394,9770.718434
890.276210,592.164754,1608.800546,9844.739029
890.276539,-518.144159,383.047749,9992.780217
890.276868,-1628.453072,383.047749,9400.615463
890.277198,-3034.844362,536.266849,8586.388927
890.277527,-3478.967927,-459.657299,9104.533087
890.277856,-3923.091493,76.609550,9178.553681
890.278186,-4145.153275,383.047749,8808.450710
890.278515,-3997.112087,0.000000,8364.327145
890.278844,-3404.947333,229.828649,8290.306550
890.279174,-3034.844362,0.000000,8142.265362
890.279503,-2664.741391,-229.828649,8142.265362
890.279832,-1850.514855,-153.219100,8364.327145
890.280162,-1258.350101,383.047749,9104.533087
890.280491,-592.164754,1455.581446,9104.533087
890.280820,296.082377,1455.581446,9104.533087
890.281150,1628.453072,1838.629195,9400.615463
890.281479,2146.597232,1762.019645,10214.842000
890.281808,1554.432478,2528.115143,11399.171507
890.282138,-148.041188,2911.162892,12065.356855
890.282467,-1628.453072,2757.943793,12139.377449
890.282796,-2516.700203,2145.067394,11991.336260
890.283125,-3182.885551,842.705048,11177.109724
890.283455,-2664.741391,-459.657299,10066.800811
890.283784,-2220.617826,-1685.410096,8586.388927
890.284113,-1702.473667,-2604.724693,7328.038826
890.284443,-1258.350101,-1838.629195,7772.162391
890.284772,-1480.411884,-153.219100,8512.368333
890.285101,-1702.473667,1225.752797,9030.512492
890.285431,-1406.391290,2145.067394,9252.574275
890.285760,-370.102971,2604.724693,9992.780217
890.286089,518.144159,2528.115143,9992.780217
890.286419,592.164754,2604.724693,9400.615463
890.286748,1110.308913,1838.629195,9178.553681
890.287077,888.247130,1455.581446,9104.533087
890.287407,222.061783,1225.752797,9474.636058
890.287736,-666.185348,1378.971896,9770.718434
890.288065,-1406.391290,1762.019645,9918.759623
890.288395,-1554.432478,1455.581446,9918.759623
890.288724,-1332.370696,1685.410096,9770.718434
890.289053,-962.267725,1149.143247,8956.491898
890.289383,-666.185348,842.705048,8364.327145
890.289712,-1332.370696,383.047749,7920.203579
890.290041,-1924.535449,842.705048,8290.306550
890.290371,-1924.535449,306.438199,8068.244768
890.290700,-1850.514855,-536.266849,8216.285956
890.291029,-1332.370696,-383.047749,8660.409521
890.291359,-888.247130,0.000000,9178.553681
890.291688,0.000000,229.828649,9770.718434
890.292017,148.041188,995.924147,9548.656652
890.292347,518.144159,1685.410096,10214.842000
890.292676,0.000000,1762.019645,10807.006753
890.293005,-370.102971,3294.210641,11991.336260
890.293335,-1258.350101,2451.505594,12213.398043
890.293664,-1924.535449,1915.238745,11251.130318
890.293993,-2738.761985,842.705048,11103.089130
890.294323,-2812.782580,383.047749,10584.944971
890.294652,-2220.617826,-689.485948,9474.636058
890.294981,-1850.514855,-1608.800546,8660.409521
890.295311,-1332.370696,-1685.410096,8364.327145
890.295640,-1110.308913,-919.314598,8586.388927
890.295969,-962.267725,0.000000,9030.512492
890.296298,-740.205942,919.314598,9252.574275
890.296628,-296.082377,2068.457845,9474.636058
890.296957,0.000000,2451.505594,10066.800811
890.297286,518.144159,2298.286494,9770.718434
890.297616,1110.308913,1838.629195,9622.677246
890.297945,1332.370696,1302.362347,9548.656652
890.298274,888.247130,1302.362347,9622.677246
890.298604,-296.082377,1378.971896,9622.677246
890.298933,-1184.329507,1225.752797,9770.718434
890.299262,-1850.514855,995.924147,9622.677246
890.299592,-1998.556043,1149.143247,9548.656652
890.299921,-1924.535449,306.438199,9548.656652
890.300250,-2072.576638,536.266849,8512.368333
890.300580,-1850.514855,306.438199,8438.347739
890.300909,-2072.576638,383.047749,8142.265362
890.301238,-2220.617826,153.219100,7772.162391
890.301568,-2294.638420,-383.047749,7772.162391
890.301897,-666.185348,306.438199,8364.327145
890.302226,-740.205942,306.438199,8956.491898
890.302556,0.000000,842.705048,9400.615463
890.302885,296.082377,1072.533697,9474.636058
890.303214,740.205942,1915.238745,9548.656652
890.303544,1554.432478,1838.629195,11029.068536
890.303873,518.144159,2834.553343,11621.233289
890.304202,-592.164754,2987.772442,11621.233289
890.304532,-1554.432478,2145.067394,11251.130318
890.304861,-1776.494261,1378.971896,10955.047942
890.305190,-1924.535449,689.485948,11103.089130
890.305520,-1850.514855,-383.047749,10214.842000
890.305849,-1924.535449,-995.924147,9030.512492
890.306178,-1776.494261,-1302.362347,8586.388927
890.306508,-1480.411884,-1149.143247,8808.450710
890.306837,-1332.370696,0.000000,9400.615463
890.307166,-1258.350101,1225.752797,9474.636058
890.307496,-1184.329507,1378.971896,9696.697840
890.307825,-666.185348,1838.629195,9770.718434
890.308154,0.000000,1685.410096,9696.697840
890.308484,370.102971,1608.800546,9104.533087
890.308813,518.144159,2068.457845,9252.574275
890.309142,222.061783,1225.752797,9400.615463
890.309472,0.000000,1302.362347,9696.697840
890.309801,-666.185348,1378.971896,9326.594869
890.310130,-1184.329507,766.095498,9474.636058
890.310459,-1702.473667,1225.752797,9474.636058
890.310789,-1702.473667,1378.971896,9548.656652
890.311118,-1776.494261,1149.143247,9400.615463
890.311447,-1776.494261,766.095498,8808.450710
890.311777,-2072.576638,383.047749,8216.285956
890.312106,-1850.514855,153.219100,8068.244768
890.312435,-2220.617826,-229.828649,7994.224174
890.312765,-2294.638420,-153.219100,8290.306550
890.313094,-1924.535449,153.219100,8364.327145
890.313423,-1480.411884,383.047749,8882.471304
890.313753,-814.226536,383.047749,9030.512492
890.314082,0.000000,766.095498,9326.594869
890.314411,74.020594,1378.971896,9918.759623
890.314741,0.000000,1838.629195,10955.047942
890.315070,-888.247130,2528.115143,11917.315666
890.315399,-2146.597232,2451.505594,12361.439231
890.315729,-2886.803174,1685.410096,11473.192101
890.316058,-3330.926739,1072.533697,11547.212695
890.316387,-2812.782580,153.219100,11103.089130
890.316717,-2146.597232,-612.876398,9696.697840
890.317046,-1332.370696,-1762.019645,8660.409521
890.317375,-666.185348,-1915.238745,8438.347739
890.317705,-222.061783,-459.657299,8216.285956
890.318034,0.000000,459.657299,8660.409521
890.318363,148.041188,1378.971896,9326.594869
890.318693,518.144159,2451.505594,9400.615463
890.319022,1184.329507,3370.820191,9844.739029
890.319351,1332.370696,2911.162892,9622.677246
890.319681,888.247130,2681.334243,8956.491898
890.320010,814.226536,1915.238745,9474.636058
890.320339,0.000000,1915.238745,9548.656652
890.320669,-1332.370696,1685.410096,10140.821405
890.320998,-2220.617826,1991.848295,9622.677246
890.321327,-2812.782580,1072.533697,9474.636058
890.321657,-2886.803174,842.705048,9252.574275
890.321986,-2368.659014,612.876398,8956.491898
890.322315,-2146.597232,383.047749,8290.306550
890.322645,-1628.453072,383.047749,7624.121203
890.322974,-1332.370696,0.000000,7624.121203
890.323303,-1480.411884,383.047749,8142.265362
890.323632,-1258.350101,536.266849,8216.285956
890.323962,-1110.308913,536.266849,8290.306550
890.324291,-222.061783,842.705048,8734.430116
890.324620,814.226536,1378.971896,9400.615463
890.324950,1036.288319,1225.752797,9474.636058
890.325279,1332.370696,1991.848295,9992.780217
890.325608,1036.288319,2298.286494,10510.924376
890.325938,444.123565,2681.334243,11325.150913
890.326267,-444.123565,2834.553343,11695.253884
890.326596,-1850.514855,2221.676944,11695.253884
890.326926,-2812.782580,1455.581446,11473.192101
890.327255,-3404.947333,612.876398,11103.089130
890.327584,-3256.906145,-383.047749,10288.862594
890.327914,-2738.761985,-1072.533697,9622.677246
890.328243,-2812.782580,-1991.848295,9104.533087
890.328572,-2516.700203,-1455.581446,9030.512492
890.328902,-2146.597232,-995.924147,8956.491898
890.329231,-1480.411884,-306.438199,8956.491898
890.329560,-666.185348,1532.190996,8956.491898
890.329890,0.000000,1608.800546,9992.780217
890.330219,518.144159,1685.410096,9622.677246
890.330548,1036.288319,2145.067394,9326.594869
890.330878,1776.494261,2068.457845,9474.636058
890.331207,1850.514855,1532.190996,9548.656652
890.331536,1036.288319,1915.238745,9844.739029
890.331866,296.082377,1838.629195,10066.800811
890.332195,-370.102971,1685.410096,9770.718434
890.332524,-1036.288319,1762.019645,9400.615463
890.332854,-888.247130,1378.971896,9326.594869
890.333183,-1184.329507,306.438199,8956.491898
890.333512,-888.247130,766.095498,8956.491898
890.333842,-2294.638420,766.095498,8216.285956
890.334171,-2886.803174,153.219100,8068.244768
890.334500,-3478.967927,0.000000,7920.203579
890.334830,-3478.967927,-229.828649,7328.038826
890.335159,-2664.741391,-995.924147,7772.162391
890.335488,-2220.617826,-536.266849,8586.388927
890.335818,-1480.411884,0.000000,8660.409521
890.336147,-888.247130,229.828649,9030.512492
890.336476,-370.102971,842.705048,9992.780217
890.336806,148.041188,1685.410096,11103.089130
890.337135,74.020594,2987.772442,12213.398043
890.337464,-370.102971,2987.772442,12065.356855
890.337793,-518.144159,2528.115143,11621.233289
890.338123,-296.082377,1225.752797,11621.233289
890.338452,-444.123565,919.314598,10955.047942
890.338781,0.000000,153.219100,9992.780217
890.339111,0.000000,-689.485948,9400.615463
890.339440,0.000000,-995.924147,9030.512492
890.339769,-370.102971,-383.047749,9104.533087
890.340099,-740.205942,153.219100,9030.512492
890.340428,-888.247130,383.047749,9326.594869
890.340757,-1184.329507,1532.190996,9400.615463
890.341087,-1110.308913,1915.238745,9844.739029
890.341416,-1258.350101,1915.238745,9548.656652
890.341745,-888.247130,1608.800546,9178.553681
890.342075,-370.102971,1685.410096,9030.512492
890.342404,-518.144159,1608.800546,9474.636058
890.342733,-1258.350101,1455.581446,9770.718434
890.343063,-1924.535449,1608.800546,9622.677246
890.343392,-2220.617826,995.924147,9474.636058
890.343721,-2368.659014,1532.190996,9252.574275
890.344051,-2220.617826,1378.971896,9030.512492
890.344380,-1702.473667,995.924147,8956.491898
890.344709,-1628.453072,306.438199,8586.388927
890.345039,-2294.638420,536.266849,7994.224174
890.345368,-1850.514855,383.047749,8068.244768
890.345697,-1628.453072,0.000000,8068.244768
890.346027,-1406.391290,0.000000,8290.306550
890.346356,-888.247130,0.000000,8734.430116
890.346685,0.000000,229.828649,9030.512492
890.347015,370.102971,919.314598,9474.636058
890.347344,444.123565,2528.115143,9474.636058
890.347673,740.205942,2451.505594,9992.780217
890.348003,0.000000,2298.286494,10807.006753
890.348332,-1184.329507,2451.505594,11325.150913
890.348661,-2368.659014,2221.676944,11621.233289
890.348991,-3108.864956,995.924147,11695.253884
890.349320,-4441.235652,0.000000,11695.253884
890.349649,-4367.215058,-459.657299,11029.068536
890.349979,-3775.050304,-1915.238745,10066.800811
890.350308,-2590.720797,-2681.334243,9474.636058
890.350637,-1850.514855,-1685.410096,9030.512492
890.350966,-1702.473667,-383.047749,8660.409521
890.351296,-1110.308913,-153.219100,8956.491898
890.351625,-222.061783,1302.362347,9474.636058
890.351954,370.102971,2374.896044,9992.780217
890.352284,962.267725,2987.772442,9918.759623
890.352613,1480.411884,3370.820191,9326.594869
890.352942,2146.597232,1838.629195,9178.553681
890.353272,1628.453072,1072.533697,9030.512492
890.353601,1332.370696,1455.581446,9400.615463
890.353930,222.061783,1762.019645,9696.697840
890.354260,-666.185348,1838.629195,9474.636058
890.354589,-1406.391290,1608.800546,9770.718434
890.354918,-1628.453072,1991.848295,9622.677246
890.355248,-1702.473667,1455.581446,9104.533087
890.355577,-2072.576638,919.314598,8364.327145
890.355906,-2368.659014,459.657299,7920.203579
890.356236,-3108.864956,153.219100,7920.203579
890.356565,-3330.926739,0.000000,7698.141797
890.356894,-3182.885551,-612.876398,7698.141797
890.357224,-2738.761985,-306.438199,8216.285956
890.357553,-1924.535449,0.000000,8660.409521
890.357882,-592.164754,689.485948,8956.491898
890.358212,592.164754,1532.190996,9326.594869
890.358541,1258.350101,2298.286494,9696.697840
890.358870,1480.411884,2911.162892,10510.924376
890.359200,962.267725,3907.087040,11251.130318
890.359529,74.020594,4443.353888,11621.233289
890.359858,-666.185348,3447.429741,11621.233289
890.360188,-1850.514855,1838.629195,11917.315666
890.360517,-2442.679609,919.314598,11695.253884
890.360846,-2886.803174,-229.828649,10510.924376
890.361176,-2812.782580,-1991.848295,9622.677246
890.361505,-2516.700203,-2528.115143,8956.491898
890.361834,-2368.659014,-1532.190996,9178.553681
890.362164,-1850.514855,-919.314598,9400.615463
890.362493,-1406.391290,536.266849,9474.636058
890.362822,-666.185348,1915.238745,9622.677246
890.363152,0.000000,2374.896044,9474.636058
890.363481,814.226536,2374.896044,9548.656652
890.363810,1036.288319,2374.896044,9326.594869
890.364140,1332.370696,2451.505594,9326.594869
890.364469,888.247130,1762.019645,9696.697840
890.364798,0.000000,1685.410096,9622.677246
890.365127,-962.267725,1532.190996,9548.656652
890.365457,-1850.514855,612.876398,9400.615463
890.365786,-1850.514855,842.705048,9326.594869
890.366115,-1776.494261,842.705048,9178.553681
890.366445,-1110.308913,153.219100,8438.347739
890.366774,-1258.350101,-612.876398,8068.244768
890.367103,-1850.514855,536.266849,7994.224174
890.367433,-2072.576638,766.095498,8142.265362
890.367762,-1924.535449,306.438199,8216.285956
890.368091,-2072.576638,229.828649,8364.327145
890.368421,-1924.535449,612.876398,8364.327145
890.368750,-1332.370696,536.266849,9326.594869
890.369079,-740.205942,612.876398,9400.615463
890.369409,0.000000,1302.362347,9548.656652
890.369738,74.020594,1838.629195,9844.739029
890.370067,74.020594,1685.410096,10214.842000
890.370397,-592.164754,2221.676944,11399.171507
890.370726,-1554.432478,2757.943793,11769.274478
890.371055,-2294.638420,2068.457845,11769.274478
890.371385,-2738.761985,1225.752797,11695.253884
890.371714,-2368.659014,153.219100,10732.986159
890.372043,-1776.494261,-1685.410096,9548.656652
890.372373,-1036.288319,-1991.848295,9400.615463
890.372702,-1036.288319,-1302.362347,9104.533087
890.373031,-1258.350101,-306.438199,9474.636058
890.373361,-888.247130,153.219100,9474.636058
890.373690,0.000000,1378.971896,9696.697840
890.374019,518.144159,2374.896044,9918.759623
890.374349,962.267725,2068.457845,10288.862594
890.374678,1036.288319,2221.676944,9252.574275
890.375007,1110.308913,2221.676944,9030.512492
890.375337,962.267725,1991.848295,9400.615463
890.375666,0.000000,1455.581446,9696.697840
890.375996,-1184.329507,1915.238745,9770.718434
890.376325,-2072.576638,1225.752797,9400.615463
890.376654,-2368.659014,536.266849,8808.450710
890.376984,-2294.638420,689.485948,8438.347739
890.377313,-1628.453072,76.609550,8068.244768
890.377642,-2146.597232,76.609550,8142.265362
890.377972,-2368.659014,689.485948,8142.265362
890.378301,-2442.679609,459.657299,7846.182985
890.378631,-2146.597232,153.219100,7476.080014
890.378960,-1628.453072,0.000000,7476.080014
890.379289,-1406.391290,0.000000,8290.306550
890.379619,-1036.288319,459.657299,9400.615463
890.379948,-740.205942,1685.410096,9474.636058
890.380277,-222.061783,2374.896044,9030.512492
890.380607,74.020594,1532.190996,9474.636058
890.380936,740.205942,1302.362347,10881.027347
890.381266,-740.205942,2451.505594,11843.295072
890.381595,-2368.659014,2298.286494,11843.295072
890.381924,-3478.967927,1532.190996,11769.274478
890.382254,-3923.091493,689.485948,11991.336260
890.382583,-3256.906145,0.000000,11621.233289
890.382912,-2738.761985,-2068.457845,10288.862594
890.383242,-2072.576638,-2681.334243,9252.574275
890.383571,-1406.391290,-2298.286494,8586.388927
890.383901,-962.267725,-1532.190996,8882.471304
890.384230,-666.185348,229.828649,9400.615463
890.384559,74.020594,1378.971896,10066.800811
890.384889,222.061783,2528.115143,10436.903782
890.385218,296.082377,2757.943793,10955.047942
890.385547,370.102971,2987.772442,10510.924376
890.385877,814.226536,2221.676944,9548.656652
890.386206,666.185348,1685.410096,9252.574275
890.386536,592.164754,1072.533697,9326.594869
890.386865,-296.082377,919.314598,9252.574275
890.387194,-1110.308913,842.705048,8882.471304
890.387524,-1554.432478,766.095498,8512.368333
890.387853,-1110.308913,1532.190996,9030.512492
890.388182,-962.267725,1302.362347,8364.327145
890.388512,-888.247130,1149.143247,7698.141797
890.388841,-1184.329507,1072.533697,7328.038826
890.389171,-1480.411884,995.924147,7476.080014
890.389500,-1258.350101,1149.143247,7994.224174
890.389829,-2146.597232,536.266849,7920.203579
890.390159,-1924.535449,459.657299,8438.347739
890.390488,-1406.391290,229.828649,9178.553681
890.390817,-666.185348,459.657299,9474.636058
890.391147,74.020594,919.314598,9474.636058
890.391476,0.000000,2374.896044,9696.697840
890.391806,370.102971,2374.896044,10584.944971
890.392135,0.000000,2834.553343,11399.171507
890.392464,-1258.350101,3217.601092,11843.295072
890.392794,-1998.556043,2451.505594,11473.192101
890.393123,-2146.597232,1378.971896,11029.068536
890.393452,-2812.782580,459.657299,10658.965565
890.393782,-2368.659014,-842.705048,10214.842000
890.394111,-1924.535449,-1991.848295,9474.636058
890.394441,-1776.494261,-1915.238745,9252.574275
890.394770,-1480.411884,-306.438199,9252.574275
890.395099,-962.267725,0.000000,9474.636058
890.395429,-666.185348,995.924147,10362.883188
890.395758,-592.164754,2068.457845,10436.903782
890.396087,0.000000,2528.115143,10584.944971
890.396417,296.082377,3064.381992,10362.883188
890.396746,814.226536,2911.162892,9696.697840
890.397076,814.226536,1838.629195,9030.512492
890.397405,962.267725,1149.143247,8882.471304
890.397734,370.102971,1302.362347,9178.553681
890.398064,-740.205942,1302.362347,8956.491898
890.398393,-1924.535449,1455.581446,8586.388927
890.398722,-2516.700203,1378.971896,8660.409521
890.399052,-2960.823768,1149.143247,8512.368333
890.399381,-2886.803174,383.047749,8068.244768
890.399711,-2886.803174,0.000000,7994.224174
890.400040,-3256.906145,-459.657299,7772.162391
890.400369,-3330.926739,-689.485948,7994.224174
890.400699,-2960.823768,-919.314598,8290.306550
890.401028,-2220.617826,-766.095498,8660.409521
890.401357,-962.267725,0.000000,9252.574275
890.401687,296.082377,383.047749,9178.553681
890.402016,1406.391290,1225.752797,9992.780217
890.402346,2220.617826,1838.629195,10140.821405
890.402675,2368.659014,2528.115143,10807.006753
890.403004,2146.597232,3140.991542,11177.109724
890.403334,1332.370696,3370.820191,11695.253884
890.403663,-296.082377,2987.772442,11399.171507
890.403992,-1332.370696,1532.190996,11399.171507
890.404322,-2442.679609,229.828649,11029.068536
890.404651,-2664.741391,-842.705048,10362.883188
890.404981,-2738.761985,-1762.019645,9622.677246
890.405310,-2812.782580,-1915.238745,8956.491898
890.405639,-1924.535449,-2145.067394,9104.533087
890.405969,-2072.576638,-842.705048,9548.656652
890.406298,-1924.535449,383.047749,10140.821405
890.406627,-1702.473667,1532.190996,10214.842000
890.406957,-888.247130,1991.848295,10214.842000
890.407286,148.041188,2451.505594,10140.821405
890.407616,444.123565,2221.676944,9622.677246
890.407945,1036.288319,1838.629195,8956.491898
890.408274,1258.350101,1762.019645,9252.574275
890.408604,1036.288319,1838.629195,9178.553681
890.408933,148.041188,2145.067394,9030.512492
890.409262,-666.185348,2298.286494,8808.450710
890.409592,-1184.329507,1302.362347,8438.347739
890.409921,-1406.391290,995.924147,8734.430116
890.410251,-1184.329507,1225.752797,9178.553681
890.410580,-1554.432478,919.314598,8438.347739
890.410909,-1924.535449,229.828649,7920.203579
890.411239,-2146.597232,0.000000,7624.121203
890.411568,-2368.659014,-229.828649,8068.244768
890.411897,-2442.679609,-306.438199,8290.306550
890.412227,-1776.494261,536.266849,9030.512492
890.412556,-1110.308913,459.657299,8808.450710
890.412886,-740.205942,1532.190996,9622.677246
890.413215,-518.144159,2145.067394,9326.594869
890.413544,-222.061783,2451.505594,9400.615463
890.413874,296.082377,2528.115143,9844.739029
890.414203,-592.164754,2374.896044,9770.718434
890.414532,-1776.494261,1915.238745,11325.150913
890.414862,-2886.803174,612.876398,11621.233289
890.415191,-4219.173869,-229.828649,11917.315666
890.415521,-4589.276840,-766.095498,12287.418637
890.415850,-3849.070898,-459.657299,11325.150913
890.416179,-2590.720797,-1762.019645,9770.718434
890.416509,-1184.329507,-2604.724693,9030.512492
890.416838,0.000000,-1991.848295,9030.512492
890.417167,296.082377,-459.657299,9474.636058
890.417497,370.102971,1302.362347,9770.718434
890.417826,222.061783,2145.067394,10436.903782
890.418156,370.102971,2987.772442,10955.047942
890.418485,1110.308913,2374.896044,10288.862594
890.418814,1776.494261,1302.362347,9400.615463
890.419144,1776.494261,1225.752797,8586.388927
890.419473,1702.473667,536.266849,8290.306550
890.419802,518.144159,766.095498,9178.553681
890.420132,-1110.308913,1225.752797,9326.594869
890.420461,-2368.659014,1685.410096,9474.636058
890.420791,-2590.720797,1685.410096,9474.636058
890.421120,-2442.679609,1225.752797,9252.574275
890.421449,-2368.659014,1149.143247,8364.327145
890.421779,-1924.535449,0.000000,7846.182985
890.422108,-1998.556043,-766.095498,7328.038826
890.422437,-2146.597232,-536.266849,7550.100608
890.422767,-2072.576638,0.000000,7994.224174
890.423096,-2294.638420,153.219100,7698.141797
890.423426,-1628.453072,306.438199,8882.471304
890.423755,-222.061783,842.705048,9622.677246
890.424084,518.144159,1608.800546,9844.739029
890.424414,1258.350101,2681.334243,9918.759623
890.424743,1776.494261,2911.162892,9992.780217
890.425072,1110.308913,3294.210641,10362.883188
890.425402,222.061783,3524.039291,11177.109724
890.425731,-888.247130,2757.943793,11621.233289
890.426060,-1776.494261,1838.629195,11325.150913
890.426390,-2590.720797,842.705048,10881.027347
890.426719,-2738.761985,0.000000,10881.027347
890.427049,-2516.700203,-842.705048,9918.759623
890.427378,-2368.659014,-1378.971896,9252.574275
890.427707,-1850.514855,-995.924147,9252.574275
890.428037,-1480.411884,229.828649,9400.615463
890.428366,-1110.308913,1378.971896,10066.800811
890.428695,-1184.329507,1915.238745,10140.821405
890.429025,-740.205942,2451.505594,10288.862594
890.429354,-370.102971,3064.381992,10140.821405
890.429684,0.000000,2834.553343,9400.615463
890.430013,814.226536,2221.676944,8660.409521
890.430342,962.267725,919.314598,7846.182985
890.430672,888.247130,536.266849,8068.244768
890.431001,148.041188,919.314598,8808.450710
890.431330,-666.185348,1608.800546,9252.574275
890.431660,-1406.391290,1838.629195,9252.574275
890.431989,-1850.514855,995.924147,9178.553681
890.432319,-1850.514855,1608.800546,9104.533087
890.432648,-1406.391290,459.657299,8956.491898
890.432977,-1332.370696,306.438199,8808.450710
890.433307,-1480.411884,229.828649,8438.347739
890.433636,-1702.473667,-612.876398,8216.285956
890.433965,-1850.514855,-689.485948,8660.409521
890.434295,-1850.514855,-229.828649,8808.450710
890.434624,-1480.411884,0.000000,9400.615463
890.434954,-666.185348,229.828649,9622.677246
890.435283,0.000000,612.876398,9252.574275
890.435612,666.185348,1378.971896,9474.636058
890.435942,962.267725,1225.752797,10066.800811
890.436271,0.000000,1915.238745,11325.150913
890.436600,-814.226536,2757.943793,11917.315666
890.436930,-1924.535449,1455.581446,11621.233289
890.437259,-2442.679609,766.095498,11843.295072
890.437589,-2812.782580,-306.438199,11547.212695
890.437918,-2516.700203,-919.314598,10658.965565
890.438247,-1998.556043,-1915.238745,9696.697840
890.438577,-1110.308913,-1991.848295,9400.615463
890.438906,-888.247130,-766.095498,9400.615463
890.439235,-518.144159,229.828649,9548.656652
890.439565,-444.123565,1378.971896,9770.718434
890.439894,0.000000,2068.457845,9770.718434
890.440224,740.205942,2834.553343,9844.739029
890.440553,1332.370696,2068.457845,9844.739029
890.440882,1332.370696,2068.457845,9178.553681
890.441212,1184.329507,1762.019645,8660.409521
890.441541,592.164754,1225.752797,8364.327145
890.441870,148.041188,1072.533697,9104.533087
890.442200,-888.247130,1302.362347,9326.594869
890.442529,-1258.350101,1762.019645,8882.471304
890.442859,-1776.494261,1072.533697,8956.491898
890.443188,-1628.453072,1225.752797,9030.512492
890.443517,-1406.391290,1302.362347,8734.430116
890.443847,-1554.432478,1225.752797,8512.368333
890.444176,-2368.659014,1072.533697,8512.368333
890.444505,-2960.823768,1072.533697,8660.409521
890.444835,-2960.823768,766.095498,8586.388927
890.445164,-2368.659014,0.000000,8438.347739
890.445494,-1702.473667,-306.438199,8216.285956
890.445823,0.000000,0.000000,8586.388927
890.446152,-222.061783,612.876398,8956.491898
890.446482,444.123565,1685.410096,9104.533087
890.446811,666.185348,2374.896044,9548.656652
890.447140,666.185348,2604.724693,10510.924376
890.447470,-592.164754,3217.601092,11251.130318
890.447799,-1406.391290,2987.772442,12213.398043
890.448129,-2812.782580,1915.238745,11917.315666
890.448458,-3775.050304,842.705048,11695.253884
890.448787,-4071.132681,-459.657299,11177.109724
890.449117,-3256.906145,-2145.067394,10362.883188
890.449446,-2812.782580,-2374.896044,9770.718434
890.449775,-2516.700203,-1762.019645,9474.636058
890.450105,-2368.659014,-919.314598,9030.512492
890.450434,-1628.453072,0.000000,9474.636058
890.450764,-962.267725,1302.362347,9548.656652
890.451093,74.020594,1991.848295,9474.636058
890.451422,148.041188,2528.115143,9622.677246
890.451752,592.164754,2528.115143,9474.636058
890.452081,1036.288319,1915.238745,8586.388927
890.452410,1036.288319,1149.143247,8364.327145
890.452740,1406.391290,459.657299,8734.430116
890.453069,296.082377,1149.143247,9326.594869
890.453399,-592.164754,1225.752797,9326.594869
890.453728,-1480.411884,919.314598,9252.574275
890.454057,-1776.494261,1225.752797,9474.636058
890.454387,-1480.411884,1608.800546,9326.594869
890.454716,-1332.370696,842.705048,8660.409521
890.455045,-1776.494261,153.219100,8808.450710
890.455375,-2294.638420,153.219100,8290.306550
890.455704,-2590.720797,0.000000,7994.224174
890.456034,-2442.679609,0.000000,7920.203579
890.456363,-1850.514855,-306.438199,8142.265362
890.456692,-1036.288319,-383.047749,8586.388927
890.457022,-592.164754,229.828649,9474.636058
890.457351,-148.041188,1149.143247,9474.636058
890.457680,814.226536,1838.629195,10288.862594
890.458010,1332.370696,2528.115143,10881.027347
890.458339,814.226536,2834.553343,11843.295072
890.458669,-296.082377,3447.429741,11991.336260
890.458998,-1258.350101,2451.505594,11769.274478
890.459327,-1776.494261,1302.362347,11251.130318
890.459657,-2146.597232,919.314598,10881.027347
890.459986,-1554.432478,-919.314598,10362.883188
890.460315,-1258.350101,-1378.971896,9696.697840
890.460645,-1110.308913,-1685.410096,9400.615463
890.460974,-814.226536,-689.485948,9474.636058
890.461304,-592.164754,229.828649,9548.656652
890.461633,-370.102971,1378.971896,9474.636058
890.461962,0.000000,2757.943793,9400.615463
890.462292,370.102971,2911.162892,9030.512492
890.462621,592.164754,3064.381992,8364.327145
890.462950,222.061783,2604.724693,7772.162391
890.463280,74.020594,2451.505594,7254.018232
890.463609,-518.144159,1608.800546,7920.203579
890.463939,-1332.370696,689.485948,9252.574275
890.464268,-2442.679609,1225.752797,9770.718434
890.464597,-3330.926739,919.314598,9548.656652
890.464927,-3404.947333,459.657299,9474.636058
890.465256,-2368.659014,306.438199,9696.697840
890.465585,-1702.473667,689.485948,9844.739029
890.465915,-1554.432478,153.219100,9548.656652
890.466244,-1702.473667,383.047749,9104.533087
890.466574,-1924.535449,612.876398,8586.388927
890.466903,-666.185348,459.657299,8216.285956
890.467232,-296.082377,383.047749,7920.203579
890.467562,222.061783,229.828649,7994.224174
890.467891,740.205942,76.609550,8660.409521
890.468220,1036.288319,766.095498,9178.553681
890.468550,1480.411884,1455.581446,9918.759623
890.468879,518.144159,1762.019645,10436.903782
890.469209,-296.082377,2451.505594,11325.150913
890.469538,-1184.329507,2528.115143,11917.315666
890.469867,-2072.576638,2374.896044,12213.398043
890.470197,-2664.741391,1991.848295,11843.295072
890.470526,-3923.091493,153.219100,10955.047942
890.470855,-3701.029710,-229.828649,10510.924376
890.471185,-3627.009116,-1685.410096,9844.739029
890.471514,-3256.906145,-1838.629195,9252.574275
890.471844,-2590.720797,-1455.581446,8660.409521
890.472173,-1924.535449,-536.266849,8586.388927
890.472502,-1332.370696,0.000000,8512.368333
890.472832,-444.123565,459.657299,8882.471304
890.473161,222.061783,1455.581446,8956.491898
890.473490,666.185348,1991.848295,9474.636058
890.473820,1110.308913,2757.943793,8882.471304
890.474149,1850.514855,2604.724693,9178.553681
890.474479,1850.514855,1685.410096,9326.594869
890.474808,1850.514855,1608.800546,9326.594869
890.475137,1110.308913,1378.971896,9548.656652
890.475467,74.020594,1762.019645,9770.718434
890.475796,0.000000,919.314598,9622.677246
890.476125,-888.247130,1149.143247,9844.739029
890.476455,-1332.370696,1378.971896,9696.697840
890.476784,-1480.411884,689.485948,9252.574275
890.477114,-1406.391290,459.657299,8660.409521
890.477443,-1628.453072,0.000000,8216.285956
890.477773,-2220.617826,0.000000,7476.080014
890.478102,-2442.679609,0.000000,7476.080014
890.478431,-2072.576638,-306.438199,7698.141797
890.478761,-1850.514855,153.219100,8808.450710
890.479090,-1480.411884,536.266849,9474.636058
890.479420,-1184.329507,1149.143247,9844.739029
890.479749,-740.205942,1915.238745,10510.924376
890.480078,-592.164754,1685.410096,10732.986159
890.480408,-888.247130,2451.505594,11473.192101
890.480737,-814.226536,2528.115143,11917.315666
890.481067,-1406.391290,1915.238745,11399.171507
890.481396,-2368.659014,842.705048,11325.150913
890.481726,-2516.700203,689.485948,10881.027347
890.482055,-2294.638420,-306.438199,10214.842000
890.482384,-1924.535449,-1072.533697,9474.636058
890.482714,-962.267725,-1149.143247,8956.491898
890.483043,-740.205942,-919.314598,9030.512492
890.483373,-1036.288319,-383.047749,8734.430116
890.483702,-1258.350101,383.047749,8734.430116
890.484031,-1184.329507,1149.143247,8956.491898
890.484361,-592.164754,1685.410096,9400.615463
890.484690,-518.144159,1608.800546,9696.697840
890.485020,-592.164754,1685.410096,9326.594869
890.485349,-444.123565,1378.971896,8956.491898
890.485679,-592.164754,1072.533697,9104.533087
890.486008,-962.267725,1225.752797,9030.512492
890.486337,-1110.308913,1455.581446,9548.656652
890.486667,-1850.514855,995.924147,9400.615463
890.486996,-2220.617826,1225.752797,9178.553681
890.487326,-2294.638420,1302.362347,9252.574275
890.487655,-2072.576638,919.314598,8512.368333
890.487984,-1628.453072,689.485948,8660.409521
890.488314,-1924.535449,0.000000,8216.285956
890.488643,-2146.597232,0.000000,8660.409521
890.488973,-2294.638420,0.000000,9030.512492
890.489302,-1998.556043,0.000000,9104.533087
890.489632,-1184.329507,459.657299,9474.636058
890.489961,-370.102971,612.876398,9770.718434
890.490290,148.041188,1225.752797,10066.800811
890.490620,888.247130,1915.238745,10140.821405
890.490949,1480.411884,2145.067394,10140.821405
890.491279,1258.350101,2298.286494,10288.862594
890.491608,222.061783,2604.724693,10955.047942
890.491937,-1036.288319,2451.505594,11399.171507
890.492267,-1628.453072,1915.238745,11251.130318
890.492596,-2442.679609,1532.190996,11251.130318
890.492926,-2442.679609,612.876398,10658.965565
890.493255,-2294.638420,-536.266849,9844.739029
890.493585,-2146.597232,-1608.800546,9030.512492
890.493914,-1554.432478,-1225.752797,8660.409521
890.494243,-1258.350101,-459.657299,8882.471304
890.494573,-1036.288319,459.657299,9030.512492
890.494902,-666.185348,2221.676944,8808.450710
890.495232,-148.041188,2068.457845,9104.533087
890.495561,296.082377,2451.505594,9326.594869
890.495890,666.185348,2604.724693,8956.491898
890.496220,740.205942,2528.115143,8512.368333
890.496549,1406.391290,2451.505594,8364.327145
890.496879,1036.288319,1991.848295,8808.450710
890.497208,222.061783,2374.896044,9548.656652
890.497538,-370.102971,2298.286494,9696.697840
890.497867,-1110.308913,1762.019645,9474.636058
890.498196,-1184.329507,2068.457845,9696.697840
890.498526,-1036.288319,1685.410096,9548.656652
890.498855,-1332.370696,689.485948,9474.636058
890.499185,-2146.597232,383.047749,8956.491898
890.499514,-2738.761985,76.609550,8882.471304
890.499843,-3330.926739,-536.266849,8512.368333
890.500173,-3108.864956,-459.657299,8586.388927
890.500502,-2368.659014,-229.828649,8956.491898
890.500832,-1924.535449,-229.828649,9030.512492
890.501161,-1184.329507,383.047749,9548.656652
890.501490,-518.144159,1149.143247,9696.697840
890.501820,-148.041188,1915.238745,9844.739029
890.502149,222.061783,2221.676944,10584.944971
890.502479,-222.061783,2987.772442,11621.233289
890.502808,-1110.308913,2987.772442,11547.212695
890.503138,-1628.453072,2068.457845,11103.089130
890.503467,-2220.617826,1149.143247,10658.965565
890.503796,-2516.700203,459.657299,10362.883188
890.504126,-2220.617826,-842.705048,10288.862594
890.504455,-1924.535449,-1608.800546,9474.636058
890.504785,-1702.473667,-1302.362347,8808.450710
890.505114,-1258.350101,-1149.143247,8956.491898
890.505443,-222.061783,-536.266849,9622.677246
890.505773,-518.144159,919.314598,9252.574275
890.506102,-518.144159,1991.848295,9252.574275
890.506432,0.000000,1838.629195,9474.636058
890.506761,296.082377,2068.457845,9474.636058
890.507091,296.082377,1225.752797,8660.409521
890.507420,666.185348,1072.533697,8882.471304
890.507749,370.102971,919.314598,8734.430116
890.508079,-148.041188,995.924147,9474.636058
890.508408,-1110.308913,919.314598,9474.636058
890.508738,-1480.411884,842.705048,9474.636058
890.509067,-1480.411884,1302.362347,9696.697840
890.509396,-1776.494261,1455.581446,9400.615463
890.509726,-1258.350101,995.924147,9252.574275
890.510055,-1184.329507,383.047749,8956.491898
890.510385,-1406.391290,383.047749,8808.450710
890.510714,-1776.494261,842.705048,8290.306550
890.511044,-1554.432478,536.266849,7920.203579
890.511373,-592.164754,76.609550,8068.244768
890.511702,0.000000,0.000000,8586.388927
890.512032,74.020594,536.266849,8882.471304
890.512361,666.185348,1532.190996,9252.574275
890.512691,0.000000,2221.676944,9844.739029
890.513020,148.041188,2451.505594,11103.089130
890.513349,-740.205942,2681.334243,11843.295072
890.513679,-1924.535449,3294.210641,11843.295072
890.514008,-2368.659014,2298.286494,11473.192101
890.514338,-3034.844362,919.314598,10436.903782
890.514667,-3182.885551,0.000000,10436.903782
890.514997,-3256.906145,-459.657299,10140.821405
890.515326,-2590.720797,-1225.752797,9844.739029
890.515655,-2220.617826,-1608.800546,9178.553681
890.515985,-1406.391290,-536.266849,9104.533087
890.516314,-1110.308913,0.000000,8808.450710
890.516644,-222.061783,689.485948,9030.512492
890.516973,222.061783,1455.581446,8660.409521
890.517302,962.267725,2068.457845,9104.533087
890.517632,1406.391290,2451.505594,9474.636058
890.517961,1332.370696,2221.676944,8882.471304
890.518291,740.205942,2298.286494,8734.430116
890.518620,666.185348,1225.752797,8808.450710
890.518950,222.061783,1149.143247,9844.739029
890.519279,-1110.308913,1991.848295,9918.759623
890.519608,-2146.597232,1838.629195,9400.615463
890.519938,-2886.803174,995.924147,9178.553681
890.520267,-3330.926739,459.657299,9548.656652
890.520597,-3256.906145,153.219100,9474.636058
890.520926,-3478.967927,-689.485948,8882.471304
890.521255,-3775.050304,-689.485948,8660.409521
890.521585,-3775.050304,-919.314598,8290.306550
890.521914,-3330.926739,-995.924147,8216.285956
890.522244,-2146.597232,-1225.752797,7994.224174
890.522573,-888.247130,-842.705048,8290.306550
890.522903,0.000000,459.657299,9030.512492
890.523232,666.185348,995.924147,9844.739029
890.523561,962.267725,2374.896044,10658.965565
890.523891,1036.288319,2681.334243,11177.109724
890.524220,814.226536,2987.772442,11843.295072
890.524550,-222.061783,2911.162892,11917.315666
890.524879,-1258.350101,2911.162892,11843.295072
890.525208,-1554.432478,995.924147,11177.109724
890.525538,-2146.597232,-383.047749,10807.006753
890.525867,-2368.659014,-612.876398,10584.944971
890.526197,-2368.659014,-766.095498,9992.780217
890.526526,-2368.659014,-1532.190996,8956.491898
890.526856,-2368.659014,-689.485948,8216.285956
890.527185,-1776.494261,229.828649,8216.285956
890.527514,-1406.391290,766.095498,8438.347739
890.527844,-1184.329507,1225.752797,8734.430116
890.528173,-740.205942,2221.676944,9030.512492
890.528503,-444.123565,2374.896044,9252.574275
890.528832,-370.102971,2451.505594,9252.574275
890.529161,222.061783,2145.067394,9252.574275
890.529491,888.247130,1838.629195,9104.533087
890.529820,1554.432478,1532.190996,9104.533087
890.530150,1998.556043,2068.457845,9252.574275
890.530479,1480.411884,2451.505594,9622.677246
890.530808,518.144159,2221.676944,9474.636058
890.531138,0.000000,1915.238745,9844.739029
890.531467,-814.226536,1991.848295,9918.759623
890.531797,-814.226536,1532.190996,9326.594869
890.532126,-1406.391290,536.266849,8808.450710
890.532456,-1998.556043,-153.219100,8068.244768
890.532785,-2072.576638,-689.485948,7550.100608
890.533114,-1998.556043,-1072.533697,7402.059420
890.533444,-1924.535449,-229.828649,7550.100608
890.533773,-1850.514855,919.314598,8586.388927
890.534103,-1776.494261,1302.362347,9696.697840
890.534432,-1332.370696,2221.676944,11177.109724
890.534761,-1110.308913,2987.772442,11177.109724
890.535091,-1332.370696,2681.334243,11177.109724
890.535420,-1110.308913,2145.067394,11325.150913
890.535750,-1554.432478,2145.067394,11769.274478
890.536079,-2368.659014,1608.800546,11103.089130
890.536409,-2368.659014,229.828649,10584.944971
890.536738,-2738.761985,-229.828649,10140.821405
890.537067,-2368.659014,-459.657299,9844.739029
890.537397,-1998.556043,-766.095498,9474.636058
890.537726,-1036.288319,-1378.971896,9178.553681
890.538056,-740.205942,-536.266849,9326.594869
890.538385,-370.102971,459.657299,9474.636058
890.538714,-222.061783,1072.533697,9622.677246
890.539044,-296.082377,1685.410096,9400.615463
890.539373,222.061783,1838.629195,9474.636058
890.539703,962.267725,1991.848295,9326.594869
890.540032,962.267725,1991.848295,8882.471304
890.540362,1184.329507,1915.238745,8586.388927
890.540691,962.267725,1302.362347,8660.409521
890.541020,148.041188,1455.581446,9326.594869
890.541350,-814.226536,1915.238745,9696.697840
890.541679,-1924.535449,1685.410096,9548.656652
890.542009,-2294.638420,919.314598,9104.533087
890.542338,-2294.638420,689.485948,8956.491898
890.542667,-1998.556043,459.657299,8956.491898
890.542997,-1480.411884,-306.438199,8586.388927
890.543326,-1924.535449,-766.095498,8290.306550
890.543656,-1924.535449,-459.657299,8142.265362
890.543985,-1554.432478,229.828649,7846.182985
890.544315,-1480.411884,459.657299,8808.450710
890.544644,-444.123565,306.438199,8882.471304
890.544973,0.000000,689.485948,9474.636058
890.545303,444.123565,1762.019645,10214.842000
890.545632,296.082377,1991.848295,10510.924376
890.545962,814.226536,2451.505594,11103.089130
890.546291,666.185348,2221.676944,11251.130318
890.546620,148.041188,1838.629195,11621.233289
890.546950,-888.247130,1762.019645,11325.150913
890.547279,-1776.494261,766.095498,11029.068536
890.547609,-2368.659014,-612.876398,11177.109724
890.547938,-2590.720797,-383.047749,11029.068536
890.548268,-2886.803174,-766.095498,10214.842000
890.548597,-2368.659014,-1302.362347,9696.697840
890.548926,-1850.514855,-1455.581446,8956.491898
890.549256,-1554.432478,-383.047749,9178.553681
890.549585,-1110.308913,76.609550,8734.430116
890.549915,-888.247130,1225.752797,8660.409521
890.550244,-444.123565,2145.067394,8882.471304
890.550573,-148.041188,2681.334243,9400.615463
890.550903,-296.082377,2911.162892,9474.636058
890.551232,0.000000,2451.505594,8882.471304
890.551562,0.000000,1915.238745,8586.388927
890.551891,-296.082377,1072.533697,8734.430116
890.552221,-1036.288319,1455.581446,9326.594869
890.552550,-1628.453072,1762.019645,9400.615463
890.552879,-2516.700203,536.266849,8808.450710
890.553209,-2664.741391,766.095498,8956.491898
890.553538,-2368.659014,919.314598,9104.533087
890.553868,-2220.617826,459.657299,9178.553681
890.554197,-2146.597232,153.219100,8956.491898
890.554526,-2368.659014,0.000000,8216.285956
890.554856,-2146.597232,0.000000,8290.306550
890.555185,-1776.494261,-383.047749,8438.347739
890.555515,-1332.370696,0.000000,8660.409521
890.555844,-962.267725,229.828649,9326.594869
890.556174,-444.123565,1149.143247,10066.800811
890.556503,0.000000,1838.629195,10658.965565
890.556832,0.000000,1915.238745,10658.965565
890.557162,0.000000,2068.457845,11103.089130
890.557491,-518.144159,2451.505594,11769.274478
890.557821,-1110.308913,2604.724693,11695.253884
890.558150,-1924.535449,1838.629195,11029.068536
890.558479,-2516.700203,689.485948,10584.944971
890.558809,-2812.782580,0.000000,10214.842000
890.559138,-2516.700203,-612.876398,9844.739029
890.559468,-1998.556043,-1455.581446,9252.574275
890.559797,-1702.473667,-2145.067394,9178.553681
890.560126,-962.267725,-919.314598,9474.636058
890.560456,-1258.350101,153.219100,9696.697840
890.560785,-740.205942,1149.143247,9622.677246
890.561115,0.000000,1762.019645,9400.615463
890.561444,814.226536,2451.505594,9030.512492
890.561774,1628.453072,3140.991542,9474.636058
890.562103,1924.535449,2987.772442,8882.471304
890.562432,1998.556043,2528.115143,8364.327145
890.562762,1924.535449,1685.410096,8142.265362
890.563091,1554.432478,1838.629195,8808.450710
890.563421,444.123565,1532.190996,9104.533087
890.563750,-444.123565,1455.581446,9326.594869
890.564079,-1628.453072,919.314598,9548.656652
890.564409,-2368.659014,1149.143247,9918.759623
890.564738,-2812.782580,919.314598,10066.800811
890.565068,-2812.782580,919.314598,9696.697840
890.565397,-2664.741391,76.609550,8734.430116
890.565727,-2516.700203,229.828649,8364.327145
890.566056,-2368.659014,76.609550,7920.203579
890.566385,-1776.494261,0.000000,7624.121203
890.566715,-962.267725,995.924147,7624.121203
890.567044,0.000000,1072.533697,8956.491898
890.567374,370.102971,1378.971896,9696.697840
890.567703,444.123565,2068.457845,10362.883188
890.568032,444.123565,2451.505594,10807.006753
890.568362,0.000000,2911.162892,11177.109724
890.568691,-296.082377,2987.772442,11547.212695
890.569021,-1036.288319,2451.505594,12065.356855
890.569350,-2146.597232,1378.971896,11769.274478
890.569680,-2812.782580,536.266849,11251.130318
890.570009,-2738.761985,612.876398,10510.924376
890.570338,-2294.638420,-842.705048,9548.656652
890.570668,-1850.514855,-1685.410096,9400.615463
890.570997,-1776.494261,-1915.238745,9104.533087
890.571327,-1628.453072,-766.095498,9252.574275
890.571656,-1850.514855,383.047749,9252.574275
890.571985,-1554.432478,919.314598,8734.430116
890.572315,-888.247130,1378.971896,9400.615463
890.572644,0.000000,1532.190996,9474.636058
890.572974,370.102971,2068.457845,9030.512492
890.573303,444.123565,2298.286494,8512.368333
890.573633,1258.350101,1608.800546,9252.574275
890.573962,888.247130,1225.752797,9104.533087
890.574291,148.041188,1838.629195,9548.656652
890.574621,-296.082377,1455.581446,9474.636058
890.574950,-814.226536,919.314598,9474.636058
890.575280,-1480.411884,536.266849,9696.697840
890.575609,-1776.494261,612.876398,9474.636058
890.575938,-2072.576638,229.828649,9548.656652
890.576268,-1776.494261,-229.828649,9030.512492
890.576597,-1628.453072,-229.828649,8660.409521
890.576927,-1850.514855,-153.219100,8142.265362
890.577256,-1480.411884,-536.266849,7402.059420
890.577586,-296.082377,383.047749,7846.182985
890.577915,222.061783,919.314598,8660.409521
890.578244,444.123565,1149.143247,9622.677246
890.578574,222.061783,1838.629195,10140.821405
890.578903,-296.082377,2451.505594,9844.739029
890.579233,-518.144159,2068.457845,10955.047942
890.579562,-740.205942,1762.019645,11843.295072
890.579891,-1628.453072,1608.800546,12139.377449
890.580221,-2590.720797,536.266849,12139.377449
890.580550,-3330.926739,-383.047749,11991.336260
890.580880,-3701.029710,-842.705048,11251.130318
890.581209,-2664.741391,-459.657299,10510.924376
890.581539,-1258.350101,-1149.143247,9104.533087
890.581868,74.020594,-1225.752797,8068.244768
890.582197,814.226536,0.000000,7846.182985
890.582527,1184.329507,1149.143247,7624.121203
890.582856,666.185348,2221.676944,7328.038826
890.583186,148.041188,2451.505594,8068.244768
890.583515,-518.144159,2451.505594,9178.553681
890.583845,-740.205942,2451.505594,9992.780217
890.584174,-1184.329507,2221.676944,9844.739029
890.584503,-1184.329507,1378.971896,9252.574275
890.584833,-1258.350101,306.438199,9104.533087
890.585162,-1480.411884,-306.438199,9548.656652
890.585492,-2146.597232,76.609550,10214.842000
890.585821,-2442.679609,459.657299,10288.862594
890.586150,-2664.741391,842.705048,10066.800811
890.586480,-3108.864956,919.314598,9622.677246
890.586809,-2738.761985,995.924147,9474.636058
890.587139,-1776.494261,153.219100,8956.491898
890.587468,-888.247130,-459.657299,8068.244768
890.587798,-444.123565,-306.438199,7846.182985
890.588127,0.000000,-612.876398,7476.080014
890.588456,-148.041188,76.609550,7994.224174
890.588786,518.144159,612.876398,9030.512492
890.589115,592.164754,1378.971896,9844.739029
890.589445,444.123565,1838.629195,10436.903782
890.589774,0.000000,2911.162892,10362.883188
890.590104,-296.082377,2145.067394,10881.027347
890.590433,-1184.329507,1608.800546,11325.150913
890.590762,-2368.659014,1762.019645,11621.233289
890.591092,-3775.050304,766.095498,11399.171507
890.591421,-4515.256246,-306.438199,11029.068536
890.591751,-4737.318029,-1532.190996,10955.047942
890.592080,-4441.235652,-1685.410096,10658.965565
890.592409,-2960.823768,-1991.848295,9548.656652
890.592739,-1480.411884,-2068.457845,8512.368333
890.593068,0.000000,-1455.581446,8438.347739
890.593398,1480.411884,229.828649,8364.327145
890.593727,1776.494261,1915.238745,8586.388927
890.594057,2146.597232,2757.943793,8438.347739
890.594386,2294.638420,3600.648841,9104.533087
890.594715,2442.679609,3907.087040,9844.739029
890.595045,2442.679609,2451.505594,10362.883188
890.595374,1628.453072,1991.848295,9474.636058
890.595704,296.082377,1532.190996,9474.636058
890.596033,-370.102971,995.924147,10066.800811
890.596363,-1628.453072,919.314598,10955.047942
890.596692,-2220.617826,842.705048,10955.047942
890.597021,-3034.844362,1149.143247,9992.780217
890.597351,-3552.988522,1302.362347,9400.615463
890.597680,-2960.823768,1685.410096,9030.512492
890.598010,-2368.659014,995.924147,8216.285956
890.598339,-2072.576638,-229.828649,7476.080014
890.598669,-1406.391290,536.266849,7476.080014
890.598998,-1924.535449,689.485948,7179.997637
890.599327,-1776.494261,689.485948,7105.977043
890.599657,-1110.308913,842.705048,8142.265362
890.599986,-592.164754,919.314598,9104.533087
890.600316,74.020594,1991.848295,10584.944971
890.600645,148.041188,2604.724693,10881.027347
890.600974,296.082377,3140.991542,10881.027347
890.601304,518.144159,2451.505594,11103.089130
890.601633,222.061783,2374.896044,11399.171507
890.601963,-370.102971,2145.067394,11473.192101
890.602292,-1480.411884,1378.971896,11399.171507
890.602622,-2442.679609,689.485948,10955.047942
890.602951,-2812.782580,306.438199,10584.944971
890.603280,-2590.720797,-229.828649,9918.759623
890.603610,-1702.473667,-1225.752797,8586.388927
890.603939,-740.205942,-2451.505594,7624.121203
890.604269,-518.144159,-689.485948,7920.203579
890.604598,-592.164754,536.266849,8660.409521
890.604928,-888.247130,1685.410096,9030.512492
890.605257,-1480.411884,2298.286494,9178.553681
890.605586,-814.226536,2681.334243,9696.697840
890.605916,-296.082377,2451.505594,9622.677246
890.606245,148.041188,1838.629195,9474.636058
890.606575,222.061783,689.485948,9326.594869
890.606904,0.000000,383.047749,9178.553681
890.607233,-222.061783,536.266849,9548.656652
890.607563,-962.267725,842.705048,10140.821405
890.607892,-1702.473667,842.705048,10140.821405
890.608222,-1776.494261,689.485948,9696.697840
890.608551,-1554.432478,689.485948,9400.615463
890.608881,-666.185348,0.000000,8956.491898
890.609210,-962.267725,-536.266849,8290.306550
890.609539,-1480.411884,-229.828649,8216.285956
890.609869,-2072.576638,76.609550,8142.265362
890.610198,-1924.535449,383.047749,8290.306550
890.610528,-1554.432478,-536.266849,8364.327145
890.610857,-740.205942,229.828649,8586.388927
890.611187,-296.082377,459.657299,9548.656652
890.611516,-148.041188,842.705048,10362.883188
890.611845,0.000000,1685.410096,10732.986159
890.612175,-370.102971,2451.505594,11103.089130
890.612504,-814.226536,2298.286494,11473.192101
890.612834,-1850.514855,1991.848295,11251.130318
890.613163,-2368.659014,919.314598,11621.233289
890.613492,-2960.823768,153.219100,11399.171507
890.613822,-3256.906145,-459.657299,11251.130318
890.614151,-3034.844362,0.000000,10658.965565
890.614481,-2664.741391,-919.314598,9030.512492
890.614810,-1406.391290,-1608.800546,8364.327145
890.615140,-148.041188,-995.924147,7846.182985
890.615469,518.144159,306.438199,8142.265362
890.615798,666.185348,689.485948,8364.327145
890.616128,962.267725,2298.286494,8216.285956
890.616457,888.247130,2911.162892,9326.594869
890.616787,888.247130,3140.991542,10066.800811
890.617116,222.061783,2757.943793,9548.656652
890.617446,74.020594,2528.115143,9252.574275
890.617775,222.061783,1762.019645,8956.491898
890.618104,0.000000,842.705048,9918.759623
890.618434,-888.247130,919.314598,10584.944971
890.618763,-2146.597232,1378.971896,10362.883188
890.619093,-2664.741391,1302.362347,9844.739029
890.619422,-2664.741391,1302.362347,9474.636058
890.619752,-2368.659014,995.924147,8734.430116
890.620081,-2072.576638,459.657299,8216.285956
890.620410,-1850.514855,-459.657299,7476.080014
890.620740,-1850.514855,-459.657299,7179.997637
890.621069,-1850.514855,76.609550,7105.977043
890.621399,-1998.556043,76.609550,7624.121203
890.621728,-2072.576638,76.609550,8364.327145
890.622057,-1036.288319,689.485948,9474.636058
890.622387,-370.102971,1149.143247,10436.903782
890.622716,0.000000,1685.410096,10510.924376
890.623046,222.061783,1608.800546,10436.903782
890.623375,222.061783,2374.896044,11103.089130
890.623705,-444.123565,2298.286494,11547.212695
890.624034,-1480.411884,2145.067394,11473.192101
890.624363,-2368.659014,995.924147,11103.089130
890.624693,-2738.761985,-306.438199,10658.965565
890.625022,-3182.885551,-1072.533697,11251.130318
890.625352,-3256.906145,-1532.190996,10584.944971
890.625681,-3034.844362,-1991.848295,9178.553681
890.626011,-2368.659014,-1991.848295,9104.533087
890.626340,-1406.391290,-1225.752797,9252.574275
890.626669,-1332.370696,0.000000,9252.574275
890.626999,-444.123565,919.314598,9104.533087
890.627328,222.061783,1838.629195,9178.553681
890.627658,740.205942,2681.334243,9622.677246
890.627987,1258.350101,2604.724693,9770.718434
890.628316,1110.308913,2451.505594,9474.636058
890.628646,1110.308913,1991.848295,9178.553681
890.628975,814.226536,1378.971896,9474.636058
890.629305,444.123565,1455.581446,10214.842000
890.629634,-592.164754,1685.410096,10510.924376
890.629964,-1332.370696,1608.800546,10140.821405
890.630293,-2516.700203,1225.752797,9844.739029
890.630622,-2590.720797,1302.362347,9918.759623
890.630952,-2368.659014,1302.362347,9030.512492
890.631281,-1776.494261,229.828649,7994.224174
890.631611,-1258.350101,306.438199,7550.100608
890.631940,-1258.350101,0.000000,6587.832884
890.632270,-962.267725,0.000000,6809.894666
890.632599,-740.205942,689.485948,7105.977043
890.632928,-518.144159,1455.581446,7920.203579
890.633258,-296.082377,2068.457845,9474.636058
890.633587,222.061783,2681.334243,10288.862594
890.633917,-148.041188,2911.162892,10732.986159
890.634246,-148.041188,3064.381992,10955.047942
890.634575,-518.144159,2604.724693,11399.171507
890.634905,-1258.350101,2528.115143,11547.212695
890.635234,-1702.473667,2145.067394,11399.171507
890.635564,-2368.659014,536.266849,10807.006753
890.635893,-2886.803174,76.609550,11029.068536
890.636223,-3330.926739,0.000000,10584.944971
890.636552,-2812.782580,-536.266849,9622.677246
890.636881,-1850.514855,-1762.019645,8290.306550
890.637211,-888.247130,-689.485948,8586.388927
890.637540,-444.123565,0.000000,8808.450710
890.637870,-518.144159,766.095498,9178.553681
890.638199,-814.226536,2145.067394,9326.594869
890.638529,-296.082377,2528.115143,9400.615463
890.638858,370.102971,2911.162892,9992.780217
890.639187,1184.329507,2298.286494,9992.780217
890.639517,962.267725,1762.019645,9400.615463
890.639846,740.205942,1302.362347,9252.574275
890.640176,0.000000,1302.362347,9474.636058
890.640505,-592.164754,1762.019645,9992.780217
890.640834,-1850.514855,1072.533697,10362.883188
890.641164,-2664.741391,919.314598,9918.759623
890.641493,-2738.761985,766.095498,9548.656652
890.641823,-2516.700203,76.609550,9252.574275
890.642152,-2368.659014,-383.047749,8586.388927
890.642482,-1850.514855,-612.876398,7846.182985
890.642811,-2368.659014,-306.438199,7698.141797
890.643140,-1850.514855,-229.828649,7476.080014
890.643470,-1850.514855,0.000000,7476.080014
890.643799,-1110.308913,76.609550,7772.162391
890.644129,-444.123565,1302.362347,9030.512492
890.644458,0.000000,1072.533697,10140.821405
890.644788,-148.041188,2374.896044,10658.965565
890.645117,-370.102971,2987.772442,10881.027347
890.645446,-444.123565,2451.505594,11325.150913
890.645776,-740.205942,1378.971896,11547.212695
890.646105,-1332.370696,1455.581446,11769.274478
890.646435,-2072.576638,842.705048,11399.171507
890.646764,-2294.638420,0.000000,10807.006753
890.647094,-2146.597232,-536.266849,10510.924376
890.647423,-1406.391290,0.000000,9992.780217
890.647752,-592.164754,-1455.581446,8438.347739
890.648082,0.000000,-1149.143247,7994.224174
890.648411,74.020594,383.047749,8364.327145
890.648741,-370.102971,1302.362347,8882.471304
890.649070,-296.082377,2068.457845,9400.615463
890.649399,-444.123565,2451.505594,9770.718434
890.649729,-592.164754,2298.286494,10362.883188
890.650058,-740.205942,1991.848295,10584.944971
890.650388,-814.226536,1838.629195,10066.800811
890.650717,-592.164754,1302.362347,9918.759623
890.651047,-296.082377,766.095498,9770.718434
890.651376,-444.123565,919.314598,9918.759623
890.651705,-1332.370696,1608.800546,10066.800811
890.652035,-1628.453072,1072.533697,9548.656652
890.652364,-2072.576638,1149.143247,9178.553681
890.652694,-1406.391290,1378.971896,8882.471304
890.653023,-1184.329507,1225.752797,8290.306550
890.653353,-518.144159,153.219100,7476.080014
890.653682,-666.185348,-229.828649,7402.059420
890.654011,-962.267725,229.828649,7698.141797
890.654341,-1776.494261,766.095498,8068.244768
890.654670,-1850.514855,1455.581446,7994.224174
890.655000,-2442.679609,1378.971896,8068.244768
890.655329,-2146.597232,1838.629195,9474.636058
890.655658,-1628.453072,1455.581446,10510.924376
890.655988,-1776.494261,2145.067394,10658.965565
890.656317,-1850.514855,2145.067394,10510.924376
890.656647,-2294.638420,1149.143247,10288.862594
890.656976,-2368.659014,919.314598,10881.027347
890.657306,-2146.597232,612.876398,10732.986159
890.657635,-1776.494261,-842.705048,10807.006753
890.657964,-1924.535449,-1378.971896,10807.006753
890.658294,-1924.535449,0.000000,11029.068536
890.658623,-1406.391290,-766.095498,10362.883188
890.658953,-370.102971,-1455.581446,9474.636058
890.659282,296.082377,-306.438199,8956.491898
890.659612,1110.308913,76.609550,9104.533087
890.659941,1554.432478,536.266849,9030.512492
890.660270,1480.411884,1072.533697,8956.491898
890.660600,888.247130,2221.676944,9622.677246
890.660929,222.061783,2374.896044,10362.883188
890.661259,0.000000,2451.505594,10288.862594
890.661588,0.000000,2604.724693,9770.718434
890.661917,-518.144159,1532.190996,9696.697840
890.662247,-888.247130,612.876398,9696.697840
890.662576,-1850.514855,612.876398,10140.821405
890.662906,-2664.741391,612.876398,10288.862594
890.663235,-3182.885551,766.095498,10066.800811
890.663565,-3256.906145,383.047749,9252.574275
890.663894,-2664.741391,229.828649,8216.285956
890.664223,-1628.453072,-383.047749,7550.100608
890.664553,-444.123565,-842.705048,7254.018232
890.664882,-222.061783,76.609550,7550.100608
890.665212,-296.082377,1225.752797,7254.018232
890.665541,-592.164754,1762.019645,7698.141797
890.665871,-148.041188,2068.457845,8438.347739
890.666200,222.061783,2451.505594,9474.636058
890.666529,592.164754,2911.162892,10066.800811
890.666859,296.082377,2451.505594,10066.800811
890.667188,666.185348,2757.943793,10436.903782
890.667518,222.061783,2681.334243,10436.903782
890.667847,-740.205942,2221.676944,10807.006753
890.668177,-1924.535449,1762.019645,11029.068536
890.668506,-3256.906145,1149.143247,10658.965565
890.668835,-3997.112087,76.609550,10955.047942
890.669165,-4071.132681,0.000000,10955.047942
890.669494,-3923.091493,-306.438199,9992.780217
890.669824,-2664.741391,-1532.190996,8956.491898
890.670153,-1258.350101,-1455.581446,7994.224174
890.670482,-370.102971,153.219100,8216.285956
890.670812,0.000000,919.314598,8290.306550
890.671141,0.000000,1685.410096,8808.450710
890.671471,222.061783,2681.334243,9696.697840
890.671800,592.164754,3600.648841,10658.965565
890.672130,1258.350101,3524.039291,10658.965565
890.672459,962.267725,3600.648841,10140.821405
890.672788,666.185348,2221.676944,9696.697840
890.673118,666.185348,1302.362347,9474.636058
890.673447,0.000000,842.705048,10066.800811
890.673777,-1110.308913,1378.971896,10584.944971
890.674106,-1776.494261,229.828649,9696.697840
890.674436,-2886.803174,229.828649,9104.533087
890.674765,-2590.720797,383.047749,8956.491898
890.675094,-1998.556043,0.000000,8142.265362
890.675424,-1110.308913,-536.266849,7328.038826
890.675753,-1480.411884,-612.876398,6735.874072
890.676083,-1628.453072,0.000000,7550.100608
890.676412,-1850.514855,459.657299,8068.244768
890.676741,-1554.432478,459.657299,8512.368333
890.677071,-962.267725,995.924147,9326.594869
890.677401,0.000000,1838.629195,9918.759623
890.677730,-222.061783,1608.800546,10658.965565
890.678060,-222.061783,2068.457845,10807.006753
890.678389,0.000000,2298.286494,10881.027347
890.678719,-222.061783,1838.629195,11251.130318
890.679049,-1036.288319,1685.410096,11103.089130
890.679378,-1776.494261,1072.533697,10658.965565
890.679708,-2368.659014,-383.047749,10732.986159
890.680037,-2738.761985,-995.924147,10955.047942
890.680367,-2886.803174,-612.876398,10362.883188
890.680696,-1998.556043,-1072.533697,9400.615463
890.681026,-962.267725,-1532.190996,8586.388927
890.681356,148.041188,-1225.752797,8512.368333
890.681685,518.144159,0.000000,8586.388927
890.682015,222.061783,1149.143247,9030.512492
890.682344,0.000000,2451.505594,9326.594869
890.682674,148.041188,2911.162892,9992.780217
890.683003,222.061783,2987.772442,10732.986159
890.683333,148.041188,3064.381992,10214.842000
890.683663,74.020594,2221.676944,9400.615463
890.683992,296.082377,1302.362347,9474.636058
890.684322,222.061783,995.924147,9696.697840
890.684651,-1184.329507,1302.362347,9918.759623
890.684981,-2220.617826,1225.752797,9696.697840
890.685311,-2812.782580,1072.533697,9474.636058
890.685640,-2886.803174,689.485948,9178.553681
890.685970,-2072.576638,1532.190996,8882.471304
890.686299,-1776.494261,842.705048,7994.224174
890.686629,-1776.494261,0.000000,7402.059420
890.686958,-1702.473667,153.219100,7476.080014
890.687288,-1702.473667,766.095498,7698.141797
890.687618,-1332.370696,1072.533697,7772.162391
890.687947,-814.226536,1225.752797,7994.224174
890.688277,-148.041188,995.924147,8882.471304
890.688606,74.020594,1685.410096,9992.780217
890.688936,74.020594,2298.286494,10510.924376
890.689265,0.000000,3140.991542,10881.027347
890.689595,-370.102971,2757.943793,10881.027347
890.689925,-814.226536,1991.848295,10658.965565
890.690254,-1924.535449,1532.190996,11029.068536
890.690584,-2960.823768,459.657299,10436.903782
890.690913,-3330.926739,-919.314598,10732.986159
890.691243,-3923.091493,-919.314598,10807.006753
890.691572,-3478.967927,-1685.410096,10362.883188
890.691902,-3256.906145,-1762.019645,9474.636058
890.692232,-1998.556043,-2451.505594,8660.409521
890.692561,-962.267725,-1225.752797,8660.409521
890.692891,-222.061783,-536.266849,9030.512492
890.693220,0.000000,459.657299,8882.471304
890.693550,518.144159,1685.410096,9622.677246
890.693880,888.247130,2298.286494,10436.903782
890.694209,1036.288319,2604.724693,10658.965565
890.694539,1184.329507,2451.505594,10214.842000
890.694868,1628.453072,1915.238745,9696.697840
890.695198,1332.370696,459.657299,9770.718434
890.695527,370.102971,766.095498,10510.924376
890.695857,-962.267725,842.705048,10584.944971
890.696187,-2072.576638,229.828649,10436.903782
890.696516,-2812.782580,229.828649,9548.656652
890.696846,-2590.720797,919.314598,9178.553681
890.697175,-2368.659014,76.609550,8808.450710
890.697505,-1702.473667,-612.876398,7624.121203
890.697834,-1406.391290,-842.705048,7105.977043
890.698164,-1258.350101,-306.438199,6957.935855
890.698494,-518.144159,919.314598,7031.956449
890.698823,-814.226536,995.924147,7402.059420
890.699153,-74.020594,1455.581446,8512.368333
890.699482,-222.061783,2221.676944,9844.739029
890.699812,0.000000,2604.724693,10510.924376
890.700142,148.041188,3294.210641,10658.965565
890.700471,444.123565,2987.772442,11029.068536
890.700801,370.102971,2451.505594,10881.027347
890.701130,-518.144159,1838.629195,11029.068536
890.701460,-1924.535449,1072.533697,11029.068536
890.701789,-2294.638420,306.438199,11029.068536
890.702119,-3404.947333,842.705048,11029.068536
890.702449,-3478.967927,612.876398,10732.986159
890.702778,-2812.782580,-229.828649,9400.615463
890.703108,-1776.494261,-1302.362347,7994.224174
890.703437,-814.226536,-1072.533697,7624.121203
890.703767,0.000000,0.000000,7624.121203
890.704096,0.000000,1915.238745,8438.347739
890.704426,-222.061783,2681.334243,8882.471304
890.704756,592.164754,2604.724693,9844.739029
890.705085,666.185348,2911.162892,10362.883188
890.705415,296.082377,3370.820191,9992.780217
890.705744,444.123565,2298.286494,9474.636058
890.706074,592.164754,1991.848295,10066.800811
890.706404,-148.041188,1762.019645,10288.862594
890.706733,-962.267725,1149.143247,10584.944971
890.707063,-2220.617826,919.314598,10658.965565
890.707392,-2812.782580,919.314598,10436.903782
890.707722,-3330.926739,919.314598,9918.759623
890.708051,-2960.823768,842.705048,8882.471304
890.708381,-2072.576638,0.000000,7624.121203
890.708711,-962.267725,-919.314598,6735.874072
890.709040,-1036.288319,-842.705048,6513.812290
890.709370,-888.247130,536.266849,7105.977043
890.709699,-1480.411884,1072.533697,7476.080014
890.710029,-1332.370696,1608.800546,8364.327145
890.710358,-814.226536,1685.410096,9474.636058
890.710688,-444.123565,1685.410096,10288.862594
890.711018,518.144159,1608.800546,10732.986159
890.711347,370.102971,1991.848295,10584.944971
890.711677,148.041188,1378.971896,10881.027347
890.712006,-370.102971,689.485948,11473.192101
890.712336,-1332.370696,919.314598,11991.336260
890.712666,-1776.494261,689.485948,11473.192101
890.712995,-2738.761985,383.047749,10658.965565
890.713325,-2664.741391,-229.828649,10066.800811
890.713654,-2146.597232,-842.705048,8882.471304
890.713984,-1110.308913,-1608.800546,7772.162391
890.714313,-444.123565,-1378.971896,7772.162391
890.714643,-370.102971,-612.876398,8512.368333
890.714973,-592.164754,766.095498,9104.533087
890.715302,-740.205942,1225.752797,9474.636058
890.715632,-814.226536,1608.800546,9992.780217
890.715961,-148.041188,1991.848295,10658.965565
890.716291,74.020594,1991.848295,11473.192101
890.716620,0.000000,1838.629195,10732.986159
890.716950,74.020594,1378.971896,10436.903782
890.717280,74.020594,459.657299,10584.944971
890.717609,0.000000,459.657299,10214.842000
890.717939,-814.226536,1072.533697,10214.842000
890.718268,-666.185348,919.314598,9918.759623
890.718598,-592.164754,689.485948,9252.574275
890.718928,0.000000,1072.533697,8734.430116
890.719257,0.000000,995.924147,7920.203579
890.719587,-222.061783,766.095498,7031.956449
890.719916,-518.144159,995.924147,7402.059420
890.720246,-1110.308913,1915.238745,7846.182985
890.720575,-2368.659014,1762.019645,7698.141797
890.720905,-2516.700203,1378.971896,7476.080014
890.721235,-2368.659014,1072.533697,7994.224174
890.721564,-2664.741391,995.924147,9178.553681
890.721894,-2368.659014,1149.143247,10214.842000
890.722223,-2664.741391,1532.190996,10214.842000
890.722553,-1924.535449,1378.971896,9992.780217
890.722882,-1184.329507,1532.190996,10288.862594
890.723212,-740.205942,1455.581446,10658.965565
890.723542,-1554.432478,766.095498,10881.027347
890.723871,-2146.597232,919.314598,10807.006753
890.724201,-2590.720797,1149.143247,10881.027347
890.724530,-2516.700203,383.047749,10362.883188
890.724860,-1850.514855,-229.828649,9178.553681
890.725189,-1184.329507,-995.924147,8438.347739
890.725519,-518.144159,-995.924147,8438.347739
890.725849,0.000000,0.000000,8660.409521
890.726178,0.000000,842.705048,8956.491898
890.726508,-518.144159,1302.362347,9178.553681
890.726837,-518.144159,1915.238745,10140.821405
890.727167,-592.164754,2298.286494,10955.047942
890.727497,-370.102971,2221.676944,10658.965565
890.727826,0.000000,1685.410096,10214.842000
890.728156,-148.041188,1072.533697,9918.759623
890.728485,-444.123565,153.219100,10362.883188
890.728815,-1480.411884,0.000000,10732.986159
890.729144,-2146.597232,76.609550,10584.944971
890.729474,-2516.700203,0.000000,9992.780217
890.729804,-2516.700203,0.000000,9696.697840
890.730133,-2146.597232,-459.657299,8512.368333
890.730463,-1406.391290,0.000000,8364.327145
890.730792,-888.247130,0.000000,8216.285956
890.731122,-518.144159,995.924147,7994.224174
890.731451,-222.061783,842.705048,7772.162391
890.731781,296.082377,919.314598,7179.997637
890.732111,296.082377,1149.143247,7254.018232
890.732440,888.247130,1225.752797,8364.327145
890.732770,1184.329507,1455.581446,9252.574275
890.733099,1184.329507,1991.848295,10066.800811
890.733429,592.164754,2451.505594,10214.842000
890.733759,-148.041188,2451.505594,10436.903782
890.734088,-444.123565,1685.410096,11473.192101
890.734418,-1554.432478,1608.800546,11991.336260
890.734747,-2886.803174,689.485948,11769.274478
890.735077,-3478.967927,689.485948,11473.192101
890.735406,-3552.988522,0.000000,11103.089130
890.735736,-2738.761985,-306.438199,9548.656652
890.736066,-1776.494261,-1378.971896,8142.265362
890.736395,-814.226536,-995.924147,7476.080014
890.736725,-222.061783,0.000000,7476.080014
890.737054,0.000000,1455.581446,7846.182985
890.737384,222.061783,2068.457845,8660.409521
890.737713,74.020594,2681.334243,9696.697840
890.738043,74.020594,3294.210641,10807.006753
890.738373,0.000000,3140.991542,10881.027347
890.738702,0.000000,3447.429741,10436.903782
890.739032,370.102971,2451.505594,10732.986159
890.739361,148.041188,1455.581446,10362.883188
890.739691,0.000000,842.705048,10584.944971
890.740021,-1036.288319,536.266849,10732.986159
890.740350,-2368.659014,689.485948,10140.821405
890.740680,-2960.823768,995.924147,9770.718434
890.741009,-2960.823768,919.314598,9474.636058
890.741339,-2738.761985,766.095498,8956.491898
890.741668,-1998.556043,76.609550,7624.121203
890.741998,-1332.370696,-306.438199,6957.935855
890.742328,-1332.370696,76.609550,6661.853478
890.742657,-1554.432478,306.438199,7105.977043
890.742987,-1406.391290,919.314598,7624.121203
890.743316,-1110.308913,1455.581446,8660.409521
890.743646,-444.123565,1608.800546,9474.636058
890.743975,0.000000,1991.848295,10436.903782
890.744305,-296.082377,2528.115143,10140.821405
890.744635,0.000000,2298.286494,10658.965565
890.744964,0.000000,1991.848295,10955.047942
890.745294,-1184.329507,1762.019645,10732.986159
890.745623,-2072.576638,995.924147,10807.006753
890.745953,-2590.720797,-306.438199,11399.171507
890.746283,-2960.823768,-612.876398,11547.212695
890.746612,-3478.967927,-383.047749,11177.109724
890.746942,-2812.782580,-919.314598,9548.656652
890.747271,-1628.453072,-1532.190996,8660.409521
890.747601,148.041188,-1762.019645,8290.306550
890.747930,666.185348,-766.095498,7624.121203
890.748260,888.247130,459.657299,7698.141797
890.748590,666.185348,1685.410096,8290.306550
890.748919,888.247130,2451.505594,9992.780217
890.749249,888.247130,2911.162892,11473.192101
890.749578,592.164754,3140.991542,11325.150913
890.749908,370.102971,2451.505594,10881.027347
890.750237,444.123565,1072.533697,10807.006753
890.750567,296.082377,919.314598,11103.089130
890.750897,-592.164754,536.266849,11325.150913
890.751226,-1480.411884,919.314598,10214.842000
890.751556,-2368.659014,842.705048,9548.656652
890.751885,-2442.679609,459.657299,8956.491898
890.752215,-1628.453072,536.266849,8438.347739
890.752545,-814.226536,153.219100,7402.059420
890.752874,-666.185348,0.000000,6661.853478
890.753204,-296.082377,229.828649,6661.853478
890.753533,-888.247130,842.705048,7105.977043
890.753863,-1110.308913,1225.752797,7402.059420
890.754192,-1406.391290,995.924147,8068.244768
890.754522,-962.267725,1762.019645,9548.656652
890.754852,-888.247130,1838.629195,10066.800811
890.755181,-814.226536,2068.457845,10510.924376
890.755511,-962.267725,2681.334243,10807.006753
890.755840,-1406.391290,2298.286494,10955.047942
890.756170,-1554.432478,2221.676944,11029.068536
890.756499,-1850.514855,1302.362347,11029.068536
890.756829,-2590.720797,995.924147,10658.965565
890.757159,-3034.844362,229.828649,10510.924376
890.757488,-3627.009116,-383.047749,10288.862594
890.757818,-3330.926739,-536.266849,9770.718434
890.758147,-2368.659014,-995.924147,8512.368333
890.758477,-1850.514855,-1302.362347,8438.347739
890.758806,-1554.432478,-766.095498,8364.327145
890.759136,-1036.288319,0.000000,8660.409521
890.759466,-518.144159,766.095498,8882.471304
890.759795,0.000000,1302.362347,9918.759623
890.760125,222.061783,2681.334243,10362.883188
890.760454,74.020594,2528.115143,10955.047942
890.760784,74.020594,2604.724693,10807.006753
890.761114,296.082377,1991.848295,10288.862594
890.761443,518.144159,1149.143247,10066.800811
890.761773,0.000000,919.314598,10214.842000
890.762102,-592.164754,612.876398,10214.842000
890.762432,-1776.494261,306.438199,9770.718434
890.762761,-2368.659014,76.609550,9622.677246
890.763091,-2516.700203,229.828649,9178.553681
890.763421,-2294.638420,306.438199,8660.409521
890.763750,-1702.473667,-919.314598,8068.244768
890.764080,-1258.350101,-536.266849,7920.203579
890.764409,-1036.288319,-306.438199,7624.121203
890.764739,-1184.329507,0.000000,7624.121203
890.765068,-888.247130,536.266849,7772.162391
890.765398,-518.144159,1072.533697,8808.450710
890.765728,-148.041188,1532.190996,9844.739029
890.766057,148.041188,1915.238745,9992.780217
890.766387,222.061783,2298.286494,10066.800811
890.766716,740.205942,2221.676944,10584.944971
890.767046,666.185348,2298.286494,11251.130318
890.767376,-148.041188,1915.238745,11843.295072
890.767705,-1554.432478,1302.362347,11621.233289
890.768035,-3108.864956,612.876398,11251.130318
890.768364,-3627.009116,689.485948,11251.130318
890.768694,-2960.823768,0.000000,10584.944971
890.769023,-1924.535449,-842.705048,9770.718434
890.769353,-1554.432478,-1685.410096,8364.327145
890.769683,-888.247130,-1225.752797,7994.224174
890.770012,-518.144159,0.000000,7994.224174
890.770342,0.000000,1838.629195,8290.306550
890.770671,444.123565,1915.238745,8142.265362
890.771001,888.247130,2451.505594,9548.656652
890.771330,888.247130,2987.772442,10140.821405
890.771660,518.144159,2987.772442,10362.883188
890.771990,74.020594,3447.429741,10288.862594
890.772319,-296.082377,2604.724693,10362.883188
890.772649,-518.144159,1838.629195,10881.027347
890.772978,-1776.494261,1225.752797,10658.965565
890.773308,-2072.576638,536.266849,10436.903782
890.773638,-2812.782580,306.438199,9474.636058
890.773967,-2738.761985,153.219100,8882.471304
890.774297,-2516.700203,383.047749,8660.409521
890.774626,-2368.659014,0.000000,8068.244768
890.774956,-1924.535449,153.219100,7550.100608
890.775285,-1628.453072,689.485948,7105.977043
890.775615,-1850.514855,76.609550,7031.956449
890.775945,-962.267725,1225.752797,7105.977043
890.776274,-888.247130,1225.752797,7698.141797
890.776604,0.000000,1225.752797,9030.512492
890.776933,148.041188,1685.410096,9992.780217
890.777263,74.020594,2145.067394,10436.903782
890.777593,0.000000,2145.067394,10732.986159
890.777922,296.082377,2068.457845,11473.192101
890.778252,-370.102971,1991.848295,12065.356855
890.778581,-1406.391290,1762.019645,12213.398043
890.778911,-2812.782580,919.314598,11621.233289
890.779241,-3404.947333,229.828649,11325.150913
890.779570,-3478.967927,-383.047749,10362.883188
890.779900,-2886.803174,-842.705048,9844.739029
890.780229,-2220.617826,-1685.410096,8438.347739
890.780559,-1332.370696,-1915.238745,7698.141797
890.780889,-370.102971,-1225.752797,7846.182985
890.781218,0.000000,-612.876398,8068.244768
890.781548,0.000000,766.095498,8956.491898
890.781878,-148.041188,1762.019645,9622.677246
890.782207,74.020594,2451.505594,10510.924376
890.782537,296.082377,2221.676944,10881.027347
890.782866,666.185348,2068.457845,11029.068536
890.783196,814.226536,1685.410096,10584.944971
890.783526,518.144159,1225.752797,10658.965565
890.783855,0.000000,459.657299,10658.965565
890.784185,-814.226536,766.095498,10658.965565
890.784514,-1184.329507,459.657299,9770.718434
890.784844,-1332.370696,0.000000,9252.574275
890.785174,-1036.288319,919.314598,8882.471304
890.785503,-814.226536,766.095498,8068.244768
890.785833,-518.144159,306.438199,7105.977043
890.786162,-888.247130,306.438199,6661.853478
890.786492,-1184.329507,1225.752797,6587.832884
890.786822,-2220.617826,689.485948,6809.894666
890.787151,-2294.638420,766.095498,7476.080014
890.787481,-2294.638420,306.438199,8808.450710
890.787810,-2146.597232,919.314598,10140.821405
890.788140,-2220.617826,1685.410096,10732.986159
890.788470,-2072.576638,1608.800546,11177.109724
890.788799,-1554.432478,1532.190996,11399.171507
890.789129,-888.247130,1838.629195,11917.315666
890.789458,-888.247130,2068.457845,11917.315666
890.789788,-1258.350101,1838.629195,11399.171507
890.790118,-1480.411884,536.266849,10584.944971
890.790447,-1628.453072,919.314598,10288.862594
890.790777,-1628.453072,306.438199,9918.759623
890.791107,-1184.329507,0.000000,8882.471304
890.791436,-962.267725,-306.438199,7698.141797
890.791766,-370.102971,-1225.752797,8068.244768
890.792095,-296.082377,-306.438199,8586.388927
890.792425,-740.205942,919.314598,9030.512492
890.792755,-1184.329507,1608.800546,9474.636058
890.793084,-1184.329507,2451.505594,10584.944971
890.793414,-1406.391290,2681.334243,10732.986159
890.793743,-1110.308913,2374.896044,10436.903782
890.794073,-1036.288319,1991.848295,10066.800811
890.794403,-1036.288319,1149.143247,9548.656652
890.794732,-1036.288319,842.705048,9548.656652
890.795062,-1406.391290,306.438199,9474.636058
890.795391,-1998.556043,689.485948,9548.656652
890.795721,-2738.761985,383.047749,9030.512492
890.796051,-2590.720797,0.000000,8808.450710
890.796380,-1850.514855,306.438199,8734.430116
890.796710,-1258.350101,0.000000,8142.265362
890.797039,-296.082377,153.219100,7624.121203
890.797369,-444.123565,76.609550,7772.162391
890.797699,-444.123565,459.657299,8142.265362
890.798028,0.000000,612.876398,8216.285956
890.798358,148.041188,995.924147,8438.347739
890.798687,666.185348,1685.410096,9252.574275
890.799017,592.164754,1455.581446,10288.862594
890.799347,1036.288319,1991.848295,10807.006753
890.799676,814.226536,2145.067394,10807.006753
890.800006,222.061783,1838.629195,10955.047942
890.800336,-592.164754,1455.581446,11621.233289
890.800665,-1036.288319,1838.629195,11991.336260
890.800995,-2442.679609,689.485948,11843.295072
890.801324,-3182.885551,153.219100,11029.068536
890.801654,-3404.947333,0.000000,10214.842000
890.801984,-2664.741391,-229.828649,8882.471304
890.802313,-1480.411884,-1225.752797,8068.244768
890.802643,-888.247130,-1608.800546,7772.162391
890.802972,-518.144159,-536.266849,8068.244768
890.803302,-592.164754,766.095498,8660.409521
890.803632,-222.061783,2145.067394,9474.636058
890.803961,-444.123565,2451.505594,9992.780217
890.804291,148.041188,3064.381992,10807.006753
890.804620,444.123565,3140.991542,10510.924376
890.804950,370.102971,2604.724693,9770.718434
890.805280,740.205942,2145.067394,9548.656652
890.805609,592.164754,1225.752797,10140.821405
890.805939,0.000000,1378.971896,10140.821405
890.806268,-1110.308913,1608.800546,10066.800811
890.806598,-1924.535449,842.705048,9400.615463
890.806928,-2220.617826,842.705048,8956.491898
890.807257,-2294.638420,1225.752797,8586.388927
890.807587,-1776.494261,383.047749,7920.203579
890.807916,-2072.576638,0.000000,7846.182985
890.808246,-1924.535449,306.438199,7402.059420
890.808576,-2072.576638,612.876398,7328.038826
890.808905,-2072.576638,612.876398,7550.100608
890.809235,-1406.391290,459.657299,8068.244768
890.809565,-1110.308913,689.485948,9104.533087
890.809894,-1036.288319,1302.362347,10214.842000
890.810224,-1184.329507,2298.286494,10584.944971
890.810553,-740.205942,2528.115143,11029.068536
890.810883,-518.144159,2298.286494,10881.027347
890.811213,-370.102971,2068.457845,11399.171507
890.811542,-1110.308913,2145.067394,11473.192101
890.811872,-2146.597232,1685.410096,10732.986159
890.812201,-2442.679609,383.047749,10288.862594
890.812531,-2220.617826,-229.828649,10140.821405
890.812861,-2072.576638,-766.095498,10362.883188
890.813190,-1702.473667,-919.314598,9474.636058
890.813520,-1332.370696,-1225.752797,8808.450710
890.813849,-740.205942,-536.266849,8882.471304
890.814179,0.000000,306.438199,9030.512492
890.814509,814.226536,1149.143247,9104.533087
890.814838,740.205942,1149.143247,9548.656652
890.815168,740.205942,1915.238745,9844.739029
890.815497,888.247130,2451.505594,10510.924376
890.815827,740.205942,2451.505594,10288.862594
890.816157,666.185348,2451.505594,9770.718434
890.816486,74.020594,1991.848295,9770.718434
890.816816,148.041188,1225.752797,9918.759623
890.817145,-666.185348,1302.362347,9844.739029
890.817475,-1702.473667,689.485948,9474.636058
890.817805,-2146.597232,0.000000,9104.533087
890.818134,-2590.720797,76.609550,8956.491898
890.818464,-2294.638420,0.000000,8512.368333
890.818794,-1924.535449,-229.828649,8216.285956
890.819123,-1406.391290,-306.438199,7846.182985
890.819453,-1258.350101,229.828649,7328.038826
890.819782,-1036.288319,0.000000,7254.018232
890.820112,-666.185348,842.705048,7772.162391
890.820442,-296.082377,842.705048,8586.388927
890.820771,0.000000,1838.629195,9622.677246
890.821101,0.000000,1838.629195,10510.924376
890.821430,222.061783,2221.676944,10510.924376
890.821760,148.041188,2528.115143,10955.047942
890.822090,0.000000,2221.676944,11177.109724
890.822419,-592.164754,2068.457845,11473.192101
890.822749,-1850.514855,1378.971896,11473.192101
890.823078,-2590.720797,153.219100,10955.047942
890.823408,-3330.926739,-459.657299,10436.903782
890.823738,-3923.091493,-612.876398,10807.006753
890.824067,-3849.070898,-995.924147,10362.883188
890.824397,-3108.864956,-1149.143247,9104.533087
890.824726,-1702.473667,-1072.533697,8290.306550
890.825056,-666.185348,-1072.533697,8512.368333
890.825386,-592.164754,383.047749,8216.285956
890.825715,-666.185348,1302.362347,8512.368333
890.826045,0.000000,2298.286494,9400.615463
890.826375,0.000000,3217.601092,10362.883188
890.826704,0.000000,3524.039291,10732.986159
890.827034,-222.061783,2604.724693,9918.759623
890.827363,0.000000,1838.629195,9548.656652
890.827693,-370.102971,842.705048,9474.636058
890.828023,-518.144159,536.266849,9474.636058
890.828352,-1184.329507,766.095498,9474.636058
890.828682,-1850.514855,0.000000,9252.574275
890.829011,-1850.514855,0.000000,9474.636058
890.829341,-1924.535449,689.485948,9178.553681
890.829671,-1480.411884,612.876398,8882.471304
890.830000,-1110.308913,0.000000,8068.244768
890.830330,-1036.288319,0.000000,7624.121203
890.830659,-888.247130,306.438199,7772.162391
890.830989,-666.185348,0.000000,7920.203579
890.831319,-666.185348,0.000000,8068.244768
890.831648,-592.164754,536.266849,8882.471304
890.831978,-518.144159,842.705048,9548.656652
890.832307,-222.061783,1072.533697,10510.924376
890.832637,0.000000,2068.457845,10732.986159
890.832967,148.041188,2145.067394,11029.068536
890.833296,-148.041188,1685.410096,11325.150913
890.833626,-888.247130,1455.581446,11621.233289
890.833955,-1850.514855,1532.190996,11769.274478
890.834285,-2664.741391,459.657299,11621.233289
890.834615,-2886.803174,76.609550,11473.192101
890.834944,-2812.782580,-306.438199,10510.924376
890.835274,-1776.494261,-919.314598,9030.512492
890.835604,-666.185348,-2451.505594,7994.224174
890.835933,0.000000,-1072.533697,7698.141797
890.836263,518.144159,0.000000,8290.306550
890.836592,518.144159,1149.143247,8882.471304
890.836922,148.041188,2451.505594,9474.636058
890.837252,666.185348,3600.648841,10214.842000
890.837581,222.061783,3524.039291,10732.986159
890.837911,-222.061783,3217.601092,10436.903782
890.838240,0.000000,2298.286494,9770.718434
890.838570,0.000000,1455.581446,9696.697840
890.838900,-518.144159,1225.752797,9696.697840
890.839229,-1776.494261,919.314598,9622.677246
890.839559,-2442.679609,689.485948,9474.636058
890.839888,-2812.782580,459.657299,9104.533087
890.840218,-2664.741391,995.924147,8808.450710
890.840548,-2146.597232,1302.362347,8290.306550
890.840877,-1110.308913,919.314598,7550.100608
890.841207,-1184.329507,766.095498,6809.894666
890.841536,-1036.288319,842.705048,6513.812290
890.841866,-740.205942,689.485948,6883.915261
890.842196,-666.185348,1225.752797,7254.018232
890.842525,-1036.288319,1302.362347,7772.162391
890.842855,-740.205942,1685.410096,9178.553681
890.843184,-666.185348,1685.410096,10066.800811
890.843514,-666.185348,2145.067394,10658.965565
890.843844,-518.144159,2145.067394,11473.192101
890.844173,-1036.288319,1915.238745,11473.192101
890.844503,-1554.432478,2145.067394,12139.377449
890.844833,-2072.576638,1532.190996,12435.459826
890.845162,-2590.720797,536.266849,11843.295072
890.845492,-3108.864956,-536.266849,11769.274478
890.845821,-3404.947333,-459.657299,10584.944971
890.846151,-2072.576638,-1072.533697,9770.718434
890.846481,-962.267725,-1608.800546,8660.409521
890.846810,296.082377,-1608.800546,7846.182985
890.847140,1110.308913,-842.705048,8216.285956
890.847469,814.226536,383.047749,8438.347739
890.847799,370.102971,1838.629195,9104.533087
890.848129,74.020594,2681.334243,10214.842000
890.848458,444.123565,2987.772442,11251.130318
890.848788,518.144159,2604.724693,11473.192101
890.849117,370.102971,2451.505594,10658.965565
890.849447,592.164754,1378.971896,10066.800811
890.849777,888.247130,766.095498,9326.594869
890.850106,-148.041188,766.095498,9252.574275
890.850436,-1258.350101,995.924147,8956.491898
890.850765,-2220.617826,919.314598,8512.368333
890.851095,-2442.679609,536.266849,7846.182985
890.851425,-3330.926739,842.705048,7920.203579
890.851754,-2738.761985,0.000000,7994.224174
890.852084,-2442.679609,-842.705048,7994.224174
890.852413,-2146.597232,-383.047749,8290.306550
890.852743,-1776.494261,76.609550,8586.388927
890.853073,-1628.453072,-306.438199,8068.244768
890.853402,-740.205942,306.438199,8068.244768
890.853732,148.041188,842.705048,8956.491898
890.854062,1184.329507,1225.752797,9548.656652
890.854391,1628.453072,2298.286494,10140.821405
890.854721,1406.391290,3294.210641,10955.047942
890.855050,888.247130,3294.210641,11103.089130
890.855380,-148.041188,2681.334243,11399.171507
890.855710,-814.226536,2221.676944,12065.356855
890.856039,-2368.659014,1149.143247,11769.274478
890.856369,-3330.926739,0.000000,11251.130318
890.856698,-3627.009116,-306.438199,11251.130318
890.857028,-4145.153275,-1225.752797,10658.965565
890.857358,-3701.029710,-1532.190996,9548.656652
890.857687,-2442.679609,-1532.190996,8512.368333
890.858017,-1776.494261,-842.705048,8290.306550
890.858346,-962.267725,229.828649,8438.347739
890.858676,-1110.308913,1455.581446,8438.347739
890.859006,-518.144159,2298.286494,8882.471304
890.859335,0.000000,2834.553343,9622.677246
890.859665,0.000000,3294.210641,10362.883188
890.859994,0.000000,2681.334243,9696.697840
890.860324,-222.061783,2068.457845,9474.636058
890.860654,-222.061783,1302.362347,9474.636058
890.860983,0.000000,1072.533697,9844.739029
890.861313,-740.205942,995.924147,9992.780217
890.861642,-1480.411884,536.266849,9400.615463
890.861972,-1628.453072,76.609550,8734.430116
890.862302,-1702.473667,766.095498,8438.347739
890.862631,-1258.350101,919.314598,8290.306550
890.862961,-1036.288319,536.266849,8068.244768
890.863291,-1036.288319,229.828649,7698.141797
890.863620,-1480.411884,766.095498,7179.997637
890.863950,-1184.329507,-153.219100,7624.121203
890.864279,-1406.391290,-536.266849,7698.141797
890.864609,-1332.370696,536.266849,8512.368333
890.864939,-1036.288319,689.485948,9770.718434
890.865268,-740.205942,1225.752797,10288.862594
890.865598,-814.226536,1838.629195,10881.027347
890.865927,-518.144159,1838.629195,11177.109724
890.866257,-518.144159,1608.800546,11547.212695
890.866587,-888.247130,1838.629195,11917.315666
890.866916,-1036.288319,1762.019645,11547.212695
890.867246,-2072.576638,383.047749,11325.150913
890.867575,-2368.659014,-689.485948,11029.068536
890.867905,-2442.679609,-1149.143247,10658.965565
890.868235,-1776.494261,-1455.581446,10066.800811
890.868564,-814.226536,-1532.190996,9252.574275
890.868894,-370.102971,-766.095498,8660.409521
890.869223,0.000000,0.000000,8660.409521
890.869553,444.123565,459.657299,9104.533087
890.869883,888.247130,1608.800546,9474.636058
890.870212,1036.288319,2528.115143,10214.842000
890.870542,962.267725,3370.820191,11029.068536
890.870871,296.082377,3064.381992,10658.965565
890.871201,0.000000,2911.162892,10140.821405
890.871531,0.000000,1685.410096,9844.739029
890.871860,-444.123565,1072.533697,9400.615463
890.872190,-1480.411884,766.095498,9548.656652
890.872520,-2146.597232,1072.533697,9104.533087
890.872849,-2812.782580,306.438199,8808.450710
890.873179,-2812.782580,229.828649,8142.265362
890.873508,-2590.720797,842.705048,8068.244768
890.873838,-1702.473667,1302.362347,7550.100608
890.874168,-1036.288319,842.705048,7476.080014
890.874497,-1332.370696,1455.581446,7476.080014
890.874827,-1332.370696,1762.019645,7698.141797
890.875156,-1258.350101,1685.410096,7846.182985
890.875486,-1110.308913,1378.971896,8142.265362
890.875816,-888.247130,1378.971896,8142.265362
890.876145,-222.061783,1532.190996,9918.759623
890.876475,-518.144159,1762.019645,10140.821405
890.876804,-592.164754,2374.896044,10362.883188
890.877134,-592.164754,2374.896044,10807.006753
890.877464,-666.185348,2221.676944,10807.006753
890.877793,-1110.308913,1762.019645,11547.212695
890.878123,-2294.638420,1225.752797,11473.192101
890.878452,-2960.823768,612.876398,11473.192101
890.878782,-3256.906145,153.219100,11251.130318
890.879111,-2960.823768,-306.438199,10881.027347
890.879441,-1850.514855,-995.924147,9474.636058
890.879771,-1258.350101,-1532.190996,8438.347739
890.880100,-888.247130,-1302.362347,7994.224174
890.880430,-222.061783,-229.828649,8808.450710
890.880759,0.000000,919.314598,9104.533087
890.881089,0.000000,2451.505594,9252.574275
890.881418,0.000000,2834.553343,9918.759623
890.881748,370.102971,2604.724693,10510.924376
890.882078,592.164754,2451.505594,10362.883188
890.882407,518.144159,2221.676944,10140.821405
890.882737,444.123565,1378.971896,9696.697840
890.883066,0.000000,383.047749,9548.656652
890.883396,-962.267725,612.876398,9622.677246
890.883725,-1332.370696,383.047749,9178.553681
890.884055,-1554.432478,153.219100,8512.368333
890.884385,-1702.473667,689.485948,8068.244768
890.884714,-1406.391290,153.219100,7402.059420
890.885044,-740.205942,153.219100,7920.203579
890.885373,-1036.288319,306.438199,7624.121203
890.885703,-1332.370696,612.876398,7920.203579
890.886032,-1702.473667,919.314598,8068.244768
890.886362,-1554.432478,0.000000,8068.244768
890.886692,-1110.308913,766.095498,8734.430116
890.887021,-814.226536,689.485948,9400.615463
890.887351,-592.164754,842.705048,9844.739029
890.887680,-370.102971,1302.362347,10436.903782
890.888010,-370.102971,1838.629195,10881.027347
890.888339,-370.102971,1915.238745,11177.109724
890.888669,-1036.288319,1915.238745,11843.295072
890.888999,-1702.473667,1838.629195,11991.336260
890.889328,-2590.720797,919.314598,11473.192101
890.889658,-2960.823768,76.609550,11547.212695
890.889987,-2738.761985,0.000000,10732.986159
890.890317,-2072.576638,-459.657299,9918.759623
890.890646,-1258.350101,-1302.362347,9030.512492
890.890976,-666.185348,-1149.143247,8290.306550
890.891305,-370.102971,-383.047749,8438.347739
890.891635,444.123565,536.266849,8660.409521
890.891965,0.000000,1378.971896,9104.533087
890.892294,74.020594,2604.724693,10214.842000
890.892624,-296.082377,3140.991542,10288.862594
890.892953,-370.102971,2911.162892,10140.821405
890.893283,-518.144159,2681.334243,9326.594869
890.893612,-444.123565,1608.800546,9252.574275
890.893942,-518.144159,842.705048,9326.594869
890.894272,-962.267725,919.314598,9474.636058
890.894601,-1850.514855,612.876398,9178.553681
890.894931,-2072.576638,383.047749,8734.430116
890.895260,-2294.638420,766.095498,8586.388927
890.895590,-2146.597232,1072.533697,8512.368333
890.895919,-1924.535449,995.924147,8216.285956
890.896249,-1480.411884,383.047749,7698.141797
890.896579,-1554.432478,76.609550,7476.080014
890.896908,-1850.514855,612.876398,7328.038826
890.897238,-2294.638420,153.219100,7550.100608
890.897567,-2146.597232,536.266849,8142.265362
890.897897,-1184.329507,229.828649,9326.594869
890.898226,-370.102971,1072.533697,10066.800811
890.898556,222.061783,1455.581446,10140.821405
890.898886,296.082377,1685.410096,10436.903782
890.899215,444.123565,1762.019645,10658.965565
890.899545,222.061783,2145.067394,11843.295072
890.899874,-814.226536,2298.286494,12287.418637
890.900204,-1924.535449,995.924147,12065.356855
890.900533,-2664.741391,76.609550,11769.274478
890.900863,-2886.803174,-1072.533697,11325.150913
890.901192,-2516.700203,-1685.410096,10584.944971
890.901522,-1924.535449,-1915.238745,9622.677246
890.901852,-962.267725,-1991.848295,8586.388927
890.902181,-444.123565,-995.924147,8512.368333
890.902511,148.041188,229.828649,8512.368333
890.902840,444.123565,1149.143247,9030.512492
890.903170,444.123565,2221.676944,9548.656652
890.903499,518.144159,2834.553343,10362.883188
890.903829,0.000000,3447.429741,10732.986159
890.904159,0.000000,2757.943793,10510.924376
890.904488,-592.164754,1685.410096,10066.800811
890.904818,-592.164754,842.705048,9696.697840
890.905147,-814.226536,229.828649,9844.739029
890.905477,-1480.411884,612.876398,9918.759623
890.905806,-1776.494261,1225.752797,8808.450710
890.906136,-1480.411884,1072.533697,8586.388927
890.906466,-1036.288319,995.924147,8142.265362
890.906795,-666.185348,1838.629195,7698.141797
890.907125,-296.082377,1762.019645,7031.956449
890.907454,-222.061783,1225.752797,6291.750507
890.907784,-666.185348,1302.362347,6957.935855
890.908113,-1184.329507,1149.143247,7254.018232
890.908443,-1554.432478,919.314598,7846.182985
890.908773,-1850.514855,766.095498,8882.471304
890.909102,-1554.432478,1072.533697,9844.739029
890.909432,-1702.473667,1608.800546,11251.130318
890.909761,-1702.473667,2298.286494,10955.047942
890.910091,-1184.329507,2451.505594,11177.109724
890.910420,-888.247130,1915.238745,11251.130318
890.910750,-1332.370696,1225.752797,11547.212695
890.911079,-1850.514855,1455.581446,11325.150913
890.911409,-2812.782580,1149.143247,11621.233289
890.911739,-3182.885551,153.219100,11325.150913
890.912068,-2664.741391,-306.438199,10807.006753
890.912398,-1628.453072,-689.485948,9548.656652
890.912727,-592.164754,-995.924147,8364.327145
890.913057,222.061783,-1225.752797,7772.162391
890.913386,370.102971,306.438199,8438.347739
890.913716,74.020594,1378.971896,8808.450710
890.914046,-444.123565,2757.943793,9474.636058
890.914375,-666.185348,3524.039291,9992.780217
890.914705,-814.226536,2834.553343,10362.883188
890.915034,-592.164754,2298.286494,10510.924376
890.915364,-962.267725,1608.800546,10140.821405
890.915693,-1184.329507,766.095498,9844.739029
890.916023,-1036.288319,-536.266849,9622.677246
890.916353,-962.267725,-306.438199,10362.883188
890.916682,-1702.473667,0.000000,9474.636058
890.917012,-1554.432478,229.828649,8660.409521
890.917341,-1036.288319,76.609550,8068.244768
890.917671,0.000000,536.266849,8068.244768
890.918000,1332.370696,1455.581446,7994.224174
890.918330,740.205942,689.485948,7698.141797
890.918660,296.082377,1378.971896,7254.018232
890.918989,-444.123565,919.314598,7105.977043
890.919319,-592.164754,536.266849,7994.224174
890.919648,-740.205942,0.000000,8586.388927
890.919978,-888.247130,229.828649,9844.739029
890.920307,-1480.411884,919.314598,10955.047942
890.920637,-1924.535449,1302.362347,11251.130318
890.920966,-1850.514855,1762.019645,11177.109724
890.921296,-1554.432478,2604.724693,11325.150913
890.921626,-1480.411884,1532.190996,11029.068536
890.921955,-1850.514855,1608.800546,11843.295072
890.922285,-2516.700203,536.266849,11695.253884
890.922614,-3478.967927,383.047749,10807.006753
890.922944,-3701.029710,-1225.752797,10214.842000
890.923273,-2368.659014,-919.314598,9622.677246
890.923603,-1480.411884,-1302.362347,9104.533087
890.923933,-370.102971,-1455.581446,8068.244768
890.924262,370.102971,-919.314598,8216.285956
890.924592,1036.288319,459.657299,8882.471304
890.924921,962.267725,1838.629195,9252.574275
890.925251,1332.370696,2604.724693,10362.883188
890.925580,1258.350101,3524.039291,10881.027347
890.925910,740.205942,3677.258390,10881.027347
890.926240,518.144159,2681.334243,10140.821405
890.926569,370.102971,1915.238745,9474.636058
890.926899,0.000000,536.266849,9400.615463
890.927228,-888.247130,229.828649,9400.615463
890.927558,-2072.576638,612.876398,9252.574275
890.927887,-2664.741391,459.657299,8586.388927
890.928217,-2442.679609,306.438199,8142.265362
890.928547,-2886.803174,76.609550,8068.244768
890.928876,-2368.659014,919.314598,7772.162391
890.929206,-1776.494261,306.438199,7846.182985
890.929535,-1480.411884,306.438199,7772.162391
890.929865,-1776.494261,536.266849,7698.141797
890.930194,-1924.535449,612.876398,7772.162391
890.930524,-1406.391290,-153.219100,8142.265362
890.930854,-888.247130,383.047749,8808.450710
890.931183,-296.082377,995.924147,9770.718434
890.931513,0.000000,1149.143247,10584.944971
890.931842,-296.082377,2757.943793,10658.965565
890.932172,444.123565,2757.943793,10732.986159
890.932501,0.000000,1838.629195,11029.068536
890.932831,-444.123565,2068.457845,11621.233289
890.933160,-1110.308913,1455.581446,11621.233289
890.933490,-1924.535449,229.828649,11103.089130
890.933820,-2590.720797,-1149.143247,10658.965565
890.934149,-2664.741391,-1225.752797,10584.944971
890.934479,-2442.679609,-1455.581446,10066.800811
890.934808,-2294.638420,-1838.629195,9326.594869
890.935138,-1628.453072,-1762.019645,8956.491898
890.935467,-1110.308913,-229.828649,9178.553681
890.935797,-666.185348,536.266849,9622.677246
890.936127,-518.144159,1608.800546,9918.759623
890.936456,-444.123565,2451.505594,10658.965565
890.936786,-592.164754,3064.381992,11029.068536
890.937115,-296.082377,3217.601092,10584.944971
890.937445,0.000000,2528.115143,9992.780217
890.937774,-370.102971,1762.019645,9252.574275
890.938104,-444.123565,766.095498,8808.450710
890.938434,-666.185348,459.657299,9252.574275
890.938763,-1406.391290,842.705048,8882.471304
890.939093,-1850.514855,1302.362347,7994.224174
890.939422,-1702.473667,689.485948,7994.224174
890.939752,-1554.432478,1225.752797,7920.203579
890.940081,-962.267725,1225.752797,7994.224174
890.940411,-740.205942,842.705048,7476.080014
890.940741,-518.144159,995.924147,7920.203579
890.941070,-1406.391290,1378.971896,7772.162391
890.941400,-1702.473667,919.314598,8068.244768
890.941729,-1258.350101,536.266849,8512.368333
890.942059,-1036.288319,1378.971896,8882.471304
