#time,accel_x,accel_y,accel_z
974.911231,-962.267725,1455.581446,9622.677246
974.911561,-888.247130,536.266849,9400.615463
974.911890,-962.267725,689.485948,9622.677246
974.912219,-1110.308913,919.314598,9474.636058
974.912549,-1036.288319,842.705048,9696.697840
974.912878,-1036.288319,612.876398,9622.677246
974.913208,-1110.308913,689.485948,9326.594869
974.913537,-1258.350101,995.924147,9474.636058
974.913867,-1110.308913,995.924147,9474.636058
974.914196,-1110.308913,995.924147,9622.677246
974.914525,-1036.288319,612.876398,9548.656652
974.914855,-888.247130,766.095498,9474.636058
974.915184,-1110.308913,1149.143247,9178.553681
974.915514,-1036.288319,1072.533697,9474.636058
974.915843,-1110.308913,919.314598,9326.594869
974.916173,-888.247130,995.924147,9622.677246
974.916502,-962.267725,919.314598,9326.594869
974.916831,-888.247130,1225.752797,9326.594869
974.917161,-962.267725,766.095498,9326.594869
974.917490,-1036.288319,919.314598,9622.677246
974.917820,-1036.288319,919.314598,9400.615463
974.918149,-1036.288319,919.314598,9400.615463
974.918479,-888.247130,1685.410096,9770.718434
974.918808,-1258.350101,689.485948,9400.615463
974.919137,-962.267725,995.924147,9474.636058
974.919467,-888.247130,842.705048,9622.677246
974.919796,-888.247130,1149.143247,9622.677246
974.920126,-666.185348,995.924147,9474.636058
974.920455,-1036.288319,1225.752797,9474.636058
974.920785,-888.247130,995.924147,9696.697840
974.921114,-888.247130,842.705048,9696.697840
974.921443,-1110.308913,842.705048,9400.615463
974.921773,-1258.350101,842.705048,9474.636058
974.922102,-1110.308913,766.095498,9400.615463
974.922432,-1036.288319,995.924147,9696.697840
974.922761,-1036.288319,995.924147,9548.656652
974.923091,-740.205942,1149.143247,9770.718434
974.923420,-1110.308913,766.095498,9696.697840
974.923749,-1406.391290,919.314598,9622.677246
974.924079,-1184.329507,612.876398,9474.636058
974.924408,-1110.308913,842.705048,9548.656652
974.924738,-1110.308913,919.314598,9548.656652
974.925067,-814.226536,995.924147,9770.718434
974.925397,-962.267725,919.314598,9474.636058
974.925726,-1258.350101,1072.533697,9178.553681
974.926055,-1036.288319,919.314598,9474.636058
974.926385,-1110.308913,766.095498,9474.636058
974.926714,-1110.308913,1149.143247,9622.677246
974.927044,-814.226536,536.266849,9326.594869
974.927373,-1110.308913,1072.533697,9474.636058
974.927703,-962.267725,842.705048,9474.636058
974.928032,-962.267725,995.924147,9548.656652
974.928361,-1036.288319,919.314598,9400.615463
974.928691,-1184.329507,689.485948,9548.656652
974.929020,-666.185348,1072.533697,9474.636058
974.929350,-1036.288319,1072.533697,9400.615463
974.929679,-1036.288319,536.266849,9770.718434
974.930009,-1036.288319,919.314598,9474.636058
974.930338,-1110.308913,689.485948,9474.636058
974.930667,-888.247130,1225.752797,9474.636058
974.930997,-740.205942,995.924147,9326.594869
974.931326,-1036.288319,842.705048,9474.636058
974.931656,-1036.288319,842.705048,9400.615463
974.931985,-888.247130,842.705048,9622.677246
974.932315,-1036.288319,536.266849,9548.656652
974.932644,-814.226536,612.876398,9400.615463
974.932973,-888.247130,919.314598,9474.636058
974.933303,-592.164754,842.705048,9178.553681
974.933632,148.041188,766.095498,9178.553681
974.933962,888.247130,689.485948,9548.656652
974.934291,1332.370696,842.705048,9252.574275
974.934621,888.247130,689.485948,9474.636058
974.934950,296.082377,919.314598,9844.739029
974.935279,-370.102971,1302.362347,10066.800811
974.935609,-740.205942,766.095498,10436.903782
974.935938,-666.185348,612.876398,10066.800811
974.936268,-296.082377,0.000000,9770.718434
974.936597,74.020594,0.000000,9474.636058
974.936927,962.267725,153.219100,9474.636058
974.937256,1850.514855,153.219100,9030.512492
974.937585,2664.741391,1302.362347,8734.430116
974.937915,3256.906145,766.095498,8660.409521
974.938244,3627.009116,1762.019645,9104.533087
974.938574,3701.029710,1762.019645,9474.636058
974.938903,3478.967927,1225.752797,9844.739029
974.939233,2368.659014,1225.752797,9918.759623
974.939562,1924.535449,766.095498,10214.842000
974.939891,1480.411884,383.047749,10732.986159
974.940221,1628.453072,76.609550,10510.924376
974.940550,1924.535449,0.000000,10066.800811
974.940880,2442.679609,-383.047749,9474.636058
974.941209,3256.906145,0.000000,8956.491898
974.941539,3849.070898,536.266849,9178.553681
974.941868,3849.070898,1838.629195,9326.594869
974.942197,3849.070898,2374.896044,9844.739029
974.942527,2590.720797,2681.334243,10066.800811
974.942856,888.247130,2681.334243,10214.842000
974.943186,-740.205942,2298.286494,9918.759623
974.943515,-1702.473667,1532.190996,9548.656652
974.943845,-1332.370696,0.000000,8660.409521
974.944174,74.020594,-1072.533697,7550.100608
974.944503,1776.494261,-1608.800546,7105.977043
974.944833,3256.906145,-842.705048,6291.750507
974.945162,4367.215058,-229.828649,6957.935855
974.945492,4219.173869,1838.629195,8512.368333
974.945821,3034.844362,4366.744339,10288.862594
974.946151,1850.514855,4903.011187,11621.233289
974.946480,740.205942,4366.744339,12287.418637
974.946809,0.000000,2604.724693,12139.377449
974.947139,-1184.329507,536.266849,12213.398043
974.947468,-2072.576638,-1685.410096,11547.212695
974.947798,-1850.514855,-2451.505594,10288.862594
974.948127,-1110.308913,-2604.724693,9030.512492
974.948457,962.267725,-2604.724693,8438.347739
974.948786,2368.659014,-1838.629195,7994.224174
974.949115,3923.091493,-229.828649,7179.997637
974.949445,4811.338623,1455.581446,7402.059420
974.949774,4885.359217,2911.162892,8142.265362
974.950104,4737.318029,4136.915689,9030.512492
974.950433,4219.173869,4136.915689,10362.883188
974.950763,3108.864956,3370.820191,10732.986159
974.951092,2072.576638,2221.676944,11325.150913
974.951421,962.267725,919.314598,11029.068536
974.951751,148.041188,0.000000,10510.924376
974.952080,-666.185348,-1072.533697,10584.944971
974.952410,-518.144159,-1149.143247,10658.965565
974.952739,-518.144159,-842.705048,10140.821405
974.953069,0.000000,-383.047749,9400.615463
974.953398,444.123565,153.219100,8808.450710
974.953727,1628.453072,919.314598,8290.306550
974.954057,2738.761985,689.485948,8734.430116
974.954386,3627.009116,536.266849,8660.409521
974.954716,3849.070898,612.876398,8438.347739
974.955045,3701.029710,919.314598,8660.409521
974.955375,3256.906145,1072.533697,9548.656652
974.955704,2516.700203,995.924147,10362.883188
974.956033,1628.453072,1991.848295,10584.944971
974.956363,1702.473667,2298.286494,10732.986159
974.956692,1924.535449,1915.238745,10510.924376
974.957022,2442.679609,1838.629195,10140.821405
974.957351,3108.864956,1532.190996,9030.512492
974.957681,3627.009116,919.314598,8586.388927
974.958010,3552.988522,1455.581446,8512.368333
974.958339,2442.679609,1532.190996,8586.388927
974.958669,1702.473667,1378.971896,9030.512492
974.958998,888.247130,842.705048,9326.594869
974.959328,592.164754,306.438199,9696.697840
974.959657,-296.082377,0.000000,10066.800811
974.959987,-1110.308913,-383.047749,10214.842000
974.960316,-1480.411884,153.219100,10436.903782
974.960645,-1554.432478,459.657299,10214.842000
974.960975,-444.123565,766.095498,10140.821405
974.961304,1110.308913,1072.533697,9030.512492
974.961634,3034.844362,995.924147,8290.306550
974.961963,5329.482782,1685.410096,7624.121203
974.962293,7328.038826,2374.896044,7920.203579
974.962622,8068.244768,3217.601092,8808.450710
974.962951,7105.977043,3830.477490,9918.759623
974.963281,4811.338623,3983.696590,11103.089130
974.963610,2442.679609,3140.991542,12805.562797
974.963940,0.000000,1991.848295,13989.892304
974.964269,-3478.967927,612.876398,13915.871710
974.964599,-6217.729913,-612.876398,12583.501014
974.964928,-7476.080014,-1991.848295,10807.006753
974.965257,-6291.750507,-2757.943793,7772.162391
974.965587,-2886.803174,-3140.991542,4589.276840
974.965916,2368.659014,-4366.744339,2516.700203
974.966246,7031.956449,-2528.115143,2812.782580
974.966575,9104.533087,1608.800546,4737.318029
974.966904,8660.409521,5439.278036,6291.750507
974.967234,6957.935855,7584.345430,7994.224174
974.967563,4811.338623,8120.612279,11769.274478
974.967893,148.041188,9039.926876,15692.365970
974.968222,-5255.462188,6588.421283,16580.613101
974.968552,-10066.800811,1532.190996,15692.365970
974.968881,-11843.295072,-2374.896044,14211.954086
974.969210,-10881.027347,-4826.401637,11769.274478
974.969540,-6291.750507,-7660.954980,8586.388927
974.969869,-370.102971,-9652.803275,5477.523971
974.970199,4885.359217,-6741.640382,2072.576638
974.970528,9474.636058,-2604.724693,1628.453072
974.970858,12213.398043,306.438199,4367.215058
974.971187,11917.315666,6052.154434,8882.471304
974.971516,7476.080014,11108.384721,13471.748144
974.971846,814.226536,12104.308868,16284.530724
974.972175,-4367.215058,9039.926876,16654.633695
974.972505,-6957.935855,3524.039291,16136.489536
974.972834,-7105.977043,-1455.581446,14137.933492
974.973164,-6365.771101,-7201.297681,9474.636058
974.973493,-3997.112087,-10035.851024,5625.565159
974.973822,-666.185348,-9193.145976,3923.091493
974.974152,1406.391290,-5669.106685,3775.050304
974.974481,3478.967927,0.000000,4219.173869
974.974811,4071.132681,3217.601092,6291.750507
974.975140,3256.906145,7201.297681,10436.903782
974.975470,-1258.350101,10265.679673,13693.809927
974.975799,-5773.606348,9499.584175,14878.139434
974.976128,-8364.327145,5515.887586,14952.160028
974.976458,-8956.491898,1378.971896,13397.727550
974.976787,-7402.059420,-4290.134789,10807.006753
974.977117,-4293.194464,-8427.050478,7105.977043
974.977446,-592.164754,-9652.803275,4589.276840
974.977776,2664.741391,-7737.564530,4145.153275
974.978105,5033.400406,-3447.429741,5699.585753
974.978434,5403.503377,2221.676944,8586.388927
974.978764,3478.967927,7277.907231,9770.718434
974.979093,1406.391290,9729.412825,11473.192101
974.979423,518.144159,9806.022374,13767.830521
974.979752,74.020594,7507.735880,14656.077652
974.980082,-1110.308913,2911.162892,13323.706956
974.980411,-2812.782580,-612.876398,10288.862594
974.980740,-3330.926739,-3830.477490,8142.265362
974.981070,-2886.803174,-6052.154434,8142.265362
974.981399,-3256.906145,-5132.839837,8438.347739
974.981725,-4441.235652,-1991.848295,7550.100608
974.982054,-4367.215058,919.314598,6513.812290
974.982384,-1776.494261,2681.334243,8068.244768
974.982714,444.123565,4136.915689,8808.450710
974.983043,814.226536,4673.182538,9104.533087
974.983373,74.020594,3600.648841,9326.594869
974.983702,-592.164754,4290.134789,10732.986159
974.984032,-1184.329507,3907.087040,12065.356855
974.984361,-1924.535449,1762.019645,11843.295072
974.984691,-2960.823768,-995.924147,10881.027347
974.985020,-3478.967927,-2451.505594,9696.697840
974.985350,-3330.926739,-1991.848295,9252.574275
974.985679,-2294.638420,153.219100,8808.450710
974.986009,0.000000,1378.971896,8364.327145
974.986339,1776.494261,1762.019645,8068.244768
974.986668,2886.803174,3294.210641,7994.224174
974.986998,4219.173869,4826.401637,6735.874072
974.987327,5847.626942,4596.572988,7105.977043
974.987657,5181.441594,3753.867940,8808.450710
974.987986,1332.370696,3677.258390,11325.150913
974.988316,-3404.947333,2757.943793,12139.377449
974.988645,-7179.997637,1838.629195,11621.233289
974.988975,-8142.265362,229.828649,11473.192101
974.989304,-6365.771101,-1072.533697,11399.171507
974.989634,-4293.194464,-2681.334243,9992.780217
974.989964,-2590.720797,-3600.648841,7254.018232
974.990293,-444.123565,-1991.848295,5995.668130
974.990623,2590.720797,1072.533697,6587.832884
974.990952,3701.029710,3370.820191,8512.368333
974.991282,2516.700203,3830.477490,9770.718434
974.991611,296.082377,3524.039291,10140.821405
974.991941,-1332.370696,4136.915689,10658.965565
974.992270,-2146.597232,2911.162892,12287.418637
974.992600,-1924.535449,689.485948,12361.439231
974.992929,-2220.617826,-1302.362347,10658.965565
974.993259,-1184.329507,-2987.772442,8734.430116
974.993589,814.226536,-2911.162892,7105.977043
974.993918,2960.823768,-1838.629195,7476.080014
974.994248,3923.091493,-995.924147,8734.430116
974.994577,2590.720797,1302.362347,10658.965565
974.994907,-296.082377,3677.258390,10955.047942
974.995236,-2812.782580,5132.839837,10955.047942
974.995566,-3627.009116,3830.477490,11473.192101
974.995895,-3997.112087,1302.362347,11473.192101
974.996225,-4811.338623,-1532.190996,10066.800811
974.996554,-4071.132681,-4826.401637,8586.388927
974.996884,-2368.659014,-4596.572988,7624.121203
974.997214,-1036.288319,-3600.648841,7994.224174
974.997543,-814.226536,-3217.601092,9030.512492
974.997873,-1850.514855,-766.095498,10214.842000
974.998202,-3034.844362,2911.162892,10214.842000
974.998532,-2368.659014,4596.572988,10140.821405
974.998861,-222.061783,3830.477490,10436.903782
974.999191,888.247130,2911.162892,9992.780217
974.999520,962.267725,1302.362347,8808.450710
974.999850,1110.308913,-766.095498,7994.224174
975.000179,1554.432478,0.000000,7846.182985
975.000509,1110.308913,0.000000,9326.594869
975.000839,-666.185348,0.000000,11621.233289
975.001168,-2738.761985,1072.533697,12139.377449
975.001498,-4663.297435,2145.067394,11769.274478
975.001827,-4663.297435,2681.334243,10955.047942
975.002157,-3775.050304,2604.724693,10807.006753
975.002486,-2294.638420,1608.800546,9696.697840
975.002816,-1332.370696,612.876398,7994.224174
975.003145,-666.185348,76.609550,6513.812290
975.003475,666.185348,1072.533697,5773.606348
975.003804,1924.535449,842.705048,6957.935855
975.004134,1480.411884,995.924147,8734.430116
975.004464,-296.082377,2068.457845,9992.780217
975.004793,-2590.720797,3064.381992,10584.944971
975.005123,-3478.967927,5286.058936,11029.068536
975.005452,-2812.782580,4596.572988,11547.212695
975.005782,-1776.494261,2451.505594,10807.006753
975.006111,-592.164754,1225.752797,8734.430116
975.006441,444.123565,612.876398,6661.853478
975.006770,1702.473667,1225.752797,6291.750507
975.007100,2072.576638,1302.362347,7772.162391
975.007429,1184.329507,1838.629195,9696.697840
975.007759,-370.102971,2145.067394,10436.903782
975.008089,-2590.720797,2451.505594,9992.780217
975.008418,-2590.720797,3600.648841,9622.677246
975.008748,-1924.535449,1991.848295,10436.903782
975.009077,-666.185348,153.219100,11103.089130
975.009407,-370.102971,-536.266849,9622.677246
975.009736,296.082377,-383.047749,7772.162391
975.010066,2294.638420,153.219100,8068.244768
975.010395,2812.782580,766.095498,9104.533087
975.010725,2960.823768,766.095498,10214.842000
975.011054,1702.473667,995.924147,10510.924376
975.011384,-888.247130,2681.334243,9622.677246
975.011714,-2294.638420,3753.867940,10510.924376
975.012043,-2072.576638,2451.505594,11769.274478
975.012373,-2072.576638,229.828649,11325.150913
975.012702,-2072.576638,-1685.410096,8660.409521
975.013032,-1628.453072,-2757.943793,6957.935855
975.013361,518.144159,-1991.848295,7402.059420
975.013691,1184.329507,-1302.362347,8512.368333
975.014020,296.082377,-842.705048,9474.636058
975.014350,-1628.453072,536.266849,9844.739029
975.014679,-3775.050304,2298.286494,10510.924376
975.015009,-4145.153275,2681.334243,11103.089130
975.015339,-3627.009116,1838.629195,11991.336260
975.015668,-3627.009116,689.485948,11473.192101
975.015998,-3330.926739,-1915.238745,9844.739029
975.016327,-1258.350101,-3447.429741,7846.182985
975.016657,888.247130,-3064.381992,7846.182985
975.016986,1258.350101,-2145.067394,8882.471304
975.017316,0.000000,-1378.971896,9992.780217
975.017645,-2220.617826,306.438199,10584.944971
975.017975,-3330.926739,2374.896044,10881.027347
975.018304,-2812.782580,3140.991542,11251.130318
975.018634,-1998.556043,2451.505594,10881.027347
975.018964,-1628.453072,612.876398,9770.718434
975.019293,-1258.350101,-1072.533697,7550.100608
975.019623,-370.102971,-995.924147,6217.729913
975.019952,814.226536,-842.705048,7328.038826
975.020282,592.164754,0.000000,9474.636058
975.020611,-1110.308913,536.266849,11399.171507
975.020941,-4071.132681,2068.457845,11843.295072
975.021270,-5625.565159,3370.820191,11991.336260
975.021600,-5329.482782,3677.258390,11769.274478
975.021929,-4219.173869,2451.505594,11325.150913
975.022259,-2960.823768,0.000000,9400.615463
975.022589,-1776.494261,-1225.752797,7550.100608
975.022918,0.000000,-1149.143247,6069.688724
975.023248,1924.535449,0.000000,6513.812290
975.023577,2960.823768,1302.362347,7772.162391
975.023907,2072.576638,2604.724693,9400.615463
975.024236,296.082377,3983.696590,9696.697840
975.024566,-1110.308913,5362.668486,9696.697840
975.024895,-962.267725,5132.839837,10140.821405
975.025225,-888.247130,4366.744339,10584.944971
975.025554,-444.123565,2911.162892,9696.697840
975.025884,-222.061783,0.000000,7994.224174
975.026214,1184.329507,0.000000,7105.977043
975.026543,1850.514855,0.000000,7328.038826
975.026873,1776.494261,1149.143247,8882.471304
975.027202,518.144159,1838.629195,10510.924376
975.027532,-1332.370696,3983.696590,10881.027347
975.027861,-2886.803174,5439.278036,10140.821405
975.028191,-2812.782580,4290.134789,10436.903782
975.028520,-2368.659014,2604.724693,10807.006753
975.028850,-1776.494261,842.705048,9622.677246
975.029179,-1332.370696,-1378.971896,7920.203579
975.029509,-148.041188,-1608.800546,7179.997637
975.029839,962.267725,-1378.971896,7476.080014
975.030168,1406.391290,-1455.581446,8882.471304
975.030498,888.247130,-842.705048,9918.759623
975.030827,-1036.288319,1608.800546,9918.759623
975.031157,-1702.473667,3907.087040,10955.047942
975.031486,-1554.432478,3907.087040,11917.315666
975.031816,-962.267725,2604.724693,11991.336260
975.032145,-444.123565,919.314598,10658.965565
975.032475,296.082377,-1302.362347,8512.368333
975.032804,888.247130,-919.314598,7179.997637
975.033134,1184.329507,-766.095498,7846.182985
975.033464,222.061783,-1225.752797,8808.450710
975.033793,-1554.432478,-612.876398,9400.615463
975.034123,-3627.009116,76.609550,9918.759623
975.034452,-5329.482782,1685.410096,10955.047942
975.034782,-5699.585753,842.705048,12583.501014
975.035111,-6069.688724,383.047749,12287.418637
975.035441,-5625.565159,-919.314598,11103.089130
975.035770,-4071.132681,-2681.334243,8956.491898
975.036100,-1406.391290,-2298.286494,7772.162391
975.036429,666.185348,-2757.943793,7846.182985
975.036759,1184.329507,-1838.629195,8882.471304
975.037089,-148.041188,-766.095498,9474.636058
975.037418,-1702.473667,459.657299,9844.739029
975.037748,-2220.617826,3217.601092,10066.800811
975.038077,-2368.659014,3907.087040,10732.986159
975.038407,-1110.308913,2681.334243,10140.821405
975.038736,0.000000,689.485948,8882.471304
975.039066,1110.308913,-1608.800546,7402.059420
975.039395,1850.514855,-995.924147,7328.038826
975.039725,1332.370696,76.609550,9030.512492
975.040054,-222.061783,612.876398,11177.109724
975.040384,-2442.679609,1532.190996,12583.501014
975.040714,-5329.482782,2757.943793,11917.315666
975.041043,-6069.688724,3447.429741,11177.109724
975.041373,-4811.338623,2451.505594,10510.924376
975.041702,-2960.823768,306.438199,9474.636058
975.042032,-1554.432478,-842.705048,7846.182985
975.042361,-666.185348,-1915.238745,6439.791695
975.042691,1110.308913,0.000000,6365.771101
975.043020,2590.720797,1378.971896,8068.244768
975.043350,3182.885551,2528.115143,9474.636058
975.043679,1332.370696,3907.087040,9770.718434
975.044009,-740.205942,4979.620737,9474.636058
975.044339,-1554.432478,5439.278036,9918.759623
975.044668,-1480.411884,4596.572988,10881.027347
975.044998,-2220.617826,3294.210641,11029.068536
975.045327,-2516.700203,842.705048,9992.780217
975.045657,-1628.453072,-766.095498,8586.388927
975.045986,592.164754,-536.266849,7698.141797
975.046316,2664.741391,-306.438199,8068.244768
975.046645,2886.803174,459.657299,8438.347739
975.046975,1776.494261,1762.019645,8956.491898
975.047304,-444.123565,3907.087040,9992.780217
975.047634,-1998.556043,5209.449386,10807.006753
975.047964,-2368.659014,5209.449386,11399.171507
975.048293,-1554.432478,3907.087040,10658.965565
975.048623,-148.041188,0.000000,8734.430116
975.048952,888.247130,-2221.676944,7031.956449
975.049282,1924.535449,-2528.115143,6735.874072
975.049611,1480.411884,-1685.410096,8290.306550
975.049941,0.000000,-612.876398,10140.821405
975.050270,-2368.659014,2145.067394,11621.233289
975.050600,-4293.194464,3524.039291,11695.253884
975.050929,-3923.091493,3447.429741,11399.171507
975.051259,-2516.700203,2298.286494,10955.047942
975.051588,-1110.308913,306.438199,10066.800811
975.051918,-518.144159,-1685.410096,8142.265362
975.052248,-444.123565,-1225.752797,6365.771101
975.052577,148.041188,-536.266849,5921.647536
975.052907,1184.329507,-1072.533697,7846.182985
975.053236,592.164754,-995.924147,10140.821405
975.053566,-1924.535449,0.000000,10881.027347
975.053895,-4441.235652,1378.971896,12065.356855
975.054225,-5107.421000,2374.896044,13101.645173
975.054554,-5255.462188,1838.629195,13101.645173
975.054884,-4811.338623,-306.438199,11769.274478
975.055213,-3478.967927,-2604.724693,9178.553681
975.055543,-962.267725,-3294.210641,7328.038826
975.055873,1184.329507,-2987.772442,7031.956449
975.056202,2146.597232,-2451.505594,8142.265362
975.056532,740.205942,-1149.143247,9326.594869
975.056861,-2294.638420,766.095498,9622.677246
975.057191,-3923.091493,2604.724693,10140.821405
975.057520,-3256.906145,4366.744339,10732.986159
975.057850,-2294.638420,3140.991542,10658.965565
975.058179,-1406.391290,536.266849,9696.697840
975.058509,-1332.370696,-1378.971896,7994.224174
975.058838,-1036.288319,-1302.362347,6957.935855
975.059168,0.000000,-995.924147,8216.285956
975.059498,-592.164754,0.000000,10288.862594
975.059827,-2368.659014,1072.533697,11621.233289
975.060157,-3997.112087,1455.581446,11695.253884
975.060486,-4367.215058,2528.115143,10881.027347
975.060816,-3478.967927,3294.210641,10584.944971
975.061145,-2368.659014,2451.505594,10140.821405
975.061475,-1036.288319,612.876398,9178.553681
975.061804,-444.123565,-229.828649,7772.162391
975.062134,1184.329507,-153.219100,7105.977043
975.062463,2738.761985,1072.533697,7772.162391
975.062793,2812.782580,2298.286494,8808.450710
975.063123,1998.556043,2451.505594,9696.697840
975.063452,222.061783,2987.772442,9770.718434
975.063782,-888.247130,4443.353888,10214.842000
975.064111,-1406.391290,5209.449386,10510.924376
975.064441,-1554.432478,4290.134789,10510.924376
975.064770,-1036.288319,2298.286494,9696.697840
975.065100,0.000000,229.828649,8364.327145
975.065429,1110.308913,0.000000,7254.018232
975.065759,1628.453072,612.876398,7254.018232
975.066088,1110.308913,1455.581446,8660.409521
975.066418,0.000000,2068.457845,9622.677246
975.066748,-2294.638420,2911.162892,9622.677246
975.067077,-3701.029710,4060.306139,10510.924376
975.067407,-3182.885551,3677.258390,11029.068536
975.067736,-2590.720797,2757.943793,10584.944971
975.068066,-2146.597232,76.609550,9104.533087
975.068395,-962.267725,-1991.848295,7476.080014
975.068725,1480.411884,-1532.190996,7402.059420
975.069054,2368.659014,-229.828649,8512.368333
975.069384,1776.494261,766.095498,9622.677246
975.069713,444.123565,1838.629195,10214.842000
975.070043,-1480.411884,2987.772442,10732.986159
975.070373,-1628.453072,3600.648841,10881.027347
975.070702,-1184.329507,2911.162892,11325.150913
975.071032,-740.205942,1455.581446,10955.047942
975.071361,-1036.288319,-995.924147,9252.574275
975.071691,-1480.411884,-1838.629195,8290.306550
975.072020,-1258.350101,-1225.752797,7550.100608
975.072350,0.000000,0.000000,7772.162391
975.072679,296.082377,-1225.752797,9030.512492
975.073009,-740.205942,-1225.752797,10214.842000
975.073338,-3701.029710,306.438199,11473.192101
975.073668,-5403.503377,2528.115143,12213.398043
975.073998,-5773.606348,2528.115143,13175.665768
975.074327,-5773.606348,1532.190996,12361.439231
975.074657,-4663.297435,-536.266849,10066.800811
975.074986,-1628.453072,-4366.744339,7846.182985
975.075316,1184.329507,-4443.353888,6883.915261
975.075645,1850.514855,-2451.505594,7402.059420
975.075975,1776.494261,-919.314598,8660.409521
975.076304,296.082377,612.876398,9844.739029
975.076634,-1184.329507,1915.238745,10288.862594
975.076963,-2146.597232,3907.087040,10807.006753
975.077293,-1850.514855,3370.820191,10881.027347
975.077623,-962.267725,2451.505594,10140.821405
975.077952,0.000000,0.000000,8586.388927
975.078282,518.144159,-2145.067394,6883.915261
975.078611,592.164754,-1072.533697,7179.997637
975.078941,370.102971,-229.828649,8882.471304
975.079270,-962.267725,0.000000,10436.903782
975.079600,-3701.029710,842.705048,11029.068536
975.079929,-4885.359217,2834.553343,11399.171507
975.080259,-4959.379811,3370.820191,11473.192101
975.080588,-3701.029710,2604.724693,11103.089130
975.080918,-2220.617826,1685.410096,10140.821405
975.081248,-962.267725,-689.485948,8290.306550
975.081577,-370.102971,-766.095498,6513.812290
975.081907,370.102971,153.219100,6809.894666
975.082236,1184.329507,919.314598,8586.388927
975.082566,1036.288319,1149.143247,10140.821405
975.082895,-888.247130,2221.676944,10658.965565
975.083225,-2368.659014,3217.601092,10658.965565
975.083554,-1998.556043,3907.087040,11103.089130
975.083884,-962.267725,3830.477490,11621.233289
975.084214,-222.061783,2451.505594,10732.986159
975.084543,666.185348,842.705048,9252.574275
975.084873,2294.638420,689.485948,7179.997637
975.085203,4293.194464,1072.533697,7254.018232
975.085532,4293.194464,2221.676944,8290.306550
975.085862,2368.659014,3370.820191,9474.636058
975.086192,-592.164754,3677.258390,9696.697840
975.086521,-3108.864956,3830.477490,9548.656652
975.086851,-3552.988522,4366.744339,10732.986159
975.087181,-4219.173869,2757.943793,10584.944971
975.087510,-3923.091493,153.219100,10066.800811
975.087840,-3775.050304,-1838.629195,8216.285956
975.088170,-2738.761985,-1915.238745,7031.956449
975.088499,-888.247130,-1072.533697,7402.059420
975.088829,296.082377,0.000000,8290.306550
975.089159,296.082377,612.876398,9548.656652
975.089488,-1480.411884,2298.286494,9400.615463
975.089818,-1998.556043,3294.210641,9622.677246
975.090148,-1480.411884,3753.867940,10288.862594
975.090477,-1036.288319,3064.381992,10807.006753
975.090807,-592.164754,2221.676944,10584.944971
975.091137,0.000000,76.609550,9104.533087
975.091466,1036.288319,-1225.752797,7105.977043
975.091796,2664.741391,-1225.752797,7328.038826
975.092126,3182.885551,-766.095498,8956.491898
975.092455,1480.411884,459.657299,11029.068536
975.092785,-2072.576638,1608.800546,11843.295072
975.093115,-4589.276840,3370.820191,12065.356855
975.093444,-4959.379811,3447.429741,11843.295072
975.093774,-4071.132681,1302.362347,11843.295072
975.094104,-3256.906145,-1149.143247,10214.842000
975.094433,-2664.741391,-3753.867940,8364.327145
975.094763,-1184.329507,-4596.572988,7476.080014
975.095093,-148.041188,-3140.991542,8364.327145
975.095422,-592.164754,-1225.752797,9474.636058
975.095752,-888.247130,0.000000,10066.800811
975.096082,-1850.514855,0.000000,10066.800811
975.096411,-2368.659014,1991.848295,10288.862594
975.096741,-2146.597232,2757.943793,10584.944971
975.097071,-1480.411884,1302.362347,10584.944971
975.097400,-740.205942,153.219100,10066.800811
975.097730,-814.226536,-612.876398,8142.265362
975.098060,0.000000,-612.876398,6587.832884
975.098389,1924.535449,-459.657299,7031.956449
975.098719,2664.741391,-459.657299,8438.347739
975.099049,1406.391290,689.485948,10140.821405
975.099378,-1628.453072,1225.752797,10881.027347
975.099708,-4293.194464,3524.039291,11547.212695
975.100038,-4885.359217,3983.696590,11843.295072
975.100367,-4737.318029,2298.286494,11769.274478
975.100697,-3627.009116,0.000000,10288.862594
975.101027,-1776.494261,-2298.286494,7920.203579
975.101356,444.123565,-2911.162892,6735.874072
975.101686,1406.391290,-1378.971896,7772.162391
975.102016,1332.370696,229.828649,9178.553681
975.102345,148.041188,1302.362347,10214.842000
975.102675,-1628.453072,2757.943793,10214.842000
975.103005,-2368.659014,4979.620737,10807.006753
975.103334,-1924.535449,4979.620737,11325.150913
975.103664,-370.102971,3830.477490,10881.027347
975.103994,74.020594,1838.629195,9326.594869
975.104323,814.226536,0.000000,7402.059420
975.104653,1998.556043,76.609550,7105.977043
975.104983,2516.700203,842.705048,7994.224174
975.105312,1924.535449,1072.533697,9178.553681
975.105642,74.020594,2221.676944,9918.759623
975.105972,-2146.597232,3983.696590,9696.697840
975.106301,-2442.679609,4749.792088,10140.821405
975.106631,-2516.700203,3370.820191,10881.027347
975.106961,-2812.782580,3447.429741,10807.006753
975.107290,-2590.720797,1532.190996,8956.491898
975.107620,-1628.453072,-1302.362347,7031.956449
975.107950,0.000000,-536.266849,6661.853478
975.108279,1776.494261,-306.438199,7920.203579
975.108609,1332.370696,-153.219100,9252.574275
975.108939,-444.123565,689.485948,9992.780217
975.109268,-2368.659014,2604.724693,9622.677246
975.109598,-2738.761985,3907.087040,10362.883188
975.109928,-1554.432478,3524.039291,10732.986159
975.110257,-888.247130,2834.553343,10881.027347
975.110587,74.020594,459.657299,9548.656652
975.110917,370.102971,-1149.143247,7994.224174
975.111246,1184.329507,-306.438199,8586.388927
975.111576,1702.473667,459.657299,9992.780217
975.111906,370.102971,842.705048,10881.027347
975.112235,-1554.432478,1302.362347,11177.109724
975.112565,-3330.926739,2145.067394,10658.965565
975.112895,-3108.864956,995.924147,10732.986159
975.113224,-2442.679609,229.828649,11325.150913
975.113554,-2516.700203,0.000000,10807.006753
975.113884,-2442.679609,-1838.629195,9178.553681
975.114213,-1776.494261,-2757.943793,7920.203579
975.114543,296.082377,-1991.848295,7994.224174
975.114873,1184.329507,-1302.362347,8364.327145
975.115202,1406.391290,-995.924147,9178.553681
975.115532,-296.082377,229.828649,9770.718434
975.115862,-1998.556043,1762.019645,10436.903782
975.116191,-3182.885551,2834.553343,11251.130318
975.116521,-3627.009116,2528.115143,11621.233289
975.116851,-3182.885551,1378.971896,10362.883188
975.117180,-2368.659014,-1378.971896,8882.471304
975.117510,-962.267725,-2757.943793,7105.977043
975.117840,962.267725,-2451.505594,6735.874072
975.118169,1924.535449,-1685.410096,7550.100608
975.118499,1554.432478,229.828649,8956.491898
975.118829,74.020594,1149.143247,9918.759623
975.119158,-2442.679609,3370.820191,10807.006753
975.119488,-3923.091493,3753.867940,11103.089130
975.119818,-4515.256246,2911.162892,11399.171507
975.120147,-3923.091493,1685.410096,10214.842000
975.120477,-2664.741391,-1762.019645,9474.636058
975.120807,-1628.453072,-3447.429741,8290.306550
975.121136,0.000000,-2911.162892,8660.409521
975.121466,222.061783,-1378.971896,9474.636058
975.121796,518.144159,-612.876398,9918.759623
975.122125,0.000000,1072.533697,10214.842000
975.122455,-740.205942,3600.648841,10881.027347
975.122785,-518.144159,4290.134789,11843.295072
975.123114,0.000000,4443.353888,11843.295072
975.123444,74.020594,4136.915689,10732.986159
975.123774,444.123565,2374.896044,8364.327145
975.124103,1776.494261,76.609550,6809.894666
975.124433,2812.782580,-766.095498,6587.832884
975.124763,2812.782580,-306.438199,7772.162391
975.125092,1332.370696,689.485948,9474.636058
975.125422,-444.123565,2068.457845,9770.718434
975.125752,-3034.844362,4060.306139,9770.718434
975.126081,-4145.153275,4903.011187,10584.944971
975.126411,-3330.926739,3753.867940,11621.233289
975.126741,-2738.761985,2604.724693,10955.047942
975.127070,-2442.679609,1072.533697,8512.368333
975.127400,-1776.494261,-306.438199,6143.709319
975.127730,518.144159,-919.314598,6513.812290
975.128059,1850.514855,-995.924147,7846.182985
975.128389,1258.350101,536.266849,9030.512492
975.128719,-962.267725,1915.238745,9474.636058
975.129048,-2590.720797,4673.182538,9400.615463
975.129378,-2294.638420,5056.230287,10584.944971
975.129708,-296.082377,3524.039291,11177.109724
975.130037,888.247130,2374.896044,10066.800811
975.130367,740.205942,229.828649,8512.368333
975.130697,1554.432478,-383.047749,7550.100608
975.131026,1776.494261,306.438199,8216.285956
975.131356,1628.453072,459.657299,9844.739029
975.131686,74.020594,842.705048,11103.089130
975.132015,-2294.638420,1149.143247,11325.150913
975.132345,-3997.112087,2451.505594,11251.130318
975.132675,-3849.070898,2068.457845,11399.171507
975.133004,-3330.926739,689.485948,11399.171507
975.133334,-2960.823768,-306.438199,10658.965565
975.133664,-2368.659014,-1915.238745,9178.553681
975.133993,-740.205942,-1762.019645,7994.224174
975.134323,1480.411884,-1378.971896,7920.203579
975.134653,1554.432478,-1532.190996,8512.368333
975.134982,222.061783,-459.657299,9474.636058
975.135312,-1776.494261,1072.533697,10288.862594
975.135642,-3108.864956,2221.676944,10732.986159
975.135971,-3256.906145,2221.676944,11621.233289
975.136301,-3108.864956,1991.848295,10584.944971
975.136631,-2294.638420,-459.657299,9474.636058
975.136960,-1110.308913,-2298.286494,7772.162391
975.137290,518.144159,-2221.676944,7328.038826
975.137620,1110.308913,-1302.362347,7772.162391
975.137949,666.185348,-612.876398,8364.327145
975.138279,-370.102971,229.828649,9474.636058
975.138609,-2442.679609,1915.238745,9992.780217
975.138938,-3849.070898,2451.505594,10584.944971
975.139268,-3701.029710,2298.286494,11177.109724
975.139598,-3034.844362,1302.362347,10658.965565
975.139927,-2146.597232,-536.266849,9844.739029
975.140257,-1776.494261,-2528.115143,8512.368333
975.140587,-444.123565,-1762.019645,7624.121203
975.140916,518.144159,-1072.533697,8660.409521
975.141246,666.185348,-383.047749,9696.697840
975.141576,-814.226536,1991.848295,11177.109724
975.141905,-2368.659014,3294.210641,11325.150913
975.142235,-2738.761985,3983.696590,10955.047942
975.142565,-2368.659014,3447.429741,10955.047942
975.142894,-1480.411884,2528.115143,10214.842000
975.143224,-592.164754,1149.143247,9326.594869
975.143554,0.000000,-383.047749,8216.285956
975.143883,1036.288319,306.438199,7328.038826
975.144213,1924.535449,612.876398,7994.224174
975.144543,1776.494261,1149.143247,9326.594869
975.144872,814.226536,2451.505594,10066.800811
975.145202,-1628.453072,3600.648841,9770.718434
975.145532,-2664.741391,4979.620737,10436.903782
975.145861,-2294.638420,4673.182538,10881.027347
975.146191,-1480.411884,2987.772442,10658.965565
975.146521,-1258.350101,919.314598,8882.471304
975.146850,-740.205942,-536.266849,7550.100608
975.147180,592.164754,306.438199,6513.812290
975.147510,1776.494261,229.828649,7550.100608
975.147839,1406.391290,306.438199,8660.409521
975.148169,-296.082377,2221.676944,9326.594869
975.148499,-2368.659014,3447.429741,9474.636058
975.148828,-2664.741391,4519.963438,9844.739029
975.149158,-2146.597232,3753.867940,10288.862594
975.149488,-1702.473667,2451.505594,9918.759623
975.149817,-1554.432478,153.219100,8734.430116
975.150147,-518.144159,-842.705048,7476.080014
975.150477,518.144159,0.000000,7846.182985
975.150806,1776.494261,153.219100,9326.594869
975.151136,1258.350101,306.438199,9992.780217
975.151466,-370.102971,1072.533697,10140.821405
975.151795,-1924.535449,1532.190996,10955.047942
975.152125,-2146.597232,2068.457845,11843.295072
975.152455,-2368.659014,2911.162892,12139.377449
975.152784,-2220.617826,1455.581446,11251.130318
975.153114,-1406.391290,-1225.752797,9104.533087
975.153444,148.041188,-2374.896044,7550.100608
975.153773,2368.659014,-2604.724693,7254.018232
975.154103,2516.700203,-2068.457845,8808.450710
975.154433,1036.288319,-689.485948,10140.821405
975.154763,-1554.432478,995.924147,11103.089130
975.155092,-3923.091493,2298.286494,11843.295072
975.155422,-4145.153275,2528.115143,11695.253884
975.155752,-3701.029710,1991.848295,11695.253884
975.156081,-2516.700203,153.219100,10510.924376
975.156411,-1258.350101,-2068.457845,8882.471304
975.156741,-444.123565,-3064.381992,7179.997637
975.157070,296.082377,-1915.238745,6883.915261
975.157400,0.000000,-612.876398,8068.244768
975.157730,-1036.288319,-153.219100,8734.430116
975.158059,-3182.885551,306.438199,9622.677246
975.158389,-5107.421000,1608.800546,10140.821405
975.158719,-4959.379811,1685.410096,11177.109724
975.159048,-3627.009116,766.095498,11473.192101
975.159378,-2664.741391,-383.047749,10362.883188
975.159708,-2294.638420,-2145.067394,8438.347739
975.160037,0.000000,-2298.286494,7476.080014
975.160367,2368.659014,-1072.533697,8068.244768
975.160697,3404.947333,459.657299,9696.697840
975.161026,2368.659014,1762.019645,10732.986159
975.161356,-444.123565,3217.601092,10732.986159
975.161686,-2146.597232,4060.306139,10807.006753
975.162015,-2442.679609,3907.087040,11029.068536
975.162345,-2590.720797,3447.429741,10807.006753
975.162675,-1776.494261,919.314598,10214.842000
975.163004,-1702.473667,-1532.190996,8512.368333
975.163334,-740.205942,-1608.800546,7698.141797
975.163664,0.000000,76.609550,7772.162391
975.163993,222.061783,1225.752797,8956.491898
975.164323,-370.102971,2145.067394,10066.800811
975.164653,-2146.597232,3983.696590,10584.944971
975.164982,-3701.029710,4826.401637,10658.965565
975.165312,-3701.029710,4673.182538,11251.130318
975.165642,-2960.823768,3447.429741,10955.047942
975.165971,-2072.576638,1838.629195,9992.780217
975.166301,-1332.370696,0.000000,8216.285956
975.166631,592.164754,-229.828649,6957.935855
975.166960,2590.720797,-153.219100,6587.832884
975.167290,3330.926739,383.047749,7476.080014
975.167620,3330.926739,1608.800546,8882.471304
975.167949,1110.308913,4213.525239,10066.800811
975.168279,-1480.411884,5898.935335,10807.006753
975.168609,-2442.679609,6281.983084,10732.986159
975.168938,-1776.494261,4903.011187,9992.780217
975.169268,-518.144159,1225.752797,8734.430116
975.169598,370.102971,-1302.362347,6883.915261
975.169927,888.247130,-1302.362347,6291.750507
975.170257,1184.329507,-995.924147,7105.977043
975.170587,888.247130,-383.047749,8660.409521
975.170916,-666.185348,459.657299,10362.883188
975.171246,-3108.864956,2528.115143,11029.068536
975.171576,-4441.235652,3677.258390,11843.295072
975.171905,-4219.173869,3524.039291,12287.418637
975.172235,-2738.761985,2221.676944,11843.295072
975.172565,-2146.597232,-306.438199,9696.697840
975.172894,-888.247130,-2298.286494,7624.121203
975.173224,370.102971,-3064.381992,6809.894666
975.173554,1850.514855,-2451.505594,8068.244768
975.173883,1998.556043,-1072.533697,9696.697840
975.174213,74.020594,-229.828649,10362.883188
975.174543,-1776.494261,1149.143247,11029.068536
975.174872,-2220.617826,2451.505594,11325.150913
975.175202,-1924.535449,3064.381992,12065.356855
975.175532,-1702.473667,1991.848295,11547.212695
975.175861,-1702.473667,-536.266849,10066.800811
975.176191,-1850.514855,-1838.629195,8512.368333
975.176521,-962.267725,-1149.143247,8142.265362
975.176850,592.164754,-2068.457845,9252.574275
975.177180,0.000000,-1225.752797,9844.739029
975.177510,-1702.473667,-459.657299,9844.739029
975.177839,-3627.009116,0.000000,9844.739029
975.178169,-4441.235652,1762.019645,10066.800811
975.178499,-3997.112087,2757.943793,10288.862594
975.178828,-3552.988522,1532.190996,10732.986159
975.179158,-2960.823768,0.000000,9622.677246
975.179488,-2146.597232,-1532.190996,8068.244768
975.179817,-740.205942,-1915.238745,7179.997637
975.180147,444.123565,-459.657299,7772.162391
975.180477,222.061783,0.000000,8734.430116
975.180806,-666.185348,229.828649,9548.656652
975.181136,-2294.638420,1378.971896,10066.800811
975.181466,-3034.844362,3524.039291,10436.903782
975.181795,-2664.741391,4290.134789,10732.986159
975.182125,-2220.617826,2374.896044,9992.780217
975.182455,-1480.411884,919.314598,9104.533087
975.182784,0.000000,-612.876398,7920.203579
975.183114,1332.370696,-459.657299,7402.059420
975.183443,2590.720797,919.314598,7920.203579
975.183773,1924.535449,1149.143247,8808.450710
975.184102,0.000000,1915.238745,10362.883188
975.184432,-2812.782580,3524.039291,11325.150913
975.184761,-4293.194464,4979.620737,11769.274478
975.185091,-3552.988522,3983.696590,11917.315666
975.185421,-2516.700203,2145.067394,10658.965565
975.185750,-1924.535449,-306.438199,9030.512492
975.186080,-444.123565,-1762.019645,7994.224174
975.186409,888.247130,-995.924147,7846.182985
975.186739,1184.329507,612.876398,8290.306550
975.187068,1184.329507,2298.286494,9178.553681
975.187398,0.000000,1991.848295,9548.656652
975.187727,-1110.308913,3064.381992,10288.862594
975.188057,-1702.473667,4443.353888,10807.006753
975.188386,-1480.411884,4136.915689,10732.986159
975.188716,-1184.329507,3064.381992,9992.780217
975.189046,-1036.288319,306.438199,7550.100608
975.189375,148.041188,-612.876398,7105.977043
975.189705,1924.535449,-383.047749,7476.080014
975.190034,2664.741391,612.876398,8364.327145
975.190364,1924.535449,1685.410096,8956.491898
975.190693,-592.164754,1762.019645,8734.430116
975.191023,-2368.659014,3217.601092,9770.718434
975.191352,-2368.659014,3677.258390,11547.212695
975.191682,-2294.638420,3064.381992,11769.274478
975.192012,-2516.700203,1991.848295,10436.903782
975.192341,-1998.556043,-919.314598,7994.224174
975.192671,-666.185348,-2681.334243,7105.977043
975.193000,1110.308913,-2528.115143,7846.182985
975.193330,1480.411884,-919.314598,9548.656652
975.193659,518.144159,-153.219100,10288.862594
975.193989,-1184.329507,536.266849,10807.006753
975.194318,-2516.700203,3140.991542,11029.068536
975.194648,-2368.659014,3140.991542,10881.027347
975.194978,-1998.556043,2451.505594,10510.924376
975.195307,-1554.432478,766.095498,9474.636058
975.195637,-1776.494261,-842.705048,8216.285956
975.195966,-1554.432478,-2221.676944,7698.141797
975.196296,-814.226536,-2451.505594,8956.491898
975.196625,-814.226536,-1378.971896,10214.842000
975.196955,-1332.370696,-1072.533697,10807.006753
975.197284,-2442.679609,-766.095498,10658.965565
975.197614,-2738.761985,842.705048,11843.295072
975.197943,-3182.885551,1762.019645,11991.336260
975.198273,-3034.844362,2068.457845,12509.480420
975.198603,-2664.741391,2298.286494,11251.130318
975.198932,-1702.473667,76.609550,9104.533087
975.199262,444.123565,-1838.629195,6439.791695
975.199591,2294.638420,-2604.724693,6069.688724
975.199921,2220.617826,-1991.848295,7550.100608
975.200250,222.061783,-306.438199,8956.491898
975.200580,-2812.782580,842.705048,10066.800811
975.200909,-5329.482782,2834.553343,10510.924376
975.201239,-5403.503377,3294.210641,10807.006753
975.201569,-3701.029710,2145.067394,11399.171507
975.201898,-2368.659014,995.924147,10140.821405
975.202228,-1776.494261,-612.876398,8142.265362
975.202557,-740.205942,-766.095498,6735.874072
975.202887,740.205942,0.000000,6809.894666
975.203216,1406.391290,919.314598,9104.533087
975.203546,0.000000,1838.629195,10288.862594
975.203875,-2072.576638,3294.210641,10214.842000
975.204205,-3478.967927,3830.477490,9844.739029
975.204535,-2960.823768,2911.162892,10288.862594
975.204864,-2146.597232,1762.019645,10658.965565
975.205194,-1628.453072,766.095498,10288.862594
975.205523,-1258.350101,-689.485948,9030.512492
975.205853,-222.061783,0.000000,8216.285956
975.206182,1628.453072,689.485948,8512.368333
975.206512,3034.844362,1072.533697,9400.615463
975.206841,2516.700203,842.705048,10436.903782
975.207171,0.000000,3217.601092,10510.924376
975.207500,-1998.556043,5132.839837,10658.965565
975.207830,-2146.597232,4443.353888,10584.944971
975.208160,-1776.494261,3524.039291,10658.965565
975.208489,-962.267725,1608.800546,9104.533087
975.208819,0.000000,-766.095498,7254.018232
975.209148,1554.432478,-689.485948,6365.771101
975.209478,2812.782580,-229.828649,7179.997637
975.209807,2590.720797,459.657299,8586.388927
975.210137,-148.041188,1762.019645,9918.759623
975.210466,-2886.803174,3447.429741,11029.068536
975.210796,-4071.132681,4519.963438,11991.336260
975.211126,-3627.009116,4136.915689,11917.315666
975.211455,-2294.638420,3140.991542,10881.027347
975.211785,-1406.391290,-536.266849,8734.430116
975.212114,-296.082377,-2604.724693,6513.812290
975.212444,962.267725,-2451.505594,5995.668130
975.212773,1702.473667,-1302.362347,7476.080014
975.213103,1110.308913,306.438199,9252.574275
975.213432,-592.164754,1685.410096,10288.862594
975.213762,-1850.514855,2681.334243,11547.212695
975.214092,-2664.741391,3524.039291,11325.150913
975.214421,-2368.659014,3524.039291,11177.109724
975.214751,-1554.432478,1685.410096,10436.903782
975.215080,-666.185348,-459.657299,9104.533087
975.215410,-592.164754,-1991.848295,8068.244768
975.215739,0.000000,-1991.848295,8142.265362
975.216069,518.144159,-1838.629195,8956.491898
975.216398,0.000000,-919.314598,9770.718434
975.216728,-2146.597232,-766.095498,11029.068536
975.217057,-3923.091493,919.314598,11769.274478
975.217387,-5181.441594,1915.238745,12139.377449
975.217717,-4737.318029,1915.238745,12065.356855
975.218046,-3775.050304,919.314598,10732.986159
975.218376,-2516.700203,-1532.190996,8808.450710
975.218705,-740.205942,-3217.601092,7328.038826
975.219035,814.226536,-2834.553343,6587.832884
975.219364,1628.453072,-1225.752797,7698.141797
975.219694,740.205942,-306.438199,9178.553681
975.220023,-1110.308913,306.438199,10510.924376
975.220353,-2812.782580,2374.896044,10955.047942
975.220683,-2960.823768,3600.648841,11473.192101
975.221012,-2072.576638,2681.334243,10955.047942
975.221342,-1480.411884,842.705048,9918.759623
975.221671,-1258.350101,-1455.581446,8734.430116
975.222001,-1110.308913,-1455.581446,7698.141797
975.222330,296.082377,-229.828649,7994.224174
975.222660,962.267725,306.438199,8734.430116
975.222989,666.185348,536.266849,9326.594869
975.223319,-666.185348,76.609550,9918.759623
975.223649,-1850.514855,1072.533697,10658.965565
975.223978,-2368.659014,3064.381992,11325.150913
975.224308,-2664.741391,3217.601092,11325.150913
975.224637,-2812.782580,2451.505594,10362.883188
975.224967,-1628.453072,76.609550,8956.491898
975.225296,222.061783,-842.705048,7476.080014
975.225626,2738.761985,-536.266849,6809.894666
975.225955,3775.050304,459.657299,8364.327145
975.226285,2368.659014,1762.019645,9696.697840
975.226614,-888.247130,2911.162892,10955.047942
975.226944,-3404.947333,4749.792088,12213.398043
975.227274,-3997.112087,5669.106685,12657.521608
975.227603,-3330.926739,5056.230287,11917.315666
975.227933,-2072.576638,2451.505594,9400.615463
975.228262,-592.164754,-1072.533697,6957.935855
975.228592,1628.453072,-1685.410096,5107.421000
975.228921,3404.947333,-995.924147,5625.565159
975.229251,3330.926739,995.924147,7402.059420
975.229580,888.247130,3294.210641,9252.574275
975.229910,-1406.391290,3907.087040,10955.047942
975.230240,-2516.700203,4596.572988,11103.089130
975.230569,-2738.761985,4826.401637,11621.233289
975.230899,-1924.535449,3830.477490,11251.130318
975.231228,-1110.308913,1378.971896,10140.821405
975.231558,-148.041188,-689.485948,8586.388927
975.231887,444.123565,-919.314598,6809.894666
975.232217,814.226536,-459.657299,6513.812290
975.232546,1110.308913,995.924147,7772.162391
975.232876,0.000000,1378.971896,9030.512492
975.233206,-2516.700203,1915.238745,10214.842000
975.233535,-4589.276840,3217.601092,10881.027347
975.233865,-5033.400406,4060.306139,11399.171507
975.234194,-4515.256246,2451.505594,11029.068536
975.234524,-3923.091493,0.000000,9474.636058
975.234853,-2516.700203,-2911.162892,7846.182985
975.235183,-296.082377,-3600.648841,6809.894666
975.235512,1258.350101,-2987.772442,7772.162391
975.235842,1702.473667,-1378.971896,10066.800811
975.236171,296.082377,612.876398,11843.295072
975.236501,-1406.391290,1608.800546,12361.439231
975.236831,-2516.700203,2987.772442,12583.501014
975.237160,-2590.720797,3064.381992,12583.501014
975.237490,-1480.411884,2374.896044,12065.356855
975.237819,-592.164754,-229.828649,9770.718434
975.238149,518.144159,-2911.162892,7624.121203
975.238478,1184.329507,-3140.991542,6661.853478
975.238808,1924.535449,-1762.019645,7328.038826
975.239137,962.267725,-1378.971896,8882.471304
975.239467,-1110.308913,0.000000,10140.821405
975.239797,-3256.906145,1072.533697,10288.862594
975.240126,-4589.276840,2298.286494,10436.903782
975.240456,-4515.256246,1915.238745,10658.965565
975.240785,-4293.194464,1149.143247,10658.965565
975.241115,-3923.091493,-689.485948,9178.553681
975.241444,-3330.926739,-2221.676944,7254.018232
975.241774,-1036.288319,-2451.505594,6735.874072
975.242103,1110.308913,-1532.190996,7402.059420
975.242433,1776.494261,-995.924147,9178.553681
975.242763,814.226536,153.219100,9992.780217
975.243092,-888.247130,1991.848295,10288.862594
975.243422,-1702.473667,3983.696590,11029.068536
975.243751,-1332.370696,4136.915689,11843.295072
975.244081,-666.185348,3294.210641,11399.171507
975.244410,0.000000,1149.143247,9696.697840
975.244740,1332.370696,-995.924147,8438.347739
975.245069,2738.761985,-383.047749,7476.080014
975.245399,2886.803174,0.000000,8364.327145
975.245728,1850.514855,459.657299,10288.862594
975.246058,-814.226536,1608.800546,11621.233289
975.246388,-3627.009116,3294.210641,11695.253884
975.246717,-4663.297435,4519.963438,11399.171507
975.247047,-4145.153275,3447.429741,11399.171507
975.247376,-3034.844362,2298.286494,9770.718434
975.247706,-1998.556043,383.047749,7698.141797
975.248035,-370.102971,-919.314598,6291.750507
975.248365,1036.288319,-153.219100,5625.565159
975.248694,1554.432478,842.705048,7179.997637
975.249024,1480.411884,1915.238745,9030.512492
975.249354,-296.082377,3140.991542,10732.986159
975.249683,-1924.535449,4136.915689,11473.192101
975.250013,-2960.823768,5209.449386,11473.192101
975.250342,-2664.741391,5056.230287,11473.192101
975.250672,-2368.659014,2911.162892,10658.965565
975.251001,-1258.350101,689.485948,8734.430116
975.251331,74.020594,-1225.752797,6587.832884
975.251660,1776.494261,-612.876398,5847.626942
975.251990,3034.844362,459.657299,6957.935855
975.252319,2220.617826,612.876398,8438.347739
975.252649,0.000000,2145.067394,9474.636058
975.252979,-2812.782580,3983.696590,9548.656652
975.253308,-3997.112087,4903.011187,9918.759623
975.253638,-3404.947333,3447.429741,10584.944971
975.253967,-2738.761985,1915.238745,10362.883188
975.254297,-2664.741391,-536.266849,8882.471304
975.254626,-1924.535449,-2528.115143,7550.100608
975.254956,-592.164754,-2298.286494,7994.224174
975.255285,-296.082377,-995.924147,9474.636058
975.255615,-1110.308913,0.000000,10362.883188
975.255945,-2220.617826,0.000000,11769.274478
975.256274,-3552.988522,995.924147,12213.398043
975.256604,-3775.050304,2834.553343,12879.583391
975.256933,-3256.906145,2374.896044,12879.583391
975.257263,-2146.597232,689.485948,11621.233289
975.257592,-1480.411884,-1532.190996,9104.533087
975.257922,148.041188,-2374.896044,7328.038826
975.258251,1998.556043,-2374.896044,7328.038826
975.258581,2664.741391,-1608.800546,8438.347739
975.258911,1628.453072,-919.314598,9770.718434
975.259240,222.061783,1149.143247,10510.924376
975.259570,-1998.556043,2528.115143,10436.903782
975.259899,-2368.659014,2911.162892,10658.965565
975.260229,-2368.659014,1915.238745,10510.924376
975.260558,-2368.659014,306.438199,10140.821405
975.260888,-2368.659014,-1072.533697,8882.471304
975.261217,-2146.597232,-1915.238745,7328.038826
975.261547,-740.205942,-1685.410096,7105.977043
975.261876,444.123565,-2145.067394,8290.306550
975.262206,0.000000,-1149.143247,9474.636058
975.262536,-1776.494261,459.657299,10066.800811
975.262865,-3923.091493,1838.629195,9844.739029
975.263195,-3627.009116,3140.991542,10214.842000
975.263524,-2368.659014,2911.162892,10732.986159
975.263854,-962.267725,919.314598,10140.821405
975.264183,444.123565,-689.485948,8586.388927
975.264513,2072.576638,-766.095498,7031.956449
975.264842,3108.864956,-612.876398,7402.059420
975.265172,3182.885551,153.219100,9844.739029
975.265502,1258.350101,1532.190996,12139.377449
975.265831,-1258.350101,2604.724693,13175.665768
975.266161,-3256.906145,3600.648841,12509.480420
975.266490,-3182.885551,4749.792088,11473.192101
975.266820,-1702.473667,3217.601092,10066.800811
975.267149,74.020594,0.000000,8364.327145
975.267479,740.205942,-1302.362347,6069.688724
975.267808,962.267725,-306.438199,5403.503377
975.268138,1406.391290,1149.143247,6809.894666
975.268468,1628.453072,1838.629195,9030.512492
975.268797,296.082377,2604.724693,10436.903782
975.269127,-2146.597232,3140.991542,11177.109724
975.269456,-3478.967927,3064.381992,11399.171507
975.269786,-3627.009116,3524.039291,12065.356855
975.270115,-2812.782580,2604.724693,12583.501014
975.270445,-1924.535449,1685.410096,10807.006753
975.270774,-962.267725,-306.438199,7624.121203
975.271104,1258.350101,0.000000,5329.482782
975.271433,3034.844362,766.095498,4811.338623
975.271763,3478.967927,1302.362347,6661.853478
975.272093,1258.350101,1455.581446,8660.409521
975.272422,-2294.638420,3830.477490,9992.780217
975.272752,-5107.421000,5362.668486,10807.006753
975.273081,-4737.318029,4443.353888,11991.336260
975.273411,-3923.091493,1991.848295,11177.109724
975.273740,-3034.844362,-383.047749,9104.533087
975.274070,-1480.411884,-3140.991542,7031.956449
975.274399,666.185348,-3140.991542,6513.812290
975.274729,1924.535449,-995.924147,7846.182985
975.275059,1776.494261,-536.266849,9474.636058
975.275388,0.000000,1225.752797,11103.089130
975.275718,-1850.514855,2528.115143,11621.233289
975.276047,-2220.617826,3677.258390,11917.315666
975.276377,-1776.494261,3064.381992,12065.356855
975.276706,-1924.535449,2451.505594,11991.336260
975.277036,-1628.453072,-766.095498,10584.944971
975.277365,-962.267725,-1915.238745,8586.388927
975.277695,0.000000,-1762.019645,7550.100608
975.278025,1036.288319,-1991.848295,8364.327145
975.278354,814.226536,-766.095498,9030.512492
975.278684,-370.102971,459.657299,10510.924376
975.279013,-2442.679609,1225.752797,11103.089130
975.279343,-3775.050304,3064.381992,11103.089130
975.279672,-4441.235652,3140.991542,10955.047942
975.280002,-3997.112087,1225.752797,10658.965565
975.280331,-3034.844362,-842.705048,9400.615463
975.280661,-2072.576638,-1608.800546,7105.977043
975.280990,148.041188,-2374.896044,5921.647536
975.281320,1406.391290,-2757.943793,6809.894666
975.281650,1480.411884,-1378.971896,9104.533087
975.281979,-296.082377,459.657299,10140.821405
975.282309,-2738.761985,2374.896044,10955.047942
975.282638,-3552.988522,5132.839837,11325.150913
975.282968,-2590.720797,4673.182538,11547.212695
975.283297,-1258.350101,1225.752797,10807.006753
975.283627,-148.041188,-153.219100,9178.553681
975.283956,518.144159,-1608.800546,7476.080014
975.284286,962.267725,-1838.629195,6957.935855
975.284616,1406.391290,-1225.752797,8512.368333
975.284945,888.247130,0.000000,10362.883188
975.285275,-962.267725,766.095498,10955.047942
975.285604,-2368.659014,1915.238745,10584.944971
975.285934,-2886.803174,3830.477490,10881.027347
975.286263,-2368.659014,3524.039291,11325.150913
975.286593,-1702.473667,2221.676944,10436.903782
975.286922,-1480.411884,536.266849,8586.388927
975.287252,0.000000,-459.657299,6661.853478
975.287582,1850.514855,-383.047749,6513.812290
975.287911,2812.782580,-153.219100,8216.285956
975.288241,1850.514855,76.609550,9992.780217
975.288570,-888.247130,995.924147,11695.253884
975.288900,-3552.988522,3140.991542,12361.439231
975.289229,-4515.256246,5286.058936,12953.603985
975.289559,-3775.050304,4290.134789,12583.501014
975.289888,-2368.659014,1915.238745,11103.089130
975.290218,-740.205942,-306.438199,8438.347739
975.290547,1184.329507,-1225.752797,5921.647536
975.290877,2442.679609,-459.657299,5551.544565
975.291207,2960.823768,842.705048,7105.977043
975.291536,2072.576638,1608.800546,8290.306550
975.291866,-222.061783,2374.896044,9252.574275
975.292195,-2590.720797,4213.525239,8956.491898
975.292525,-3182.885551,4903.011187,9548.656652
975.292854,-2516.700203,3294.210641,9992.780217
975.293184,-2294.638420,1532.190996,9844.739029
975.293513,-2072.576638,-459.657299,8808.450710
975.293843,-1702.473667,-1302.362347,7698.141797
975.294172,-888.247130,-383.047749,7550.100608
975.294502,0.000000,0.000000,9030.512492
975.294832,-370.102971,0.000000,10584.944971
975.295161,-1850.514855,612.876398,11103.089130
975.295491,-3034.844362,2757.943793,11029.068536
975.295820,-3330.926739,4596.572988,11399.171507
975.296150,-2812.782580,2911.162892,10732.986159
975.296479,-2220.617826,1378.971896,10140.821405
975.296809,-1702.473667,-689.485948,8512.368333
975.297138,0.000000,-2451.505594,7105.977043
975.297468,1850.514855,-1838.629195,7698.141797
975.297798,2442.679609,-383.047749,9474.636058
975.298127,1036.288319,-153.219100,10584.944971
975.298457,-888.247130,766.095498,11177.109724
975.298786,-2664.741391,2757.943793,11769.274478
975.299116,-2960.823768,3830.477490,12287.418637
975.299445,-2664.741391,2757.943793,11547.212695
975.299775,-2146.597232,842.705048,10510.924376
975.300104,-1776.494261,-1991.848295,8438.347739
975.300434,-814.226536,-2221.676944,6809.894666
975.300763,296.082377,-1838.629195,6735.874072
975.301093,1258.350101,-1225.752797,8438.347739
975.301423,-592.164754,-842.705048,9252.574275
975.301752,-2738.761985,383.047749,10140.821405
975.302082,-4663.297435,1762.019645,10362.883188
975.302411,-4219.173869,2911.162892,11251.130318
975.302741,-3775.050304,2145.067394,11177.109724
975.303070,-2664.741391,612.876398,10362.883188
975.303400,-1554.432478,-1378.971896,8512.368333
975.303729,74.020594,-2068.457845,6957.935855
975.304059,1776.494261,-1762.019645,7402.059420
975.304389,2368.659014,-536.266849,8956.491898
975.304718,1110.308913,995.924147,10436.903782
975.305048,-888.247130,1685.410096,10881.027347
975.305377,-2294.638420,3677.258390,10584.944971
975.305707,-2294.638420,4443.353888,10066.800811
975.306036,-1332.370696,3064.381992,9400.615463
975.306366,-296.082377,1225.752797,8512.368333
975.306695,222.061783,-995.924147,7994.224174
975.307025,592.164754,-536.266849,7254.018232
975.307354,814.226536,306.438199,7994.224174
975.307684,444.123565,459.657299,9252.574275
975.308014,-370.102971,919.314598,11769.274478
975.308343,-2812.782580,1302.362347,12139.377449
975.308673,-4441.235652,2834.553343,12657.521608
975.309002,-4293.194464,2681.334243,12213.398043
975.309332,-2738.761985,2451.505594,11695.253884
975.309661,-518.144159,1455.581446,9770.718434
975.309991,1036.288319,-306.438199,6809.894666
975.310320,2294.638420,76.609550,4515.256246
975.310650,3404.947333,1915.238745,4885.359217
975.310980,2960.823768,2068.457845,7994.224174
975.311309,592.164754,2145.067394,10807.006753
975.311639,-2886.803174,4596.572988,11917.315666
975.311968,-4737.318029,4749.792088,11399.171507
975.312298,-4515.256246,3447.429741,11473.192101
975.312627,-3108.864956,1762.019645,10732.986159
975.312957,-1776.494261,-766.095498,8586.388927
975.313286,-370.102971,-3370.820191,6365.771101
975.313616,592.164754,-1762.019645,6217.729913
975.313945,1998.556043,919.314598,7402.059420
975.314275,2072.576638,995.924147,9104.533087
975.314605,370.102971,1915.238745,9992.780217
975.314934,-1628.453072,3677.258390,10362.883188
975.315264,-1998.556043,4826.401637,10955.047942
975.315593,-1998.556043,3830.477490,11325.150913
975.315923,-1776.494261,2451.505594,11029.068536
975.316252,-1702.473667,-229.828649,9548.656652
975.316582,-1258.350101,-1762.019645,7772.162391
975.316911,-370.102971,-1225.752797,7105.977043
975.317241,888.247130,-919.314598,8882.471304
975.317570,0.000000,-383.047749,10584.944971
975.317900,-1924.535449,842.705048,11547.212695
975.318230,-3997.112087,1685.410096,11917.315666
975.318559,-4219.173869,2757.943793,11843.295072
975.318889,-3849.070898,2757.943793,11621.233289
975.319218,-3182.885551,995.924147,10214.842000
975.319548,-2146.597232,-1149.143247,8290.306550
975.319877,-518.144159,-2221.676944,6439.791695
975.320207,1554.432478,-2145.067394,6513.812290
975.320536,2590.720797,-1225.752797,7550.100608
975.320866,1406.391290,459.657299,9548.656652
975.321196,-740.205942,1762.019645,10140.821405
975.321525,-2738.761985,2528.115143,10584.944971
975.321855,-3404.947333,2987.772442,11991.336260
975.322184,-3034.844362,2757.943793,12509.480420
975.322514,-3034.844362,1149.143247,11843.295072
975.322843,-2442.679609,-1838.629195,10288.862594
975.323173,-1776.494261,-2834.553343,8364.327145
975.323502,-592.164754,-2374.896044,7179.997637
975.323832,962.267725,-2068.457845,7698.141797
975.324161,1332.370696,-612.876398,9474.636058
975.324491,-296.082377,919.314598,9696.697840
975.324821,-2368.659014,2604.724693,9770.718434
975.325150,-3182.885551,3753.867940,9918.759623
975.325480,-2516.700203,4903.011187,9696.697840
975.325809,-1332.370696,2068.457845,9326.594869
975.326139,-148.041188,-306.438199,8364.327145
975.326468,222.061783,-1378.971896,7550.100608
975.326798,814.226536,-536.266849,7476.080014
975.327127,1110.308913,153.219100,8808.450710
975.327457,740.205942,229.828649,10955.047942
975.327787,-1258.350101,1608.800546,12361.439231
975.328116,-3404.947333,3140.991542,12657.521608
975.328446,-4219.173869,4213.525239,12361.439231
975.328775,-3256.906145,3524.039291,11769.274478
975.329105,-1628.453072,2221.676944,10288.862594
975.329434,74.020594,-229.828649,7846.182985
975.329764,1480.411884,-1225.752797,5995.668130
975.330093,3182.885551,-536.266849,5403.503377
975.330423,3701.029710,612.876398,6809.894666
975.330752,2664.741391,1225.752797,8660.409521
975.331082,0.000000,2145.067394,9622.677246
975.331412,-2664.741391,4826.401637,11103.089130
975.331741,-3701.029710,5362.668486,11991.336260
975.332071,-3627.009116,4596.572988,11843.295072
975.332400,-2590.720797,1991.848295,10584.944971
975.332730,-2146.597232,-459.657299,8290.306550
975.333059,-962.267725,-1608.800546,7105.977043
975.333389,148.041188,-842.705048,7105.977043
975.333718,1036.288319,0.000000,8142.265362
975.334048,370.102971,689.485948,9326.594869
975.334377,-1480.411884,1915.238745,9622.677246
975.334707,-2960.823768,3064.381992,9992.780217
975.335037,-3108.864956,4136.915689,10955.047942
975.335366,-2368.659014,3140.991542,11029.068536
975.335696,-1998.556043,1302.362347,10214.842000
975.336025,-1258.350101,-995.924147,8808.450710
975.336355,296.082377,-1532.190996,7254.018232
975.336684,1628.453072,-1225.752797,7624.121203
975.337014,1776.494261,-536.266849,9400.615463
975.337343,666.185348,76.609550,10732.986159
975.337673,-1554.432478,1225.752797,11103.089130
975.338003,-3478.967927,2757.943793,11251.130318
975.338332,-3478.967927,3753.867940,11917.315666
975.338662,-3478.967927,2911.162892,11325.150913
975.338991,-2812.782580,842.705048,9918.759623
975.339321,-2146.597232,-2068.457845,7920.203579
975.339650,-518.144159,-2757.943793,7179.997637
975.339980,740.205942,-1685.410096,7624.121203
975.340309,222.061783,-842.705048,8808.450710
975.340639,-1332.370696,-689.485948,9696.697840
975.340968,-3404.947333,612.876398,10584.944971
975.341298,-4515.256246,2298.286494,11843.295072
975.341628,-4071.132681,2987.772442,12287.418637
975.341957,-3034.844362,1838.629195,11769.274478
975.342287,-2368.659014,153.219100,10288.862594
975.342616,-1036.288319,-1991.848295,8438.347739
975.342946,962.267725,-2221.676944,7254.018232
975.343275,2590.720797,-1072.533697,7179.997637
975.343605,2886.803174,153.219100,8142.265362
975.343934,1628.453072,459.657299,9548.656652
975.344264,-444.123565,1608.800546,10140.821405
975.344594,-2146.597232,3830.477490,10066.800811
975.344923,-2516.700203,3907.087040,10436.903782
975.345253,-1998.556043,2528.115143,10807.006753
975.345582,-1628.453072,995.924147,9622.677246
975.345912,-1332.370696,-1149.143247,7846.182985
975.346241,0.000000,-2374.896044,7550.100608
975.346571,1258.350101,-1072.533697,8512.368333
975.346900,814.226536,-536.266849,9622.677246
975.347230,-444.123565,0.000000,11843.295072
975.347559,-2442.679609,1838.629195,12065.356855
975.347889,-3330.926739,4136.915689,11769.274478
975.348219,-2442.679609,4136.915689,11325.150913
975.348548,-1036.288319,3217.601092,9474.636058
975.348878,148.041188,2068.457845,7328.038826
975.349207,1110.308913,-153.219100,5107.421000
975.349537,2220.617826,-919.314598,5625.565159
975.349866,2220.617826,153.219100,8956.491898
975.350196,740.205942,2681.334243,10955.047942
975.350525,-1184.329507,2068.457845,11177.109724
975.350855,-3108.864956,1608.800546,11325.150913
975.351185,-3923.091493,2757.943793,11695.253884
975.351514,-3256.906145,2987.772442,11621.233289
975.351844,-2220.617826,1991.848295,10140.821405
975.352173,-1258.350101,766.095498,8068.244768
975.352503,-592.164754,229.828649,6217.729913
975.352832,1628.453072,-459.657299,5403.503377
975.353162,3404.947333,-536.266849,6439.791695
975.353491,2812.782580,1378.971896,7920.203579
975.353821,666.185348,2221.676944,9400.615463
975.354150,-2146.597232,3600.648841,11177.109724
975.354480,-4441.235652,4979.620737,11991.336260
975.354810,-4737.318029,3524.039291,12657.521608
975.355139,-4367.215058,1838.629195,11843.295072
975.355469,-3256.906145,76.609550,10288.862594
975.355798,-1924.535449,-2298.286494,8068.244768
975.356128,-296.082377,-2451.505594,7476.080014
975.356457,518.144159,-2068.457845,8438.347739
975.356787,592.164754,-612.876398,9474.636058
975.357116,-1258.350101,1149.143247,10214.842000
975.357446,-3182.885551,3217.601092,10510.924376
975.357775,-3552.988522,3830.477490,9918.759623
975.358105,-1850.514855,2451.505594,10066.800811
975.358435,-518.144159,995.924147,9326.594869
975.358764,-370.102971,-536.266849,8068.244768
975.359094,666.185348,-1302.362347,7402.059420
975.359423,1406.391290,-1072.533697,7846.182985
975.359753,1110.308913,-306.438199,9474.636058
975.360082,444.123565,536.266849,10732.986159
975.360412,-888.247130,689.485948,11843.295072
975.360741,-2442.679609,1149.143247,12065.356855
975.361071,-3627.009116,2145.067394,12435.459826
975.361401,-4441.235652,1455.581446,12065.356855
975.361730,-3330.926739,536.266849,11103.089130
975.362060,-2590.720797,-1225.752797,8956.491898
975.362389,-666.185348,-1991.848295,6587.832884
975.362719,1850.514855,-2987.772442,5847.626942
975.363048,2664.741391,-2451.505594,7031.956449
975.363378,1776.494261,-842.705048,8216.285956
975.363707,-444.123565,842.705048,9326.594869
975.364037,-2738.761985,2987.772442,9844.739029
975.364366,-2664.741391,4596.572988,11251.130318
975.364696,-2812.782580,3600.648841,11621.233289
975.365026,-2368.659014,2068.457845,10732.986159
975.365355,-1480.411884,-612.876398,9104.533087
975.365685,0.000000,-1838.629195,8068.244768
975.366014,888.247130,-1302.362347,7920.203579
975.366344,1110.308913,-689.485948,9252.574275
975.366673,222.061783,0.000000,10658.965565
975.367003,-1332.370696,842.705048,11621.233289
975.367332,-3034.844362,3370.820191,11843.295072
975.367662,-3330.926739,4673.182538,11917.315666
975.367992,-2664.741391,2757.943793,11103.089130
975.368321,-1258.350101,1532.190996,9252.574275
975.368651,74.020594,-536.266849,7328.038826
975.368980,1998.556043,-1532.190996,5921.647536
975.369310,2886.803174,-306.438199,6735.874072
975.369639,2590.720797,842.705048,8290.306550
975.369969,814.226536,1685.410096,10658.965565
975.370298,-1776.494261,3217.601092,11473.192101
975.370628,-3552.988522,4596.572988,11843.295072
975.370957,-3849.070898,4826.401637,11843.295072
975.371287,-3478.967927,3983.696590,10288.862594
975.371617,-2146.597232,1685.410096,8438.347739
975.371946,-962.267725,-995.924147,6883.915261
975.372276,370.102971,-995.924147,5921.647536
975.372605,1628.453072,153.219100,6587.832884
975.372935,1924.535449,536.266849,8068.244768
975.373264,370.102971,1762.019645,9252.574275
975.373594,-2146.597232,2757.943793,10214.842000
975.373923,-3404.947333,3294.210641,10881.027347
975.374253,-3404.947333,3983.696590,11325.150913
975.374583,-2442.679609,3064.381992,11029.068536
975.374912,-1480.411884,919.314598,9474.636058
975.375242,-148.041188,-1302.362347,8142.265362
975.375571,666.185348,-1378.971896,6883.915261
975.375901,1850.514855,-689.485948,7624.121203
975.376230,2072.576638,383.047749,9548.656652
975.376560,518.144159,1685.410096,10658.965565
975.376889,-1850.514855,2604.724693,11843.295072
975.377219,-3256.906145,3524.039291,10881.027347
975.377548,-2960.823768,3140.991542,11029.068536
975.377878,-1998.556043,1608.800546,10362.883188
975.378208,-1998.556043,-76.609550,8882.471304
975.378537,-1480.411884,-2068.457845,7698.141797
975.378867,-962.267725,-2145.067394,7105.977043
975.379196,296.082377,-1762.019645,8438.347739
975.379526,888.247130,-1685.410096,10510.924376
975.379855,-962.267725,-766.095498,11917.315666
975.380185,-3330.926739,1378.971896,12213.398043
975.380514,-4959.379811,2451.505594,12657.521608
975.380844,-3923.091493,2528.115143,12509.480420
975.381173,-2664.741391,2068.457845,11399.171507
975.381503,-1184.329507,-229.828649,8512.368333
975.381833,666.185348,-2221.676944,6069.688724
975.382162,2368.659014,-2834.553343,4515.256246
975.382492,3404.947333,-1378.971896,6365.771101
975.382821,2886.803174,-229.828649,9104.533087
975.383151,-148.041188,1532.190996,10436.903782
975.383480,-3478.967927,2757.943793,10955.047942
975.383810,-4737.318029,3370.820191,10807.006753
975.384139,-4515.256246,2374.896044,11547.212695
975.384469,-3330.926739,383.047749,11103.089130
975.384799,-2294.638420,-1915.238745,9622.677246
975.385128,-1258.350101,-2834.553343,8068.244768
975.385458,-370.102971,-2451.505594,6661.853478
975.385787,1258.350101,-995.924147,7994.224174
975.386117,1036.288319,459.657299,9178.553681
975.386446,-222.061783,2221.676944,9474.636058
975.386776,-1924.535449,2834.553343,10066.800811
975.387105,-2960.823768,3983.696590,10955.047942
975.387435,-2886.803174,3600.648841,11473.192101
975.387765,-2516.700203,1608.800546,11917.315666
975.388094,-1850.514855,76.609550,10436.903782
975.388424,-814.226536,-1378.971896,8438.347739
975.388753,1554.432478,-1455.581446,7328.038826
975.389083,3775.050304,-306.438199,8290.306550
975.389413,3330.926739,0.000000,10288.862594
975.389742,518.144159,2681.334243,11473.192101
975.390072,-2368.659014,4979.620737,11473.192101
975.390401,-3182.885551,6128.763984,10955.047942
975.390731,-2294.638420,4903.011187,10066.800811
975.391060,-1110.308913,2221.676944,8364.327145
975.391390,74.020594,-536.266849,6809.894666
975.391720,1258.350101,-1838.629195,5403.503377
975.392049,2220.617826,-459.657299,5699.585753
975.392379,1850.514855,612.876398,7402.059420
975.392708,296.082377,1378.971896,9770.718434
975.393038,-2368.659014,3064.381992,11695.253884
975.393368,-4145.153275,4749.792088,11991.336260
975.393697,-4367.215058,4673.182538,12361.439231
975.394027,-3478.967927,3677.258390,12287.418637
975.394356,-2812.782580,2298.286494,10881.027347
975.394686,-1998.556043,-536.266849,8956.491898
975.395016,-592.164754,-1685.410096,6439.791695
975.395345,1850.514855,-1225.752797,5403.503377
975.395675,3034.844362,-1072.533697,6957.935855
975.396004,2738.761985,536.266849,8586.388927
975.396334,1110.308913,2145.067394,9474.636058
975.396663,-1036.288319,4060.306139,9844.739029
975.396993,-2072.576638,5209.449386,10807.006753
975.397323,-2516.700203,4443.353888,11251.130318
975.397652,-2294.638420,2374.896044,10732.986159
975.397982,-1998.556043,-459.657299,9252.574275
975.398311,-962.267725,-1608.800546,7920.203579
975.398641,296.082377,-2451.505594,7994.224174
975.398971,666.185348,-2987.772442,9474.636058
975.399300,-296.082377,-2068.457845,11547.212695
975.399630,-2738.761985,-153.219100,12731.542202
975.399959,-4589.276840,2451.505594,12953.603985
975.400289,-4885.359217,3907.087040,12583.501014
975.400619,-3849.070898,2604.724693,11547.212695
975.400948,-1924.535449,76.609550,9992.780217
975.401278,-296.082377,-1072.533697,7772.162391
975.401607,1554.432478,-2221.676944,6069.688724
975.401937,2146.597232,-1838.629195,5995.668130
975.402267,2072.576638,-919.314598,7772.162391
975.402596,592.164754,0.000000,10140.821405
975.402926,-1998.556043,612.876398,10362.883188
975.403255,-3775.050304,2604.724693,11029.068536
975.403585,-4219.173869,3600.648841,11177.109724
975.403914,-3330.926739,2221.676944,10955.047942
975.404244,-2368.659014,-536.266849,9770.718434
975.404574,-1480.411884,-1991.848295,8216.285956
975.404903,-740.205942,-1302.362347,6587.832884
975.405233,888.247130,-1072.533697,6957.935855
975.405562,1628.453072,-306.438199,8364.327145
975.405892,666.185348,-306.438199,9770.718434
975.406222,-1110.308913,536.266849,10362.883188
975.406551,-2738.761985,2987.772442,10881.027347
975.406881,-3256.906145,3830.477490,11695.253884
975.407210,-2960.823768,2757.943793,11991.336260
975.407540,-1850.514855,842.705048,10732.986159
975.407870,-740.205942,-612.876398,8956.491898
975.408199,814.226536,-689.485948,7328.038826
975.408529,2590.720797,-306.438199,7846.182985
975.408858,2664.741391,919.314598,9326.594869
975.409188,1406.391290,1225.752797,10658.965565
975.409517,-1258.350101,2528.115143,11103.089130
975.409847,-3404.947333,5362.668486,10658.965565
975.410177,-3108.864956,5056.230287,10658.965565
975.410506,-2368.659014,3524.039291,10140.821405
975.410836,-1258.350101,1455.581446,8956.491898
975.411165,-296.082377,-766.095498,7105.977043
975.411495,666.185348,-1378.971896,6069.688724
975.411825,1406.391290,153.219100,6957.935855
975.412154,1332.370696,1532.190996,9030.512492
975.412484,444.123565,1838.629195,10584.944971
975.412813,-1924.535449,3140.991542,11547.212695
975.413143,-3627.009116,4826.401637,11695.253884
975.413473,-3478.967927,4596.572988,11695.253884
975.413802,-3108.864956,3140.991542,11103.089130
975.414132,-2368.659014,1225.752797,9622.677246
975.414461,-1110.308913,-612.876398,7105.977043
975.414791,1110.308913,-919.314598,5847.626942
975.415120,2886.803174,-689.485948,6143.709319
975.415450,2886.803174,612.876398,7550.100608
975.415780,1184.329507,1072.533697,9326.594869
975.416109,-1702.473667,2604.724693,10288.862594
975.416439,-3627.009116,4903.011187,10807.006753
975.416768,-3552.988522,4673.182538,11325.150913
975.417098,-2664.741391,2451.505594,10510.924376
975.417428,-1332.370696,306.438199,9178.553681
975.417757,-444.123565,-2757.943793,7254.018232
975.418087,592.164754,-2987.772442,6883.915261
975.418416,1036.288319,-1991.848295,8660.409521
975.418746,222.061783,-459.657299,11399.171507
975.419076,-1554.432478,689.485948,12879.583391
975.419405,-3701.029710,1685.410096,12731.542202
975.419735,-3775.050304,2451.505594,12361.439231
975.420064,-2368.659014,1991.848295,11917.315666
975.420394,-1036.288319,459.657299,10955.047942
975.420723,-740.205942,-1072.533697,9030.512492
975.421053,74.020594,-2451.505594,7402.059420
975.421383,1110.308913,-1762.019645,6883.915261
975.421712,1850.514855,-919.314598,7624.121203
975.422042,1406.391290,-995.924147,9400.615463
975.422371,0.000000,-306.438199,10214.842000
975.422701,-2146.597232,1302.362347,11399.171507
975.423031,-3256.906145,3064.381992,11991.336260
975.423360,-3404.947333,2834.553343,11843.295072
975.423690,-3627.009116,1762.019645,10140.821405
975.424019,-3256.906145,153.219100,7402.059420
975.424349,-1776.494261,-1762.019645,4885.359217
975.424679,0.000000,-2451.505594,5477.523971
975.425008,888.247130,-2068.457845,8216.285956
975.425338,-370.102971,-153.219100,10066.800811
975.425667,-2516.700203,0.000000,10807.006753
975.425997,-3849.070898,1455.581446,11547.212695
975.426327,-4515.256246,2604.724693,11991.336260
975.426656,-3552.988522,1991.848295,12435.459826
975.426986,-1702.473667,1149.143247,11695.253884
975.427315,0.000000,-153.219100,9770.718434
975.427645,1110.308913,0.000000,7105.977043
975.427974,3034.844362,-153.219100,6957.935855
975.428304,4145.153275,536.266849,7624.121203
975.428634,3404.947333,2068.457845,8956.491898
975.428963,888.247130,2145.067394,9918.759623
975.429293,-1702.473667,4136.915689,10881.027347
975.429622,-2812.782580,5209.449386,11103.089130
975.429952,-3478.967927,3753.867940,11251.130318
975.430282,-3330.926739,2221.676944,10140.821405
975.430611,-2738.761985,0.000000,8882.471304
975.430941,-1480.411884,-1225.752797,7179.997637
975.431270,0.000000,153.219100,6883.915261
975.431600,814.226536,0.000000,7920.203579
975.431930,518.144159,689.485948,10140.821405
975.432259,-962.267725,1685.410096,11177.109724
975.432589,-3552.988522,4213.525239,11177.109724
975.432918,-4515.256246,5592.497135,10881.027347
975.433248,-3849.070898,4366.744339,11325.150913
975.433577,-2146.597232,3064.381992,10436.903782
975.433907,0.000000,229.828649,8216.285956
975.434237,2146.597232,-995.924147,5699.585753
975.434566,3849.070898,-689.485948,4885.359217
975.434896,3923.091493,536.266849,7105.977043
975.435225,2516.700203,2221.676944,9474.636058
975.435555,-592.164754,3907.087040,10658.965565
975.435885,-2664.741391,5132.839837,10584.944971
975.436214,-2812.782580,4519.963438,10955.047942
975.436544,-2072.576638,2834.553343,10214.842000
975.436873,-1702.473667,536.266849,9474.636058
975.437203,-1924.535449,-1762.019645,7994.224174
975.437533,-1554.432478,-2604.724693,6883.915261
975.437862,-1036.288319,-2145.067394,7698.141797
975.438192,0.000000,-1608.800546,9918.759623
975.438521,-592.164754,-1072.533697,11103.089130
975.438851,-2294.638420,-536.266849,11769.274478
975.439180,-3478.967927,2068.457845,11325.150913
975.439510,-3330.926739,2987.772442,11769.274478
975.439840,-2220.617826,1532.190996,11769.274478
975.440169,-1924.535449,612.876398,10955.047942
975.440499,-1332.370696,-995.924147,9400.615463
975.440828,444.123565,-2068.457845,7254.018232
975.441158,2146.597232,-1762.019645,7550.100608
975.441488,2738.761985,-1225.752797,9326.594869
975.441817,740.205942,-919.314598,9992.780217
975.442147,-1628.453072,0.000000,10955.047942
975.442476,-3997.112087,2911.162892,11029.068536
975.442806,-4663.297435,3294.210641,11547.212695
975.443136,-4145.153275,1608.800546,11473.192101
975.443465,-3330.926739,306.438199,9474.636058
975.443795,-1924.535449,-2298.286494,7328.038826
975.444124,74.020594,-2987.772442,5773.606348
975.444454,1480.411884,-1991.848295,6217.729913
975.444783,1332.370696,-995.924147,7994.224174
975.445113,-666.185348,0.000000,9992.780217
975.445443,-2738.761985,1455.581446,11473.192101
975.445772,-3923.091493,3677.258390,12139.377449
975.446102,-4293.194464,3983.696590,12435.459826
975.446431,-3701.029710,2374.896044,11843.295072
975.446761,-2664.741391,766.095498,10140.821405
975.447091,-1184.329507,-1225.752797,7698.141797
975.447420,592.164754,-1455.581446,6883.915261
975.447750,1924.535449,-612.876398,7328.038826
975.448079,1702.473667,383.047749,8512.368333
975.448409,592.164754,1455.581446,9548.656652
975.448739,-1258.350101,2681.334243,9844.739029
975.449068,-2590.720797,4366.744339,10362.883188
975.449398,-3034.844362,5056.230287,11177.109724
975.449727,-2812.782580,3370.820191,10881.027347
975.450057,-2294.638420,1838.629195,9474.636058
975.450387,-518.144159,306.438199,8216.285956
975.450716,1332.370696,-459.657299,7031.956449
975.451046,2368.659014,-536.266849,7402.059420
975.451375,2220.617826,536.266849,8956.491898
975.451705,666.185348,1455.581446,11103.089130
975.452034,-2368.659014,3217.601092,11621.233289
975.452364,-3849.070898,5362.668486,11917.315666
975.452694,-3404.947333,5056.230287,11843.295072
975.453023,-1850.514855,2911.162892,10807.006753
975.453353,-370.102971,689.485948,8586.388927
975.453682,518.144159,-1149.143247,6587.832884
975.454012,1628.453072,-1302.362347,5625.565159
975.454342,2072.576638,229.828649,7105.977043
975.454671,1332.370696,1149.143247,9548.656652
975.455001,-1110.308913,2451.505594,10288.862594
975.455330,-3182.885551,3524.039291,10362.883188
975.455660,-3330.926739,3907.087040,9770.718434
975.455990,-2516.700203,2604.724693,10066.800811
975.456319,-1628.453072,1608.800546,9844.739029
975.456649,-1258.350101,0.000000,8808.450710
975.456978,-888.247130,-1838.629195,7624.121203
975.457308,-444.123565,-1072.533697,7105.977043
975.457637,296.082377,-995.924147,8290.306550
975.457967,814.226536,-766.095498,10288.862594
975.458297,-222.061783,-153.219100,11177.109724
975.458626,-2146.597232,919.314598,11547.212695
975.458956,-2960.823768,2451.505594,11695.253884
975.459285,-2664.741391,2757.943793,11769.274478
975.459615,-2220.617826,1991.848295,11251.130318
975.459945,-1258.350101,0.000000,9918.759623
975.460274,222.061783,-1762.019645,7994.224174
975.460604,1998.556043,-2528.115143,7254.018232
975.460933,3108.864956,-2068.457845,9252.574275
975.461263,1554.432478,-689.485948,10214.842000
975.461593,-1036.288319,842.705048,11251.130318
975.461922,-4145.153275,2451.505594,11103.089130
975.462252,-5403.503377,4136.915689,10140.821405
975.462581,-4959.379811,2451.505594,9400.615463
975.462911,-3108.864956,-766.095498,9474.636058
975.463240,-2442.679609,-2221.676944,8882.471304
975.463570,-2220.617826,-2221.676944,7476.080014
975.463900,-962.267725,-1762.019645,7328.038826
975.464229,0.000000,-1302.362347,8142.265362
975.464559,0.000000,-536.266849,9992.780217
975.464888,-1184.329507,536.266849,11177.109724
975.465218,-2368.659014,1991.848295,11695.253884
975.465548,-2812.782580,3677.258390,11843.295072
975.465877,-2442.679609,3217.601092,11769.274478
975.466207,-1406.391290,1991.848295,10288.862594
975.466536,0.000000,153.219100,7994.224174
975.466866,1924.535449,-1685.410096,6069.688724
975.467196,3627.009116,-1072.533697,6439.791695
975.467525,3478.967927,536.266849,8512.368333
975.467855,1628.453072,919.314598,10140.821405
975.468184,-1184.329507,2911.162892,11103.089130
975.468514,-3923.091493,4290.134789,11177.109724
975.468843,-4737.318029,4903.011187,11843.295072
975.469173,-4441.235652,3370.820191,11177.109724
975.469503,-3849.070898,1149.143247,9400.615463
975.469832,-2664.741391,-306.438199,7550.100608
975.470162,-740.205942,-1762.019645,5995.668130
975.470491,1332.370696,-536.266849,6587.832884
975.470821,1776.494261,153.219100,8068.244768
975.471151,592.164754,766.095498,9474.636058
975.471480,-1554.432478,2987.772442,10510.924376
975.471810,-2812.782580,4673.182538,11843.295072
975.472139,-2664.741391,4979.620737,13027.624579
975.472469,-2072.576638,4060.306139,12583.501014
975.472799,-1554.432478,2068.457845,10066.800811
975.473128,74.020594,-612.876398,7624.121203
975.473458,2220.617826,-1608.800546,5921.647536
975.473787,3478.967927,-383.047749,6217.729913
975.474117,3552.988522,766.095498,7846.182985
975.474446,2368.659014,1532.190996,9104.533087
975.474776,-518.144159,3064.381992,9844.739029
975.475106,-2812.782580,4060.306139,10288.862594
975.475435,-4071.132681,4596.572988,11399.171507
975.475765,-4219.173869,3447.429741,11473.192101
975.476094,-3478.967927,1302.362347,10362.883188
975.476424,-2368.659014,-1838.629195,8438.347739
975.476754,-1110.308913,-2604.724693,6291.750507
975.477083,74.020594,-2834.553343,6735.874072
975.477413,370.102971,-2221.676944,8808.450710
975.477742,-296.082377,-459.657299,10881.027347
975.478072,-2590.720797,1685.410096,11473.192101
975.478402,-4441.235652,4060.306139,11399.171507
975.478731,-3330.926739,3064.381992,11843.295072
975.479061,-1702.473667,2068.457845,11473.192101
975.479390,-148.041188,766.095498,9918.759623
975.479720,1036.288319,-1455.581446,8290.306550
975.480050,2294.638420,-1991.848295,7031.956449
975.480379,2664.741391,-1532.190996,7402.059420
975.480709,2368.659014,-766.095498,9918.759623
975.481038,592.164754,459.657299,11843.295072
975.481368,-2368.659014,1838.629195,11991.336260
975.481697,-4219.173869,2681.334243,11399.171507
975.482027,-4071.132681,2834.553343,10955.047942
975.482357,-3330.926739,1532.190996,10436.903782
975.482686,-2294.638420,-995.924147,9104.533087
975.483016,-2146.597232,-2068.457845,6883.915261
975.483345,-962.267725,-1838.629195,5921.647536
975.483675,518.144159,-1532.190996,6587.832884
975.484005,592.164754,-536.266849,9104.533087
975.484334,-740.205942,689.485948,10066.800811
975.484664,-2886.803174,1378.971896,10436.903782
975.484993,-4145.153275,3217.601092,11177.109724
975.485323,-3997.112087,3140.991542,11843.295072
975.485653,-3330.926739,2145.067394,11621.233289
975.485982,-2516.700203,766.095498,10214.842000
975.486312,-888.247130,-995.924147,8068.244768
975.486641,1258.350101,-1838.629195,7105.977043
975.486971,2664.741391,-842.705048,7698.141797
975.487300,2738.761985,383.047749,8808.450710
975.487630,1110.308913,1225.752797,10066.800811
975.487960,-1998.556043,2528.115143,10658.965565
975.488289,-3775.050304,5209.449386,10807.006753
975.488619,-3182.885551,4443.353888,11029.068536
975.488948,-1924.535449,2451.505594,10288.862594
975.489278,-1110.308913,1149.143247,8438.347739
975.489607,0.000000,-1225.752797,6735.874072
975.489937,1406.391290,-2068.457845,6217.729913
975.490267,1702.473667,0.000000,7698.141797
975.490596,888.247130,1225.752797,9918.759623
975.490926,-962.267725,1455.581446,12139.377449
975.491255,-3404.947333,3217.601092,12139.377449
975.491585,-4441.235652,4290.134789,11843.295072
975.491914,-3404.947333,3294.210641,11843.295072
975.492244,-1776.494261,1915.238745,10584.944971
975.492574,-592.164754,0.000000,8438.347739
975.492903,444.123565,-1685.410096,6291.750507
975.493233,1924.535449,-919.314598,5181.441594
975.493562,3108.864956,0.000000,6809.894666
975.493892,3108.864956,689.485948,9474.636058
975.494222,962.267725,2528.115143,10214.842000
975.494551,-2220.617826,3600.648841,10510.924376
975.494881,-3404.947333,4290.134789,11103.089130
975.495210,-3478.967927,3830.477490,11769.274478
975.495540,-3034.844362,2451.505594,11399.171507
975.495869,-2146.597232,-612.876398,9474.636058
975.496199,-888.247130,-1915.238745,7179.997637
975.496529,518.144159,-1838.629195,6217.729913
975.496858,1998.556043,-1762.019645,7550.100608
975.497188,2072.576638,-689.485948,9326.594869
975.497517,-148.041188,1149.143247,10288.862594
975.497847,-2812.782580,3600.648841,10140.821405
975.498176,-3627.009116,4673.182538,11029.068536
975.498506,-2738.761985,3600.648841,11843.295072
975.498836,-2146.597232,1762.019645,11547.212695
975.499165,-1776.494261,-689.485948,9548.656652
975.499495,-666.185348,-2528.115143,8068.244768
975.499824,1110.308913,-2834.553343,7920.203579
975.500154,1406.391290,-1532.190996,9770.718434
975.500483,370.102971,-536.266849,10955.047942
975.500813,-814.226536,153.219100,11029.068536
975.501143,-1998.556043,2068.457845,10066.800811
975.501472,-2368.659014,4443.353888,10140.821405
975.501802,-1924.535449,3677.258390,9992.780217
975.502131,-1406.391290,2451.505594,8216.285956
975.502461,-962.267725,-153.219100,7031.956449
975.502791,-444.123565,-1915.238745,6809.894666
975.503120,444.123565,-919.314598,8142.265362
975.503450,148.041188,-459.657299,9918.759623
975.503779,-1184.329507,-919.314598,11547.212695
975.504109,-3256.906145,-383.047749,11769.274478
975.504438,-4441.235652,1072.533697,11991.336260
975.504768,-3997.112087,2451.505594,11843.295072
975.505098,-3108.864956,2068.457845,11399.171507
975.505427,-2072.576638,1838.629195,9474.636058
975.505757,0.000000,-383.047749,7476.080014
975.506086,1998.556043,-1915.238745,5773.606348
975.506416,3404.947333,0.000000,5625.565159
975.506745,3627.009116,766.095498,7624.121203
975.507075,2146.597232,1302.362347,9474.636058
975.507405,-1480.411884,2298.286494,10510.924376
975.507734,-4145.153275,3447.429741,11251.130318
975.508064,-4441.235652,3907.087040,11991.336260
975.508393,-3478.967927,3064.381992,12139.377449
975.508723,-3108.864956,995.924147,10732.986159
975.509052,-2442.679609,-689.485948,8364.327145
975.509382,-962.267725,-2221.676944,6661.853478
975.509712,1258.350101,-1225.752797,7105.977043
975.510041,2442.679609,459.657299,8882.471304
975.510371,740.205942,612.876398,10584.944971
975.510700,-1702.473667,1762.019645,10732.986159
975.511030,-3330.926739,3447.429741,10807.006753
975.511360,-3256.906145,3983.696590,11103.089130
975.511689,-2146.597232,2757.943793,11325.150913
975.512019,-1258.350101,1378.971896,9696.697840
975.512348,-222.061783,-536.266849,7920.203579
975.512678,1110.308913,-1072.533697,6809.894666
975.513007,2664.741391,-383.047749,7624.121203
975.513337,2368.659014,689.485948,9400.615463
975.513667,1406.391290,1455.581446,10362.883188
975.513996,-1480.411884,2681.334243,10658.965565
975.514326,-3182.885551,3753.867940,10807.006753
975.514655,-3552.988522,3600.648841,11399.171507
975.514985,-3849.070898,2911.162892,10658.965565
975.515314,-2886.803174,995.924147,8882.471304
975.515644,-1628.453072,-1455.581446,6883.915261
975.515974,444.123565,-2068.457845,5921.647536
975.516303,2072.576638,-1532.190996,6809.894666
975.516633,2072.576638,-229.828649,7920.203579
975.516962,1184.329507,766.095498,9474.636058
975.517292,-1258.350101,3217.601092,10288.862594
975.517621,-2738.761985,4213.525239,11547.212695
975.517951,-2886.803174,4060.306139,12361.439231
975.518281,-2590.720797,2604.724693,11991.336260
975.518610,-1850.514855,612.876398,10436.903782
975.518940,-296.082377,-1685.410096,8068.244768
975.519269,1110.308913,-2068.457845,7031.956449
975.519599,2294.638420,-1838.629195,7476.080014
975.519929,2220.617826,-1149.143247,8882.471304
975.520258,592.164754,383.047749,10436.903782
975.520588,-1702.473667,2604.724693,10658.965565
975.520917,-3849.070898,3983.696590,10510.924376
975.521247,-3182.885551,3600.648841,11029.068536
975.521576,-2294.638420,1915.238745,10584.944971
975.521906,-1406.391290,0.000000,9326.594869
975.522236,-962.267725,-2374.896044,7254.018232
975.522565,-148.041188,-2374.896044,6439.791695
975.522895,370.102971,-1608.800546,8216.285956
975.523224,592.164754,-1378.971896,10881.027347
975.523554,-1258.350101,229.828649,12287.418637
975.523883,-3330.926739,1762.019645,11991.336260
975.524213,-4145.153275,3294.210641,11769.274478
975.524543,-3627.009116,2757.943793,11843.295072
975.524872,-2516.700203,1838.629195,10955.047942
975.525202,-1406.391290,76.609550,8956.491898
975.525531,74.020594,-1378.971896,6883.915261
975.525861,1406.391290,-1072.533697,5773.606348
975.526190,2368.659014,-1072.533697,7105.977043
975.526520,2146.597232,-229.828649,8956.491898
975.526850,0.000000,842.705048,9918.759623
975.527179,-3034.844362,2221.676944,10732.986159
975.527509,-4293.194464,3983.696590,11547.212695
975.527838,-4515.256246,3524.039291,11621.233289
975.528168,-3404.947333,2068.457845,10807.006753
975.528498,-2146.597232,-229.828649,8734.430116
975.528827,-740.205942,-1685.410096,6513.812290
975.529157,1628.453072,-1225.752797,5773.606348
975.529486,2368.659014,-612.876398,6883.915261
975.529816,1406.391290,306.438199,9474.636058
975.530145,-518.144159,1685.410096,11029.068536
975.530475,-2738.761985,3064.381992,11769.274478
975.530805,-3775.050304,4136.915689,11843.295072
975.531134,-3404.947333,3217.601092,12287.418637
975.531464,-2590.720797,1838.629195,11399.171507
975.531793,-1332.370696,-459.657299,9844.739029
975.532123,-222.061783,-1225.752797,7328.038826
975.532452,1406.391290,-1455.581446,6735.874072
975.532782,2664.741391,-383.047749,8216.285956
975.533112,2294.638420,1302.362347,10140.821405
975.533441,592.164754,2298.286494,10658.965565
975.533771,-1924.535449,3370.820191,9992.780217
975.534100,-2590.720797,4903.011187,10584.944971
975.534430,-1776.494261,4596.572988,11251.130318
975.534759,-740.205942,2145.067394,9918.759623
975.535089,-296.082377,76.609550,7920.203579
975.535419,-370.102971,-612.876398,5699.585753
975.535748,1036.288319,-919.314598,6143.709319
975.536078,2072.576638,-383.047749,8438.347739
975.536407,1258.350101,766.095498,10658.965565
975.536737,-1406.391290,689.485948,11177.109724
975.537067,-3997.112087,2528.115143,11621.233289
975.537396,-4663.297435,3753.867940,12361.439231
975.537726,-4145.153275,3140.991542,12509.480420
975.538055,-2664.741391,1608.800546,10955.047942
975.538385,-1258.350101,-689.485948,8290.306550
975.538714,740.205942,-2068.457845,5921.647536
975.539044,2812.782580,-2068.457845,5847.626942
975.539374,3256.906145,-536.266849,7179.997637
975.539703,2368.659014,1532.190996,8364.327145
975.540033,-296.082377,2451.505594,8734.430116
975.540362,-3182.885551,3677.258390,9992.780217
975.540692,-4219.173869,4213.525239,11621.233289
975.541021,-3997.112087,3217.601092,12287.418637
975.541351,-3849.070898,995.924147,11251.130318
975.541681,-3330.926739,-2145.067394,8734.430116
975.542010,-1850.514855,-2757.943793,7550.100608
975.542340,0.000000,-2681.334243,7624.121203
975.542669,1406.391290,-2681.334243,9622.677246
975.542999,0.000000,-766.095498,11177.109724
975.543328,-2960.823768,1532.190996,11103.089130
975.543658,-4737.318029,3677.258390,11695.253884
975.543988,-4589.276840,3677.258390,11769.274478
975.544317,-3330.926739,2834.553343,10955.047942
975.544647,-2368.659014,536.266849,9326.594869
975.544976,-1480.411884,-2298.286494,7402.059420
975.545306,-518.144159,-1838.629195,6069.688724
975.545636,0.000000,-1532.190996,7254.018232
975.545965,148.041188,-459.657299,9326.594869
975.546295,-1332.370696,1532.190996,10658.965565
975.546624,-3478.967927,2068.457845,10955.047942
975.546954,-5329.482782,3140.991542,11325.150913
975.547283,-5847.626942,3524.039291,11769.274478
975.547613,-5773.606348,2911.162892,11695.253884
975.547943,-5403.503377,842.705048,10066.800811
975.548272,-4663.297435,-1685.410096,7994.224174
975.548602,-2664.741391,-2528.115143,6217.729913
975.548931,-888.247130,-2911.162892,5921.647536
975.549261,296.082377,-1225.752797,7254.018232
975.549590,740.205942,766.095498,7846.182985
975.549920,444.123565,1378.971896,9030.512492
975.550250,-814.226536,3830.477490,10288.862594
975.550579,-3330.926739,5132.839837,11917.315666
975.550909,-4663.297435,4136.915689,13249.686362
975.551238,-5625.565159,3677.258390,13323.706956
975.551568,-5847.626942,1685.410096,11473.192101
975.551897,-4367.215058,-689.485948,9030.512492
975.552227,-2368.659014,-2145.067394,6957.935855
975.552557,0.000000,-2451.505594,6587.832884
975.552886,962.267725,-1149.143247,7328.038826
975.553216,740.205942,1072.533697,7994.224174
975.553545,-1258.350101,3983.696590,8882.471304
975.553875,-4367.215058,5209.449386,10510.924376
975.554205,-6365.771101,5439.278036,12065.356855
975.554534,-8438.347739,4596.572988,12361.439231
975.554864,-8734.430116,2451.505594,11695.253884
975.555193,-7179.997637,-306.438199,9178.553681
975.555523,-5477.523971,-3294.210641,6883.915261
975.555852,-2442.679609,-4519.963438,6217.729913
975.556182,-1184.329507,-3753.867940,6587.832884
975.556512,0.000000,-689.485948,6735.874072
975.556841,888.247130,2757.943793,7698.141797
975.557171,592.164754,4979.620737,10288.862594
975.557500,-1406.391290,7584.345430,12731.542202
975.557830,-4737.318029,7201.297681,13175.665768
975.558159,-8068.244768,5056.230287,13027.624579
975.558489,-9548.656652,2604.724693,13027.624579
975.558819,-10066.800811,-612.876398,12435.459826
975.559148,-9252.574275,-4136.915689,10510.924376
975.559478,-7550.100608,-5592.497135,7105.977043
975.559807,-3997.112087,-6435.202183,4663.297435
975.560137,0.000000,-4519.963438,3923.091493
975.560466,2886.803174,-306.438199,4885.359217
975.560796,3404.947333,3600.648841,6883.915261
975.561126,2220.617826,6741.640382,8808.450710
975.561455,-518.144159,8503.660028,10881.027347
975.561785,-3108.864956,8427.050478,13471.748144
975.562114,-6143.709319,5056.230287,14285.974681
975.562444,-9326.594869,536.266849,14137.933492
975.562774,-11251.130318,-3217.601092,13545.768739
975.563103,-11769.274478,-6052.154434,12287.418637
975.563433,-11177.109724,-6435.202183,9548.656652
975.563762,-8438.347739,-6741.640382,6957.935855
975.564092,-4589.276840,-4749.792088,5551.544565
975.564421,-370.102971,-919.314598,5181.441594
975.564751,2590.720797,2068.457845,6291.750507
975.565081,3478.967927,5515.887586,7031.956449
975.565410,1998.556043,8656.879127,8216.285956
975.565740,-518.144159,8580.269578,10362.883188
975.566069,-3404.947333,6128.763984,12287.418637
975.566399,-6143.709319,2911.162892,11991.336260
975.566728,-8438.347739,-842.705048,11769.274478
975.567058,-9400.615463,-4290.134789,11103.089130
975.567388,-8660.409521,-6435.202183,10732.986159
975.567717,-6883.915261,-5745.716235,9474.636058
975.568047,-4663.297435,-3753.867940,7698.141797
975.568376,-2146.597232,-1225.752797,6883.915261
975.568706,592.164754,1762.019645,7846.182985
975.569035,1406.391290,4903.011187,9918.759623
975.569365,592.164754,7431.126331,10955.047942
975.569695,-1332.370696,7201.297681,11029.068536
975.570024,-3849.070898,4903.011187,11769.274478
975.570354,-5551.544565,2911.162892,12213.398043
975.570683,-6883.915261,612.876398,11251.130318
975.571013,-7402.059420,-2834.553343,8586.388927
975.571343,-6587.832884,-4673.182538,6291.750507
975.571672,-4663.297435,-4596.572988,5625.565159
975.572002,-3034.844362,-2145.067394,6957.935855
975.572331,-2220.617826,766.095498,7328.038826
975.572661,-1702.473667,3600.648841,8068.244768
975.572990,-1480.411884,6511.811733,9548.656652
975.573320,-1776.494261,8503.660028,10807.006753
975.573650,-2516.700203,6665.030833,11843.295072
975.573979,-4145.153275,3907.087040,12065.356855
975.574309,-5403.503377,2451.505594,12213.398043
975.574638,-6217.729913,1225.752797,11843.295072
975.574968,-6365.771101,-766.095498,10807.006753
975.575297,-5847.626942,-2451.505594,8882.471304
975.575627,-4811.338623,-1915.238745,7550.100608
975.575957,-2664.741391,0.000000,7328.038826
975.576286,-888.247130,1991.848295,7254.018232
975.576616,-666.185348,3983.696590,8068.244768
975.576945,-1184.329507,5898.935335,8882.471304
975.577275,-2146.597232,5515.887586,9178.553681
975.577604,-3034.844362,4903.011187,10288.862594
975.577934,-3923.091493,3064.381992,10955.047942
975.578264,-4145.153275,1915.238745,10362.883188
975.578593,-4219.173869,229.828649,9474.636058
975.578923,-3108.864956,-1302.362347,8734.430116
975.579252,-2442.679609,-1149.143247,8808.450710
975.579582,-1850.514855,919.314598,9030.512492
975.579912,-1702.473667,3370.820191,9474.636058
975.580241,-1924.535449,4903.011187,9696.697840
975.580571,-1850.514855,5592.497135,10658.965565
975.580900,-1554.432478,5669.106685,11029.068536
975.581230,-1628.453072,5362.668486,10955.047942
975.581559,-1776.494261,3753.867940,10214.842000
975.581889,-1776.494261,2145.067394,9918.759623
975.582219,-1480.411884,1302.362347,9400.615463
975.582548,-1110.308913,1302.362347,9030.512492
975.582878,-1628.453072,1532.190996,8808.450710
975.583207,-814.226536,2834.553343,9178.553681
975.583537,-444.123565,4596.572988,9844.739029
975.583866,-518.144159,5975.544884,10955.047942
975.584196,-1554.432478,7201.297681,10955.047942
975.584526,-2664.741391,7431.126331,10288.862594
975.584855,-3108.864956,6665.030833,9474.636058
975.585185,-3182.885551,5132.839837,8290.306550
975.585514,-2368.659014,2681.334243,7105.977043
975.585844,-740.205942,1302.362347,6143.709319
975.586173,-296.082377,459.657299,5625.565159
975.586503,-518.144159,1072.533697,6513.812290
975.586833,-888.247130,2604.724693,7920.203579
975.587162,-2072.576638,4749.792088,9326.594869
975.587492,-2220.617826,7048.078582,10288.862594
975.587821,-2590.720797,7124.688131,11177.109724
975.588151,-2294.638420,7124.688131,11473.192101
975.588481,-1480.411884,5898.935335,10807.006753
975.588810,-740.205942,5056.230287,10288.862594
975.589140,-518.144159,3447.429741,9770.718434
975.589469,-740.205942,2987.772442,9326.594869
975.589799,-814.226536,2757.943793,8808.450710
975.590129,-666.185348,2911.162892,8364.327145
975.590458,74.020594,3140.991542,8734.430116
975.590788,1036.288319,3217.601092,9178.553681
975.591118,370.102971,3524.039291,10066.800811
975.591447,-962.267725,4826.401637,10881.027347
975.591777,-2368.659014,5745.716235,11325.150913
975.592106,-2368.659014,5439.278036,11843.295072
975.592436,-1702.473667,4213.525239,11399.171507
975.592766,-1406.391290,3217.601092,10436.903782
975.593095,-1110.308913,2834.553343,9992.780217
975.593425,-962.267725,3600.648841,9622.677246
975.593755,-666.185348,4903.011187,9548.656652
975.594084,74.020594,5286.058936,9400.615463
975.594414,888.247130,5209.449386,7846.182985
975.594743,666.185348,4213.525239,6809.894666
975.595073,592.164754,2451.505594,6365.771101
975.595403,370.102971,1532.190996,7254.018232
975.595732,-1258.350101,1915.238745,8216.285956
975.596062,-2664.741391,2528.115143,9696.697840
975.596392,-3701.029710,2987.772442,10436.903782
975.596721,-3108.864956,3524.039291,11621.233289
975.597051,-2368.659014,4443.353888,11843.295072
975.597380,-1776.494261,4903.011187,10807.006753
975.597710,-962.267725,5362.668486,9400.615463
975.598040,666.185348,5975.544884,9400.615463
975.598369,1036.288319,6128.763984,9622.677246
975.598699,296.082377,6358.592633,8734.430116
975.599029,-814.226536,5209.449386,7476.080014
975.599358,-1850.514855,3370.820191,6587.832884
975.599688,-1850.514855,1685.410096,6661.853478
975.600017,-2368.659014,842.705048,7179.997637
975.600347,-2220.617826,-459.657299,7920.203579
975.600677,-2368.659014,-1072.533697,8734.430116
975.601006,-2368.659014,306.438199,10362.883188
975.601336,-1554.432478,3217.601092,12213.398043
975.601666,-1258.350101,5439.278036,13027.624579
975.601995,-740.205942,6665.030833,13175.665768
975.602325,-370.102971,7124.688131,12731.542202
975.602654,0.000000,6818.249932,11843.295072
975.602984,592.164754,5745.716235,10584.944971
975.603314,74.020594,4290.134789,9474.636058
975.603643,-296.082377,3600.648841,8290.306550
975.603973,-962.267725,2528.115143,7994.224174
975.604303,-1924.535449,2374.896044,7846.182985
975.604632,-2294.638420,2068.457845,7402.059420
975.604962,-1184.329507,1608.800546,7254.018232
975.605291,-740.205942,1225.752797,7254.018232
975.605621,0.000000,1991.848295,8142.265362
975.605951,0.000000,2528.115143,9474.636058
975.606280,-962.267725,4213.525239,10436.903782
975.606610,-2368.659014,6205.373534,11399.171507
975.606940,-2368.659014,6511.811733,11695.253884
975.607269,-2368.659014,5669.106685,12213.398043
975.607599,-2368.659014,5439.278036,11251.130318
975.607928,-2664.741391,4443.353888,8734.430116
975.608258,-1850.514855,3140.991542,6217.729913
975.608588,74.020594,1762.019645,4737.318029
975.608917,1628.453072,766.095498,4515.256246
975.609247,2368.659014,383.047749,5107.421000
975.609577,1850.514855,1072.533697,6587.832884
975.609906,444.123565,2374.896044,8956.491898
975.610236,-1480.411884,4290.134789,10807.006753
975.610565,-3404.947333,3907.087040,12583.501014
975.610895,-4145.153275,2987.772442,14804.118840
975.611225,-4219.173869,3447.429741,15618.345376
975.611554,-4663.297435,3447.429741,14211.954086
975.611884,-4145.153275,2451.505594,11621.233289
975.612213,-2590.720797,919.314598,7698.141797
975.612543,888.247130,-536.266849,5773.606348
975.612873,4293.194464,-1072.533697,5255.462188
975.613202,5403.503377,-153.219100,5403.503377
975.613532,4515.256246,1225.752797,6439.791695
975.613862,1702.473667,2451.505594,7994.224174
975.614191,-1628.453072,2911.162892,11621.233289
975.614521,-4367.215058,5209.449386,15322.262999
975.614850,-5773.606348,4903.011187,17024.736666
975.615180,-6439.791695,2987.772442,15174.221811
975.615510,-5995.668130,689.485948,11399.171507
975.615839,-3108.864956,-2604.724693,7772.162391
975.616169,370.102971,-4979.620737,5329.482782
975.616499,2072.576638,-4213.525239,4515.256246
975.616828,2072.576638,-995.924147,4663.297435
975.617158,1702.473667,1378.971896,4885.359217
975.617487,1036.288319,1378.971896,7105.977043
975.617817,-296.082377,2604.724693,10362.883188
975.618147,-2590.720797,3830.477490,13175.665768
975.618476,-4293.194464,3217.601092,13841.851115
975.618806,-4367.215058,2451.505594,13101.645173
975.619136,-3182.885551,306.438199,12435.459826
975.619465,-888.247130,-2068.457845,11251.130318
975.619795,666.185348,-2298.286494,9252.574275
975.620124,1406.391290,-1149.143247,7698.141797
975.620454,1406.391290,383.047749,7031.956449
975.620784,1258.350101,1455.581446,7105.977043
975.621113,888.247130,1915.238745,8068.244768
975.621443,-592.164754,1685.410096,8586.388927
975.621773,-2368.659014,2145.067394,9178.553681
975.622102,-3034.844362,842.705048,9844.739029
975.622432,-2738.761985,-689.485948,10807.006753
975.622761,-2590.720797,-1685.410096,11843.295072
975.623091,-2442.679609,-842.705048,11843.295072
975.623421,-1702.473667,306.438199,11325.150913
975.623750,-444.123565,1072.533697,10066.800811
975.624080,148.041188,1225.752797,9252.574275
975.624410,-222.061783,2681.334243,9400.615463
975.624739,-444.123565,3370.820191,9474.636058
975.625069,-814.226536,2681.334243,8882.471304
975.625398,-1036.288319,2374.896044,7550.100608
975.625728,-962.267725,842.705048,7254.018232
975.626058,0.000000,-842.705048,8364.327145
975.626387,148.041188,-1072.533697,9548.656652
975.626717,0.000000,2068.457845,10584.944971
975.627047,-444.123565,3064.381992,10362.883188
975.627376,-592.164754,2911.162892,11251.130318
975.627706,-888.247130,3677.258390,11695.253884
975.628035,-2072.576638,4060.306139,10288.862594
975.628365,-2072.576638,3217.601092,8364.327145
975.628695,-1554.432478,2451.505594,7105.977043
975.629024,-888.247130,306.438199,6587.832884
975.629354,0.000000,-689.485948,6957.935855
975.629684,-222.061783,-612.876398,7105.977043
975.630013,-962.267725,612.876398,8068.244768
975.630343,-1258.350101,2145.067394,9918.759623
975.630672,-1924.535449,2911.162892,11695.253884
975.631002,-3108.864956,3830.477490,13471.748144
975.631332,-3627.009116,4903.011187,12953.603985
975.631661,-3182.885551,4213.525239,11695.253884
975.631991,-1702.473667,2681.334243,9474.636058
975.632321,0.000000,0.000000,8216.285956
975.632650,1258.350101,-1378.971896,7105.977043
975.632980,2072.576638,-1532.190996,6513.812290
975.633309,1776.494261,153.219100,6439.791695
975.633639,814.226536,1149.143247,7994.224174
975.633969,222.061783,1915.238745,10288.862594
975.634298,-1184.329507,2681.334243,11843.295072
975.634628,-2368.659014,2604.724693,11769.274478
975.634958,-2516.700203,2298.286494,10881.027347
975.635287,-2146.597232,995.924147,10140.821405
975.635617,-1332.370696,-383.047749,10066.800811
975.635946,-370.102971,-1762.019645,9474.636058
975.636276,-296.082377,-2145.067394,8438.347739
975.636606,-962.267725,-383.047749,7328.038826
975.636935,-1406.391290,153.219100,7994.224174
975.637265,-1184.329507,383.047749,10288.862594
975.637594,-1628.453072,842.705048,11251.130318
975.637924,-2368.659014,1302.362347,10584.944971
975.638254,-2442.679609,459.657299,9326.594869
975.638583,-1850.514855,0.000000,9770.718434
975.638913,-1406.391290,-919.314598,9992.780217
975.639243,-74.020594,-1378.971896,10288.862594
975.639572,296.082377,-1149.143247,10066.800811
975.639902,296.082377,76.609550,9252.574275
975.640231,296.082377,0.000000,9474.636058
975.640561,74.020594,-306.438199,10066.800811
975.640891,-592.164754,919.314598,10436.903782
975.641220,-1258.350101,1685.410096,10362.883188
975.641550,-1776.494261,1302.362347,9104.533087
975.641880,-1184.329507,76.609550,8364.327145
975.642209,-518.144159,-1378.971896,8882.471304
975.642539,148.041188,-1532.190996,8882.471304
975.642868,0.000000,-1072.533697,8882.471304
975.643198,-592.164754,229.828649,9400.615463
975.643528,-1332.370696,1149.143247,10362.883188
975.643857,-2146.597232,995.924147,11843.295072
975.644187,-3108.864956,1838.629195,12583.501014
975.644517,-3701.029710,2451.505594,11473.192101
975.644846,-3108.864956,1608.800546,9326.594869
975.645176,-1480.411884,612.876398,8364.327145
975.645505,-148.041188,-1149.143247,7402.059420
975.645835,1036.288319,-1225.752797,7105.977043
975.646165,1036.288319,229.828649,7476.080014
975.646494,1110.308913,2374.896044,8586.388927
975.646824,592.164754,2451.505594,9844.739029
975.647154,-370.102971,2987.772442,11769.274478
975.647483,-1406.391290,3677.258390,12435.459826
975.647813,-2368.659014,3983.696590,11843.295072
975.648142,-2294.638420,2834.553343,9918.759623
975.648472,-1332.370696,1302.362347,8290.306550
975.648802,0.000000,-383.047749,7254.018232
975.649131,888.247130,-536.266849,7402.059420
975.649461,296.082377,1378.971896,7476.080014
975.649791,-370.102971,3064.381992,7476.080014
975.650120,-666.185348,2681.334243,8068.244768
975.650450,-1110.308913,2451.505594,9770.718434
975.650779,-2368.659014,3753.867940,10807.006753
975.651109,-3701.029710,4136.915689,10584.944971
975.651439,-3775.050304,2911.162892,9474.636058
975.651768,-3108.864956,1149.143247,8882.471304
975.652098,-1406.391290,-536.266849,9030.512492
975.652428,-592.164754,-1225.752797,8142.265362
975.652757,0.000000,612.876398,8512.368333
975.653087,0.000000,1991.848295,8586.388927
975.653416,74.020594,2298.286494,9400.615463
975.653746,-148.041188,2221.676944,10288.862594
975.654076,-888.247130,3447.429741,10955.047942
975.654405,-1554.432478,3447.429741,10214.842000
975.654735,-1480.411884,2451.505594,9178.553681
975.655065,-666.185348,229.828649,8290.306550
975.655394,444.123565,-2681.334243,8290.306550
975.655724,814.226536,-2374.896044,8586.388927
975.656053,148.041188,-689.485948,9030.512492
975.656383,-740.205942,306.438199,9474.636058
975.656713,-888.247130,-229.828649,10288.862594
975.657042,-1406.391290,-689.485948,11843.295072
975.657372,-2368.659014,842.705048,12361.439231
975.657702,-3034.844362,1762.019645,12139.377449
975.658031,-3034.844362,919.314598,9918.759623
975.658361,-1406.391290,-919.314598,9326.594869
975.658690,-148.041188,-3294.210641,9104.533087
975.659020,740.205942,-3370.820191,9178.553681
975.659350,370.102971,-919.314598,8956.491898
975.659679,-222.061783,-153.219100,9622.677246
975.660009,-518.144159,-153.219100,10288.862594
975.660338,-1332.370696,229.828649,11547.212695
975.660668,-1850.514855,459.657299,11843.295072
975.660998,-1924.535449,0.000000,10732.986159
975.661327,-1776.494261,-229.828649,9252.574275
975.661657,-1184.329507,-1225.752797,8586.388927
975.661987,148.041188,-3217.601092,8142.265362
975.662316,740.205942,-3217.601092,7994.224174
975.662646,666.185348,-229.828649,8290.306550
975.662975,1036.288319,1149.143247,8808.450710
975.663305,74.020594,1302.362347,9992.780217
975.663635,-1406.391290,1608.800546,11251.130318
975.663964,-3034.844362,1991.848295,11473.192101
975.664294,-3478.967927,1991.848295,10881.027347
975.664624,-2738.761985,1455.581446,9326.594869
975.664953,-1480.411884,-229.828649,8660.409521
975.665283,-370.102971,-2451.505594,8216.285956
975.665612,148.041188,-2374.896044,7846.182985
975.665942,296.082377,229.828649,8290.306550
975.666272,592.164754,2451.505594,9252.574275
975.666601,296.082377,3294.210641,10584.944971
975.666931,-740.205942,3907.087040,11399.171507
975.667261,-1406.391290,4060.306139,10881.027347
975.667590,-1258.350101,3294.210641,9992.780217
975.667920,-888.247130,2681.334243,9326.594869
975.668249,0.000000,1378.971896,8512.368333
975.668579,74.020594,-153.219100,8068.244768
975.668909,296.082377,-536.266849,7624.121203
975.669238,0.000000,766.095498,7772.162391
975.669568,-296.082377,2451.505594,8734.430116
975.669898,-962.267725,2681.334243,10066.800811
975.670227,-2146.597232,3983.696590,11399.171507
975.670557,-2886.803174,4443.353888,11251.130318
975.670886,-2664.741391,3907.087040,10066.800811
975.671216,-2220.617826,2834.553343,8808.450710
975.671546,-1110.308913,1072.533697,7920.203579
975.671875,-222.061783,-229.828649,8364.327145
975.672205,-222.061783,306.438199,8216.285956
975.672535,-518.144159,1685.410096,8438.347739
975.672864,-518.144159,1915.238745,9178.553681
975.673194,-1406.391290,2374.896044,10214.842000
975.673523,-2368.659014,2681.334243,10732.986159
975.673853,-2516.700203,2528.115143,10658.965565
975.674183,-2072.576638,1608.800546,9326.594869
975.674512,-1332.370696,995.924147,7698.141797
975.674842,0.000000,-919.314598,7846.182985
975.675172,1480.411884,-1991.848295,8068.244768
975.675501,1184.329507,-1225.752797,7920.203579
975.675831,296.082377,766.095498,8512.368333
975.676160,-296.082377,766.095498,9400.615463
975.676490,-814.226536,536.266849,11029.068536
975.676820,-1998.556043,995.924147,12139.377449
975.677149,-2886.803174,766.095498,11843.295072
975.677479,-3034.844362,306.438199,10140.821405
975.677809,-1776.494261,-995.924147,9178.553681
975.678138,-296.082377,-2757.943793,9104.533087
975.678468,518.144159,-3600.648841,9252.574275
975.678797,148.041188,-1455.581446,9252.574275
975.679127,-370.102971,76.609550,9400.615463
975.679457,-740.205942,229.828649,10214.842000
975.679786,-1332.370696,0.000000,11769.274478
975.680116,-2368.659014,229.828649,12287.418637
975.680446,-2812.782580,229.828649,11547.212695
975.680775,-3256.906145,-229.828649,9770.718434
975.681105,-2220.617826,-1225.752797,9104.533087
975.681434,-444.123565,-3140.991542,9030.512492
975.681764,666.185348,-3370.820191,8660.409521
975.682094,740.205942,-1072.533697,8438.347739
975.682423,814.226536,1149.143247,8142.265362
975.682753,1332.370696,1378.971896,9548.656652
975.683083,444.123565,2298.286494,11399.171507
975.683412,-888.247130,3064.381992,11917.315666
975.683742,-2516.700203,2604.724693,10732.986159
975.684071,-2664.741391,1225.752797,9178.553681
975.684401,-1924.535449,459.657299,8882.471304
975.684731,-888.247130,-1378.971896,8512.368333
975.685060,0.000000,-2298.286494,8142.265362
975.685390,-370.102971,-689.485948,7994.224174
975.685719,-888.247130,1685.410096,8438.347739
975.686049,-1110.308913,3753.867940,9400.615463
975.686379,-1332.370696,3677.258390,10807.006753
975.686708,-1924.535449,4136.915689,10807.006753
975.687038,-2368.659014,3907.087040,9696.697840
975.687368,-2072.576638,2911.162892,8512.368333
975.687697,-1332.370696,1762.019645,7402.059420
975.688027,-222.061783,0.000000,7772.162391
975.688356,444.123565,0.000000,8512.368333
975.688686,222.061783,2145.067394,8438.347739
975.689016,0.000000,3217.601092,8882.471304
975.689345,-518.144159,2451.505594,9622.677246
975.689675,-962.267725,3753.867940,11251.130318
975.690005,-1702.473667,4673.182538,11917.315666
975.690334,-2368.659014,4826.401637,11325.150913
975.690664,-2368.659014,4136.915689,9400.615463
975.690993,-1332.370696,2451.505594,7624.121203
975.691323,148.041188,-383.047749,7550.100608
975.691652,444.123565,-536.266849,8068.244768
975.691982,0.000000,1915.238745,8216.285956
975.692311,-962.267725,2528.115143,7846.182985
975.692641,-592.164754,2068.457845,9400.615463
975.692970,-1554.432478,2145.067394,11103.089130
975.693300,-2664.741391,3677.258390,11843.295072
975.693630,-3330.926739,3294.210641,10362.883188
975.693959,-2294.638420,1685.410096,9030.512492
975.694289,-1110.308913,0.000000,8364.327145
975.694618,148.041188,-1532.190996,8734.430116
975.694948,814.226536,-1915.238745,8512.368333
975.695277,740.205942,153.219100,8438.347739
975.695607,296.082377,1532.190996,8364.327145
975.695936,0.000000,1302.362347,9992.780217
975.696266,-814.226536,1072.533697,11769.274478
975.696595,-1850.514855,1991.848295,11621.233289
975.696925,-2886.803174,1838.629195,10732.986159
975.697255,-2516.700203,689.485948,9252.574275
975.697584,-962.267725,-1762.019645,8956.491898
975.697914,222.061783,-3753.867940,9104.533087
975.698243,0.000000,-2604.724693,9326.594869
975.698573,-666.185348,-689.485948,9326.594869
975.698902,-1110.308913,383.047749,9400.615463
975.699232,-962.267725,306.438199,11029.068536
975.699561,-1850.514855,459.657299,11843.295072
975.699891,-2590.720797,1225.752797,11695.253884
975.700220,-2886.803174,306.438199,10436.903782
975.700550,-2590.720797,-536.266849,9252.574275
975.700880,-1554.432478,-2068.457845,9252.574275
975.701209,-666.185348,-2911.162892,9400.615463
975.701539,-814.226536,-2987.772442,8882.471304
975.701868,-666.185348,-536.266849,8882.471304
975.702198,148.041188,1149.143247,9326.594869
975.702527,222.061783,995.924147,10584.944971
975.702857,-814.226536,383.047749,10881.027347
975.703186,-1924.535449,1225.752797,10955.047942
975.703516,-2664.741391,2374.896044,10658.965565
975.703845,-2146.597232,1991.848295,9844.739029
975.704175,-1184.329507,0.000000,8808.450710
975.704505,444.123565,-2221.676944,8290.306550
975.704834,1184.329507,-1685.410096,7920.203579
975.705164,1184.329507,1455.581446,8660.409521
975.705493,888.247130,2834.553343,9400.615463
975.705823,0.000000,3140.991542,10510.924376
975.706152,-1184.329507,4519.963438,11473.192101
975.706482,-2146.597232,4826.401637,11177.109724
975.706811,-2146.597232,3907.087040,9992.780217
975.707141,-2072.576638,3064.381992,8512.368333
975.707470,-1406.391290,1455.581446,7994.224174
975.707800,-962.267725,-306.438199,7476.080014
975.708130,-962.267725,383.047749,7476.080014
975.708459,-1406.391290,2757.943793,7920.203579
975.708789,-888.247130,3600.648841,8290.306550
975.709118,-1332.370696,3753.867940,9622.677246
975.709448,-2146.597232,4826.401637,10807.006753
975.709777,-2368.659014,4903.011187,10510.924376
975.710107,-2368.659014,5209.449386,9400.615463
975.710436,-1406.391290,4673.182538,8512.368333
975.710766,-740.205942,2681.334243,7698.141797
975.711095,666.185348,995.924147,7476.080014
975.711425,888.247130,536.266849,7624.121203
975.711754,888.247130,2681.334243,8290.306550
975.712084,-148.041188,3447.429741,9030.512492
975.712414,-962.267725,3370.820191,9918.759623
975.712743,-1850.514855,2757.943793,11399.171507
975.713073,-2664.741391,3217.601092,11621.233289
975.713402,-2738.761985,3370.820191,10214.842000
975.713732,-1924.535449,2068.457845,8956.491898
975.714061,-666.185348,0.000000,8142.265362
975.714391,74.020594,-1302.362347,8438.347739
975.714720,0.000000,-766.095498,8438.347739
975.715050,-518.144159,229.828649,8068.244768
975.715379,-1258.350101,536.266849,9252.574275
975.715709,-1184.329507,689.485948,11473.192101
975.716039,-2664.741391,1302.362347,12583.501014
975.716368,-3552.988522,1072.533697,11917.315666
975.716698,-3478.967927,153.219100,10436.903782
975.717027,-2220.617826,-1149.143247,9474.636058
975.717357,-444.123565,-2604.724693,9400.615463
975.717686,370.102971,-3064.381992,9252.574275
975.718016,74.020594,-1838.629195,8882.471304
975.718345,-148.041188,0.000000,8660.409521
975.718675,-296.082377,383.047749,9770.718434
975.719004,-296.082377,0.000000,10955.047942
975.719334,-1776.494261,229.828649,10584.944971
975.719664,-2442.679609,-689.485948,10066.800811
975.719993,-2442.679609,-1225.752797,9252.574275
975.720323,-2146.597232,-1915.238745,9178.553681
975.720652,-1480.411884,-2374.896044,9326.594869
975.720982,-962.267725,-2604.724693,8956.491898
975.721311,-888.247130,-1532.190996,8364.327145
975.721641,0.000000,0.000000,8660.409521
975.721970,370.102971,229.828649,9474.636058
975.722300,0.000000,612.876398,10510.924376
975.722629,-1332.370696,1838.629195,11325.150913
975.722959,-2738.761985,1608.800546,11103.089130
975.723289,-3182.885551,1455.581446,10807.006753
975.723618,-2738.761985,689.485948,10288.862594
975.723948,-1332.370696,-995.924147,9548.656652
975.724277,0.000000,-1685.410096,9178.553681
975.724607,370.102971,-536.266849,8068.244768
975.724936,814.226536,919.314598,8586.388927
975.725266,814.226536,2528.115143,9918.759623
975.725595,-148.041188,3907.087040,10436.903782
975.725925,-1184.329507,4290.134789,10658.965565
975.726254,-1702.473667,3600.648841,10732.986159
975.726584,-1554.432478,3217.601092,10066.800811
975.726914,-1480.411884,2681.334243,9030.512492
975.727243,-666.185348,995.924147,8290.306550
975.727573,0.000000,-306.438199,7920.203579
975.727902,-296.082377,229.828649,7698.141797
975.728232,-888.247130,2451.505594,8512.368333
975.728561,-1332.370696,3217.601092,9474.636058
975.728891,-2072.576638,3753.867940,10436.903782
975.729220,-2812.782580,4903.011187,10658.965565
975.729550,-3034.844362,4826.401637,9844.739029
975.729879,-2368.659014,4213.525239,8586.388927
975.730209,-1332.370696,2374.896044,7550.100608
975.730538,-222.061783,1302.362347,7846.182985
975.730868,74.020594,1225.752797,7772.162391
975.731198,74.020594,2451.505594,7846.182985
975.731527,0.000000,2834.553343,8882.471304
975.731857,-444.123565,3677.258390,9844.739029
975.732186,-1480.411884,3600.648841,10510.924376
975.732516,-2220.617826,3064.381992,10658.965565
975.732845,-2368.659014,2374.896044,10140.821405
975.733175,-2294.638420,2681.334243,8882.471304
975.733504,-1702.473667,1225.752797,8216.285956
975.733834,-296.082377,-1302.362347,7920.203579
975.734163,148.041188,-1838.629195,8142.265362
975.734493,-592.164754,76.609550,8438.347739
975.734823,-962.267725,1225.752797,9104.533087
975.735152,-740.205942,1072.533697,10362.883188
975.735482,-1776.494261,1225.752797,11621.233289
975.735811,-2664.741391,1608.800546,11917.315666
975.736141,-2590.720797,1072.533697,11473.192101
975.736470,-1850.514855,459.657299,10584.944971
975.736800,-740.205942,-229.828649,9548.656652
975.737129,74.020594,-2068.457845,8956.491898
975.737459,592.164754,-2298.286494,9030.512492
975.737788,740.205942,-612.876398,9474.636058
975.738118,370.102971,536.266849,9548.656652
975.738448,-222.061783,0.000000,9696.697840
975.738777,-1554.432478,-229.828649,10732.986159
975.739107,-2812.782580,153.219100,10881.027347
975.739436,-3108.864956,-459.657299,9918.759623
975.739766,-2886.803174,-1685.410096,8808.450710
975.740095,-1850.514855,-2604.724693,8142.265362
975.740425,-518.144159,-3677.258390,8216.285956
975.740754,-962.267725,-2834.553343,8734.430116
975.741084,-1110.308913,-689.485948,8438.347739
