#time,accel_x,accel_y,accel_z
812.558138,-1036.288319,919.314598,9474.636058
812.558468,-888.247130,919.314598,9548.656652
812.558797,-1110.308913,842.705048,9474.636058
812.559126,-1036.288319,1072.533697,9474.636058
812.559455,-962.267725,995.924147,9844.739029
812.559785,-1036.288319,919.314598,9548.656652
812.560114,-962.267725,919.314598,9474.636058
812.560443,-1036.288319,766.095498,9622.677246
812.560772,-1110.308913,995.924147,9622.677246
812.561101,-888.247130,919.314598,9918.759623
812.561431,-1110.308913,1149.143247,9548.656652
812.561760,-1110.308913,1072.533697,9622.677246
812.562089,-962.267725,995.924147,9548.656652
812.562418,-1258.350101,842.705048,9326.594869
812.562748,-1110.308913,995.924147,9474.636058
812.563077,-888.247130,842.705048,9474.636058
812.563406,-1036.288319,1149.143247,9548.656652
812.563735,-962.267725,995.924147,9474.636058
812.564065,-1036.288319,919.314598,9474.636058
812.564394,-1184.329507,612.876398,9622.677246
812.564723,-1184.329507,842.705048,9622.677246
812.565052,-962.267725,689.485948,9474.636058
812.565381,-1258.350101,842.705048,9474.636058
812.565711,-962.267725,919.314598,9474.636058
812.566040,-888.247130,919.314598,9326.594869
812.566369,-1406.391290,1225.752797,9104.533087
812.566698,-962.267725,919.314598,9474.636058
812.567028,-1036.288319,919.314598,9400.615463
812.567357,-1036.288319,919.314598,9474.636058
812.567686,-962.267725,1608.800546,9474.636058
812.568015,-1258.350101,1378.971896,9252.574275
812.568344,-962.267725,689.485948,9548.656652
812.568674,-1110.308913,995.924147,9548.656652
812.569003,-1110.308913,842.705048,9548.656652
812.569332,-888.247130,842.705048,9696.697840
812.569661,-962.267725,689.485948,9844.739029
812.569991,-962.267725,766.095498,9696.697840
812.570320,-1036.288319,842.705048,9548.656652
812.570649,-962.267725,1072.533697,9474.636058
812.570978,-1036.288319,1072.533697,9622.677246
812.571308,-740.205942,995.924147,9622.677246
812.571637,-666.185348,842.705048,9474.636058
812.571966,-814.226536,842.705048,9696.697840
812.572295,-888.247130,766.095498,9696.697840
812.572624,-1036.288319,919.314598,9622.677246
812.572954,-962.267725,1149.143247,9474.636058
812.573283,-814.226536,995.924147,9326.594869
812.573612,-1184.329507,1072.533697,9548.656652
812.573941,-962.267725,689.485948,9696.697840
812.574271,-1036.288319,919.314598,9548.656652
812.574600,-1036.288319,842.705048,9696.697840
812.574929,-1184.329507,1072.533697,9622.677246
812.575258,-1110.308913,995.924147,9252.574275
812.575587,-1036.288319,842.705048,9474.636058
812.575917,-814.226536,995.924147,9548.656652
812.576246,-1036.288319,995.924147,9326.594869
812.576575,-740.205942,1378.971896,9622.677246
812.576904,-962.267725,919.314598,9326.594869
812.577234,-1036.288319,689.485948,9696.697840
812.577563,-962.267725,995.924147,9474.636058
812.577892,-888.247130,919.314598,9622.677246
812.578221,-814.226536,459.657299,9918.759623
812.578551,-1184.329507,1302.362347,9252.574275
812.578880,-1036.288319,1072.533697,9474.636058
812.579209,-962.267725,919.314598,9622.677246
812.579538,-1036.288319,1149.143247,9474.636058
812.579867,-1036.288319,766.095498,9548.656652
812.580197,-1184.329507,842.705048,9696.697840
812.580526,-962.267725,919.314598,9770.718434
812.580855,-962.267725,842.705048,9474.636058
812.581184,-962.267725,842.705048,9400.615463
812.581514,-518.144159,995.924147,9030.512492
812.581843,296.082377,306.438199,9178.553681
812.582172,1036.288319,153.219100,8882.471304
812.582501,666.185348,459.657299,9178.553681
812.582830,518.144159,612.876398,9696.697840
812.583160,0.000000,1072.533697,10214.842000
812.583489,-740.205942,1225.752797,10881.027347
812.583818,-814.226536,766.095498,10436.903782
812.584147,-592.164754,306.438199,10140.821405
812.584477,0.000000,76.609550,9474.636058
812.584806,666.185348,0.000000,9252.574275
812.585135,1776.494261,153.219100,9178.553681
812.585464,2664.741391,536.266849,8364.327145
812.585794,3552.988522,1072.533697,8660.409521
812.586123,3552.988522,1455.581446,9178.553681
812.586452,3701.029710,1685.410096,9548.656652
812.586781,3552.988522,1685.410096,9770.718434
812.587110,2886.803174,1149.143247,9992.780217
812.587440,1776.494261,919.314598,10510.924376
812.587769,1184.329507,766.095498,10807.006753
812.588098,1332.370696,-229.828649,10807.006753
812.588427,1406.391290,-459.657299,10140.821405
812.588757,2220.617826,-612.876398,9104.533087
812.589086,3182.885551,-689.485948,8586.388927
812.589415,3701.029710,0.000000,9030.512492
812.589744,4219.173869,1225.752797,9474.636058
812.590073,3923.091493,2298.286494,9844.739029
812.590403,3108.864956,2604.724693,10214.842000
812.590732,2146.597232,3524.039291,10584.944971
812.591061,0.000000,2681.334243,10584.944971
812.591390,-2072.576638,2451.505594,10362.883188
812.591720,-2738.761985,1072.533697,9474.636058
812.592049,-2516.700203,-459.657299,8512.368333
812.592378,-1406.391290,-842.705048,6957.935855
812.592707,148.041188,-995.924147,5551.544565
812.593037,1924.535449,0.000000,5255.462188
812.593366,3330.926739,153.219100,6069.688724
812.593695,3552.988522,2221.676944,8216.285956
812.594024,2368.659014,4060.306139,10881.027347
812.594353,-296.082377,5209.449386,12583.501014
812.594683,-2368.659014,4749.792088,13619.789333
812.595012,-3997.112087,3140.991542,13101.645173
812.595341,-4367.215058,306.438199,12213.398043
812.595670,-3923.091493,-2374.896044,10955.047942
812.596000,-2590.720797,-3753.867940,9252.574275
812.596329,-1480.411884,-3907.087040,8364.327145
812.596658,0.000000,-2757.943793,8142.265362
812.596987,1258.350101,-766.095498,8068.244768
812.597316,2590.720797,1378.971896,7846.182985
812.597646,3701.029710,2604.724693,8068.244768
812.597975,3404.947333,3907.087040,8512.368333
812.598304,2516.700203,4673.182538,9918.759623
812.598633,1184.329507,4060.306139,11177.109724
812.598963,-962.267725,2834.553343,11695.253884
812.599292,-3182.885551,1685.410096,11695.253884
812.599621,-3923.091493,76.609550,10732.986159
812.599950,-3923.091493,-1532.190996,10214.842000
812.600280,-3404.947333,-2451.505594,9400.615463
812.600609,-2368.659014,-2681.334243,8660.409521
812.600938,-1332.370696,-1225.752797,8808.450710
812.601267,-370.102971,306.438199,8956.491898
812.601596,-962.267725,2451.505594,9696.697840
812.601926,-2146.597232,3753.867940,9918.759623
812.602255,-2146.597232,3294.210641,10214.842000
812.602584,-1850.514855,2221.676944,9474.636058
812.602913,-1110.308913,536.266849,8438.347739
812.603243,-222.061783,-766.095498,7328.038826
812.603572,1258.350101,-2068.457845,7105.977043
812.603901,2812.782580,-1838.629195,7105.977043
812.604230,3552.988522,0.000000,7698.141797
812.604559,4071.132681,1762.019645,8956.491898
812.604889,4293.194464,2987.772442,10510.924376
812.605218,3552.988522,4826.401637,11695.253884
812.605547,2072.576638,5209.449386,12509.480420
812.605876,148.041188,4519.963438,12879.583391
812.606206,-2072.576638,2911.162892,12657.521608
812.606535,-4293.194464,1532.190996,11917.315666
812.606864,-6217.729913,0.000000,10510.924376
812.607193,-6439.791695,-2451.505594,8438.347739
812.607523,-4885.359217,-4366.744339,6883.915261
812.607852,-3182.885551,-4673.182538,5033.400406
812.608181,-1628.453072,-2987.772442,4145.153275
812.608510,222.061783,-1762.019645,4737.318029
812.608839,592.164754,1225.752797,7179.997637
812.609169,148.041188,4596.572988,9400.615463
812.609498,-666.185348,6128.763984,11843.295072
812.609827,-1332.370696,5975.544884,13397.727550
812.610156,-1924.535449,5132.839837,14434.015869
812.610486,-3478.967927,2451.505594,14285.974681
812.610815,-4367.215058,0.000000,13545.768739
812.611144,-5107.421000,-1608.800546,11843.295072
812.611473,-4959.379811,-2451.505594,10436.903782
812.611802,-3701.029710,-2221.676944,8660.409521
812.612132,-1406.391290,-2221.676944,7179.997637
812.612461,1184.329507,-1072.533697,5477.523971
812.612790,3108.864956,306.438199,4589.276840
812.613119,4293.194464,2145.067394,5255.462188
812.613449,4663.297435,3447.429741,6883.915261
812.613778,3478.967927,3983.696590,9326.594869
812.614107,666.185348,4673.182538,11325.150913
812.614436,-1776.494261,4290.134789,12731.542202
812.614766,-3108.864956,2451.505594,13545.768739
812.615095,-4071.132681,306.438199,12213.398043
812.615424,-5033.400406,-919.314598,11029.068536
812.615753,-4737.318029,-2834.553343,10436.903782
812.616082,-4441.235652,-2451.505594,10214.842000
812.616412,-3701.029710,-459.657299,9474.636058
812.616741,-2294.638420,229.828649,8216.285956
812.617070,-518.144159,689.485948,6069.688724
812.617399,2220.617826,612.876398,5625.565159
812.617729,3775.050304,1149.143247,6365.771101
812.618058,4367.215058,1991.848295,7402.059420
812.618387,3404.947333,3447.429741,8364.327145
812.618716,2294.638420,3524.039291,9252.574275
812.619045,1554.432478,2451.505594,11399.171507
812.619375,814.226536,2145.067394,11991.336260
812.619704,-370.102971,1532.190996,11843.295072
812.620033,-1406.391290,383.047749,11547.212695
812.620362,-2220.617826,0.000000,11917.315666
812.620692,-3478.967927,76.609550,12139.377449
812.621021,-5033.400406,766.095498,11473.192101
812.621350,-4885.359217,229.828649,9622.677246
812.621679,-3330.926739,0.000000,8142.265362
812.622009,-1332.370696,-995.924147,7105.977043
812.622338,296.082377,-1149.143247,6883.915261
812.622667,962.267725,-459.657299,6809.894666
812.622996,1554.432478,1149.143247,7254.018232
812.623325,1258.350101,2834.553343,8660.409521
812.623655,1258.350101,2987.772442,10214.842000
812.623984,740.205942,2987.772442,11399.171507
812.624313,-740.205942,3217.601092,11399.171507
812.624642,-1628.453072,2145.067394,11547.212695
812.624972,-2442.679609,1072.533697,11917.315666
812.625301,-3849.070898,153.219100,11991.336260
812.625630,-5329.482782,76.609550,11251.130318
812.625959,-5255.462188,-383.047749,10214.842000
812.626288,-3701.029710,-766.095498,8438.347739
812.626618,-1628.453072,-1532.190996,7031.956449
812.626947,0.000000,-1378.971896,6365.771101
812.627276,740.205942,-229.828649,6069.688724
812.627605,1110.308913,2145.067394,6513.812290
812.627935,888.247130,3600.648841,7846.182985
812.628264,148.041188,4060.306139,9326.594869
812.628593,-1258.350101,3524.039291,10584.944971
812.628922,-2146.597232,2757.943793,11473.192101
812.629252,-2886.803174,1455.581446,11695.253884
812.629581,-3775.050304,0.000000,12065.356855
812.629910,-4589.276840,-995.924147,11843.295072
812.630239,-5033.400406,-1532.190996,10732.986159
812.630569,-4811.338623,-1608.800546,9622.677246
812.630898,-2516.700203,-1838.629195,8660.409521
812.631228,222.061783,-995.924147,7328.038826
812.631557,2368.659014,0.000000,7179.997637
812.631887,3552.988522,766.095498,7254.018232
812.632216,4515.256246,2221.676944,8068.244768
812.632546,4515.256246,3524.039291,9030.512492
812.632875,3997.112087,3753.867940,10288.862594
812.633205,1924.535449,3677.258390,11547.212695
812.633534,370.102971,3064.381992,12435.459826
812.633864,-962.267725,1378.971896,12139.377449
812.634193,-1924.535449,-383.047749,11769.274478
812.634523,-2738.761985,-1455.581446,11843.295072
812.634852,-4071.132681,-995.924147,11251.130318
812.635182,-4367.215058,-229.828649,10362.883188
812.635511,-3404.947333,-153.219100,8956.491898
812.635841,-1702.473667,0.000000,7254.018232
812.636170,148.041188,153.219100,6291.750507
812.636500,2072.576638,306.438199,6365.771101
812.636829,1702.473667,1225.752797,6957.935855
812.637159,1628.453072,2604.724693,7772.162391
812.637488,1036.288319,3294.210641,8882.471304
812.637818,-148.041188,3524.039291,9844.739029
812.638148,0.000000,2681.334243,10214.842000
812.638477,-370.102971,2145.067394,10584.944971
812.638807,-666.185348,612.876398,10732.986159
812.639136,-1702.473667,612.876398,10807.006753
812.639466,-3478.967927,1149.143247,11251.130318
812.639795,-4737.318029,1762.019645,11251.130318
812.640125,-4293.194464,1225.752797,10214.842000
812.640454,-2886.803174,0.000000,8956.491898
812.640784,-1332.370696,-919.314598,7698.141797
812.641113,0.000000,-689.485948,6809.894666
812.641443,1258.350101,-766.095498,6587.832884
812.641772,1924.535449,383.047749,7476.080014
812.642102,1110.308913,1685.410096,8882.471304
812.642431,222.061783,2834.553343,10362.883188
812.642761,-370.102971,2987.772442,11843.295072
812.643090,-1258.350101,2451.505594,12879.583391
812.643420,-1924.535449,2451.505594,12731.542202
812.643749,-2738.761985,1762.019645,11695.253884
812.644079,-4071.132681,0.000000,11177.109724
812.644408,-4515.256246,0.000000,10807.006753
812.644738,-4293.194464,-919.314598,9918.759623
812.645067,-2812.782580,-689.485948,8512.368333
812.645397,-1850.514855,-1608.800546,7105.977043
812.645726,-592.164754,-995.924147,5551.544565
812.646056,888.247130,-306.438199,5181.441594
812.646385,2220.617826,229.828649,6883.915261
812.646715,2294.638420,2528.115143,8586.388927
812.647044,888.247130,3370.820191,9252.574275
812.647374,-592.164754,3217.601092,10807.006753
812.647703,-1628.453072,2757.943793,11991.336260
812.648033,-2368.659014,1685.410096,12435.459826
812.648362,-3330.926739,229.828649,12583.501014
812.648692,-4145.153275,76.609550,11695.253884
812.649021,-5181.441594,-842.705048,10140.821405
812.649351,-4515.256246,-1762.019645,9252.574275
812.649680,-3182.885551,-2221.676944,8586.388927
812.650010,-1480.411884,-1455.581446,7105.977043
812.650339,444.123565,-383.047749,6217.729913
812.650669,2664.741391,229.828649,5921.647536
812.650998,3775.050304,919.314598,7105.977043
812.651328,3701.029710,2145.067394,8882.471304
812.651658,2664.741391,3294.210641,10955.047942
812.651987,1110.308913,4596.572988,11991.336260
812.652317,-148.041188,4060.306139,13027.624579
812.652646,-1110.308913,2221.676944,13175.665768
812.652976,-1998.556043,689.485948,12213.398043
812.653305,-2220.617826,-1302.362347,11103.089130
812.653635,-2516.700203,-1838.629195,10658.965565
812.653964,-3034.844362,-536.266849,10362.883188
812.654294,-3478.967927,-229.828649,9770.718434
812.654623,-2590.720797,0.000000,8216.285956
812.654953,-1332.370696,153.219100,6809.894666
812.655282,740.205942,0.000000,6291.750507
812.655612,2368.659014,612.876398,6661.853478
812.655941,2442.679609,2298.286494,8142.265362
812.656271,962.267725,3370.820191,9030.512492
812.656600,-222.061783,3753.867940,9548.656652
812.656930,-592.164754,3370.820191,10066.800811
812.657259,-444.123565,2681.334243,10066.800811
812.657589,-1036.288319,612.876398,10510.924376
812.657918,-2072.576638,612.876398,10732.986159
812.658248,-3404.947333,1072.533697,10658.965565
812.658577,-4589.276840,1608.800546,10510.924376
812.658907,-4737.318029,1072.533697,9770.718434
812.659236,-3701.029710,153.219100,8364.327145
812.659566,-1776.494261,-459.657299,7254.018232
812.659895,148.041188,-995.924147,6513.812290
812.660225,1480.411884,-536.266849,5921.647536
812.660554,2072.576638,0.000000,6809.894666
812.660884,1480.411884,1608.800546,7994.224174
812.661213,518.144159,3294.210641,10362.883188
812.661543,-296.082377,3753.867940,11843.295072
812.661872,-666.185348,2911.162892,12583.501014
812.662202,-1406.391290,1762.019645,12731.542202
812.662531,-2220.617826,153.219100,12435.459826
812.662861,-3182.885551,689.485948,11473.192101
812.663190,-3923.091493,0.000000,11103.089130
812.663520,-4145.153275,-842.705048,10584.944971
812.663849,-3478.967927,-842.705048,9474.636058
812.664179,-2516.700203,-1302.362347,8142.265362
812.664509,-740.205942,-1455.581446,7105.977043
812.664838,518.144159,-229.828649,6291.750507
812.665168,1776.494261,536.266849,6513.812290
812.665497,2220.617826,1838.629195,7772.162391
812.665827,1036.288319,2604.724693,9104.533087
812.666156,222.061783,2757.943793,10881.027347
812.666486,-888.247130,2604.724693,11843.295072
812.666815,-2516.700203,2145.067394,12213.398043
812.667145,-3552.988522,766.095498,12435.459826
812.667474,-4441.235652,-612.876398,11843.295072
812.667804,-4959.379811,-1302.362347,10584.944971
812.668133,-4293.194464,-995.924147,9104.533087
812.668463,-3478.967927,-1532.190996,8512.368333
812.668792,-1924.535449,-1378.971896,7550.100608
812.669122,0.000000,-459.657299,6883.915261
812.669451,1924.535449,306.438199,6291.750507
812.669781,3775.050304,766.095498,6809.894666
812.670110,3775.050304,2221.676944,8216.285956
812.670440,2664.741391,2911.162892,9992.780217
812.670769,1480.411884,3677.258390,11547.212695
812.671099,0.000000,3600.648841,12287.418637
812.671428,-740.205942,2681.334243,12361.439231
812.671758,-1850.514855,1149.143247,11843.295072
812.672087,-2516.700203,0.000000,11029.068536
812.672417,-2886.803174,-919.314598,10288.862594
812.672746,-2960.823768,-842.705048,9622.677246
812.673076,-2738.761985,153.219100,9474.636058
812.673405,-2368.659014,306.438199,8142.265362
812.673735,-1628.453072,459.657299,7476.080014
812.674064,0.000000,306.438199,6735.874072
812.674394,1554.432478,306.438199,7105.977043
812.674723,2072.576638,1608.800546,7846.182985
812.675053,1480.411884,2911.162892,8808.450710
812.675382,222.061783,3524.039291,9844.739029
812.675712,-518.144159,3447.429741,10510.924376
812.676041,-518.144159,2757.943793,10658.965565
812.676371,-888.247130,1991.848295,11177.109724
812.676700,-2146.597232,1225.752797,11103.089130
812.677030,-2960.823768,1149.143247,11177.109724
812.677360,-4367.215058,1302.362347,10658.965565
812.677689,-4737.318029,1149.143247,10436.903782
812.678019,-4145.153275,536.266849,9252.574275
812.678348,-2738.761985,-612.876398,7624.121203
812.678678,-592.164754,-995.924147,6735.874072
812.679007,740.205942,-1149.143247,6143.709319
812.679337,1998.556043,0.000000,6587.832884
812.679666,1776.494261,1378.971896,8290.306550
812.679996,1036.288319,2451.505594,9992.780217
812.680325,444.123565,3217.601092,11177.109724
812.680655,-296.082377,3370.820191,12139.377449
812.680984,-888.247130,2451.505594,12139.377449
812.681314,-1924.535449,919.314598,12139.377449
812.681643,-2664.741391,0.000000,11991.336260
812.681973,-3627.009116,76.609550,11473.192101
812.682302,-4293.194464,-766.095498,10732.986159
812.682632,-4145.153275,-1225.752797,9474.636058
812.682961,-3034.844362,-1608.800546,8068.244768
812.683291,-1258.350101,-1685.410096,7105.977043
812.683620,518.144159,-536.266849,5773.606348
812.683950,1480.411884,689.485948,5625.565159
812.684279,1776.494261,1685.410096,6809.894666
812.684609,1036.288319,2298.286494,8808.450710
812.684938,-148.041188,3140.991542,10510.924376
812.685268,-1628.453072,3447.429741,11843.295072
812.685597,-2516.700203,1915.238745,12361.439231
812.685927,-3330.926739,919.314598,12805.562797
812.686256,-4293.194464,-536.266849,12065.356855
812.686586,-4589.276840,-1149.143247,11325.150913
812.686915,-4515.256246,-1149.143247,9844.739029
812.687245,-3330.926739,-919.314598,8734.430116
812.687574,-1480.411884,-1455.581446,8216.285956
812.687904,0.000000,-689.485948,7402.059420
812.688233,1628.453072,766.095498,6957.935855
812.688563,3256.906145,1838.629195,7031.956449
812.688892,3849.070898,2528.115143,7328.038826
812.689222,3775.050304,3140.991542,9326.594869
812.689551,2368.659014,3524.039291,11029.068536
812.689881,592.164754,3907.087040,11991.336260
812.690210,-518.144159,2987.772442,12287.418637
812.690540,-1850.514855,2068.457845,11547.212695
812.690870,-2664.741391,229.828649,10658.965565
812.691199,-3330.926739,-919.314598,10362.883188
812.691529,-3330.926739,-842.705048,9992.780217
812.691858,-3330.926739,0.000000,9326.594869
812.692188,-2664.741391,76.609550,8364.327145
812.692517,-1998.556043,459.657299,7328.038826
812.692847,-592.164754,689.485948,6661.853478
812.693176,666.185348,689.485948,6735.874072
812.693506,1406.391290,1378.971896,7328.038826
812.693835,1554.432478,2145.067394,8142.265362
812.694165,666.185348,2374.896044,8586.388927
812.694494,222.061783,2834.553343,9992.780217
812.694824,-296.082377,2681.334243,10807.006753
812.695153,-592.164754,2528.115143,10732.986159
812.695483,-1036.288319,1378.971896,10955.047942
812.695812,-2294.638420,1302.362347,11177.109724
812.696142,-3330.926739,1072.533697,11029.068536
812.696471,-3997.112087,612.876398,10732.986159
812.696801,-3627.009116,383.047749,9844.739029
812.697130,-2738.761985,0.000000,8512.368333
812.697460,-1332.370696,-689.485948,7402.059420
812.697789,592.164754,-1149.143247,6809.894666
812.698119,1406.391290,-995.924147,6957.935855
812.698448,1406.391290,689.485948,8142.265362
812.698778,666.185348,1762.019645,9770.718434
812.699107,-296.082377,2604.724693,11177.109724
812.699437,-888.247130,2911.162892,12583.501014
812.699766,-1776.494261,2451.505594,13027.624579
812.700096,-2220.617826,1532.190996,11917.315666
812.700425,-2886.803174,0.000000,11251.130318
812.700755,-3478.967927,-995.924147,10955.047942
812.701084,-3849.070898,-689.485948,10658.965565
812.701414,-3552.988522,-842.705048,9400.615463
812.701743,-2368.659014,-1532.190996,8068.244768
812.702073,-1184.329507,-1149.143247,7402.059420
812.702402,592.164754,-306.438199,6883.915261
812.702732,1554.432478,536.266849,6809.894666
812.703061,1776.494261,1225.752797,6735.874072
812.703391,1554.432478,2681.334243,7994.224174
812.703721,518.144159,2987.772442,10066.800811
812.704050,-518.144159,2757.943793,11547.212695
812.704380,-2072.576638,2528.115143,12065.356855
812.704709,-3552.988522,1302.362347,11769.274478
812.705039,-4071.132681,76.609550,11769.274478
812.705368,-4515.256246,-612.876398,11103.089130
812.705698,-4885.359217,-689.485948,10140.821405
812.706027,-4145.153275,-1378.971896,8734.430116
812.706357,-2368.659014,-1378.971896,7698.141797
812.706686,-666.185348,-459.657299,6587.832884
812.707016,962.267725,0.000000,6439.791695
812.707345,2368.659014,842.705048,6661.853478
812.707675,3034.844362,1762.019645,7402.059420
812.708004,2812.782580,2681.334243,9400.615463
812.708334,2146.597232,3983.696590,11103.089130
812.708663,888.247130,3830.477490,12213.398043
812.708993,0.000000,2987.772442,12731.542202
812.709322,-1258.350101,2221.676944,12287.418637
812.709652,-2294.638420,919.314598,11621.233289
812.709981,-2442.679609,229.828649,10732.986159
812.710311,-2590.720797,229.828649,10140.821405
812.710640,-2664.741391,229.828649,9992.780217
812.710970,-2368.659014,153.219100,8956.491898
812.711299,-1998.556043,76.609550,7402.059420
812.711629,-888.247130,76.609550,6439.791695
812.711958,-370.102971,229.828649,6587.832884
812.712288,666.185348,1149.143247,7624.121203
812.712617,296.082377,2681.334243,8364.327145
812.712947,-296.082377,2681.334243,9030.512492
812.713276,-962.267725,2374.896044,9474.636058
812.713606,-1036.288319,2451.505594,9918.759623
812.713935,-888.247130,1991.848295,10658.965565
812.714265,-1554.432478,1455.581446,10955.047942
812.714594,-2516.700203,1072.533697,10881.027347
812.714924,-3552.988522,1378.971896,10658.965565
812.715253,-3552.988522,995.924147,10214.842000
812.715583,-3256.906145,1149.143247,9326.594869
812.715912,-1850.514855,0.000000,8364.327145
812.716242,-666.185348,-919.314598,7328.038826
812.716572,814.226536,-383.047749,6661.853478
812.716901,1332.370696,0.000000,6883.915261
812.717231,2146.597232,842.705048,8438.347739
812.717560,1406.391290,2068.457845,9474.636058
812.717890,296.082377,2604.724693,10658.965565
812.718219,-370.102971,2451.505594,11843.295072
812.718549,-1036.288319,1838.629195,12435.459826
812.718878,-1850.514855,1378.971896,12583.501014
812.719208,-3034.844362,76.609550,11695.253884
812.719537,-4071.132681,0.000000,11325.150913
812.719867,-4293.194464,-1072.533697,10436.903782
812.720196,-3627.009116,-1532.190996,9474.636058
812.720526,-2886.803174,-1302.362347,8956.491898
812.720855,-1554.432478,-1225.752797,7920.203579
812.721185,0.000000,-536.266849,6735.874072
812.721514,888.247130,306.438199,6365.771101
812.721844,1628.453072,1378.971896,7476.080014
812.722173,1406.391290,2528.115143,9030.512492
812.722503,592.164754,3753.867940,10214.842000
812.722832,-370.102971,2911.162892,11177.109724
812.723162,-1184.329507,2528.115143,12213.398043
812.723491,-2664.741391,1532.190996,12287.418637
812.723821,-3552.988522,76.609550,11917.315666
812.724150,-4071.132681,-229.828649,11177.109724
812.724480,-4367.215058,-766.095498,10066.800811
812.724809,-3701.029710,-766.095498,9030.512492
812.725139,-2368.659014,-1378.971896,8068.244768
812.725468,-444.123565,-842.705048,7105.977043
812.725798,1036.288319,0.000000,6365.771101
812.726127,2590.720797,1455.581446,6957.935855
812.726457,3404.947333,1915.238745,7846.182985
812.726786,2886.803174,3524.039291,9178.553681
812.727116,1776.494261,3830.477490,10510.924376
812.727445,814.226536,3753.867940,11325.150913
812.727775,0.000000,2987.772442,11769.274478
812.728104,-1036.288319,1915.238745,11843.295072
812.728434,-2294.638420,766.095498,11251.130318
812.728763,-3034.844362,0.000000,10732.986159
812.729093,-2960.823768,-153.219100,10066.800811
812.729423,-2516.700203,153.219100,9622.677246
812.729752,-2146.597232,-383.047749,8586.388927
812.730082,-1258.350101,229.828649,7846.182985
812.730411,-296.082377,306.438199,7105.977043
812.730741,888.247130,995.924147,6809.894666
812.731070,1702.473667,1455.581446,7994.224174
812.731400,1406.391290,2451.505594,9030.512492
812.731729,444.123565,2834.553343,9548.656652
812.732059,-444.123565,2987.772442,9918.759623
812.732388,-444.123565,2298.286494,10362.883188
812.732718,-592.164754,1915.238745,10955.047942
812.733047,-1184.329507,1302.362347,10955.047942
812.733377,-2738.761985,306.438199,11103.089130
812.733706,-3701.029710,1149.143247,11177.109724
812.734036,-4145.153275,1378.971896,10658.965565
812.734365,-3997.112087,919.314598,9548.656652
812.734695,-2738.761985,153.219100,8438.347739
812.735025,-1184.329507,-612.876398,7550.100608
812.735354,74.020594,-536.266849,6883.915261
812.735684,1258.350101,76.609550,6735.874072
812.736013,1850.514855,612.876398,7254.018232
812.736343,1628.453072,1302.362347,9104.533087
812.736672,592.164754,2451.505594,10214.842000
812.737002,370.102971,2911.162892,11769.274478
812.737332,-518.144159,2911.162892,12657.521608
812.737661,-1628.453072,2068.457845,12213.398043
812.737991,-2738.761985,842.705048,11621.233289
812.738320,-3552.988522,-842.705048,11177.109724
812.738650,-4367.215058,-612.876398,10658.965565
812.738979,-4219.173869,-1149.143247,9474.636058
812.739309,-3701.029710,-1685.410096,8290.306550
812.739638,-2516.700203,-1838.629195,7476.080014
812.739968,-1258.350101,-1378.971896,6809.894666
812.740298,-296.082377,-383.047749,6217.729913
812.740627,518.144159,536.266849,6439.791695
812.740957,592.164754,1838.629195,7920.203579
812.741286,444.123565,2451.505594,9622.677246
812.741616,-148.041188,2451.505594,11399.171507
812.741945,-888.247130,2834.553343,12583.501014
812.742275,-2294.638420,1762.019645,12435.459826
812.742604,-2960.823768,383.047749,11917.315666
812.742934,-3256.906145,-766.095498,11103.089130
812.743264,-2738.761985,-1149.143247,10362.883188
812.743593,-2220.617826,-1072.533697,9844.739029
812.743923,-1406.391290,-1225.752797,8586.388927
812.744252,222.061783,-1225.752797,7624.121203
812.744582,1406.391290,0.000000,7328.038826
812.744911,2590.720797,766.095498,7624.121203
812.745241,3478.967927,1762.019645,8364.327145
812.745571,2960.823768,2987.772442,9030.512492
812.745900,1924.535449,3447.429741,9770.718434
812.746230,740.205942,3600.648841,11251.130318
812.746559,-518.144159,2604.724693,11769.274478
812.746889,-1480.411884,1608.800546,11621.233289
812.747218,-2738.761985,842.705048,10732.986159
812.747548,-3478.967927,-229.828649,10732.986159
812.747877,-4071.132681,-383.047749,10066.800811
812.748207,-4145.153275,76.609550,9844.739029
812.748537,-3034.844362,76.609550,9030.512492
812.748866,-1776.494261,1225.752797,8290.306550
812.749196,-296.082377,459.657299,7179.997637
812.749525,444.123565,1072.533697,7105.977043
812.749855,1110.308913,1608.800546,7476.080014
812.750184,1258.350101,2221.676944,7994.224174
812.750514,1628.453072,3370.820191,8808.450710
812.750843,1184.329507,3524.039291,9400.615463
812.751173,740.205942,2681.334243,10288.862594
812.751503,148.041188,2528.115143,10288.862594
812.751832,-444.123565,1685.410096,10436.903782
812.752162,-1480.411884,995.924147,10807.006753
812.752491,-2960.823768,1532.190996,10881.027347
812.752821,-3775.050304,1608.800546,10881.027347
812.753150,-4071.132681,1072.533697,10584.944971
812.753480,-3330.926739,459.657299,9252.574275
812.753810,-2072.576638,-536.266849,7624.121203
812.754139,-518.144159,-689.485948,7031.956449
812.754469,666.185348,-383.047749,6883.915261
812.754798,814.226536,459.657299,7179.997637
812.755128,962.267725,1455.581446,8438.347739
812.755457,518.144159,2298.286494,9770.718434
812.755787,74.020594,2145.067394,10658.965565
812.756116,-592.164754,2451.505594,11769.274478
812.756446,-1776.494261,2145.067394,12657.521608
812.756776,-2516.700203,1302.362347,11991.336260
812.757105,-3034.844362,-153.219100,11251.130318
812.757435,-2886.803174,-306.438199,11177.109724
812.757764,-2738.761985,-1685.410096,9770.718434
812.758094,-2368.659014,-1685.410096,9178.553681
812.758423,-1628.453072,-1532.190996,7846.182985
812.758753,-592.164754,-995.924147,7254.018232
812.759082,592.164754,0.000000,6809.894666
812.759412,1332.370696,919.314598,6809.894666
812.759742,1776.494261,1532.190996,7698.141797
812.760071,1110.308913,2221.676944,8956.491898
812.760401,-222.061783,2221.676944,10214.842000
812.760730,-1406.391290,2221.676944,11695.253884
812.761060,-2516.700203,2068.457845,12657.521608
812.761389,-3923.091493,1072.533697,12287.418637
812.761719,-4885.359217,-383.047749,11843.295072
812.762048,-5107.421000,-919.314598,10881.027347
812.762378,-4515.256246,-1072.533697,9622.677246
812.762708,-2812.782580,-1532.190996,8438.347739
812.763037,-962.267725,-1532.190996,7624.121203
812.763367,518.144159,-229.828649,6587.832884
812.763696,2072.576638,383.047749,6661.853478
812.764026,3256.906145,1455.581446,7550.100608
812.764355,3404.947333,2604.724693,8956.491898
812.764685,2960.823768,3907.087040,10362.883188
812.765015,1480.411884,4136.915689,11325.150913
812.765344,518.144159,3140.991542,12065.356855
812.765674,-666.185348,2681.334243,12361.439231
812.766003,-1776.494261,1532.190996,11769.274478
812.766333,-2368.659014,306.438199,10955.047942
812.766662,-3034.844362,-459.657299,10066.800811
812.766992,-3330.926739,0.000000,9622.677246
812.767321,-2664.741391,-459.657299,9178.553681
812.767651,-2294.638420,229.828649,8216.285956
812.767981,-1332.370696,766.095498,7179.997637
812.768310,148.041188,536.266849,6439.791695
812.768640,1036.288319,919.314598,7179.997637
812.768969,1332.370696,2145.067394,8142.265362
812.769299,666.185348,3294.210641,9030.512492
812.769628,296.082377,3370.820191,9548.656652
812.769958,0.000000,2987.772442,9770.718434
812.770287,0.000000,2145.067394,10214.842000
812.770617,-962.267725,1149.143247,10510.924376
812.770947,-2294.638420,995.924147,10807.006753
812.771276,-3775.050304,1302.362347,11177.109724
812.771606,-4515.256246,1455.581446,11103.089130
812.771935,-4219.173869,1532.190996,10288.862594
812.772265,-3108.864956,-229.828649,9252.574275
812.772594,-1554.432478,-1149.143247,8142.265362
812.772924,-148.041188,-995.924147,7402.059420
812.773254,666.185348,-229.828649,6883.915261
812.773583,1110.308913,306.438199,7031.956449
812.773913,1184.329507,1685.410096,8364.327145
812.774242,962.267725,2451.505594,9770.718434
812.774572,592.164754,2451.505594,10881.027347
812.774901,0.000000,2298.286494,11843.295072
812.775231,-1110.308913,2221.676944,11843.295072
812.775560,-2368.659014,919.314598,11917.315666
812.775890,-3552.988522,76.609550,11843.295072
812.776220,-4145.153275,-306.438199,11103.089130
812.776549,-3997.112087,-995.924147,10436.903782
812.776879,-3256.906145,-842.705048,9030.512492
812.777208,-2738.761985,-1762.019645,7698.141797
812.777538,-1258.350101,-1685.410096,7254.018232
812.777867,0.000000,-612.876398,6809.894666
812.778197,740.205942,689.485948,7105.977043
812.778526,1258.350101,2145.067394,7772.162391
812.778856,592.164754,2757.943793,8512.368333
812.779186,0.000000,2681.334243,9622.677246
812.779515,-888.247130,2451.505594,11029.068536
812.779845,-1628.453072,2145.067394,11843.295072
812.780174,-2812.782580,1149.143247,12139.377449
812.780504,-4219.173869,76.609550,11695.253884
812.780833,-4811.338623,-383.047749,10881.027347
812.781163,-4589.276840,-689.485948,10214.842000
812.781493,-3404.947333,-995.924147,9104.533087
812.781822,-1406.391290,-1532.190996,7920.203579
812.782152,222.061783,-919.314598,7105.977043
812.782481,2368.659014,229.828649,6661.853478
812.782811,3034.844362,1225.752797,7476.080014
812.783140,3182.885551,2681.334243,8438.347739
812.783470,2664.741391,3907.087040,9622.677246
812.783799,1924.535449,3217.601092,10807.006753
812.784129,888.247130,3983.696590,11843.295072
812.784459,-518.144159,2757.943793,11843.295072
812.784788,-1332.370696,1685.410096,11473.192101
812.785118,-2368.659014,536.266849,11029.068536
812.785447,-3627.009116,0.000000,10288.862594
812.785777,-3552.988522,-612.876398,9548.656652
812.786106,-3404.947333,-229.828649,9252.574275
812.786436,-2442.679609,0.000000,8586.388927
812.786765,-1776.494261,153.219100,7476.080014
812.787095,-666.185348,306.438199,6735.874072
812.787425,888.247130,766.095498,7179.997637
812.787754,1406.391290,1225.752797,7698.141797
812.788084,666.185348,3140.991542,8808.450710
812.788413,370.102971,3600.648841,9548.656652
812.788743,296.082377,2911.162892,10066.800811
812.789072,148.041188,2298.286494,10066.800811
812.789402,148.041188,1838.629195,10584.944971
812.789732,-1258.350101,1225.752797,10881.027347
812.790061,-2442.679609,919.314598,11103.089130
812.790391,-3552.988522,1455.581446,11029.068536
812.790720,-3849.070898,1225.752797,10732.986159
812.791050,-3256.906145,0.000000,9474.636058
812.791379,-1850.514855,-766.095498,8216.285956
812.791709,-962.267725,-1072.533697,7402.059420
812.792038,74.020594,-766.095498,7328.038826
812.792368,592.164754,612.876398,7550.100608
812.792698,518.144159,1608.800546,8734.430116
812.793027,296.082377,2451.505594,9474.636058
812.793357,0.000000,2451.505594,10807.006753
812.793686,-148.041188,2221.676944,11621.233289
812.794016,-814.226536,1532.190996,12139.377449
812.794345,-1850.514855,995.924147,12065.356855
812.794675,-2960.823768,919.314598,11325.150913
812.795004,-3775.050304,-229.828649,11029.068536
812.795334,-3552.988522,-766.095498,10362.883188
812.795664,-2886.803174,-1072.533697,9400.615463
812.795993,-2072.576638,-1302.362347,8068.244768
812.796323,-1036.288319,-1302.362347,6735.874072
812.796652,518.144159,-995.924147,7105.977043
812.796982,1036.288319,383.047749,7031.956449
812.797311,1184.329507,1532.190996,7698.141797
812.797641,666.185348,2451.505594,8882.471304
812.797971,0.000000,3294.210641,9622.677246
812.798300,-518.144159,3217.601092,10955.047942
812.798630,-1554.432478,2221.676944,11547.212695
812.798959,-2886.803174,766.095498,11695.253884
812.799289,-3997.112087,-229.828649,11843.295072
812.799618,-4959.379811,76.609550,11029.068536
812.799948,-5107.421000,-306.438199,10510.924376
812.800277,-4219.173869,-766.095498,9474.636058
812.800607,-2442.679609,-1685.410096,8142.265362
812.800937,-370.102971,-995.924147,6883.915261
812.801266,1332.370696,0.000000,6883.915261
812.801596,3034.844362,995.924147,7254.018232
812.801925,2960.823768,2757.943793,8216.285956
812.802255,2368.659014,3370.820191,9474.636058
812.802584,1850.514855,3677.258390,10955.047942
812.802914,1184.329507,3447.429741,12139.377449
812.803243,0.000000,2987.772442,11843.295072
812.803573,-740.205942,2451.505594,11103.089130
812.803903,-1332.370696,153.219100,10288.862594
812.804232,-1998.556043,-842.705048,10140.821405
812.804562,-2664.741391,-306.438199,10288.862594
812.804891,-2960.823768,536.266849,9918.759623
812.805221,-2442.679609,1302.362347,9104.533087
812.805550,-1924.535449,536.266849,7772.162391
812.805880,-444.123565,459.657299,7254.018232
812.806210,370.102971,536.266849,7402.059420
812.806539,592.164754,1455.581446,7772.162391
812.806869,518.144159,2604.724693,8142.265362
812.807198,-592.164754,2374.896044,8660.409521
812.807528,-518.144159,2374.896044,10066.800811
812.807857,-740.205942,1915.238745,10288.862594
812.808187,-888.247130,1532.190996,10510.924376
812.808516,-1406.391290,1149.143247,10066.800811
812.808846,-2220.617826,766.095498,10807.006753
812.809176,-3108.864956,919.314598,10732.986159
812.809505,-3478.967927,1149.143247,10584.944971
812.809835,-3108.864956,766.095498,9918.759623
812.810164,-1850.514855,229.828649,8660.409521
812.810494,-444.123565,-536.266849,7698.141797
812.810823,888.247130,-1072.533697,7254.018232
812.811153,1480.411884,0.000000,7254.018232
812.811482,1628.453072,766.095498,8290.306550
812.811812,1110.308913,1915.238745,9474.636058
812.812142,296.082377,2068.457845,10436.903782
812.812471,-444.123565,2451.505594,11473.192101
812.812801,-1554.432478,1532.190996,11917.315666
812.813130,-2294.638420,1149.143247,12361.439231
812.813460,-3108.864956,306.438199,11991.336260
812.813789,-3997.112087,-459.657299,11103.089130
812.814119,-4589.276840,-1225.752797,10288.862594
812.814448,-3997.112087,-1455.581446,9770.718434
812.814778,-2442.679609,-1608.800546,8660.409521
812.815108,-1184.329507,-1608.800546,7624.121203
812.815437,0.000000,-306.438199,6513.812290
812.815767,888.247130,689.485948,6587.832884
812.816096,1406.391290,1685.410096,7254.018232
812.816426,1332.370696,2528.115143,8216.285956
812.816755,740.205942,2911.162892,9548.656652
812.817085,-296.082377,3064.381992,10807.006753
812.817415,-1258.350101,2757.943793,12213.398043
812.817744,-2368.659014,1149.143247,11843.295072
812.818074,-3775.050304,-153.219100,11695.253884
812.818403,-4811.338623,-536.266849,11399.171507
812.818733,-5255.462188,-383.047749,10658.965565
812.819062,-4367.215058,-689.485948,9252.574275
812.819392,-2664.741391,-1302.362347,7550.100608
812.819721,-740.205942,-1455.581446,6883.915261
812.820051,888.247130,-153.219100,6587.832884
812.820381,2146.597232,842.705048,7105.977043
812.820710,2664.741391,2528.115143,8068.244768
812.821040,2368.659014,3447.429741,9400.615463
812.821369,1776.494261,3677.258390,10732.986159
812.821699,1110.308913,3217.601092,11917.315666
812.822028,222.061783,2911.162892,12435.459826
812.822358,-888.247130,2221.676944,11991.336260
812.822687,-2146.597232,919.314598,10732.986159
812.823017,-2664.741391,0.000000,10214.842000
812.823347,-2368.659014,-306.438199,10362.883188
812.823676,-2590.720797,229.828649,10066.800811
812.824006,-2294.638420,1072.533697,9030.512492
812.824335,-1554.432478,459.657299,7772.162391
812.824665,-222.061783,229.828649,6513.812290
812.824994,592.164754,689.485948,6957.935855
812.825324,962.267725,1378.971896,7624.121203
812.825654,814.226536,2145.067394,8290.306550
812.825983,444.123565,2451.505594,8808.450710
812.826313,-370.102971,2145.067394,9178.553681
812.826642,-148.041188,1915.238745,10214.842000
812.826972,-296.082377,1302.362347,10584.944971
812.827301,-1184.329507,919.314598,10807.006753
812.827631,-2368.659014,1149.143247,10955.047942
812.827960,-3701.029710,1455.581446,10510.924376
812.828290,-3849.070898,842.705048,10658.965565
812.828620,-3330.926739,689.485948,9844.739029
812.828949,-2368.659014,76.609550,8438.347739
812.829279,-740.205942,-1072.533697,7402.059420
812.829608,370.102971,-1225.752797,7031.956449
812.829938,888.247130,-306.438199,7179.997637
812.830267,962.267725,536.266849,8216.285956
812.830597,740.205942,1685.410096,9252.574275
812.830926,444.123565,2528.115143,10584.944971
812.831256,-222.061783,2451.505594,11547.212695
812.831586,-1036.288319,1762.019645,11843.295072
812.831915,-1702.473667,842.705048,12435.459826
812.832245,-3108.864956,306.438199,11991.336260
812.832574,-4367.215058,-306.438199,11769.274478
812.832904,-4663.297435,-612.876398,11251.130318
812.833233,-4145.153275,-1838.629195,9918.759623
812.833563,-2516.700203,-1762.019645,8068.244768
812.833892,-1702.473667,-1838.629195,7328.038826
812.834222,0.000000,-1225.752797,7105.977043
812.834551,740.205942,0.000000,7031.956449
812.834881,814.226536,1762.019645,7105.977043
812.835210,370.102971,2451.505594,8216.285956
812.835540,370.102971,3064.381992,9474.636058
812.835869,-296.082377,3217.601092,10732.986159
812.836199,-1332.370696,2528.115143,11473.192101
812.836528,-2516.700203,1225.752797,11843.295072
812.836858,-3775.050304,536.266849,11547.212695
812.837187,-4663.297435,0.000000,10807.006753
812.837517,-4959.379811,-612.876398,10140.821405
812.837846,-3923.091493,-459.657299,9030.512492
812.838176,-2294.638420,-1072.533697,7624.121203
812.838506,0.000000,-995.924147,6883.915261
812.838835,1332.370696,76.609550,6735.874072
812.839165,2294.638420,1532.190996,7031.956449
812.839494,2812.782580,2681.334243,8290.306550
812.839824,2442.679609,3447.429741,9474.636058
812.840153,1924.535449,4519.963438,10807.006753
812.840483,888.247130,3217.601092,10955.047942
812.840812,444.123565,2298.286494,11621.233289
812.841142,-518.144159,1762.019645,11695.253884
812.841471,-1850.514855,689.485948,11251.130318
812.841801,-2590.720797,-459.657299,10510.924376
812.842130,-2664.741391,-306.438199,10732.986159
812.842460,-2886.803174,766.095498,10510.924376
812.842789,-2368.659014,995.924147,9474.636058
812.843119,-1036.288319,536.266849,8068.244768
812.843448,74.020594,306.438199,6957.935855
812.843778,1406.391290,995.924147,6513.812290
812.844107,1480.411884,1455.581446,7772.162391
812.844437,1184.329507,2374.896044,8808.450710
812.844766,0.000000,2911.162892,9474.636058
812.845096,-518.144159,2528.115143,10214.842000
812.845425,-296.082377,2221.676944,10732.986159
812.845755,-444.123565,1225.752797,10510.924376
812.846084,-1110.308913,536.266849,10955.047942
812.846414,-2368.659014,612.876398,10658.965565
812.846743,-3404.947333,995.924147,11029.068536
812.847073,-3997.112087,1149.143247,10881.027347
812.847402,-3108.864956,689.485948,10140.821405
812.847732,-2294.638420,459.657299,8660.409521
812.848061,-518.144159,-689.485948,7254.018232
812.848391,740.205942,-766.095498,6957.935855
812.848720,1332.370696,76.609550,7031.956449
812.849050,1258.350101,842.705048,7920.203579
812.849379,592.164754,1838.629195,9178.553681
812.849709,-296.082377,2757.943793,10510.924376
812.850038,-666.185348,2451.505594,11547.212695
812.850368,-1480.411884,1455.581446,12139.377449
812.850697,-2072.576638,612.876398,11695.253884
812.851027,-3330.926739,306.438199,11325.150913
812.851356,-4663.297435,-842.705048,10658.965565
812.851686,-4737.318029,-766.095498,10510.924376
812.852015,-4219.173869,-1455.581446,9844.739029
812.852345,-3108.864956,-2298.286494,8808.450710
812.852674,-1776.494261,-1762.019645,7328.038826
812.853004,0.000000,-1072.533697,7254.018232
812.853333,1036.288319,-383.047749,7105.977043
812.853663,1480.411884,1149.143247,7772.162391
812.853993,1850.514855,2451.505594,8586.388927
812.854322,1850.514855,2834.553343,10140.821405
812.854652,444.123565,3217.601092,11177.109724
812.854981,-370.102971,2681.334243,11843.295072
812.855311,-1406.391290,1378.971896,11843.295072
812.855640,-2664.741391,229.828649,11695.253884
812.855970,-3997.112087,76.609550,10658.965565
812.856299,-4515.256246,-612.876398,10510.924376
812.856629,-4071.132681,-536.266849,9622.677246
812.856958,-3108.864956,-766.095498,8438.347739
812.857288,-1776.494261,-1072.533697,7179.997637
812.857617,-74.020594,-229.828649,6957.935855
812.857947,1480.411884,1302.362347,7328.038826
812.858276,1924.535449,1685.410096,7772.162391
812.858606,1702.473667,3140.991542,8734.430116
812.858935,1258.350101,3907.087040,9918.759623
812.859265,592.164754,3677.258390,10881.027347
812.859594,666.185348,3294.210641,11843.295072
812.859924,-222.061783,2987.772442,11621.233289
812.860253,-1184.329507,1608.800546,10955.047942
812.860583,-1702.473667,306.438199,10362.883188
812.860912,-2072.576638,229.828649,10214.842000
812.861242,-2220.617826,766.095498,10066.800811
812.861571,-1702.473667,1302.362347,9326.594869
812.861901,-1406.391290,919.314598,7920.203579
812.862230,0.000000,459.657299,7105.977043
812.862560,1110.308913,536.266849,7105.977043
812.862889,1258.350101,842.705048,7254.018232
812.863219,1036.288319,2145.067394,8216.285956
812.863548,444.123565,2987.772442,9030.512492
812.863878,-444.123565,3140.991542,9770.718434
812.864207,-666.185348,2604.724693,10362.883188
812.864537,-814.226536,1838.629195,10807.006753
812.864866,-1628.453072,612.876398,10658.965565
812.865196,-2368.659014,1149.143247,10807.006753
812.865525,-3701.029710,612.876398,10362.883188
812.865855,-4515.256246,842.705048,10214.842000
812.866184,-3849.070898,383.047749,9918.759623
812.866514,-2590.720797,0.000000,9030.512492
812.866843,-1258.350101,-1149.143247,7698.141797
812.867173,0.000000,-919.314598,7476.080014
812.867502,962.267725,-689.485948,7328.038826
812.867832,1258.350101,459.657299,7772.162391
812.868161,1406.391290,1532.190996,8808.450710
812.868491,1258.350101,2604.724693,10362.883188
812.868821,296.082377,2374.896044,11251.130318
812.869150,-296.082377,1838.629195,12139.377449
812.869480,-1480.411884,919.314598,12361.439231
812.869809,-2590.720797,383.047749,12139.377449
812.870139,-3552.988522,0.000000,11695.253884
812.870468,-3923.091493,-919.314598,10881.027347
812.870798,-3849.070898,-1455.581446,10288.862594
812.871127,-2886.803174,-1532.190996,9400.615463
812.871457,-2072.576638,-1532.190996,7624.121203
812.871786,-740.205942,-459.657299,6587.832884
812.872116,296.082377,-383.047749,6069.688724
812.872445,1110.308913,383.047749,7328.038826
812.872775,518.144159,1915.238745,8438.347739
812.873104,-592.164754,2604.724693,9696.697840
812.873434,-1406.391290,2451.505594,11103.089130
812.873763,-2294.638420,1991.848295,11843.295072
812.874093,-2960.823768,1378.971896,12139.377449
812.874422,-3404.947333,-229.828649,11843.295072
812.874752,-3627.009116,-919.314598,10881.027347
812.875081,-3849.070898,0.000000,9696.697840
812.875411,-2812.782580,-612.876398,9178.553681
812.875740,-1850.514855,-612.876398,8438.347739
812.876070,-222.061783,-306.438199,7624.121203
812.876399,1332.370696,919.314598,7105.977043
812.876729,2590.720797,1838.629195,7254.018232
812.877058,3256.906145,2374.896044,8142.265362
812.877388,2886.803174,2911.162892,8734.430116
812.877717,1850.514855,3064.381992,9770.718434
812.878047,888.247130,3294.210641,11177.109724
812.878376,148.041188,2911.162892,11843.295072
812.878706,-888.247130,2451.505594,11399.171507
812.879035,-2294.638420,1455.581446,10881.027347
812.879365,-2590.720797,0.000000,10510.924376
812.879694,-2516.700203,0.000000,10658.965565
812.880024,-2886.803174,689.485948,10066.800811
812.880353,-2664.741391,1149.143247,9252.574275
812.880683,-1850.514855,612.876398,8068.244768
812.881012,-666.185348,612.876398,7105.977043
812.881342,518.144159,612.876398,6809.894666
812.881671,1258.350101,919.314598,7402.059420
812.882001,1110.308913,1762.019645,8142.265362
812.882330,370.102971,2451.505594,8734.430116
812.882660,0.000000,3140.991542,9252.574275
812.882989,0.000000,2604.724693,10362.883188
812.883319,-222.061783,2068.457845,10807.006753
812.883649,-888.247130,1378.971896,10732.986159
812.883978,-2072.576638,459.657299,11251.130318
812.884308,-3552.988522,919.314598,10955.047942
812.884637,-4219.173869,919.314598,11103.089130
812.884967,-4071.132681,612.876398,10066.800811
812.885296,-3404.947333,-383.047749,9030.512492
812.885626,-1702.473667,-1455.581446,7550.100608
812.885955,-148.041188,-2145.067394,6809.894666
812.886285,888.247130,-1149.143247,7031.956449
812.886614,962.267725,229.828649,7550.100608
812.886944,814.226536,1532.190996,8512.368333
812.887273,666.185348,2068.457845,9918.759623
812.887603,444.123565,2145.067394,11325.150913
812.887932,-592.164754,1838.629195,12435.459826
812.888262,-1776.494261,1532.190996,12805.562797
812.888591,-3108.864956,766.095498,12583.501014
812.888921,-3997.112087,0.000000,11917.315666
812.889250,-4145.153275,-689.485948,11103.089130
812.889580,-3849.070898,-1072.533697,10436.903782
812.889909,-3182.885551,-1532.190996,9178.553681
812.890239,-1924.535449,-1838.629195,7698.141797
812.890568,-740.205942,-919.314598,6661.853478
812.890898,592.164754,-153.219100,6291.750507
812.891227,1480.411884,306.438199,6809.894666
812.891557,1332.370696,2068.457845,8142.265362
812.891886,222.061783,2757.943793,8956.491898
812.892216,-444.123565,2757.943793,10436.903782
812.892545,-1258.350101,2681.334243,11843.295072
812.892875,-2146.597232,2145.067394,12065.356855
812.893204,-2738.761985,995.924147,11695.253884
812.893534,-3478.967927,-306.438199,11103.089130
812.893863,-3775.050304,0.000000,10140.821405
812.894193,-3478.967927,0.000000,9326.594869
812.894522,-2516.700203,-383.047749,8512.368333
812.894852,-1258.350101,-459.657299,7328.038826
812.895181,740.205942,229.828649,6809.894666
812.895511,2072.576638,1225.752797,7105.977043
812.895840,2516.700203,1915.238745,7698.141797
812.896170,2516.700203,2757.943793,8586.388927
812.896499,2220.617826,3217.601092,9474.636058
812.896829,1184.329507,3907.087040,10881.027347
812.897158,444.123565,3217.601092,11769.274478
812.897488,-592.164754,2681.334243,11843.295072
812.897817,-1702.473667,1685.410096,11251.130318
812.898147,-2442.679609,842.705048,10436.903782
812.898477,-2664.741391,0.000000,10436.903782
812.898806,-2960.823768,383.047749,10362.883188
812.899136,-2738.761985,766.095498,9548.656652
812.899465,-1998.556043,383.047749,8438.347739
812.899795,-370.102971,229.828649,7402.059420
812.900124,1110.308913,153.219100,7105.977043
812.900454,1702.473667,689.485948,7550.100608
812.900783,1406.391290,1838.629195,8438.347739
812.901113,666.185348,2987.772442,9178.553681
812.901442,74.020594,2987.772442,9844.739029
812.901772,0.000000,2757.943793,10658.965565
812.902101,-518.144159,1915.238745,10881.027347
812.902431,-1110.308913,1378.971896,10881.027347
812.902760,-2294.638420,459.657299,11103.089130
812.903090,-3478.967927,612.876398,10881.027347
812.903419,-4737.318029,689.485948,10658.965565
812.903749,-4589.276840,229.828649,9844.739029
812.904078,-3997.112087,229.828649,8882.471304
812.904408,-2516.700203,-383.047749,7031.956449
812.904737,-296.082377,-1072.533697,6217.729913
812.905067,1406.391290,-1302.362347,6439.791695
812.905396,1406.391290,-612.876398,7328.038826
812.905726,1332.370696,1225.752797,9400.615463
812.906055,444.123565,2145.067394,11029.068536
812.906385,-740.205942,2757.943793,11991.336260
812.906714,-1258.350101,2451.505594,12657.521608
812.907044,-1332.370696,995.924147,12583.501014
812.907373,-1258.350101,306.438199,11843.295072
812.907703,-2294.638420,-919.314598,10807.006753
812.908032,-3182.885551,-1072.533697,10214.842000
812.908362,-3404.947333,-842.705048,10140.821405
812.908691,-3256.906145,-459.657299,8956.491898
812.909021,-2516.700203,-766.095498,7920.203579
812.909350,-1332.370696,-612.876398,7254.018232
812.909680,296.082377,-459.657299,7105.977043
812.910009,962.267725,306.438199,7550.100608
812.910339,814.226536,1838.629195,8142.265362
812.910668,0.000000,2681.334243,8734.430116
812.910998,-444.123565,3064.381992,10362.883188
812.911327,-1332.370696,3217.601092,11547.212695
812.911657,-2072.576638,2451.505594,11843.295072
812.911986,-3034.844362,995.924147,11621.233289
812.912316,-3775.050304,383.047749,11103.089130
812.912645,-4367.215058,76.609550,10510.924376
812.912975,-3849.070898,-383.047749,9844.739029
812.913305,-2960.823768,-536.266849,8956.491898
812.913634,-1480.411884,-842.705048,7476.080014
812.913964,592.164754,-459.657299,6957.935855
812.914293,2146.597232,0.000000,6883.915261
812.914623,3256.906145,1455.581446,7402.059420
812.914952,3330.926739,2681.334243,8364.327145
812.915282,2812.782580,3524.039291,9474.636058
812.915611,2146.597232,4749.792088,10362.883188
812.915941,1184.329507,4136.915689,11399.171507
812.916270,-296.082377,2681.334243,11843.295072
812.916600,-1554.432478,1838.629195,11177.109724
812.916929,-2220.617826,153.219100,11029.068536
812.917259,-2590.720797,-536.266849,10955.047942
812.917588,-3478.967927,0.000000,10362.883188
812.917918,-3552.988522,153.219100,9548.656652
812.918247,-2664.741391,0.000000,8068.244768
812.918577,-1406.391290,-153.219100,7031.956449
812.918906,74.020594,153.219100,6957.935855
812.919236,1184.329507,1455.581446,7254.018232
812.919565,1036.288319,1915.238745,7550.100608
812.919895,296.082377,2451.505594,8586.388927
812.920224,0.000000,2604.724693,9548.656652
812.920554,-518.144159,2451.505594,10584.944971
812.920883,-592.164754,2451.505594,11177.109724
812.921213,-962.267725,1532.190996,10214.842000
812.921542,-1702.473667,536.266849,10732.986159
812.921872,-2590.720797,536.266849,11029.068536
812.922201,-3552.988522,689.485948,10807.006753
812.922531,-3701.029710,842.705048,10510.924376
812.922860,-2738.761985,229.828649,9400.615463
812.923190,-1850.514855,306.438199,8586.388927
812.923519,-962.267725,-536.266849,7254.018232
812.923849,148.041188,-766.095498,6809.894666
812.924178,666.185348,-612.876398,7105.977043
812.924508,814.226536,612.876398,8808.450710
812.924837,444.123565,1225.752797,9548.656652
812.925167,-592.164754,2374.896044,11399.171507
812.925496,-1332.370696,2145.067394,11843.295072
812.925826,-1850.514855,1685.410096,12435.459826
812.926155,-1850.514855,1455.581446,12065.356855
812.926485,-2738.761985,459.657299,11325.150913
812.926814,-3108.864956,0.000000,10436.903782
812.927144,-3182.885551,-612.876398,9992.780217
812.927473,-2886.803174,-689.485948,9400.615463
812.927803,-2072.576638,-766.095498,8364.327145
812.928133,-740.205942,-766.095498,7402.059420
812.928462,296.082377,-306.438199,7105.977043
812.928792,888.247130,689.485948,7105.977043
812.929121,1184.329507,1838.629195,7624.121203
812.929451,888.247130,2298.286494,8734.430116
812.929780,0.000000,3140.991542,9474.636058
812.930110,-962.267725,3140.991542,10658.965565
812.930439,-1776.494261,2374.896044,11695.253884
812.930768,-2738.761985,1455.581446,11843.295072
812.931098,-3701.029710,459.657299,11177.109724
812.931427,-4441.235652,0.000000,10362.883188
812.931756,-4293.194464,-383.047749,9474.636058
812.932086,-3552.988522,-689.485948,8586.388927
812.932415,-1924.535449,-1149.143247,7624.121203
812.932745,-222.061783,-689.485948,7179.997637
812.933074,1184.329507,536.266849,7254.018232
812.933403,2368.659014,919.314598,7550.100608
812.933733,2368.659014,2451.505594,8216.285956
812.934062,2442.679609,3370.820191,9696.697840
812.934391,1924.535449,3753.867940,10658.965565
812.934721,888.247130,3600.648841,11621.233289
812.935050,592.164754,3140.991542,11991.336260
812.935379,-296.082377,2298.286494,11103.089130
812.935709,-1258.350101,153.219100,10807.006753
812.936038,-2146.597232,-459.657299,10807.006753
812.936368,-2516.700203,0.000000,10807.006753
812.936697,-2738.761985,536.266849,10066.800811
812.937026,-2146.597232,1225.752797,8586.388927
812.937356,-740.205942,383.047749,7105.977043
812.937685,370.102971,76.609550,6883.915261
812.938014,888.247130,612.876398,7179.997637
812.938344,962.267725,1762.019645,8216.285956
812.938673,74.020594,2757.943793,8438.347739
812.939003,-740.205942,2604.724693,9252.574275
812.939332,-1036.288319,1991.848295,10362.883188
812.939661,-1110.308913,1455.581446,10436.903782
812.939991,-1554.432478,919.314598,10288.862594
812.940320,-1628.453072,459.657299,10881.027347
812.940649,-2516.700203,536.266849,10584.944971
812.940979,-3552.988522,842.705048,10881.027347
812.941308,-3997.112087,919.314598,10436.903782
812.941638,-3330.926739,612.876398,9474.636058
812.941967,-1924.535449,0.000000,8438.347739
812.942296,-296.082377,-536.266849,7105.977043
812.942626,592.164754,-1225.752797,7254.018232
812.942955,1036.288319,-536.266849,7772.162391
812.943284,1036.288319,536.266849,8734.430116
812.943614,740.205942,1532.190996,9696.697840
812.943943,296.082377,2145.067394,10807.006753
812.944272,-148.041188,1149.143247,11769.274478
812.944602,-1184.329507,1608.800546,11917.315666
812.944931,-1776.494261,919.314598,11843.295072
812.945261,-2960.823768,229.828649,11399.171507
812.945590,-3775.050304,-306.438199,10807.006753
812.945919,-4145.153275,-383.047749,10807.006753
812.946249,-3849.070898,-995.924147,9770.718434
812.946578,-3034.844362,-995.924147,8512.368333
812.946907,-1850.514855,-1225.752797,7402.059420
812.947237,-444.123565,-536.266849,7031.956449
812.947566,296.082377,-459.657299,6957.935855
812.947896,592.164754,1225.752797,7402.059420
812.948225,148.041188,2604.724693,8290.306550
812.948554,0.000000,2451.505594,9400.615463
812.948884,-518.144159,2604.724693,10881.027347
812.949213,-1184.329507,2068.457845,11325.150913
812.949542,-2294.638420,1838.629195,11843.295072
812.949872,-2960.823768,995.924147,11251.130318
812.950201,-3775.050304,229.828649,10807.006753
812.950531,-3849.070898,0.000000,10140.821405
812.950860,-3182.885551,-612.876398,9474.636058
812.951189,-1628.453072,-1225.752797,8216.285956
812.951519,0.000000,-459.657299,7328.038826
812.951848,814.226536,919.314598,7105.977043
812.952177,1924.535449,1302.362347,7254.018232
812.952507,2738.761985,2298.286494,8290.306550
812.952836,2442.679609,3217.601092,9178.553681
812.953165,1258.350101,4136.915689,10066.800811
812.953495,296.082377,3753.867940,10881.027347
812.953824,0.000000,2528.115143,11769.274478
812.954154,-1184.329507,1762.019645,11399.171507
812.954483,-1776.494261,306.438199,10807.006753
812.954812,-2368.659014,-612.876398,10584.944971
812.955142,-2886.803174,0.000000,10362.883188
812.955471,-2960.823768,229.828649,9474.636058
812.955800,-1924.535449,306.438199,8956.491898
812.956130,-740.205942,153.219100,7772.162391
812.956459,296.082377,229.828649,7031.956449
812.956789,1184.329507,1072.533697,7328.038826
812.957118,1258.350101,1608.800546,8142.265362
812.957447,1258.350101,2604.724693,9030.512492
812.957777,296.082377,2987.772442,8882.471304
812.958106,-444.123565,2451.505594,9474.636058
812.958435,-444.123565,2145.067394,10436.903782
812.958765,-1110.308913,1532.190996,10436.903782
812.959094,-1998.556043,536.266849,10436.903782
812.959424,-3330.926739,383.047749,10807.006753
812.959753,-4515.256246,1225.752797,10584.944971
812.960082,-4737.318029,842.705048,10362.883188
812.960412,-4515.256246,153.219100,9474.636058
812.960741,-2960.823768,-612.876398,8438.347739
812.961070,-1258.350101,-1225.752797,7476.080014
812.961400,518.144159,-1225.752797,7402.059420
812.961729,1036.288319,-1225.752797,7476.080014
812.962058,1036.288319,459.657299,8660.409521
812.962388,888.247130,1532.190996,9622.677246
812.962717,444.123565,2374.896044,10955.047942
812.963047,296.082377,2451.505594,11843.295072
812.963376,370.102971,2221.676944,12287.418637
812.963705,-370.102971,1149.143247,11917.315666
812.964035,-1628.453072,76.609550,11399.171507
812.964364,-2664.741391,-229.828649,10955.047942
812.964693,-3034.844362,-306.438199,10732.986159
812.965023,-3256.906145,-612.876398,9918.759623
812.965352,-2368.659014,-766.095498,8956.491898
812.965682,-1776.494261,-1149.143247,7254.018232
812.966011,-444.123565,-1378.971896,6957.935855
812.966340,0.000000,-306.438199,7328.038826
812.966670,-222.061783,1685.410096,7402.059420
812.966999,-962.267725,3140.991542,7994.224174
812.967328,-1184.329507,2451.505594,9252.574275
812.967658,-1332.370696,2451.505594,10584.944971
812.967987,-1850.514855,2221.676944,11473.192101
812.968317,-2590.720797,2068.457845,11769.274478
812.968646,-3627.009116,766.095498,11473.192101
812.968975,-4219.173869,459.657299,11029.068536
812.969305,-4219.173869,383.047749,10362.883188
812.969634,-3182.885551,153.219100,9474.636058
812.969963,-1332.370696,-536.266849,8364.327145
812.970293,814.226536,-306.438199,7254.018232
812.970622,1924.535449,842.705048,7179.997637
812.970951,2886.803174,1532.190996,7550.100608
812.971281,3330.926739,2451.505594,8290.306550
812.971610,2812.782580,3370.820191,9030.512492
812.971940,2294.638420,4213.525239,10066.800811
812.972269,1332.370696,3447.429741,10881.027347
812.972598,370.102971,2987.772442,11473.192101
812.972928,-814.226536,2068.457845,11251.130318
812.973257,-1850.514855,766.095498,11029.068536
812.973586,-2590.720797,-306.438199,10807.006753
812.973916,-3256.906145,0.000000,10658.965565
812.974245,-3627.009116,459.657299,10362.883188
812.974575,-3108.864956,229.828649,9030.512492
812.974904,-1702.473667,76.609550,7624.121203
812.975233,-370.102971,-153.219100,7105.977043
812.975563,814.226536,842.705048,6809.894666
812.975892,1332.370696,1225.752797,7550.100608
812.976221,740.205942,1838.629195,8216.285956
812.976551,148.041188,2681.334243,9104.533087
812.976880,-222.061783,2681.334243,9770.718434
812.977210,74.020594,2528.115143,10510.924376
812.977539,-148.041188,1532.190996,10214.842000
812.977868,-592.164754,612.876398,10436.903782
812.978198,-1776.494261,459.657299,11103.089130
812.978527,-3404.947333,919.314598,11177.109724
812.978856,-3923.091493,766.095498,11029.068536
812.979186,-3997.112087,-229.828649,10214.842000
812.979515,-2886.803174,0.000000,9400.615463
812.979844,-1332.370696,-536.266849,8216.285956
812.980174,0.000000,-919.314598,7402.059420
812.980503,592.164754,-842.705048,6809.894666
812.980833,814.226536,0.000000,7550.100608
812.981162,518.144159,1149.143247,9252.574275
812.981491,-148.041188,2451.505594,10510.924376
812.981821,-814.226536,2374.896044,11547.212695
812.982150,-1554.432478,1991.848295,12213.398043
812.982479,-1702.473667,1225.752797,11843.295072
812.982809,-2664.741391,229.828649,11917.315666
812.983138,-3923.091493,-153.219100,11177.109724
812.983468,-3775.050304,-689.485948,10510.924376
812.983797,-3404.947333,-1378.971896,9770.718434
812.984126,-2812.782580,-1302.362347,9104.533087
812.984456,-1628.453072,-842.705048,7328.038826
812.984785,-222.061783,-689.485948,6957.935855
812.985114,1036.288319,76.609550,7254.018232
812.985444,1332.370696,1685.410096,7994.224174
812.985773,1258.350101,2834.553343,8438.347739
812.986103,518.144159,2604.724693,8882.471304
812.986432,-444.123565,3140.991542,9992.780217
812.986761,-1110.308913,2987.772442,11103.089130
812.987091,-1924.535449,1838.629195,11251.130318
812.987420,-3182.885551,536.266849,11325.150913
812.987749,-4441.235652,76.609550,10436.903782
812.988079,-4959.379811,0.000000,9844.739029
812.988408,-4293.194464,-306.438199,9326.594869
812.988737,-2664.741391,-229.828649,8364.327145
812.989067,-814.226536,-612.876398,7254.018232
812.989396,518.144159,153.219100,6587.832884
812.989726,2516.700203,1149.143247,7179.997637
812.990055,2812.782580,2068.457845,8290.306550
812.990384,2516.700203,2911.162892,9178.553681
812.990714,1850.514855,3907.087040,9918.759623
812.991043,1184.329507,3217.601092,10955.047942
812.991372,814.226536,2834.553343,11843.295072
812.991702,-222.061783,1991.848295,11473.192101
812.992031,-1036.288319,612.876398,11251.130318
812.992361,-1924.535449,-459.657299,11177.109724
812.992690,-2516.700203,-306.438199,11251.130318
812.993019,-2812.782580,459.657299,10362.883188
812.993349,-2738.761985,306.438199,9400.615463
812.993678,-1554.432478,383.047749,8290.306550
812.994007,-222.061783,0.000000,7105.977043
812.994337,888.247130,153.219100,6883.915261
812.994666,1258.350101,842.705048,7476.080014
812.994996,814.226536,1762.019645,7994.224174
812.995325,0.000000,2451.505594,8956.491898
812.995654,-592.164754,2604.724693,9918.759623
812.995984,-666.185348,2298.286494,10436.903782
812.996313,-592.164754,1685.410096,10436.903782
812.996642,-1036.288319,1072.533697,10510.924376
812.996972,-2368.659014,536.266849,10732.986159
812.997301,-3108.864956,995.924147,11029.068536
812.997630,-4071.132681,1149.143247,10732.986159
812.997960,-3997.112087,689.485948,10066.800811
812.998289,-2960.823768,-153.219100,8882.471304
812.998619,-1776.494261,-612.876398,7328.038826
812.998948,0.000000,-1378.971896,7179.997637
812.999277,666.185348,-766.095498,7402.059420
812.999607,962.267725,306.438199,7920.203579
812.999936,592.164754,1532.190996,8808.450710
813.000265,296.082377,2298.286494,10214.842000
813.000595,-222.061783,2451.505594,11251.130318
813.000924,-740.205942,2298.286494,11917.315666
813.001254,-1184.329507,1532.190996,11843.295072
813.001583,-2220.617826,842.705048,11769.274478
813.001912,-3478.967927,536.266849,11103.089130
813.002242,-4219.173869,-536.266849,10732.986159
813.002571,-4219.173869,-919.314598,10362.883188
813.002900,-3552.988522,-842.705048,9400.615463
813.003230,-2368.659014,-1072.533697,7772.162391
813.003559,-518.144159,-1072.533697,7031.956449
813.003889,296.082377,-919.314598,6957.935855
813.004218,888.247130,766.095498,7402.059420
813.004547,814.226536,2145.067394,7772.162391
813.004877,518.144159,2681.334243,8956.491898
813.005206,-222.061783,2911.162892,10066.800811
813.005535,-666.185348,2911.162892,11029.068536
813.005865,-1702.473667,2145.067394,11621.233289
813.006194,-2812.782580,919.314598,11769.274478
813.006523,-3627.009116,229.828649,11251.130318
813.006853,-4145.153275,0.000000,10807.006753
813.007182,-3627.009116,459.657299,9696.697840
813.007512,-2664.741391,-536.266849,9104.533087
813.007841,-1184.329507,-842.705048,7846.182985
813.008170,222.061783,0.000000,7179.997637
813.008500,1776.494261,842.705048,7402.059420
813.008829,2516.700203,1838.629195,7994.224174
813.009158,2738.761985,2374.896044,8586.388927
813.009488,1924.535449,3294.210641,9400.615463
813.009817,1406.391290,3217.601092,10214.842000
813.010147,1036.288319,2681.334243,11103.089130
813.010476,0.000000,2221.676944,11399.171507
813.010805,-740.205942,1455.581446,11177.109724
813.011135,-1998.556043,0.000000,10881.027347
813.011464,-2368.659014,0.000000,11103.089130
813.011793,-2886.803174,612.876398,10510.924376
813.012123,-2812.782580,766.095498,9696.697840
813.012452,-1850.514855,306.438199,7846.182985
813.012782,-370.102971,76.609550,7105.977043
813.013111,370.102971,0.000000,7105.977043
813.013440,740.205942,612.876398,7698.141797
813.013770,296.082377,1762.019645,8290.306550
813.014099,-370.102971,2911.162892,8882.471304
813.014428,-814.226536,2987.772442,9104.533087
813.014758,-740.205942,2298.286494,10140.821405
813.015087,-666.185348,1455.581446,10510.924376
813.015416,-888.247130,1072.533697,10510.924376
813.015746,-2072.576638,1149.143247,10584.944971
813.016075,-3182.885551,1149.143247,10732.986159
813.016405,-3552.988522,1072.533697,10881.027347
813.016734,-3552.988522,919.314598,10584.944971
813.017063,-2960.823768,306.438199,9400.615463
813.017393,-1258.350101,-536.266849,7994.224174
813.017722,370.102971,-612.876398,7105.977043
813.018051,1258.350101,-536.266849,7105.977043
813.018381,1258.350101,0.000000,8068.244768
813.018710,1480.411884,1455.581446,8808.450710
813.019040,518.144159,2298.286494,10288.862594
813.019369,-222.061783,2374.896044,11399.171507
813.019698,-666.185348,2068.457845,11843.295072
813.020028,-1554.432478,1685.410096,12213.398043
813.020357,-2442.679609,919.314598,11769.274478
813.020686,-3552.988522,-153.219100,10955.047942
813.021016,-3775.050304,-995.924147,10584.944971
813.021345,-4367.215058,-689.485948,9548.656652
813.021675,-3404.947333,-995.924147,9104.533087
813.022004,-2294.638420,-995.924147,7846.182985
813.022333,-814.226536,-842.705048,7031.956449
813.022663,296.082377,-459.657299,6735.874072
813.022992,1184.329507,995.924147,6957.935855
813.023321,1110.308913,2221.676944,7624.121203
813.023651,592.164754,2911.162892,8956.491898
813.023980,-148.041188,3677.258390,10436.903782
813.024309,-962.267725,3140.991542,11325.150913
813.024639,-1702.473667,2374.896044,11621.233289
813.024968,-2220.617826,842.705048,11325.150913
813.025298,-3256.906145,-229.828649,11473.192101
813.025627,-3997.112087,0.000000,10807.006753
813.025956,-4145.153275,-229.828649,9770.718434
813.026286,-2664.741391,0.000000,9178.553681
813.026615,-888.247130,-919.314598,7476.080014
813.026944,370.102971,-383.047749,7031.956449
813.027274,1480.411884,229.828649,7179.997637
813.027603,2368.659014,1455.581446,7846.182985
813.027933,2220.617826,2757.943793,8660.409521
813.028262,1924.535449,3677.258390,9548.656652
813.028591,1258.350101,3217.601092,10584.944971
813.028921,592.164754,2604.724693,11473.192101
813.029250,-148.041188,2145.067394,11695.253884
813.029579,-962.267725,1378.971896,11473.192101
813.029909,-1480.411884,306.438199,10955.047942
813.030238,-2368.659014,0.000000,10436.903782
813.030568,-2442.679609,229.828649,10214.842000
813.030897,-2294.638420,689.485948,9622.677246
813.031226,-1554.432478,842.705048,8512.368333
813.031556,-592.164754,536.266849,7179.997637
813.031885,444.123565,229.828649,7031.956449
813.032214,888.247130,612.876398,7328.038826
813.032544,592.164754,1225.752797,7920.203579
813.032873,74.020594,1915.238745,8660.409521
813.033202,-518.144159,2298.286494,9252.574275
813.033531,-444.123565,2068.457845,10140.821405
813.033861,-740.205942,1762.019645,10140.821405
813.034190,-962.267725,1225.752797,10732.986159
813.034519,-1924.535449,919.314598,10881.027347
813.034848,-3108.864956,1149.143247,11103.089130
813.035178,-3923.091493,1455.581446,10658.965565
813.035507,-4293.194464,1455.581446,10436.903782
813.035836,-3108.864956,229.828649,9030.512492
813.036165,-1850.514855,0.000000,7920.203579
813.036495,-296.082377,-383.047749,7105.977043
813.036824,888.247130,-766.095498,6735.874072
813.037153,1184.329507,0.000000,7624.121203
813.037482,666.185348,995.924147,9104.533087
813.037812,0.000000,2221.676944,10584.944971
813.038141,-592.164754,2528.115143,11547.212695
813.038470,-962.267725,2451.505594,12213.398043
813.038799,-962.267725,1915.238745,12139.377449
813.039129,-1702.473667,612.876398,11695.253884
813.039458,-2664.741391,0.000000,11029.068536
813.039787,-3330.926739,-459.657299,10658.965565
813.040116,-3701.029710,-306.438199,10066.800811
813.040446,-3256.906145,-612.876398,9326.594869
813.040775,-2442.679609,-229.828649,7994.224174
813.041104,-1258.350101,-612.876398,7105.977043
813.041433,0.000000,-536.266849,6883.915261
813.041763,740.205942,0.000000,7402.059420
813.042092,666.185348,1378.971896,8364.327145
813.042421,0.000000,2681.334243,9252.574275
813.042750,-1036.288319,3140.991542,9918.759623
813.043080,-1554.432478,2681.334243,10658.965565
813.043409,-1702.473667,1685.410096,11103.089130
813.043738,-2072.576638,766.095498,11103.089130
813.044067,-2812.782580,0.000000,10807.006753
813.044397,-3701.029710,306.438199,10214.842000
813.044726,-3627.009116,459.657299,9770.718434
813.045055,-2886.803174,0.000000,8808.450710
813.045384,-1258.350101,0.000000,8142.265362
813.045714,666.185348,0.000000,7698.141797
813.046043,1998.556043,1072.533697,7105.977043
813.046372,2886.803174,1149.143247,7772.162391
813.046701,2886.803174,2221.676944,8586.388927
813.047031,2220.617826,2757.943793,9548.656652
813.047360,1110.308913,2604.724693,10510.924376
813.047689,666.185348,3217.601092,11769.274478
813.048018,0.000000,2298.286494,11843.295072
813.048348,-740.205942,842.705048,11547.212695
813.048677,-1776.494261,-306.438199,11325.150913
813.049006,-2368.659014,-459.657299,11103.089130
813.049335,-2368.659014,-306.438199,10807.006753
813.049665,-2294.638420,766.095498,9548.656652
813.049994,-1480.411884,229.828649,7994.224174
813.050323,-148.041188,0.000000,7179.997637
813.050652,592.164754,153.219100,7105.977043
813.050982,1036.288319,995.924147,7476.080014
813.051311,296.082377,1378.971896,7772.162391
813.051640,-222.061783,2298.286494,8808.450710
813.051969,-740.205942,2145.067394,9696.697840
813.052299,-1184.329507,1915.238745,10140.821405
813.052628,-1036.288319,1532.190996,10510.924376
813.052957,-1184.329507,995.924147,10510.924376
813.053286,-1850.514855,229.828649,10881.027347
813.053616,-2960.823768,383.047749,11177.109724
813.053945,-3775.050304,995.924147,10881.027347
813.054274,-3701.029710,919.314598,10066.800811
813.054603,-2812.782580,766.095498,8956.491898
813.054933,-1480.411884,459.657299,7846.182985
813.055262,-444.123565,-536.266849,7476.080014
813.055591,296.082377,-536.266849,7624.121203
813.055920,296.082377,306.438199,7994.224174
813.056250,370.102971,1532.190996,8660.409521
813.056579,-370.102971,1838.629195,9548.656652
813.056908,-888.247130,1991.848295,10584.944971
813.057237,-1110.308913,2068.457845,11547.212695
813.057567,-1332.370696,1532.190996,11843.295072
813.057896,-1850.514855,1072.533697,11769.274478
813.058225,-2960.823768,229.828649,11103.089130
813.058554,-3627.009116,0.000000,10807.006753
813.058884,-3997.112087,-153.219100,10214.842000
813.059213,-3404.947333,0.000000,9622.677246
813.059542,-2368.659014,-612.876398,8586.388927
813.059871,-1184.329507,-1225.752797,7402.059420
813.060201,0.000000,-1149.143247,7031.956449
813.060530,518.144159,-306.438199,7179.997637
813.060859,666.185348,1378.971896,7994.224174
813.061188,148.041188,2604.724693,8808.450710
813.061518,0.000000,3370.820191,9548.656652
813.061847,-518.144159,2681.334243,10584.944971
813.062176,-888.247130,2145.067394,11029.068536
813.062505,-1258.350101,1149.143247,11547.212695
813.062835,-2368.659014,689.485948,11325.150913
813.063164,-3404.947333,612.876398,11029.068536
813.063493,-4441.235652,612.876398,9918.759623
813.063822,-3478.967927,0.000000,9918.759623
813.064152,-1776.494261,-459.657299,8734.430116
813.064481,0.000000,-383.047749,7698.141797
813.064810,1036.288319,0.000000,7105.977043
813.065139,2294.638420,536.266849,6587.832884
813.065469,2442.679609,1608.800546,7772.162391
813.065798,2146.597232,2757.943793,9104.533087
813.066127,1332.370696,3294.210641,9992.780217
813.066456,666.185348,2911.162892,10807.006753
813.066786,592.164754,2451.505594,11473.192101
813.067115,-296.082377,1149.143247,11473.192101
813.067444,-1480.411884,229.828649,11769.274478
813.067773,-2368.659014,-306.438199,11843.295072
813.068103,-3256.906145,536.266849,11177.109724
813.068432,-3108.864956,919.314598,9770.718434
813.068761,-2220.617826,229.828649,8068.244768
813.069090,-148.041188,0.000000,6735.874072
813.069420,592.164754,-536.266849,6439.791695
813.069749,962.267725,612.876398,7105.977043
813.070078,74.020594,2068.457845,8364.327145
813.070407,-666.185348,2987.772442,8882.471304
813.070737,-1554.432478,3140.991542,9326.594869
813.071066,-1850.514855,2068.457845,10288.862594
813.071395,-1480.411884,1072.533697,10288.862594
813.071724,-1406.391290,76.609550,10066.800811
813.072054,-2220.617826,-306.438199,10066.800811
813.072383,-2590.720797,-383.047749,11103.089130
813.072712,-3701.029710,383.047749,11473.192101
813.073041,-3849.070898,842.705048,10881.027347
813.073371,-2664.741391,842.705048,9844.739029
813.073700,-888.247130,153.219100,8438.347739
813.074029,1036.288319,-536.266849,7402.059420
813.074358,1998.556043,-383.047749,7105.977043
813.074688,2072.576638,153.219100,7772.162391
813.075017,1554.432478,1455.581446,8808.450710
813.075346,592.164754,2451.505594,9696.697840
813.075675,0.000000,2528.115143,10658.965565
813.076005,-814.226536,1762.019645,11325.150913
813.076334,-1184.329507,1378.971896,11621.233289
813.076663,-1924.535449,612.876398,11621.233289
813.076992,-3330.926739,229.828649,11399.171507
813.077322,-4811.338623,229.828649,10807.006753
813.077651,-4959.379811,76.609550,10881.027347
813.077980,-4811.338623,-536.266849,9770.718434
813.078309,-3552.988522,-612.876398,8882.471304
813.078639,-1924.535449,-1072.533697,7254.018232
813.078968,-666.185348,-1225.752797,6735.874072
813.079297,888.247130,-536.266849,6883.915261
813.079626,1036.288319,1455.581446,7772.162391
813.079956,666.185348,2681.334243,8512.368333
813.080285,148.041188,3294.210641,9474.636058
813.080614,0.000000,3294.210641,10510.924376
813.080943,74.020594,2221.676944,10881.027347
813.081273,-666.185348,1838.629195,11399.171507
813.081602,-1332.370696,919.314598,11177.109724
813.081931,-2664.741391,536.266849,10658.965565
813.082260,-3552.988522,612.876398,10362.883188
813.082590,-3404.947333,306.438199,9918.759623
813.082919,-1998.556043,0.000000,8734.430116
813.083248,-296.082377,-306.438199,7994.224174
813.083577,740.205942,0.000000,7328.038826
813.083907,1776.494261,536.266849,7179.997637
813.084236,1998.556043,1378.971896,8142.265362
813.084565,1628.453072,2604.724693,8956.491898
813.084894,148.041188,3294.210641,9770.718434
813.085224,-296.082377,3064.381992,10732.986159
813.085553,-592.164754,1991.848295,11251.130318
813.085882,-1332.370696,919.314598,11325.150913
813.086211,-1406.391290,76.609550,10807.006753
813.086541,-2368.659014,-995.924147,10732.986159
813.086870,-2590.720797,0.000000,10584.944971
813.087199,-2294.638420,766.095498,10066.800811
813.087528,-1406.391290,612.876398,9178.553681
813.087858,0.000000,229.828649,7772.162391
813.088187,1332.370696,612.876398,7105.977043
813.088516,1924.535449,536.266849,7254.018232
813.088845,1480.411884,1378.971896,8068.244768
813.089175,740.205942,2451.505594,8956.491898
813.089504,-518.144159,2834.553343,9104.533087
813.089833,-1036.288319,2451.505594,9548.656652
813.090162,-1110.308913,1532.190996,10066.800811
813.090492,-1332.370696,766.095498,10214.842000
813.090821,-1998.556043,0.000000,10584.944971
813.091150,-3404.947333,229.828649,10732.986159
813.091479,-4737.318029,1455.581446,10732.986159
813.091809,-4737.318029,766.095498,10584.944971
813.092138,-4293.194464,459.657299,10214.842000
813.092467,-2960.823768,229.828649,9178.553681
813.092796,-1110.308913,-459.657299,7846.182985
813.093126,444.123565,-459.657299,7179.997637
813.093455,1406.391290,-919.314598,7254.018232
813.093784,1332.370696,383.047749,8364.327145
813.094113,666.185348,1838.629195,9326.594869
813.094443,444.123565,2451.505594,10510.924376
813.094772,222.061783,2681.334243,11325.150913
813.095101,148.041188,2145.067394,11917.315666
813.095430,-518.144159,1455.581446,11769.274478
813.095760,-1554.432478,766.095498,11621.233289
813.096089,-2812.782580,306.438199,11251.130318
813.096418,-3701.029710,536.266849,10807.006753
813.096747,-3701.029710,76.609550,9918.759623
813.097077,-2664.741391,-689.485948,9030.512492
813.097406,-1924.535449,-1149.143247,7328.038826
813.097735,-592.164754,-1072.533697,6809.894666
813.098064,148.041188,-383.047749,7031.956449
813.098394,666.185348,1302.362347,7476.080014
813.098723,-444.123565,2681.334243,8142.265362
813.099052,-814.226536,3217.601092,9104.533087
813.099381,-1184.329507,3064.381992,9844.739029
813.099711,-1258.350101,2451.505594,10658.965565
813.100040,-1184.329507,2145.067394,11103.089130
813.100369,-2220.617826,153.219100,10732.986159
813.100698,-3034.844362,459.657299,10732.986159
813.101028,-3775.050304,689.485948,10436.903782
813.101357,-3552.988522,383.047749,9622.677246
813.101686,-2072.576638,-229.828649,8808.450710
813.102015,0.000000,-459.657299,7920.203579
813.102345,888.247130,0.000000,7328.038826
813.102674,1924.535449,612.876398,7476.080014
813.103003,2294.638420,1685.410096,8068.244768
813.103332,2146.597232,2528.115143,9178.553681
813.103662,1406.391290,3600.648841,10066.800811
813.103991,592.164754,3294.210641,10732.986159
813.104320,0.000000,2298.286494,11251.130318
813.104649,-740.205942,1608.800546,11399.171507
813.104979,-1850.514855,306.438199,11399.171507
813.105308,-2368.659014,-612.876398,11399.171507
813.105637,-2368.659014,-229.828649,11695.253884
813.105966,-2960.823768,383.047749,10436.903782
813.106296,-2368.659014,766.095498,9104.533087
813.106625,-1110.308913,229.828649,7846.182985
813.106954,296.082377,-383.047749,7105.977043
813.107283,1480.411884,766.095498,7105.977043
813.107613,814.226536,1455.581446,7920.203579
813.107942,296.082377,2681.334243,8142.265362
813.108271,-444.123565,2757.943793,8586.388927
813.108600,-592.164754,2451.505594,9326.594869
813.108930,-518.144159,2221.676944,9622.677246
813.109259,-666.185348,1225.752797,9918.759623
813.109588,-1406.391290,689.485948,10288.862594
813.109917,-2442.679609,383.047749,10881.027347
813.110247,-3997.112087,689.485948,11029.068536
813.110576,-4219.173869,1302.362347,10955.047942
813.110905,-3404.947333,536.266849,9696.697840
813.111234,-2220.617826,306.438199,8956.491898
813.111564,-814.226536,-229.828649,7994.224174
813.111893,592.164754,-842.705048,7698.141797
813.112222,1110.308913,-612.876398,7772.162391
813.112551,1110.308913,766.095498,8216.285956
813.112881,1110.308913,1685.410096,9326.594869
813.113210,518.144159,2145.067394,10510.924376
813.113539,148.041188,2068.457845,11177.109724
813.113868,-296.082377,1685.410096,11547.212695
813.114198,-666.185348,919.314598,11621.233289
813.114527,-1554.432478,76.609550,11325.150913
813.114856,-3256.906145,153.219100,11547.212695
813.115185,-4071.132681,153.219100,11177.109724
813.115515,-4219.173869,0.000000,10436.903782
813.115844,-3478.967927,-459.657299,9252.574275
813.116173,-2220.617826,-536.266849,7402.059420
813.116502,-740.205942,-1225.752797,6809.894666
813.116832,0.000000,-995.924147,7031.956449
813.117161,296.082377,459.657299,7624.121203
813.117490,0.000000,2145.067394,8364.327145
813.117819,-518.144159,2987.772442,9252.574275
813.118149,-1184.329507,3140.991542,10066.800811
813.118478,-1110.308913,2528.115143,10658.965565
813.118807,-1184.329507,1685.410096,10955.047942
813.119136,-2072.576638,919.314598,10955.047942
813.119466,-3108.864956,229.828649,10510.924376
813.119795,-4145.153275,229.828649,10807.006753
813.120124,-4293.194464,229.828649,10362.883188
813.120453,-3182.885551,76.609550,9400.615463
813.120783,-1332.370696,-536.266849,7920.203579
813.121112,740.205942,-153.219100,6883.915261
813.121441,2072.576638,459.657299,6957.935855
813.121770,2590.720797,1072.533697,7476.080014
813.122100,2368.659014,2451.505594,8734.430116
813.122429,1184.329507,3447.429741,9770.718434
813.122758,518.144159,3600.648841,10658.965565
813.123087,0.000000,2298.286494,11251.130318
813.123417,-370.102971,1532.190996,11695.253884
813.123746,-1406.391290,766.095498,11843.295072
813.124075,-2368.659014,-459.657299,11621.233289
813.124404,-3182.885551,-306.438199,11473.192101
813.124734,-3108.864956,612.876398,10955.047942
813.125063,-2442.679609,459.657299,9622.677246
813.125392,-1480.411884,76.609550,8290.306550
813.125721,0.000000,153.219100,7179.997637
813.126051,1036.288319,689.485948,7105.977043
813.126380,1480.411884,995.924147,7105.977043
813.126709,962.267725,2068.457845,7846.182985
813.127038,222.061783,2911.162892,8586.388927
813.127368,-518.144159,2451.505594,9326.594869
813.127697,-740.205942,2068.457845,9844.739029
813.128026,-888.247130,1149.143247,10362.883188
813.128355,-1258.350101,306.438199,10510.924376
813.128685,-2368.659014,766.095498,10881.027347
813.129014,-3330.926739,1072.533697,10955.047942
813.129343,-3997.112087,1378.971896,10658.965565
813.129672,-3627.009116,1072.533697,10066.800811
813.130002,-2664.741391,459.657299,9326.594869
813.130331,-1110.308913,-306.438199,7624.121203
813.130660,0.000000,-536.266849,7550.100608
813.130989,518.144159,-459.657299,7476.080014
813.131319,518.144159,229.828649,8142.265362
813.131648,296.082377,1455.581446,8660.409521
813.131977,-148.041188,2298.286494,9696.697840
813.132306,-370.102971,2145.067394,10732.986159
813.132636,-370.102971,1608.800546,11473.192101
813.132965,-888.247130,1455.581446,11843.295072
813.133294,-1776.494261,766.095498,11843.295072
813.133623,-2960.823768,689.485948,11399.171507
813.133953,-3330.926739,612.876398,11473.192101
813.134282,-3552.988522,459.657299,10732.986159
813.134611,-2738.761985,0.000000,9474.636058
813.134941,-1998.556043,-842.705048,7772.162391
813.135270,0.000000,-995.924147,7328.038826
813.135599,962.267725,-689.485948,7031.956449
813.135929,888.247130,153.219100,7698.141797
813.136258,148.041188,1762.019645,8438.347739
813.136588,-666.185348,2987.772442,9104.533087
813.136917,-1036.288319,3064.381992,9844.739029
813.137246,-444.123565,2757.943793,10584.944971
813.137576,-1110.308913,1762.019645,10807.006753
813.137905,-2146.597232,919.314598,10807.006753
813.138234,-3182.885551,76.609550,10807.006753
813.138564,-4219.173869,153.219100,11029.068536
813.138893,-4219.173869,612.876398,10362.883188
813.139223,-2960.823768,306.438199,9474.636058
813.139552,-1036.288319,-842.705048,7920.203579
813.139881,666.185348,-689.485948,7031.956449
813.140211,2220.617826,0.000000,6587.832884
813.140540,2886.803174,1225.752797,6883.915261
813.140869,2368.659014,2068.457845,7846.182985
813.141199,1702.473667,3677.258390,9400.615463
813.141528,888.247130,3524.039291,10510.924376
813.141858,444.123565,2834.553343,11399.171507
813.142187,-370.102971,1915.238745,11621.233289
813.142516,-1184.329507,459.657299,11399.171507
813.142846,-1924.535449,-842.705048,11695.253884
813.143175,-2738.761985,-229.828649,11547.212695
813.143504,-3478.967927,383.047749,11177.109724
813.143834,-2812.782580,766.095498,9918.759623
813.144163,-1776.494261,459.657299,8586.388927
813.144493,148.041188,153.219100,7105.977043
813.144822,1036.288319,229.828649,7105.977043
813.145151,1258.350101,1149.143247,7402.059420
813.145481,814.226536,1991.848295,7994.224174
813.145810,74.020594,2834.553343,8956.491898
813.146139,-592.164754,2604.724693,9622.677246
813.146469,-1036.288319,2145.067394,9992.780217
813.146798,-962.267725,1378.971896,10436.903782
813.147128,-1184.329507,689.485948,10584.944971
813.147457,-2072.576638,459.657299,11103.089130
813.147786,-3256.906145,1072.533697,11103.089130
813.148116,-3849.070898,1378.971896,10658.965565
813.148445,-3627.009116,1225.752797,10140.821405
813.148774,-2664.741391,612.876398,9178.553681
813.149104,-1332.370696,229.828649,8142.265362
813.149433,518.144159,0.000000,7179.997637
813.149763,1406.391290,0.000000,7105.977043
813.150092,1110.308913,229.828649,7402.059420
813.150421,1036.288319,689.485948,8660.409521
813.150751,148.041188,1685.410096,9844.739029
813.151080,-222.061783,2451.505594,10881.027347
813.151409,-444.123565,2298.286494,11991.336260
813.151739,-1036.288319,1762.019645,12435.459826
813.152068,-2146.597232,995.924147,11769.274478
813.152398,-3330.926739,0.000000,11251.130318
813.152727,-3775.050304,0.000000,10807.006753
813.153056,-3701.029710,-306.438199,10510.924376
813.153386,-3330.926739,-536.266849,9474.636058
813.153715,-2442.679609,-766.095498,8142.265362
813.154044,-1332.370696,-1072.533697,7105.977043
813.154374,148.041188,-842.705048,7105.977043
813.154703,1036.288319,0.000000,7550.100608
813.155033,0.000000,1838.629195,8290.306550
813.155362,-296.082377,2834.553343,8956.491898
813.155691,-888.247130,3140.991542,9992.780217
813.156021,-888.247130,2834.553343,10955.047942
813.156350,-888.247130,1378.971896,11029.068536
813.156679,-1184.329507,766.095498,10807.006753
813.157009,-2368.659014,76.609550,11177.109724
813.157338,-3330.926739,383.047749,10288.862594
813.157668,-3330.926739,153.219100,9992.780217
813.157997,-2590.720797,-306.438199,8956.491898
813.158326,-1184.329507,0.000000,8068.244768
813.158656,370.102971,0.000000,7402.059420
813.158985,1554.432478,459.657299,7698.141797
813.159314,2294.638420,1072.533697,7846.182985
813.159644,1776.494261,1915.238745,8364.327145
813.159973,962.267725,3140.991542,9252.574275
813.160303,222.061783,2757.943793,10140.821405
813.160632,0.000000,2298.286494,10955.047942
813.160961,-592.164754,1225.752797,11547.212695
813.161291,-1332.370696,229.828649,11695.253884
813.161620,-1850.514855,-229.828649,11547.212695
813.161949,-2664.741391,0.000000,11103.089130
813.162279,-2738.761985,919.314598,10436.903782
813.162608,-1850.514855,1149.143247,9326.594869
813.162938,-370.102971,842.705048,7846.182985
813.163267,1036.288319,229.828649,7105.977043
813.163596,1924.535449,842.705048,7254.018232
813.163926,1628.453072,1302.362347,7550.100608
813.164255,1036.288319,2451.505594,8438.347739
813.164584,-370.102971,2374.896044,9178.553681
813.164914,-1110.308913,2298.286494,9696.697840
813.165243,-1184.329507,2145.067394,10362.883188
813.165573,-1332.370696,689.485948,10288.862594
813.165902,-2072.576638,306.438199,10214.842000
813.166231,-2516.700203,0.000000,10658.965565
813.166561,-3627.009116,0.000000,11029.068536
813.166890,-4219.173869,1378.971896,10732.986159
813.167219,-3627.009116,1072.533697,9696.697840
813.167549,-2886.803174,766.095498,8660.409521
813.167878,-1332.370696,153.219100,7920.203579
813.168208,296.082377,-383.047749,7254.018232
813.168537,1184.329507,-459.657299,7328.038826
813.168866,1258.350101,229.828649,7624.121203
813.169196,666.185348,1378.971896,8586.388927
813.169525,0.000000,1915.238745,9770.718434
813.169854,-222.061783,2068.457845,11177.109724
813.170184,-148.041188,1991.848295,11843.295072
813.170513,-222.061783,1302.362347,12213.398043
813.170843,-1184.329507,459.657299,11843.295072
813.171172,-2368.659014,229.828649,11769.274478
813.171501,-3552.988522,0.000000,11251.130318
813.171831,-3997.112087,76.609550,10658.965565
813.172160,-3404.947333,229.828649,9474.636058
813.172489,-2072.576638,-1072.533697,7994.224174
813.172819,-888.247130,-1072.533697,6439.791695
813.173148,148.041188,-1072.533697,6365.771101
813.173478,592.164754,-383.047749,7254.018232
813.173807,0.000000,1762.019645,8068.244768
813.174136,-1110.308913,2757.943793,9178.553681
813.174466,-1554.432478,3140.991542,10140.821405
813.174795,-1480.411884,2451.505594,11103.089130
813.175124,-1554.432478,1685.410096,11399.171507
813.175454,-1776.494261,919.314598,11325.150913
813.175783,-2368.659014,76.609550,11029.068536
813.176113,-3478.967927,76.609550,10584.944971
813.176442,-3552.988522,612.876398,9918.759623
813.176771,-2812.782580,76.609550,9252.574275
813.177101,-740.205942,0.000000,8438.347739
813.177430,962.267725,306.438199,7550.100608
813.177759,1998.556043,306.438199,6513.812290
813.178089,2590.720797,1149.143247,7254.018232
813.178418,2442.679609,1378.971896,8438.347739
813.178748,1554.432478,2528.115143,9474.636058
813.179077,666.185348,3140.991542,10807.006753
813.179406,0.000000,3140.991542,10955.047942
813.179736,-814.226536,1225.752797,11621.233289
813.180065,-1628.453072,536.266849,11399.171507
813.180394,-2368.659014,0.000000,11325.150913
813.180724,-2960.823768,0.000000,10807.006753
813.181053,-3256.906145,612.876398,9992.780217
813.181383,-3330.926739,612.876398,9030.512492
813.181712,-1924.535449,383.047749,8512.368333
813.182041,-592.164754,229.828649,7624.121203
813.182371,296.082377,459.657299,7179.997637
813.182700,296.082377,689.485948,7402.059420
813.183029,444.123565,1532.190996,8142.265362
813.183359,0.000000,1838.629195,8956.491898
813.183688,-592.164754,1608.800546,9400.615463
813.184018,-444.123565,1455.581446,10066.800811
813.184347,74.020594,1149.143247,10288.862594
813.184676,-444.123565,306.438199,10140.821405
813.185006,-1110.308913,-229.828649,11029.068536
813.185335,-2072.576638,842.705048,11325.150913
813.185664,-3034.844362,1685.410096,11325.150913
813.185994,-3182.885551,1608.800546,10436.903782
813.186323,-2738.761985,919.314598,9030.512492
813.186653,-1332.370696,612.876398,7994.224174
813.186982,-592.164754,-459.657299,7328.038826
813.187311,148.041188,-689.485948,7402.059420
813.187641,0.000000,0.000000,7846.182985
813.187970,-370.102971,1302.362347,8512.368333
813.188299,-962.267725,2221.676944,9474.636058
813.188629,-1332.370696,2298.286494,10214.842000
813.188958,-1258.350101,2221.676944,11103.089130
813.189288,-1184.329507,2221.676944,11251.130318
813.189617,-1850.514855,1378.971896,11177.109724
813.189946,-2590.720797,306.438199,11103.089130
813.190276,-3478.967927,76.609550,10807.006753
813.190605,-3701.029710,689.485948,10140.821405
813.190934,-2812.782580,153.219100,9474.636058
813.191264,-1480.411884,-229.828649,8216.285956
813.191593,518.144159,-229.828649,7254.018232
813.191923,1554.432478,-383.047749,6661.853478
813.192252,1776.494261,536.266849,7550.100608
813.192581,1184.329507,1915.238745,8438.347739
813.192911,444.123565,3370.820191,9474.636058
813.193240,-370.102971,3294.210641,9992.780217
813.193569,-1406.391290,3064.381992,10955.047942
813.193899,-1258.350101,2298.286494,11325.150913
813.194228,-1776.494261,842.705048,11177.109724
813.194558,-2664.741391,229.828649,10807.006753
813.194887,-3701.029710,-229.828649,10658.965565
813.195216,-4811.338623,0.000000,9918.759623
813.195546,-4515.256246,0.000000,9252.574275
813.195875,-2590.720797,-612.876398,8068.244768
813.196204,-370.102971,-612.876398,7476.080014
813.196534,1036.288319,0.000000,7105.977043
813.196863,2072.576638,919.314598,7328.038826
813.197193,1850.514855,1762.019645,8364.327145
813.197522,1554.432478,2681.334243,9400.615463
813.197851,962.267725,3064.381992,10214.842000
813.198181,592.164754,2528.115143,11103.089130
813.198510,444.123565,1532.190996,11103.089130
813.198839,-518.144159,919.314598,11177.109724
813.199169,-1110.308913,153.219100,11473.192101
813.199498,-1702.473667,-306.438199,11473.192101
813.199828,-2146.597232,459.657299,10807.006753
813.200157,-2368.659014,919.314598,9844.739029
813.200486,-1110.308913,995.924147,8364.327145
813.200816,0.000000,0.000000,7105.977043
813.201145,740.205942,153.219100,6883.915261
813.201474,666.185348,766.095498,6957.935855
813.201804,222.061783,1532.190996,7772.162391
813.202133,-444.123565,2451.505594,8734.430116
813.202463,-1480.411884,2528.115143,9400.615463
813.202792,-1924.535449,2145.067394,9918.759623
813.203121,-1924.535449,1302.362347,9992.780217
813.203451,-1850.514855,383.047749,10362.883188
813.203780,-2442.679609,0.000000,10807.006753
813.204109,-2960.823768,536.266849,11473.192101
813.204439,-4219.173869,1149.143247,11547.212695
813.204768,-3997.112087,1455.581446,10807.006753
813.205098,-2960.823768,842.705048,9622.677246
813.205427,-1184.329507,0.000000,8660.409521
813.205756,296.082377,-459.657299,7920.203579
813.206086,1554.432478,-689.485948,7328.038826
813.206415,1702.473667,0.000000,7402.059420
813.206744,1480.411884,1225.752797,8512.368333
813.207074,814.226536,2298.286494,9474.636058
813.207403,518.144159,2451.505594,10214.842000
813.207733,-148.041188,2298.286494,11029.068536
813.208062,-740.205942,1838.629195,11547.212695
813.208391,-1406.391290,1072.533697,11843.295072
813.208721,-2590.720797,306.438199,11769.274478
813.209050,-3849.070898,0.000000,11325.150913
813.209379,-4589.276840,459.657299,10732.986159
813.209709,-4367.215058,229.828649,9548.656652
813.210038,-3034.844362,-306.438199,8142.265362
813.210368,-1702.473667,-995.924147,6809.894666
813.210697,-296.082377,-1072.533697,6291.750507
813.211026,74.020594,-306.438199,6365.771101
813.211356,444.123565,919.314598,7402.059420
813.211685,0.000000,2451.505594,8290.306550
813.212014,-518.144159,2834.553343,9474.636058
813.212344,-740.205942,2681.334243,10510.924376
813.212673,-296.082377,2451.505594,10881.027347
813.213003,-444.123565,1685.410096,11177.109724
813.213332,-1628.453072,229.828649,11399.171507
813.213661,-3034.844362,536.266849,11399.171507
813.213991,-4071.132681,612.876398,11251.130318
813.214320,-3552.988522,689.485948,10288.862594
813.214649,-2368.659014,0.000000,8956.491898
813.214979,0.000000,-536.266849,7994.224174
813.215308,1258.350101,-306.438199,7476.080014
813.215638,2368.659014,76.609550,7550.100608
813.215967,2368.659014,1149.143247,8142.265362
813.216296,1554.432478,2528.115143,8808.450710
813.216626,518.144159,3140.991542,9918.759623
813.216955,148.041188,3140.991542,11177.109724
813.217284,-370.102971,1915.238745,11547.212695
813.217614,-962.267725,1149.143247,11621.233289
813.217943,-1628.453072,306.438199,11843.295072
813.218273,-2590.720797,-306.438199,11473.192101
813.218602,-3108.864956,0.000000,10807.006753
813.218931,-2664.741391,689.485948,9770.718434
813.219261,-1554.432478,689.485948,8438.347739
813.219590,-296.082377,536.266849,7105.977043
813.219919,1554.432478,383.047749,6661.853478
813.220249,1776.494261,842.705048,6883.915261
813.220578,1406.391290,1915.238745,7698.141797
813.220908,148.041188,2757.943793,8290.306550
813.221237,-888.247130,3294.210641,9252.574275
813.221566,-2072.576638,2604.724693,9622.677246
813.221896,-1554.432478,1532.190996,10436.903782
813.222225,-1628.453072,459.657299,10584.944971
813.222554,-2294.638420,0.000000,10881.027347
813.222884,-3182.885551,0.000000,11177.109724
813.223213,-3923.091493,536.266849,10584.944971
813.223543,-4145.153275,1072.533697,10436.903782
813.223872,-3108.864956,919.314598,9474.636058
813.224201,-1776.494261,459.657299,8438.347739
813.224531,-148.041188,153.219100,7550.100608
813.224860,1406.391290,0.000000,7402.059420
813.225189,1998.556043,766.095498,8068.244768
813.225519,1258.350101,1072.533697,8438.347739
813.225848,666.185348,1838.629195,9474.636058
813.226178,148.041188,2145.067394,10658.965565
813.226507,-148.041188,1915.238745,11473.192101
813.226836,0.000000,1455.581446,11769.274478
813.227166,-1480.411884,842.705048,11769.274478
813.227495,-2738.761985,306.438199,11843.295072
813.227824,-3923.091493,153.219100,11473.192101
813.228154,-4515.256246,459.657299,11177.109724
813.228483,-4293.194464,383.047749,9622.677246
813.228813,-2664.741391,-153.219100,8142.265362
813.229142,-1184.329507,-1072.533697,6661.853478
813.229471,222.061783,-1378.971896,5995.668130
813.229801,814.226536,-536.266849,6587.832884
813.230130,666.185348,1302.362347,7476.080014
813.230459,0.000000,2604.724693,8660.409521
813.230789,-962.267725,3294.210641,9622.677246
813.231118,-1036.288319,2911.162892,10584.944971
813.231448,-814.226536,2221.676944,11177.109724
813.231777,-1628.453072,1762.019645,11177.109724
813.232106,-1776.494261,459.657299,11399.171507
813.232436,-3034.844362,229.828649,11325.150913
813.232765,-4293.194464,383.047749,10955.047942
813.233094,-4145.153275,459.657299,9992.780217
813.233424,-2442.679609,153.219100,8882.471304
813.233753,0.000000,-919.314598,7476.080014
813.234083,1332.370696,-995.924147,6809.894666
813.234412,2368.659014,229.828649,7105.977043
813.234741,2664.741391,1532.190996,7772.162391
813.235071,1924.535449,2681.334243,8734.430116
813.235400,888.247130,2681.334243,9548.656652
813.235730,-296.082377,3370.820191,10881.027347
813.236059,-222.061783,1991.848295,11843.295072
813.236389,-592.164754,1225.752797,11843.295072
813.236718,-1480.411884,76.609550,11991.336260
813.237047,-2442.679609,-153.219100,11843.295072
813.237377,-2812.782580,-306.438199,11621.233289
813.237706,-3034.844362,766.095498,10288.862594
813.238036,-2146.597232,919.314598,8882.471304
813.238365,-296.082377,306.438199,7402.059420
813.238694,1110.308913,76.609550,6587.832884
813.239024,1924.535449,842.705048,6069.688724
813.239353,1406.391290,1072.533697,6957.935855
813.239683,518.144159,2298.286494,7994.224174
813.240012,-666.185348,2757.943793,8956.491898
813.240341,-1406.391290,2528.115143,9992.780217
813.240671,-1776.494261,2068.457845,10362.883188
813.241000,-1702.473667,1149.143247,10658.965565
813.241330,-2072.576638,-153.219100,10881.027347
813.241659,-2960.823768,-306.438199,11103.089130
813.241989,-3997.112087,612.876398,11325.150913
813.242318,-4441.235652,995.924147,10955.047942
813.242647,-3478.967927,1149.143247,9844.739029
813.242977,-2294.638420,536.266849,8438.347739
813.243306,-518.144159,-306.438199,7328.038826
813.243636,1036.288319,-689.485948,7179.997637
813.243965,1554.432478,-153.219100,7402.059420
813.244294,1258.350101,1302.362347,8142.265362
813.244624,518.144159,1455.581446,8882.471304
813.244953,-222.061783,2068.457845,10066.800811
813.245283,-592.164754,1838.629195,11103.089130
813.245612,-888.247130,1455.581446,11843.295072
813.245941,-1332.370696,1302.362347,11695.253884
813.246271,-2294.638420,459.657299,11325.150913
813.246600,-3404.947333,0.000000,11621.233289
813.246930,-4071.132681,0.000000,11473.192101
813.247259,-4219.173869,229.828649,10362.883188
813.247589,-3182.885551,0.000000,8660.409521
813.247918,-1702.473667,-689.485948,7105.977043
813.248247,-296.082377,-1302.362347,6809.894666
813.248577,666.185348,-919.314598,6809.894666
813.248906,888.247130,229.828649,7624.121203
813.249236,74.020594,2068.457845,8438.347739
813.249565,-444.123565,3370.820191,9400.615463
813.249894,-592.164754,2987.772442,10066.800811
813.250224,-814.226536,2298.286494,10881.027347
813.250553,-1184.329507,1685.410096,11399.171507
813.250883,-1924.535449,612.876398,11251.130318
813.251212,-2960.823768,689.485948,11251.130318
813.251541,-3849.070898,153.219100,11029.068536
813.251871,-3849.070898,383.047749,10066.800811
813.252200,-2368.659014,76.609550,8808.450710
813.252530,-444.123565,-536.266849,7994.224174
813.252859,1406.391290,-383.047749,7031.956449
813.253189,2442.679609,0.000000,6587.832884
813.253518,2664.741391,1302.362347,7402.059420
813.253847,2368.659014,2374.896044,8882.471304
813.254177,1258.350101,3447.429741,9770.718434
813.254506,740.205942,3600.648841,10732.986159
813.254836,296.082377,1915.238745,11473.192101
813.255165,-666.185348,1072.533697,11769.274478
813.255494,-1480.411884,306.438199,11843.295072
813.255824,-2516.700203,0.000000,11399.171507
813.256153,-3404.947333,76.609550,11103.089130
813.256483,-3330.926739,1072.533697,10214.842000
813.256812,-1924.535449,842.705048,8438.347739
813.257141,-740.205942,459.657299,7254.018232
813.257471,592.164754,766.095498,6365.771101
813.257800,1332.370696,842.705048,6587.832884
813.258130,962.267725,1838.629195,7328.038826
813.258459,296.082377,2451.505594,8290.306550
813.258788,-666.185348,2834.553343,9474.636058
813.259118,-1628.453072,2834.553343,10066.800811
813.259447,-1554.432478,1838.629195,10214.842000
813.259777,-1258.350101,689.485948,10362.883188
813.260106,-1258.350101,-306.438199,11251.130318
813.260436,-2368.659014,0.000000,11103.089130
813.260765,-3701.029710,766.095498,11399.171507
813.261094,-4219.173869,1225.752797,11103.089130
813.261424,-3552.988522,842.705048,10066.800811
813.261753,-2294.638420,536.266849,9030.512492
813.262083,-148.041188,0.000000,7254.018232
813.262412,888.247130,-306.438199,7105.977043
813.262741,1258.350101,0.000000,7328.038826
813.263071,888.247130,536.266849,8142.265362
813.263400,222.061783,1225.752797,9104.533087
813.263730,-518.144159,919.314598,9548.656652
813.264059,-666.185348,2221.676944,10955.047942
813.264388,-962.267725,1915.238745,11769.274478
813.264718,-1406.391290,919.314598,11843.295072
813.265047,-2294.638420,0.000000,12139.377449
813.265377,-3108.864956,229.828649,11621.233289
813.265706,-4071.132681,995.924147,11325.150913
813.266036,-3923.091493,229.828649,9770.718434
813.266365,-2664.741391,-229.828649,8142.265362
813.266694,-962.267725,-1149.143247,6587.832884
813.267024,1036.288319,-1149.143247,5625.565159
813.267353,1480.411884,-383.047749,6217.729913
813.267683,1258.350101,536.266849,7179.997637
813.268012,296.082377,2604.724693,8512.368333
813.268341,-444.123565,3140.991542,9918.759623
813.268671,-1036.288319,3217.601092,11177.109724
813.269000,-814.226536,2911.162892,11769.274478
813.269330,-1258.350101,1762.019645,11621.233289
813.269659,-1776.494261,0.000000,11695.253884
813.269988,-2664.741391,-919.314598,11695.253884
813.270318,-3923.091493,-229.828649,11547.212695
813.270647,-4663.297435,612.876398,9622.677246
813.270977,-2442.679609,76.609550,8586.388927
813.271306,-518.144159,-153.219100,7402.059420
813.271636,1406.391290,-229.828649,6587.832884
813.271965,2738.761985,612.876398,6809.894666
813.272294,3034.844362,1838.629195,7698.141797
813.272624,1998.556043,3447.429741,8734.430116
813.272953,518.144159,3983.696590,10288.862594
813.273283,-444.123565,3524.039291,11399.171507
813.273612,-666.185348,2298.286494,12139.377449
813.273941,-1110.308913,1532.190996,11991.336260
813.274271,-1554.432478,-76.609550,11843.295072
813.274600,-2146.597232,-612.876398,11843.295072
813.274930,-2886.803174,-612.876398,11103.089130
813.275259,-3108.864956,766.095498,9992.780217
813.275588,-2146.597232,1225.752797,8216.285956
813.275918,0.000000,1072.533697,6587.832884
813.276247,1628.453072,612.876398,6217.729913
813.276577,2072.576638,1378.971896,6365.771101
813.276906,1554.432478,2068.457845,6883.915261
813.277236,296.082377,2221.676944,7994.224174
813.277565,-962.267725,2911.162892,9400.615463
813.277894,-1850.514855,2911.162892,10214.842000
813.278224,-2368.659014,1685.410096,11103.089130
813.278553,-2442.679609,689.485948,10881.027347
813.278883,-2368.659014,-383.047749,10732.986159
813.279212,-2812.782580,-689.485948,11029.068536
813.279541,-3552.988522,153.219100,11547.212695
813.279871,-4293.194464,1225.752797,10807.006753
813.280200,-3701.029710,1455.581446,9622.677246
813.280530,-1924.535449,1225.752797,8512.368333
813.280859,222.061783,306.438199,7254.018232
813.281188,1554.432478,-383.047749,6513.812290
813.281518,2812.782580,-766.095498,7105.977043
813.281847,2368.659014,459.657299,7772.162391
813.282177,1554.432478,1378.971896,9104.533087
813.282506,296.082377,1991.848295,11029.068536
813.282836,-296.082377,2374.896044,11917.315666
813.283165,-888.247130,1455.581446,12361.439231
813.283494,-1332.370696,536.266849,12879.583391
813.283824,-2146.597232,-306.438199,12805.562797
813.284153,-3330.926739,0.000000,12287.418637
813.284483,-4515.256246,459.657299,10732.986159
813.284812,-4589.276840,306.438199,9326.594869
813.285141,-2664.741391,0.000000,7624.121203
813.285471,-666.185348,-995.924147,6069.688724
813.285800,888.247130,-1225.752797,5181.441594
813.286130,1480.411884,-536.266849,5995.668130
813.286459,1258.350101,1225.752797,7105.977043
813.286788,0.000000,2681.334243,8586.388927
813.287118,-1110.308913,3217.601092,9474.636058
813.287447,-1332.370696,2911.162892,10955.047942
813.287777,-1628.453072,2374.896044,11917.315666
813.288106,-1702.473667,1455.581446,11769.274478
813.288436,-2220.617826,-229.828649,11547.212695
813.288765,-3108.864956,-1225.752797,11769.274478
813.289094,-4515.256246,0.000000,11177.109724
813.289424,-4589.276840,689.485948,9844.739029
813.289753,-2886.803174,76.609550,7920.203579
813.290083,0.000000,-153.219100,6365.771101
813.290412,1776.494261,-383.047749,5921.647536
813.290741,2738.761985,-383.047749,6217.729913
813.291071,2738.761985,1225.752797,7550.100608
813.291400,1702.473667,2911.162892,9252.574275
813.291730,0.000000,4213.525239,10362.883188
813.292059,-666.185348,3294.210641,11695.253884
813.292388,-962.267725,1455.581446,12287.418637
813.292718,-962.267725,0.000000,12657.521608
813.293047,-1480.411884,0.000000,12657.521608
813.293377,-2368.659014,-153.219100,11991.336260
813.293706,-2960.823768,0.000000,11473.192101
813.294035,-3108.864956,1072.533697,10066.800811
813.294365,-1924.535449,1225.752797,8364.327145
813.294694,296.082377,689.485948,7031.956449
813.295024,1924.535449,689.485948,5921.647536
813.295353,2072.576638,1072.533697,5625.565159
813.295683,1924.535449,1302.362347,7031.956449
813.296012,370.102971,1991.848295,8364.327145
813.296341,-1036.288319,3064.381992,9622.677246
813.296671,-2294.638420,2987.772442,10510.924376
813.297000,-2368.659014,2221.676944,10881.027347
813.297330,-2368.659014,459.657299,10955.047942
813.297659,-2442.679609,0.000000,10881.027347
813.297988,-2664.741391,-766.095498,11251.130318
813.298318,-3997.112087,306.438199,11769.274478
813.298647,-4737.318029,1915.238745,11103.089130
813.298977,-4663.297435,1225.752797,8956.491898
813.299306,-2738.761985,1225.752797,7698.141797
813.299635,-148.041188,0.000000,6587.832884
813.299965,1924.535449,-995.924147,6217.729913
813.300294,2294.638420,-536.266849,6587.832884
813.300624,1850.514855,995.924147,7772.162391
813.300953,1110.308913,2374.896044,8808.450710
813.301283,518.144159,2451.505594,10288.862594
813.301612,74.020594,2604.724693,11843.295072
813.301941,-148.041188,2145.067394,12583.501014
813.302271,-518.144159,919.314598,12805.562797
813.302600,-1554.432478,153.219100,12953.603985
813.302930,-3182.885551,153.219100,12657.521608
813.303259,-4515.256246,383.047749,11843.295072
813.303588,-4515.256246,153.219100,9992.780217
813.303918,-3330.926739,0.000000,7846.182985
813.304247,-962.267725,-1302.362347,6587.832884
813.304577,592.164754,-1991.848295,5551.544565
813.304906,814.226536,-1225.752797,6439.791695
813.305235,370.102971,536.266849,7920.203579
813.305565,-592.164754,2757.943793,9178.553681
813.305894,-1628.453072,3753.867940,9844.739029
813.306224,-1924.535449,2834.553343,10140.821405
813.306553,-1184.329507,1762.019645,11325.150913
813.306883,-1036.288319,842.705048,11251.130318
813.307212,-1332.370696,76.609550,11103.089130
813.307541,-2590.720797,-536.266849,10881.027347
813.307871,-3997.112087,-536.266849,11473.192101
813.308200,-4367.215058,689.485948,10584.944971
813.308530,-3330.926739,766.095498,9252.574275
813.308859,-592.164754,0.000000,7846.182985
813.309188,2220.617826,0.000000,6439.791695
813.309518,3330.926739,0.000000,6217.729913
813.309847,3552.988522,536.266849,6587.832884
813.310177,2812.782580,1991.848295,8142.265362
813.310506,1184.329507,3753.867940,9622.677246
813.310835,-296.082377,3753.867940,11029.068536
813.311165,-888.247130,2145.067394,11621.233289
813.311494,-1406.391290,1149.143247,12065.356855
813.311824,-2072.576638,153.219100,11843.295072
813.312153,-2368.659014,-459.657299,11843.295072
813.312483,-3552.988522,0.000000,11547.212695
813.312812,-4367.215058,842.705048,10066.800811
813.313141,-3256.906145,1225.752797,8660.409521
813.313471,-1480.411884,612.876398,7624.121203
813.313800,666.185348,459.657299,7031.956449
813.314130,1554.432478,766.095498,6661.853478
813.314459,1702.473667,1378.971896,7105.977043
813.314788,962.267725,2528.115143,7994.224174
813.315118,74.020594,2911.162892,9252.574275
813.315447,-740.205942,2911.162892,9918.759623
813.315777,-1184.329507,2298.286494,10732.986159
813.316106,-962.267725,919.314598,10955.047942
813.316435,-666.185348,0.000000,10510.924376
813.316765,-1480.411884,-383.047749,11029.068536
813.317094,-2442.679609,229.828649,11843.295072
813.317424,-3923.091493,1302.362347,11547.212695
813.317753,-4441.235652,2451.505594,10436.903782
813.318083,-3108.864956,1762.019645,9104.533087
813.318412,-888.247130,459.657299,7105.977043
813.318741,888.247130,-536.266849,6587.832884
813.319071,1850.514855,-842.705048,6661.853478
813.319400,1406.391290,153.219100,7402.059420
813.319730,666.185348,1225.752797,7994.224174
813.320059,-296.082377,2298.286494,9918.759623
813.320388,-1110.308913,2911.162892,10881.027347
813.320718,-1258.350101,2374.896044,11473.192101
813.321047,-1332.370696,995.924147,11621.233289
813.321377,-1480.411884,153.219100,11769.274478
813.321706,-2442.679609,-459.657299,11695.253884
813.322035,-4219.173869,76.609550,11473.192101
813.322365,-4441.235652,383.047749,10288.862594
813.322694,-3478.967927,229.828649,8660.409521
813.323024,-962.267725,-689.485948,7031.956449
813.323353,1628.453072,-1149.143247,5921.647536
813.323683,2368.659014,-1455.581446,6217.729913
813.324012,1998.556043,153.219100,7402.059420
813.324341,518.144159,2298.286494,9030.512492
813.324671,-666.185348,3753.867940,10214.842000
813.325000,-1332.370696,3600.648841,11473.192101
813.325330,-1628.453072,2145.067394,12065.356855
813.325659,-1628.453072,1532.190996,11547.212695
813.325988,-1776.494261,0.000000,10807.006753
813.326318,-2590.720797,-919.314598,11103.089130
813.326647,-4219.173869,-919.314598,11325.150913
813.326977,-5551.544565,229.828649,10881.027347
813.327306,-4589.276840,153.219100,9992.780217
813.327635,-2368.659014,0.000000,8438.347739
813.327965,296.082377,-306.438199,7254.018232
813.328294,2220.617826,-76.609550,6513.812290
813.328624,3404.947333,536.266849,6661.853478
813.328953,3478.967927,1991.848295,7698.141797
813.329282,1998.556043,3447.429741,9400.615463
813.329612,592.164754,3677.258390,10881.027347
813.329941,0.000000,3140.991542,11843.295072
813.330271,-296.082377,2374.896044,12065.356855
813.330600,-518.144159,689.485948,11695.253884
813.330930,-1110.308913,0.000000,11399.171507
813.331259,-2220.617826,0.000000,11029.068536
813.331588,-3256.906145,689.485948,10288.862594
813.331918,-3330.926739,1225.752797,8808.450710
813.332247,-1850.514855,919.314598,7328.038826
813.332577,74.020594,919.314598,6513.812290
813.332906,888.247130,689.485948,6217.729913
813.333235,1036.288319,1072.533697,6809.894666
813.333565,444.123565,1685.410096,7772.162391
813.333894,-962.267725,3140.991542,8438.347739
813.334224,-1628.453072,3140.991542,9622.677246
813.334553,-2220.617826,2068.457845,10658.965565
813.334882,-1924.535449,1455.581446,10881.027347
813.335212,-1480.411884,383.047749,10732.986159
813.335541,-1406.391290,-536.266849,11325.150913
813.335871,-2738.761985,229.828649,11547.212695
813.336200,-3552.988522,1762.019645,11547.212695
813.336529,-3404.947333,1838.629195,10584.944971
813.336858,-2220.617826,1378.971896,8734.430116
813.337188,-148.041188,842.705048,7328.038826
813.337517,1998.556043,-536.266849,6883.915261
813.337846,2590.720797,-612.876398,7105.977043
813.338176,2146.597232,612.876398,8068.244768
813.338505,888.247130,1685.410096,8882.471304
813.338834,0.000000,2298.286494,10066.800811
813.339164,-962.267725,2221.676944,11029.068536
813.339493,-1406.391290,2068.457845,12139.377449
813.339822,-1776.494261,612.876398,12213.398043
813.340151,-2368.659014,-306.438199,12287.418637
813.340481,-4071.132681,-919.314598,11843.295072
813.340810,-4737.318029,-153.219100,11769.274478
813.341139,-4885.359217,76.609550,9992.780217
813.341469,-3775.050304,-229.828649,8216.285956
813.341798,-1258.350101,-842.705048,6735.874072
813.342127,888.247130,-1838.629195,5625.565159
813.342457,1924.535449,-1149.143247,6069.688724
813.342786,2146.597232,1225.752797,7402.059420
813.343115,814.226536,2451.505594,8512.368333
813.343444,-370.102971,3600.648841,9696.697840
813.343774,-1258.350101,3600.648841,10881.027347
813.344103,-1406.391290,2451.505594,11621.233289
813.344432,-1406.391290,1685.410096,11251.130318
813.344762,-1628.453072,383.047749,10807.006753
813.345091,-2368.659014,-995.924147,10881.027347
813.345420,-3923.091493,-842.705048,11325.150913
813.345750,-4885.359217,0.000000,10881.027347
813.346079,-4589.276840,1072.533697,9252.574275
813.346408,-2516.700203,-306.438199,7920.203579
813.346738,222.061783,-153.219100,6957.935855
813.347067,2072.576638,-383.047749,6217.729913
813.347396,2960.823768,0.000000,6957.935855
813.347725,2738.761985,995.924147,7920.203579
813.348055,1850.514855,3600.648841,9770.718434
813.348384,0.000000,3677.258390,11251.130318
813.348713,-592.164754,2528.115143,12435.459826
813.349043,-740.205942,1838.629195,12731.542202
813.349372,-888.247130,919.314598,12731.542202
813.349701,-1406.391290,459.657299,12065.356855
813.350031,-2072.576638,0.000000,11251.130318
813.350360,-3108.864956,612.876398,10362.883188
813.350689,-2738.761985,1072.533697,9030.512492
813.351018,-1480.411884,1225.752797,7476.080014
813.351348,296.082377,536.266849,6069.688724
813.351677,1332.370696,995.924147,5847.626942
813.352006,1480.411884,995.924147,6291.750507
813.352336,740.205942,2068.457845,7698.141797
813.352665,-296.082377,3064.381992,8808.450710
813.352994,-1480.411884,3064.381992,9696.697840
813.353324,-2146.597232,2298.286494,10436.903782
813.353653,-2442.679609,1225.752797,10288.862594
813.353982,-1628.453072,153.219100,10658.965565
813.354311,-1776.494261,-689.485948,11325.150913
813.354641,-2960.823768,-306.438199,11843.295072
813.354970,-3923.091493,1149.143247,11177.109724
813.355299,-4663.297435,1608.800546,10214.842000
813.355629,-3552.988522,1149.143247,8586.388927
813.355958,-1110.308913,306.438199,7328.038826
813.356287,1184.329507,-842.705048,6291.750507
813.356617,2442.679609,-766.095498,6661.853478
813.356946,2220.617826,0.000000,7031.956449
813.357275,1406.391290,1608.800546,8734.430116
813.357605,444.123565,2757.943793,10066.800811
813.357934,-370.102971,2757.943793,11251.130318
813.358263,-592.164754,2221.676944,11843.295072
813.358592,-518.144159,1302.362347,11769.274478
813.358922,-1258.350101,0.000000,12213.398043
813.359251,-2664.741391,-1072.533697,12879.583391
813.359580,-4663.297435,-459.657299,12731.542202
813.359910,-5847.626942,383.047749,11843.295072
813.360239,-5107.421000,0.000000,9548.656652
813.360568,-2664.741391,-689.485948,7402.059420
813.360898,-148.041188,-1685.410096,5625.565159
813.361227,1702.473667,-2298.286494,5551.544565
813.361556,2220.617826,-689.485948,6661.853478
813.361885,814.226536,1762.019645,8512.368333
813.362215,-444.123565,4673.182538,9696.697840
813.362544,-1258.350101,4136.915689,10584.944971
813.362873,-1332.370696,3524.039291,11325.150913
813.363203,-666.185348,2145.067394,11325.150913
813.363532,-740.205942,536.266849,10658.965565
813.363861,-1554.432478,306.438199,10066.800811
813.364191,-3404.947333,-459.657299,10807.006753
813.364520,-4885.359217,0.000000,11029.068536
813.364849,-4959.379811,689.485948,10214.842000
813.365179,-3330.926739,459.657299,8808.450710
813.365508,-518.144159,-612.876398,6957.935855
813.365837,1406.391290,-1149.143247,5847.626942
813.366166,2812.782580,-306.438199,6143.709319
813.366496,3256.906145,459.657299,7328.038826
813.366825,2368.659014,2834.553343,8882.471304
813.367154,518.144159,4060.306139,9844.739029
813.367484,-666.185348,3600.648841,11547.212695
813.367813,-370.102971,1915.238745,12509.480420
813.368142,-592.164754,1225.752797,12509.480420
813.368472,-1554.432478,229.828649,11843.295072
813.368801,-1998.556043,229.828649,11769.274478
813.369130,-2590.720797,612.876398,11103.089130
813.369459,-3330.926739,919.314598,9400.615463
813.369789,-1924.535449,766.095498,7772.162391
813.370118,0.000000,612.876398,6661.853478
813.370447,1554.432478,536.266849,6217.729913
813.370777,2294.638420,1072.533697,6587.832884
813.371106,1184.329507,1455.581446,7994.224174
813.371435,-148.041188,2911.162892,8956.491898
813.371765,-1406.391290,3217.601092,9918.759623
813.372094,-1924.535449,2681.334243,10584.944971
813.372423,-1776.494261,1302.362347,10955.047942
813.372752,-1554.432478,76.609550,11029.068536
813.373082,-1776.494261,-995.924147,11547.212695
813.373411,-2812.782580,-612.876398,11917.315666
813.373740,-4071.132681,995.924147,11399.171507
813.374070,-4293.194464,1608.800546,10214.842000
813.374399,-3256.906145,1378.971896,8956.491898
813.374728,-1110.308913,689.485948,7402.059420
813.375058,1110.308913,-306.438199,6439.791695
813.375387,2368.659014,0.000000,6291.750507
813.375716,2294.638420,766.095498,7328.038826
813.376046,1184.329507,2068.457845,8586.388927
813.376375,0.000000,2298.286494,9770.718434
813.376704,-1036.288319,2528.115143,10807.006753
813.377033,-1110.308913,1991.848295,11695.253884
813.377363,-1332.370696,536.266849,12361.439231
813.377692,-1998.556043,-153.219100,12139.377449
813.378021,-2812.782580,-459.657299,11991.336260
813.378351,-4589.276840,-153.219100,11399.171507
813.378680,-4737.318029,612.876398,10066.800811
813.379009,-4071.132681,383.047749,8290.306550
813.379339,-1628.453072,-536.266849,6587.832884
813.379668,444.123565,-689.485948,5699.585753
813.379997,1628.453072,-919.314598,6143.709319
813.380326,1776.494261,153.219100,7105.977043
813.380656,592.164754,2298.286494,8956.491898
813.380985,-888.247130,3983.696590,10214.842000
813.381314,-1480.411884,3677.258390,11103.089130
813.381644,-1258.350101,2681.334243,11769.274478
813.381973,-1480.411884,1762.019645,11843.295072
813.382302,-1628.453072,76.609550,11621.233289
813.382632,-2072.576638,-1378.971896,11843.295072
813.382961,-3849.070898,-842.705048,12213.398043
813.383290,-4811.338623,612.876398,10881.027347
813.383620,-4515.256246,689.485948,8956.491898
813.383949,-2220.617826,0.000000,7402.059420
813.384278,814.226536,-689.485948,5921.647536
813.384607,3182.885551,-766.095498,5329.482782
813.384937,4367.215058,-76.609550,5773.606348
813.385266,3330.926739,2145.067394,7846.182985
813.385595,1628.453072,3753.867940,9696.697840
813.385925,0.000000,4213.525239,11547.212695
813.386254,-592.164754,3294.210641,12805.562797
813.386583,-740.205942,1915.238745,13101.645173
813.386913,-1332.370696,842.705048,13027.624579
813.387242,-1776.494261,-383.047749,11991.336260
813.387571,-2590.720797,-995.924147,11325.150913
813.387900,-3256.906145,76.609550,10140.821405
813.388230,-3330.926739,1225.752797,8660.409521
813.388559,-1924.535449,842.705048,6513.812290
813.388888,296.082377,766.095498,5921.647536
813.389218,1776.494261,612.876398,5403.503377
813.389547,1924.535449,1302.362347,5995.668130
813.389876,1480.411884,2221.676944,7772.162391
813.390206,0.000000,3447.429741,8660.409521
813.390535,-1776.494261,3907.087040,10362.883188
813.390864,-2442.679609,2911.162892,11399.171507
813.391193,-2072.576638,1455.581446,11399.171507
813.391523,-1628.453072,-229.828649,11177.109724
813.391852,-1110.308913,-536.266849,11473.192101
813.392181,-2368.659014,-766.095498,11399.171507
813.392511,-3478.967927,1149.143247,11547.212695
813.392840,-3849.070898,2145.067394,10140.821405
813.393169,-2960.823768,1991.848295,8512.368333
813.393499,-740.205942,1072.533697,7698.141797
813.393828,1850.514855,536.266849,7402.059420
