#time,accel_x,accel_y,accel_z
1074.165591,-888.247130,766.095498,9474.636058
1074.165921,-962.267725,919.314598,9548.656652
1074.166251,-1110.308913,919.314598,9622.677246
1074.166580,-1332.370696,459.657299,9252.574275
1074.166910,-1110.308913,842.705048,9696.697840
1074.167240,-962.267725,919.314598,9696.697840
1074.167569,-1110.308913,842.705048,9548.656652
1074.167899,-962.267725,919.314598,9622.677246
1074.168229,-1110.308913,689.485948,8956.491898
1074.168558,-1184.329507,919.314598,9548.656652
1074.168888,-1036.288319,842.705048,9622.677246
1074.169217,-1184.329507,919.314598,9548.656652
1074.169547,-1036.288319,766.095498,9548.656652
1074.169877,-740.205942,459.657299,9770.718434
1074.170206,-592.164754,459.657299,9326.594869
1074.170536,-1036.288319,1072.533697,9622.677246
1074.170866,-1036.288319,766.095498,9474.636058
1074.171195,-1036.288319,919.314598,9548.656652
1074.171525,-1036.288319,919.314598,9696.697840
1074.171855,-1036.288319,842.705048,9696.697840
1074.172184,-962.267725,766.095498,9474.636058
1074.172514,-1110.308913,842.705048,9622.677246
1074.172844,-1258.350101,842.705048,9474.636058
1074.173173,-1110.308913,995.924147,9474.636058
1074.173503,-1258.350101,689.485948,9622.677246
1074.173833,-814.226536,995.924147,9104.533087
1074.174162,-1036.288319,766.095498,9696.697840
1074.174492,-1036.288319,919.314598,9548.656652
1074.174822,-1036.288319,995.924147,9474.636058
1074.175151,-962.267725,919.314598,9178.553681
1074.175481,-740.205942,306.438199,9400.615463
1074.175811,-1184.329507,689.485948,9548.656652
1074.176140,-1110.308913,995.924147,9474.636058
1074.176470,-962.267725,995.924147,9622.677246
1074.176799,-1036.288319,1072.533697,9696.697840
1074.177129,-814.226536,1072.533697,9770.718434
1074.177459,-1184.329507,919.314598,9400.615463
1074.177788,-1036.288319,919.314598,9474.636058
1074.178118,-1184.329507,919.314598,9474.636058
1074.178448,-1036.288319,689.485948,9622.677246
1074.178777,-1036.288319,306.438199,9400.615463
1074.179107,-1406.391290,842.705048,9474.636058
1074.179437,-1036.288319,919.314598,9622.677246
1074.179766,-1036.288319,842.705048,9696.697840
1074.180096,-1036.288319,766.095498,9696.697840
1074.180426,-1110.308913,612.876398,9622.677246
1074.180755,-1184.329507,1072.533697,9400.615463
1074.181085,-1110.308913,842.705048,9622.677246
1074.181415,-1184.329507,766.095498,9548.656652
1074.181744,-962.267725,995.924147,9622.677246
1074.182074,-962.267725,842.705048,9622.677246
1074.182404,-962.267725,1302.362347,9474.636058
1074.182733,-1036.288319,689.485948,9548.656652
1074.183063,-1184.329507,842.705048,9474.636058
1074.183393,-962.267725,1149.143247,9622.677246
1074.183722,-1036.288319,1149.143247,9696.697840
1074.184052,-962.267725,612.876398,9474.636058
1074.184382,-1036.288319,995.924147,9548.656652
1074.184711,-1184.329507,689.485948,9474.636058
1074.185041,-1036.288319,842.705048,9622.677246
1074.185370,-962.267725,689.485948,9400.615463
1074.185700,-1036.288319,612.876398,9474.636058
1074.186030,-666.185348,1149.143247,9474.636058
1074.186359,-1184.329507,842.705048,9400.615463
1074.186689,-1110.308913,919.314598,9474.636058
1074.187019,-962.267725,766.095498,9400.615463
1074.187348,-1110.308913,1149.143247,9474.636058
1074.187678,-1036.288319,1149.143247,9844.739029
1074.188008,-1184.329507,842.705048,9474.636058
1074.188337,-1036.288319,766.095498,9548.656652
1074.188667,-888.247130,1072.533697,9252.574275
1074.188997,-296.082377,1072.533697,9400.615463
1074.189326,222.061783,842.705048,8956.491898
1074.189656,1332.370696,766.095498,9252.574275
1074.189986,814.226536,766.095498,9252.574275
1074.190315,592.164754,459.657299,9622.677246
1074.190645,0.000000,995.924147,10288.862594
1074.190975,-296.082377,1225.752797,10658.965565
1074.191304,-444.123565,612.876398,10510.924376
1074.191634,-592.164754,459.657299,10066.800811
1074.191964,0.000000,0.000000,9696.697840
1074.192293,592.164754,76.609550,9548.656652
1074.192623,1554.432478,0.000000,9030.512492
1074.192952,2590.720797,766.095498,8438.347739
1074.193282,3034.844362,919.314598,8586.388927
1074.193612,3552.988522,1532.190996,9030.512492
1074.193941,3627.009116,2068.457845,9252.574275
1074.194271,3552.988522,1762.019645,9548.656652
1074.194601,3256.906145,1225.752797,9918.759623
1074.194930,1924.535449,1072.533697,10214.842000
1074.195260,1554.432478,842.705048,10658.965565
1074.195590,1258.350101,383.047749,10658.965565
1074.195919,1554.432478,-306.438199,10140.821405
1074.196249,2072.576638,0.000000,9400.615463
1074.196579,2664.741391,-383.047749,9326.594869
1074.196908,3701.029710,0.000000,9104.533087
1074.197238,4145.153275,1149.143247,9104.533087
1074.197568,4071.132681,2374.896044,9474.636058
1074.197897,3552.988522,3140.991542,9622.677246
1074.198227,2146.597232,2834.553343,10214.842000
1074.198557,0.000000,2604.724693,10362.883188
1074.198886,-1628.453072,2068.457845,10066.800811
1074.199216,-2146.597232,919.314598,9104.533087
1074.199546,-962.267725,-229.828649,8290.306550
1074.199875,962.267725,-1072.533697,7254.018232
1074.200205,2368.659014,-1302.362347,6587.832884
1074.200535,3627.009116,-612.876398,6291.750507
1074.200864,4441.235652,842.705048,7105.977043
1074.201194,3701.029710,2834.553343,9178.553681
1074.201523,2442.679609,4826.401637,11029.068536
1074.201853,1036.288319,4979.620737,12139.377449
1074.202183,0.000000,3677.258390,12805.562797
1074.202512,-1184.329507,1762.019645,12361.439231
1074.202842,-1628.453072,-536.266849,11917.315666
1074.203172,-1554.432478,-2757.943793,11103.089130
1074.203501,-1110.308913,-3217.601092,9696.697840
1074.203831,0.000000,-2221.676944,8808.450710
1074.204161,1628.453072,-1762.019645,8142.265362
1074.204490,3701.029710,-842.705048,7550.100608
1074.204820,4885.359217,689.485948,7254.018232
1074.205150,5255.462188,2528.115143,7402.059420
1074.205479,5255.462188,3140.991542,8808.450710
1074.205809,4737.318029,4596.572988,10066.800811
1074.206139,3478.967927,4366.744339,10881.027347
1074.206468,2368.659014,2757.943793,11769.274478
1074.206798,1036.288319,1685.410096,11843.295072
1074.207128,0.000000,536.266849,10584.944971
1074.207457,-592.164754,-1302.362347,10510.924376
1074.207787,-814.226536,-1455.581446,10658.965565
1074.208117,-666.185348,-1608.800546,10362.883188
1074.208446,-444.123565,-919.314598,9770.718434
1074.208776,0.000000,-383.047749,8734.430116
1074.209106,1554.432478,459.657299,8290.306550
1074.209435,2664.741391,536.266849,8290.306550
1074.209765,3701.029710,689.485948,8290.306550
1074.210094,4293.194464,383.047749,8068.244768
1074.210424,4811.338623,766.095498,8438.347739
1074.210754,4293.194464,919.314598,9326.594869
1074.211083,3034.844362,1378.971896,9918.759623
1074.211413,2368.659014,1762.019645,10658.965565
1074.211743,1998.556043,1915.238745,10584.944971
1074.212072,2442.679609,2145.067394,10658.965565
1074.212402,2664.741391,2145.067394,10362.883188
1074.212732,2442.679609,1455.581446,9400.615463
1074.213061,3108.864956,1225.752797,8290.306550
1074.213391,3404.947333,842.705048,8290.306550
1074.213721,2886.803174,995.924147,8438.347739
1074.214050,1554.432478,689.485948,8808.450710
1074.214380,592.164754,536.266849,9474.636058
1074.214710,-444.123565,459.657299,10140.821405
1074.215039,-1628.453072,0.000000,10510.924376
1074.215369,-1924.535449,-383.047749,11325.150913
1074.215699,-1554.432478,-536.266849,11473.192101
1074.216028,-2072.576638,-153.219100,11177.109724
1074.216358,-1184.329507,0.000000,10510.924376
1074.216688,0.000000,76.609550,9326.594869
1074.217017,2368.659014,612.876398,8216.285956
1074.217347,4959.379811,1608.800546,7402.059420
1074.217676,7550.100608,2604.724693,7698.141797
1074.218006,9252.574275,2911.162892,7624.121203
1074.218336,8956.491898,4213.525239,8734.430116
1074.218665,7105.977043,4826.401637,10214.842000
1074.218995,3997.112087,4749.792088,11621.233289
1074.219325,1924.535449,3524.039291,13841.851115
1074.219654,-1776.494261,1608.800546,15692.365970
1074.219984,-5699.585753,76.609550,14730.098246
1074.220314,-7994.224174,-689.485948,12287.418637
1074.220643,-7476.080014,-2451.505594,9548.656652
1074.220973,-3849.070898,-3294.210641,6513.812290
1074.221303,518.144159,-4443.353888,2072.576638
1074.221632,5847.626942,-4673.182538,-0.000000
1074.221962,9696.697840,-2068.457845,1332.370696
1074.222292,10140.821405,3524.039291,4293.194464
1074.222621,8364.327145,7431.126331,7179.997637
1074.222951,6957.935855,8656.879127,10510.924376
1074.223281,4219.173869,8733.488677,13989.892304
1074.223610,148.041188,7584.345430,15544.324782
1074.223940,-3108.864956,2145.067394,17320.819043
1074.224270,-5255.462188,-1685.410096,17172.777854
1074.224599,-6883.915261,-1532.190996,13989.892304
1074.224929,-4811.338623,-4749.792088,10066.800811
1074.225259,0.000000,-7814.174080,7920.203579
1074.225588,4515.256246,-6205.373534,4811.338623
1074.225918,7698.141797,-3370.820191,1628.453072
1074.226247,11991.336260,-1685.410096,2738.761985
1074.226577,12583.501014,2374.896044,7105.977043
1074.226907,8586.388927,8503.660028,10288.862594
1074.227236,3108.864956,8810.098227,12435.459826
1074.227566,-666.185348,7124.688131,14211.954086
1074.227896,-1776.494261,4979.620737,13989.892304
1074.228225,-1480.411884,842.705048,13471.748144
1074.228555,-1554.432478,-3830.477490,10140.821405
1074.228885,-1554.432478,-6665.030833,6217.729913
1074.229214,0.000000,-6818.249932,4737.318029
1074.229544,1332.370696,-5362.668486,6957.935855
1074.229874,1332.370696,-995.924147,8808.450710
1074.230203,148.041188,2911.162892,9548.656652
1074.230533,1036.288319,3524.039291,10436.903782
1074.230863,2738.761985,4060.306139,11547.212695
1074.231192,3627.009116,2681.334243,12657.521608
1074.231522,3034.844362,995.924147,12509.480420
1074.231852,740.205942,689.485948,11621.233289
1074.232181,-296.082377,-383.047749,12213.398043
1074.232511,-1480.411884,-689.485948,11399.171507
1074.232841,-666.185348,-1991.848295,8364.327145
1074.233170,1406.391290,-3600.648841,4885.359217
1074.233500,5033.400406,-3064.381992,4219.173869
1074.233829,8068.244768,-459.657299,5329.482782
1074.234159,9918.759623,2221.676944,6439.791695
1074.234489,9252.574275,4060.306139,8216.285956
1074.234818,5847.626942,6128.763984,9918.759623
1074.235148,2738.761985,7660.954980,12065.356855
1074.235478,0.000000,6511.811733,14211.954086
1074.235807,-2738.761985,2834.553343,15914.427753
1074.236137,-4811.338623,-306.438199,15692.365970
1074.236467,-7328.038826,-2451.505594,13841.851115
1074.236796,-7550.100608,-4443.353888,11399.171507
1074.237126,-5995.668130,-5975.544884,9474.636058
1074.237456,-5107.421000,-4136.915689,7624.121203
1074.237785,-2146.597232,-1991.848295,4737.318029
1074.238115,3775.050304,-766.095498,2960.823768
1074.238445,9622.677246,383.047749,2812.782580
1074.238775,12879.583391,4060.306139,4145.153275
1074.239104,12731.542202,6665.030833,6957.935855
1074.239434,10510.924376,9269.755526,10140.821405
1074.239764,7179.997637,10801.946522,11917.315666
1074.240094,3775.050304,9346.365076,13915.871710
1074.240423,1850.514855,5286.058936,15840.407159
1074.240753,592.164754,536.266849,15618.345376
1074.241083,-1480.411884,-2145.067394,13619.789333
1074.241413,-3923.091493,-3294.210641,11103.089130
1074.241742,-5181.441594,-3677.258390,10066.800811
1074.242072,-4885.359217,-2451.505594,9770.718434
1074.242402,-3627.009116,-689.485948,7994.224174
1074.242732,148.041188,0.000000,3478.967927
1074.243062,5329.482782,612.876398,-222.061783
1074.243391,11103.089130,0.000000,888.247130
1074.243721,11917.315666,995.924147,4219.173869
1074.244051,6883.915261,4903.011187,7179.997637
1074.244381,2294.638420,7737.564530,10362.883188
1074.244710,740.205942,7814.174080,13545.768739
1074.245040,-740.205942,5975.544884,15100.201217
1074.245370,-2886.803174,2145.067394,14804.118840
1074.245700,-4589.276840,-5286.058936,14137.933492
1074.246029,-6809.894666,-7890.783629,12065.356855
1074.246359,-9548.656652,-3677.258390,11695.253884
1074.246689,-8290.306550,-1915.238745,11621.233289
1074.247019,-3923.091493,-2451.505594,9104.533087
1074.247348,1702.473667,-3217.601092,5403.503377
1074.247678,7031.956449,-4213.525239,5403.503377
1074.248008,8142.265362,-919.314598,5699.585753
1074.248338,5181.441594,5515.887586,7105.977043
1074.248667,2072.576638,7660.954980,11547.212695
1074.248997,1554.432478,7201.297681,16358.551318
1074.249327,148.041188,6128.763984,17024.736666
1074.249657,-2812.782580,2681.334243,14952.160028
1074.249987,-5329.482782,-1225.752797,11251.130318
1074.250316,-6809.894666,-3524.039291,8660.409521
1074.250646,-6217.729913,-4749.792088,8438.347739
1074.250976,-3330.926739,-5898.935335,7772.162391
1074.251306,-2516.700203,-4443.353888,6513.812290
1074.251635,-2220.617826,-995.924147,5847.626942
1074.251965,-592.164754,766.095498,4885.359217
1074.252295,1628.453072,2604.724693,6439.791695
1074.252625,3404.947333,3677.258390,10658.965565
1074.252954,4145.153275,6741.640382,13101.645173
1074.253284,3552.988522,9499.584175,13767.830521
1074.253614,740.205942,6665.030833,11547.212695
1074.253944,-3775.050304,2068.457845,9104.533087
1074.254273,-6883.915261,-536.266849,7772.162391
1074.254603,-6217.729913,-1991.848295,9326.594869
1074.254933,-3552.988522,-2451.505594,8660.409521
1074.255263,-962.267725,-3370.820191,6069.688724
1074.255592,74.020594,-4903.011187,4219.173869
1074.255922,1554.432478,-3524.039291,2886.803174
1074.256252,4367.215058,-612.876398,2516.700203
1074.256582,7105.977043,1378.971896,7105.977043
1074.256912,7105.977043,6358.592633,12435.459826
1074.257241,4515.256246,11644.651570,15840.407159
1074.257571,1184.329507,8810.098227,17320.819043
1074.257901,-2368.659014,3140.991542,15322.262999
1074.258231,-6365.771101,2298.286494,13027.624579
1074.258560,-8216.285956,1838.629195,11769.274478
1074.258890,-6735.874072,-2834.553343,10066.800811
1074.259220,-3849.070898,-6435.202183,7772.162391
1074.259550,-2294.638420,-8886.707777,4811.338623
1074.259879,-1036.288319,-6741.640382,3404.947333
1074.260209,0.000000,-229.828649,3997.112087
1074.260539,1702.473667,4903.011187,7031.956449
1074.260869,2812.782580,6205.373534,10436.903782
1074.261198,2960.823768,7507.735880,13989.892304
1074.261528,888.247130,7660.954980,15988.448347
1074.261858,-3478.967927,6128.763984,15692.365970
1074.262188,-7550.100608,6435.202183,14582.057057
1074.262517,-8586.388927,2528.115143,13471.748144
1074.262847,-5403.503377,-4903.011187,11103.089130
1074.263177,-2960.823768,-8120.612279,7105.977043
1074.263507,-740.205942,-8044.002729,4441.235652
1074.263837,666.185348,-6128.763984,3849.070898
1074.264166,2960.823768,-1225.752797,5255.462188
1074.264496,5033.400406,3524.039291,6365.771101
1074.264826,7105.977043,6128.763984,8068.244768
1074.265156,6661.853478,9193.145976,10436.903782
1074.265485,3182.885551,10725.336972,13101.645173
1074.265815,-1998.556043,9269.755526,12879.583391
1074.266145,-6587.832884,5286.058936,11399.171507
1074.266475,-7624.121203,689.485948,10288.862594
1074.266804,-5921.647536,-5056.230287,9104.533087
1074.267134,-4441.235652,-8503.660028,6439.791695
1074.267464,-3997.112087,-9346.365076,3701.029710
1074.267794,-3182.885551,-7507.735880,2442.679609
1074.268123,296.082377,-3140.991542,3997.112087
1074.268453,4071.132681,995.924147,7105.977043
1074.268783,6069.688724,4596.572988,10140.821405
1074.269113,4811.338623,9039.926876,12509.480420
1074.269442,222.061783,9116.536426,13693.809927
1074.269772,-3478.967927,7354.516781,13989.892304
1074.270102,-5699.585753,5056.230287,15766.386565
1074.270432,-6735.874072,1455.581446,14952.160028
1074.270762,-5699.585753,-3753.867940,11695.253884
1074.271091,-3849.070898,-9499.584175,7772.162391
1074.271421,-1924.535449,-11338.213370,5699.585753
1074.271751,-296.082377,-8197.221829,3849.070898
1074.272081,2442.679609,-2451.505594,4219.173869
1074.272410,5847.626942,919.314598,7105.977043
1074.272740,7031.956449,4903.011187,11399.171507
1074.273070,4959.379811,10112.460574,15174.221811
1074.273400,296.082377,10342.289223,17616.901420
1074.273729,-4959.379811,10035.851024,16580.613101
1074.274059,-9104.533087,8273.831378,15100.201217
1074.274389,-8586.388927,1378.971896,13915.871710
1074.274719,-5403.503377,-6665.030833,11843.295072
1074.275048,-3997.112087,-9882.631924,7476.080014
1074.275378,-2664.741391,-9959.241474,2960.823768
1074.275708,-370.102971,-7354.516781,1036.288319
1074.276038,3627.009116,-1838.629195,2072.576638
1074.276367,6291.750507,2681.334243,4885.359217
1074.276697,5847.626942,5132.839837,9030.512492
1074.277027,2960.823768,12410.747068,12731.542202
1074.277357,-814.226536,16547.662757,13397.727550
1074.277687,-3701.029710,11644.651570,12583.501014
1074.278016,-5995.668130,5669.106685,13027.624579
1074.278346,-5847.626942,383.047749,11399.171507
1074.278676,-2960.823768,-5822.325785,9104.533087
1074.279006,-1184.329507,-9346.365076,4811.338623
1074.279335,-1702.473667,-7277.907231,2072.576638
1074.279665,-148.041188,-5515.887586,1480.411884
1074.279995,4145.153275,-4366.744339,4885.359217
1074.280325,7402.059420,1685.410096,8364.327145
1074.280654,6439.791695,7967.393179,9400.615463
1074.280984,4219.173869,11874.480219,10214.842000
1074.281314,-296.082377,9346.365076,12879.583391
1074.281644,-4071.132681,6358.592633,16210.510130
1074.281973,-7624.121203,3907.087040,17394.839637
1074.282303,-8734.430116,1532.190996,14211.954086
1074.282633,-6809.894666,-4213.525239,9474.636058
1074.282963,-4515.256246,-11568.042020,6883.915261
1074.283292,-2516.700203,-12717.185267,4737.318029
1074.283622,222.061783,-9652.803275,4515.256246
1074.283952,2812.782580,-3294.210641,5403.503377
1074.284282,4737.318029,5209.449386,7624.121203
1074.284611,4663.297435,8733.488677,12435.459826
1074.284941,3552.988522,7277.907231,16580.613101
1074.285271,-1776.494261,8580.269578,17542.880825
1074.285601,-6291.750507,10035.851024,17172.777854
1074.285931,-8586.388927,7201.297681,16728.654289
1074.286260,-7105.977043,919.314598,14359.995275
1074.286590,-5033.400406,-6818.249932,10140.821405
1074.286920,-2886.803174,-13406.671215,5033.400406
1074.287250,-740.205942,-11951.089769,2442.679609
1074.287579,1480.411884,-4826.401637,1998.556043
1074.287909,3923.091493,-229.828649,4293.194464
1074.288239,5477.523971,3294.210641,7031.956449
1074.288569,4737.318029,6971.469032,9918.759623
1074.288898,3701.029710,11108.384721,11991.336260
1074.289228,-518.144159,12947.013916,13101.645173
1074.289558,-4959.379811,12027.699319,13693.809927
1074.289888,-7402.059420,6358.592633,13323.706956
1074.290217,-6143.709319,-153.219100,10436.903782
1074.290547,-3775.050304,-6971.469032,6883.915261
1074.290877,-2738.761985,-9499.584175,3775.050304
1074.291207,-1998.556043,-7201.297681,2220.617826
1074.291536,-148.041188,-4979.620737,2368.659014
1074.291866,2516.700203,-1762.019645,4441.235652
1074.292196,4441.235652,2911.162892,6809.894666
1074.292526,4219.173869,7967.393179,9770.718434
1074.292856,1776.494261,11414.822920,12361.439231
1074.293185,-3627.009116,11721.261119,13767.830521
1074.293515,-6439.791695,9039.926876,14730.098246
1074.293845,-7550.100608,3524.039291,13841.851115
1074.294175,-5995.668130,-1608.800546,11769.274478
1074.294504,-4737.318029,-6281.983084,9474.636058
1074.294834,-4367.215058,-10418.898773,6439.791695
1074.295164,-2664.741391,-9882.631924,4219.173869
1074.295494,888.247130,-6281.983084,4145.153275
1074.295823,5255.462188,-1149.143247,6365.771101
1074.296153,6587.832884,2911.162892,10140.821405
1074.296483,4737.318029,8503.660028,14211.954086
1074.296813,1110.308913,11031.775171,17246.798449
1074.297142,-3330.926739,10572.117872,17246.798449
1074.297472,-6069.688724,9346.365076,17024.736666
1074.297802,-7179.997637,3907.087040,15692.365970
1074.298132,-5033.400406,-2451.505594,12287.418637
1074.298461,-2368.659014,-8733.488677,8290.306550
1074.298791,-1998.556043,-11261.603821,4145.153275
1074.299121,-2368.659014,-9039.926876,2516.700203
1074.299451,-1184.329507,-4749.792088,3775.050304
1074.299781,1628.453072,689.485948,6439.791695
1074.300110,4515.256246,4903.011187,8364.327145
1074.300440,3256.906145,7124.688131,10881.027347
1074.300770,-148.041188,10572.117872,12731.542202
1074.301100,-4293.194464,11644.651570,13027.624579
1074.301429,-5329.482782,7737.564530,12879.583391
1074.301759,-4811.338623,2528.115143,11473.192101
1074.302089,-3330.926739,-2145.067394,9474.636058
1074.302419,-1998.556043,-7354.516781,5477.523971
1074.302748,-592.164754,-9422.974625,3182.885551
1074.303078,1332.370696,-5745.716235,2368.659014
1074.303408,3404.947333,-1685.410096,2886.803174
1074.303738,5551.544565,1072.533697,4145.153275
1074.304067,6217.729913,4826.401637,8142.265362
1074.304397,5107.421000,8580.269578,11621.233289
1074.304727,666.185348,9882.631924,13101.645173
1074.305057,-5329.482782,10035.851024,13397.727550
1074.305386,-8438.347739,6205.373534,14211.954086
1074.305716,-8068.244768,76.609550,14359.995275
1074.306046,-6587.832884,-4519.963438,12435.459826
1074.306376,-5255.462188,-8810.098227,8290.306550
1074.306706,-3923.091493,-10648.727422,4219.173869
1074.307035,-1258.350101,-10801.946522,3182.885551
1074.307365,2590.720797,-5209.449386,5921.647536
1074.307695,5625.565159,0.000000,9474.636058
1074.308025,5403.503377,5898.935335,12583.501014
1074.308354,2738.761985,10725.336972,13989.892304
1074.308684,-666.185348,10342.289223,15174.221811
1074.309014,-2960.823768,8886.707777,16210.510130
1074.309344,-4663.297435,5362.668486,16580.613101
1074.309673,-4293.194464,383.047749,14582.057057
1074.310003,-4071.132681,-4213.525239,11325.150913
1074.310333,-3404.947333,-8044.002729,8068.244768
1074.310663,-1702.473667,-8733.488677,4737.318029
1074.310992,740.205942,-6665.030833,3330.926739
1074.311322,4145.153275,-2451.505594,3627.009116
1074.311652,6513.812290,1762.019645,6883.915261
1074.311982,5551.544565,6128.763984,10732.986159
1074.312311,1850.514855,11108.384721,12583.501014
1074.312641,-3404.947333,11874.480219,13101.645173
1074.312971,-6365.771101,10265.679673,13693.809927
1074.313301,-7254.018232,6205.373534,13545.768739
1074.313631,-5995.668130,-459.657299,11103.089130
1074.313960,-3627.009116,-6588.421283,7105.977043
1074.314290,-2664.741391,-9959.241474,2886.803174
1074.314620,-1332.370696,-8810.098227,1184.329507
1074.314950,740.205942,-4903.011187,2664.741391
1074.315279,3627.009116,0.000000,4071.132681
1074.315609,5403.503377,4979.620737,5995.668130
1074.315939,4589.276840,7890.783629,7920.203579
1074.316269,2368.659014,10955.165621,11991.336260
1074.316598,-2368.659014,11568.042020,15988.448347
1074.316928,-6957.935855,9576.193725,15692.365970
1074.317258,-9548.656652,5515.887586,13989.892304
1074.317588,-8290.306550,-2068.457845,11029.068536
1074.317917,-5329.482782,-7890.783629,8660.409521
1074.318247,-3552.988522,-11414.822920,5329.482782
1074.318577,-1258.350101,-10418.898773,3034.844362
1074.318907,1406.391290,-6665.030833,3552.988522
1074.319236,3256.906145,-1532.190996,6513.812290
1074.319566,4811.338623,3064.381992,10066.800811
1074.319896,3478.967927,7354.516781,13175.665768
1074.320226,1258.350101,10189.070123,15396.283594
1074.320556,-2960.823768,10878.556072,16210.510130
1074.320885,-5625.565159,7584.345430,15988.448347
1074.321215,-5921.647536,2604.724693,14730.098246
1074.321545,-4145.153275,-3677.258390,12805.562797
1074.321875,-3997.112087,-7967.393179,9918.759623
1074.322204,-4515.256246,-8580.269578,6365.771101
1074.322534,-2590.720797,-7967.393179,4959.379811
1074.322864,666.185348,-5745.716235,5107.421000
1074.323194,3256.906145,-2145.067394,7179.997637
1074.323523,3997.112087,3600.648841,10732.986159
1074.323853,3627.009116,9499.584175,12805.562797
1074.324183,1406.391290,10725.336972,11917.315666
1074.324513,-2220.617826,8120.612279,11547.212695
1074.324842,-4737.318029,4290.134789,14063.912898
1074.325172,-5477.523971,3370.820191,14285.974681
1074.325502,-4293.194464,-612.876398,11325.150913
1074.325832,-2368.659014,-5592.497135,6439.791695
1074.326161,-740.205942,-7124.688131,1998.556043
1074.326491,2368.659014,-7584.345430,-148.041188
1074.326821,6365.771101,-5745.716235,1850.514855
1074.327151,8142.265362,1225.752797,5477.523971
1074.327481,6365.771101,9116.536426,9252.574275
1074.327810,2220.617826,12717.185267,11547.212695
1074.328140,-1406.391290,11644.651570,11917.315666
1074.328470,-5255.462188,8044.002729,13471.748144
1074.328800,-7031.956449,3830.477490,15174.221811
1074.329129,-7994.224174,1149.143247,14211.954086
1074.329459,-7994.224174,-2451.505594,10510.924376
1074.329789,-7031.956449,-8350.440928,5477.523971
1074.330119,-4885.359217,-10878.556072,1554.432478
1074.330448,0.000000,-8963.317327,1998.556043
1074.330778,4737.318029,-4749.792088,5403.503377
1074.331108,5551.544565,2068.457845,9178.553681
1074.331438,2812.782580,9346.365076,10510.924376
1074.331767,740.205942,11108.384721,11917.315666
1074.332097,-1110.308913,9039.926876,14878.139434
1074.332427,-3997.112087,8963.317327,16210.510130
1074.332757,-5773.606348,5286.058936,16062.468941
1074.333086,-5773.606348,-1302.362347,13767.830521
1074.333416,-4589.276840,-4979.620737,11547.212695
1074.333746,-4071.132681,-8810.098227,8290.306550
1074.334076,-2368.659014,-9806.022374,5551.544565
1074.334406,518.144159,-5975.544884,4515.256246
1074.334735,4071.132681,-689.485948,6365.771101
1074.335065,5773.606348,2451.505594,9326.594869
1074.335395,4663.297435,6281.983084,12139.377449
1074.335725,1036.288319,10725.336972,13397.727550
1074.336054,-3849.070898,11108.384721,13989.892304
1074.336384,-6735.874072,8733.488677,14063.912898
1074.336714,-7476.080014,3907.087040,14434.015869
1074.337044,-6217.729913,-3140.991542,12139.377449
1074.337373,-5033.400406,-7201.297681,7402.059420
1074.337703,-4293.194464,-8656.879127,2664.741391
1074.338033,-740.205942,-8273.831378,1184.329507
1074.338363,3775.050304,-5898.935335,2146.597232
1074.338693,6513.812290,-1072.533697,4219.173869
1074.339022,7105.977043,4903.011187,6883.915261
1074.339352,6069.688724,11261.603821,8882.471304
1074.339682,4145.153275,13176.842566,11251.130318
1074.340012,-740.205942,11721.261119,12657.521608
1074.340341,-4885.359217,7277.907231,14878.139434
1074.340671,-6365.771101,2298.286494,15100.201217
1074.341001,-6513.812290,-1455.581446,12805.562797
1074.341331,-6513.812290,-5439.278036,8956.491898
1074.341661,-4959.379811,-8427.050478,4663.297435
1074.341990,-1998.556043,-9806.022374,1924.535449
1074.342320,2960.823768,-8197.221829,1332.370696
1074.342650,6069.688724,-2681.334243,4737.318029
1074.342980,6217.729913,4903.011187,9474.636058
1074.343309,2738.761985,10495.508323,12805.562797
1074.343639,-1332.370696,10418.898773,12731.542202
1074.343969,-4885.359217,7277.907231,15766.386565
1074.344299,-5995.668130,5209.449386,17542.880825
1074.344629,-7698.141797,2911.162892,15470.304188
1074.344958,-7698.141797,-2757.943793,11473.192101
1074.345288,-5625.565159,-8044.002729,8068.244768
1074.345618,-2294.638420,-11721.261119,5699.585753
1074.345948,370.102971,-10955.165621,5033.400406
1074.346278,2664.741391,-5745.716235,7772.162391
1074.346607,3256.906145,3217.601092,9696.697840
1074.346937,3478.967927,9806.022374,12139.377449
1074.347267,5477.523971,8580.269578,13841.851115
1074.347597,2072.576638,10265.679673,13989.892304
1074.347926,-3182.885551,12257.527968,12731.542202
1074.348256,-4811.338623,5362.668486,13915.871710
1074.348586,-5847.626942,842.705048,14063.912898
1074.348916,-7179.997637,-1532.190996,11029.068536
1074.349246,-5995.668130,-8120.612279,5699.585753
1074.349575,-3034.844362,-11108.384721,2442.679609
1074.349905,296.082377,-7431.126331,1850.514855
1074.350235,4145.153275,-2757.943793,2960.823768
1074.350565,6291.750507,689.485948,5403.503377
1074.350894,6217.729913,7431.126331,7476.080014
1074.351224,3552.988522,13176.842566,9326.594869
1074.351554,518.144159,12487.356617,11843.295072
1074.351884,-3108.864956,10418.898773,14211.954086
1074.352214,-5995.668130,6358.592633,15026.180623
1074.352543,-5921.647536,1685.410096,12731.542202
1074.352873,-4737.318029,-2604.724693,9844.739029
1074.353203,-3775.050304,-7048.078582,5625.565159
1074.353533,-2368.659014,-9346.365076,1776.494261
1074.353862,0.000000,-8350.440928,1184.329507
1074.354192,4367.215058,-3907.087040,3923.091493
1074.354522,6143.709319,2528.115143,8068.244768
1074.354852,4811.338623,8044.002729,11325.150913
1074.355182,1406.391290,11414.822920,11843.295072
1074.355511,-3256.906145,9422.974625,12953.603985
1074.355841,-5107.421000,5669.106685,16136.489536
1074.356171,-6143.709319,2528.115143,18209.066173
1074.356501,-6883.915261,76.609550,14508.036463
1074.356831,-7105.977043,-5132.839837,8956.491898
1074.357160,-4885.359217,-11261.603821,5033.400406
1074.357490,-962.267725,-12870.404366,4293.194464
1074.357820,2960.823768,-8963.317327,5551.544565
1074.358150,5329.482782,-2298.286494,8438.347739
1074.358479,5625.565159,5745.716235,12657.521608
1074.358809,3478.967927,10878.556072,14211.954086
1074.359139,1258.350101,12027.699319,13915.871710
1074.359469,-1184.329507,10265.679673,13471.748144
1074.359799,-2516.700203,6511.811733,13619.789333
1074.360128,-4515.256246,995.924147,15026.180623
1074.360458,-5995.668130,-1532.190996,14285.974681
1074.360788,-7476.080014,-4903.011187,10362.883188
1074.361118,-7698.141797,-10035.851024,4737.318029
1074.361447,-3997.112087,-11414.822920,1924.535449
1074.361777,1702.473667,-7354.516781,2738.761985
1074.362107,6809.894666,-2298.286494,5329.482782
1074.362437,7698.141797,4060.306139,7031.956449
1074.362767,5107.421000,10265.679673,8142.265362
1074.363096,3182.885551,12717.185267,9548.656652
1074.363426,-296.082377,9576.193725,14137.933492
1074.363756,-3849.070898,9039.926876,16728.654289
1074.364086,-6069.688724,7277.907231,14582.057057
1074.364416,-4959.379811,-536.266849,9326.594869
1074.364745,-2220.617826,-6511.811733,4959.379811
1074.365075,-592.164754,-10265.679673,1702.473667
1074.365405,962.267725,-10725.336972,-518.144159
1074.365735,2812.782580,-6588.421283,1850.514855
1074.366064,4663.297435,919.314598,7624.121203
1074.366394,4145.153275,9193.145976,12139.377449
1074.366724,1480.411884,10265.679673,11473.192101
1074.367054,-1332.370696,9269.755526,10881.027347
1074.367384,-4737.318029,6358.592633,13693.809927
1074.367713,-6957.935855,4979.620737,17542.880825
1074.368043,-8956.491898,2604.724693,14952.160028
1074.368373,-9030.512492,-3370.820191,10436.903782
1074.368703,-6883.915261,-8963.317327,5329.482782
1074.369032,-3923.091493,-11797.870669,2812.782580
1074.369362,740.205942,-12563.966167,3627.009116
1074.369692,4663.297435,-7354.516781,7476.080014
1074.370022,4515.256246,2987.772442,11251.130318
1074.370352,2960.823768,11414.822920,13619.789333
1074.370681,3775.050304,12487.356617,14730.098246
1074.371011,2072.576638,9882.631924,15766.386565
1074.371341,-1480.411884,10112.460574,15692.365970
1074.371671,-4589.276840,6818.249932,14804.118840
1074.372000,-4293.194464,1302.362347,14878.139434
1074.372330,-4219.173869,-4366.744339,12065.356855
1074.372660,-5773.606348,-9039.926876,7920.203579
1074.372990,-5107.421000,-11184.994271,3478.967927
1074.373320,-2368.659014,-9806.022374,2664.741391
1074.373649,2590.720797,-4213.525239,3627.009116
1074.373979,5255.462188,1302.362347,6069.688724
1074.374309,6143.709319,5592.497135,8216.285956
1074.374639,4441.235652,9116.536426,11473.192101
1074.374969,666.185348,10801.946522,14137.933492
1074.375298,-3775.050304,11338.213370,15100.201217
1074.375628,-5551.544565,9652.803275,15026.180623
1074.375958,-4885.359217,2834.553343,11769.274478
1074.376288,-3404.947333,-3677.258390,7328.038826
1074.376617,-2146.597232,-8580.269578,2368.659014
1074.376947,0.000000,-10725.336972,-296.082377
1074.377277,2738.761985,-8197.221829,-74.020594
1074.377607,3775.050304,-3447.429741,3330.926739
1074.377937,3404.947333,3064.381992,7920.203579
1074.378266,2516.700203,7967.393179,11473.192101
1074.378596,1850.514855,11491.432470,11029.068536
1074.378926,-222.061783,8120.612279,13545.768739
1074.379256,-2960.823768,5209.449386,16580.613101
1074.379585,-5477.523971,3907.087040,17394.839637
1074.379915,-6587.832884,0.000000,13545.768739
1074.380245,-6217.729913,-4519.963438,8734.430116
1074.380575,-5033.400406,-7890.783629,4219.173869
1074.380905,-962.267725,-11644.651570,2072.576638
1074.381234,4219.173869,-11797.870669,3404.947333
1074.381564,6661.853478,-4749.792088,7476.080014
1074.381894,5625.565159,4290.134789,11769.274478
1074.382224,2368.659014,8963.317327,14656.077652
1074.382554,-666.185348,12563.966167,15174.221811
1074.382883,-3034.844362,11338.213370,15766.386565
1074.383213,-3330.926739,5592.497135,18431.127956
1074.383543,-4367.215058,2221.676944,18135.045579
1074.383873,-6661.853478,1149.143247,14434.015869
1074.384202,-6735.874072,-4519.963438,8660.409521
1074.384532,-4589.276840,-10878.556072,4071.132681
1074.384862,-2146.597232,-10648.727422,1554.432478
1074.385192,1332.370696,-8120.612279,1850.514855
1074.385522,5329.482782,-3447.429741,5699.585753
1074.385851,5773.606348,5669.106685,9696.697840
1074.386181,2960.823768,12104.308868,12213.398043
1074.386511,296.082377,12947.013916,11621.233289
1074.386841,-2368.659014,10035.851024,14063.912898
1074.387170,-3849.070898,7507.735880,15544.324782
1074.387500,-4811.338623,5592.497135,13545.768739
1074.387830,-4885.359217,1225.752797,8808.450710
1074.388160,-2738.761985,-4136.915689,4589.276840
1074.388490,-1332.370696,-9499.584175,-0.000000
1074.388819,1184.329507,-9499.584175,-962.267725
1074.389149,3775.050304,-5975.544884,1184.329507
1074.389479,4737.318029,1149.143247,5255.462188
1074.389809,2368.659014,8120.612279,8438.347739
1074.390138,-222.061783,9422.974625,10436.903782
1074.390468,-1924.535449,9806.022374,13027.624579
1074.390798,-4515.256246,7737.564530,15914.427753
1074.391128,-6661.853478,5362.668486,17172.777854
1074.391458,-8586.388927,3447.429741,14582.057057
1074.391787,-7031.956449,-1378.971896,10362.883188
1074.392117,-3997.112087,-7890.783629,4885.359217
1074.392447,-1406.391290,-12487.356617,1184.329507
1074.392777,1406.391290,-10572.117872,814.226536
1074.393107,4737.318029,-6358.592633,5995.668130
1074.393436,5847.626942,1225.752797,11843.295072
1074.393766,3256.906145,8963.317327,14285.974681
1074.394096,1332.370696,11031.775171,14211.954086
1074.394426,-888.247130,10725.336972,15026.180623
1074.394755,-2294.638420,8810.098227,16506.592507
1074.395085,-3775.050304,2221.676944,19689.478057
1074.395415,-4885.359217,-306.438199,18061.024985
1074.395745,-6883.915261,-1838.629195,12065.356855
1074.396075,-5625.565159,-8427.050478,6365.771101
1074.396404,-2294.638420,-11184.994271,2664.741391
1074.396734,1406.391290,-8963.317327,1480.411884
1074.397064,5403.503377,-6511.811733,3849.070898
1074.397394,6365.771101,-612.876398,7476.080014
1074.397723,3849.070898,9959.241474,11399.171507
1074.398053,962.267725,13176.842566,11695.253884
1074.398383,-1628.453072,8350.440928,13545.768739
1074.398713,-4811.338623,7048.078582,15766.386565
1074.399043,-6513.812290,6818.249932,16950.716072
1074.399372,-5699.585753,2374.896044,13471.748144
1074.399702,-4737.318029,-1378.971896,6957.935855
1074.400032,-3330.926739,-7354.516781,1924.535449
1074.400362,0.000000,-10495.508323,-1184.329507
1074.400692,3034.844362,-8427.050478,-1554.432478
1074.401021,5403.503377,-3140.991542,1776.494261
1074.401351,4737.318029,4903.011187,7105.977043
1074.401681,1628.453072,10801.946522,10955.047942
1074.402011,-518.144159,12793.794817,10584.944971
1074.402340,-2516.700203,8580.269578,12287.418637
1074.402670,-3552.988522,4979.620737,15470.304188
1074.403000,-6069.688724,4596.572988,15692.365970
1074.403330,-7179.997637,-383.047749,13101.645173
1074.403660,-7105.977043,-4443.353888,7846.182985
1074.403989,-5551.544565,-7354.516781,4589.276840
1074.404319,-1480.411884,-10265.679673,2738.761985
1074.404649,2442.679609,-8656.879127,3997.112087
1074.404979,4219.173869,-3524.039291,7105.977043
1074.405308,3404.947333,4673.182538,9474.636058
1074.405638,1480.411884,7890.783629,12731.542202
1074.405968,518.144159,9959.241474,14878.139434
1074.406298,-2738.761985,9806.022374,15470.304188
1074.406628,-4737.318029,5056.230287,17616.901420
1074.406957,-5107.421000,2145.067394,17542.880825
1074.407287,-4589.276840,-612.876398,15174.221811
1074.407617,-4219.173869,-5209.449386,10066.800811
1074.407947,-2812.782580,-9116.536426,4811.338623
1074.408276,-444.123565,-9039.926876,2368.659014
1074.408606,4441.235652,-6052.154434,3478.967927
1074.408936,8142.265362,-3064.381992,7254.018232
1074.409266,6883.915261,4903.011187,10214.842000
1074.409596,3404.947333,10035.851024,12805.562797
1074.409925,962.267725,7814.174080,15544.324782
1074.410255,-3552.988522,9039.926876,16876.695478
1074.410585,-6217.729913,9576.193725,15988.448347
1074.410915,-4737.318029,4519.963438,12509.480420
1074.411245,-1702.473667,-383.047749,7920.203579
1074.411574,0.000000,-5362.668486,1702.473667
1074.411904,2294.638420,-10035.851024,-2072.576638
1074.412234,3182.885551,-9499.584175,-1628.453072
1074.412564,4737.318029,-2374.896044,2886.803174
1074.412893,4367.215058,4903.011187,7254.018232
1074.413223,2960.823768,7967.393179,9474.636058
1074.413553,1406.391290,8886.707777,9622.677246
1074.413883,-2146.597232,6741.640382,12657.521608
1074.414213,-5107.421000,5439.278036,16506.592507
1074.414542,-8142.265362,5056.230287,17542.880825
1074.414872,-8882.471304,2911.162892,15618.345376
1074.415202,-7994.224174,-919.314598,10732.986159
1074.415532,-5625.565159,-6588.421283,3404.947333
1074.415861,-1258.350101,-11721.261119,-888.247130
1074.416191,4441.235652,-11184.994271,740.205942
1074.416521,6143.709319,-3983.696590,5255.462188
1074.416851,4885.359217,4903.011187,9178.553681
1074.417181,2368.659014,7354.516781,11991.336260
1074.417510,962.267725,9116.536426,13841.851115
1074.417840,-3108.864956,10648.727422,15544.324782
1074.418170,-6069.688724,8810.098227,15470.304188
1074.418500,-4515.256246,1991.848295,15840.407159
1074.418830,-3552.988522,-2987.772442,15396.283594
1074.419159,-5699.585753,-3447.429741,12213.398043
1074.419489,-7328.038826,-8427.050478,8808.450710
1074.419819,-5699.585753,-9576.193725,6883.915261
1074.420149,-2368.659014,-5362.668486,5921.647536
1074.420478,1184.329507,-2451.505594,7179.997637
1074.420808,4441.235652,1302.362347,9178.553681
1074.421138,5181.441594,5592.497135,9326.594869
1074.421468,2738.761985,7584.345430,9622.677246
1074.421798,-1184.329507,6511.811733,13397.727550
1074.422127,-5477.523971,7048.078582,16210.510130
1074.422457,-7994.224174,7737.564530,15248.242405
1074.422787,-7328.038826,1762.019645,10807.006753
1074.423117,-3627.009116,-3294.210641,7328.038826
1074.423446,666.185348,-7124.688131,3627.009116
1074.423776,3849.070898,-9269.755526,-0.000000
1074.424106,4737.318029,-6511.811733,-296.082377
1074.424436,5033.400406,1455.581446,3478.967927
1074.424766,5551.544565,7890.783629,9178.553681
1074.425095,4441.235652,11031.775171,11325.150913
1074.425425,2146.597232,11338.213370,11695.253884
1074.425755,-1258.350101,6894.859482,13471.748144
1074.426085,-3330.926739,3983.696590,15618.345376
1074.426414,-6217.729913,2987.772442,15100.201217
1074.426744,-7624.121203,-306.438199,13175.665768
1074.427074,-6883.915261,-3600.648841,9474.636058
1074.427404,-5329.482782,-6741.640382,4219.173869
1074.427734,-1776.494261,-9729.412825,-1110.308913
1074.428063,3256.906145,-7584.345430,-1776.494261
1074.428393,7328.038826,-2528.115143,3627.009116
1074.428723,7846.182985,4749.792088,9400.615463
1074.429053,3182.885551,8503.660028,11843.295072
1074.429383,-1480.411884,11797.870669,11547.212695
1074.429712,-4367.215058,10342.289223,14211.954086
1074.430042,-5477.523971,4366.744339,18505.148550
1074.430372,-6957.935855,1072.533697,20429.683999
1074.430702,-7994.224174,-2528.115143,15840.407159
1074.431031,-6883.915261,-4979.620737,8216.285956
1074.431361,-3330.926739,-9576.193725,5181.441594
1074.431691,814.226536,-9959.241474,5625.565159
1074.432021,2812.782580,-5975.544884,7031.956449
1074.432351,4367.215058,0.000000,8734.430116
1074.432680,4737.318029,7660.954980,10140.821405
1074.433010,4589.276840,10495.508323,10881.027347
1074.433340,2664.741391,5975.544884,14285.974681
1074.433670,-2220.617826,5132.839837,15692.365970
1074.433999,-7105.977043,6205.373534,15396.283594
1074.434329,-7698.141797,3524.039291,12287.418637
1074.434659,-4885.359217,-1991.848295,9918.759623
1074.434989,-3256.906145,-6818.249932,6069.688724
1074.435319,-1332.370696,-10342.289223,2960.823768
1074.435648,2220.617826,-9652.803275,1702.473667
1074.435978,5255.462188,-842.705048,2368.659014
1074.436308,5699.585753,5898.935335,5477.523971
1074.436637,3182.885551,8197.221829,9622.677246
1074.436967,518.144159,12793.794817,10955.047942
1074.437297,-1776.494261,12027.699319,12213.398043
1074.437627,-3108.864956,6435.202183,13545.768739
1074.437956,-6291.750507,3064.381992,14730.098246
1074.438286,-9622.677246,1072.533697,13101.645173
1074.438616,-9178.553681,-4366.744339,9030.512492
1074.438945,-6439.791695,-8963.317327,4219.173869
1074.439275,-2516.700203,-9039.926876,518.144159
1074.439605,1036.288319,-6971.469032,-444.123565
1074.439934,5329.482782,-4903.011187,1850.514855
1074.440264,6883.915261,2604.724693,7254.018232
1074.440594,5995.668130,8810.098227,10658.965565
1074.440924,3404.947333,12104.308868,11547.212695
1074.441253,-814.226536,11261.603821,13841.851115
1074.441583,-4219.173869,6818.249932,17838.963202
1074.441913,-6291.750507,3294.210641,19615.457463
1074.442242,-6661.853478,-229.828649,16506.592507
1074.442572,-6143.709319,-3370.820191,11029.068536
1074.442902,-4589.276840,-8273.831378,6735.874072
1074.443231,-2368.659014,-10725.336972,4811.338623
1074.443561,888.247130,-8350.440928,4737.318029
1074.443891,3849.070898,-3294.210641,6513.812290
1074.444221,4737.318029,3524.039291,9104.533087
1074.444550,3627.009116,9882.631924,11991.336260
1074.444880,1776.494261,11184.994271,11991.336260
1074.445210,-592.164754,6818.249932,14211.954086
1074.445539,-3108.864956,3524.039291,16654.633695
1074.445869,-7105.977043,3830.477490,16802.674883
1074.446199,-8438.347739,1532.190996,13915.871710
1074.446528,-7105.977043,-4366.744339,9992.780217
1074.446858,-3701.029710,-7737.564530,5255.462188
1074.447188,-74.020594,-9116.536426,444.123565
1074.447518,4515.256246,-8580.269578,-1184.329507
1074.447847,7476.080014,-2374.896044,3330.926739
1074.448177,7105.977043,7507.735880,8808.450710
1074.448507,4441.235652,13100.233016,11251.130318
1074.448836,2516.700203,14019.547613,10955.047942
1074.449166,-592.164754,10342.289223,11695.253884
1074.449496,-3182.885551,5362.668486,14211.954086
1074.449825,-5625.565159,2298.286494,14952.160028
1074.450155,-7328.038826,-536.266849,12509.480420
1074.450485,-7994.224174,-4826.401637,7994.224174
1074.450815,-7772.162391,-8120.612279,3182.885551
1074.451144,-3627.009116,-9729.412825,148.041188
1074.451474,1332.370696,-8656.879127,962.267725
1074.451804,4145.153275,-4136.915689,3923.091493
1074.452133,3256.906145,5132.839837,7550.100608
1074.452463,1628.453072,10648.727422,10732.986159
1074.452793,666.185348,11644.651570,12287.418637
1074.453122,-1924.535449,10495.508323,14508.036463
1074.453452,-5329.482782,5898.935335,15914.427753
1074.453782,-6587.832884,1915.238745,15174.221811
1074.454112,-6217.729913,-1532.190996,13249.686362
1074.454441,-4515.256246,-5515.887586,10436.903782
1074.454771,-2960.823768,-9576.193725,7846.182985
1074.455101,-2146.597232,-9499.584175,5995.668130
1074.455430,1702.473667,-6128.763984,5995.668130
1074.455760,4885.359217,-1838.629195,8216.285956
1074.456090,5847.626942,5209.449386,10584.944971
1074.456419,4811.338623,9269.755526,13767.830521
1074.456749,3034.844362,7814.174080,16284.530724
1074.457079,-1554.432478,7967.393179,16284.530724
1074.457409,-5477.523971,7277.907231,16062.468941
1074.457738,-6291.750507,2681.334243,14656.077652
1074.458068,-4515.256246,-2221.676944,11547.212695
1074.458398,-3478.967927,-6588.421283,6587.832884
1074.458727,-1406.391290,-9806.022374,2442.679609
1074.459057,1036.288319,-8503.660028,-296.082377
1074.459387,3330.926739,-3600.648841,740.205942
1074.459716,4293.194464,306.438199,5403.503377
1074.460046,4145.153275,6894.859482,11177.109724
1074.460376,1924.535449,13483.280765,11991.336260
1074.460706,-666.185348,12334.137518,11325.150913
1074.461035,-2960.823768,7431.126331,13545.768739
1074.461365,-4441.235652,4290.134789,16136.489536
1074.461695,-5773.606348,1532.190996,14730.098246
1074.462024,-5921.647536,-3447.429741,10066.800811
1074.462354,-6069.688724,-5439.278036,5625.565159
1074.462684,-4441.235652,-6358.592633,1924.535449
1074.463013,-518.144159,-8810.098227,-444.123565
1074.463343,4515.256246,-6894.859482,666.185348
1074.463673,7105.977043,1149.143247,4219.173869
1074.464003,5995.668130,7201.297681,8216.285956
1074.464332,3849.070898,9652.803275,11029.068536
1074.464662,-296.082377,10035.851024,13397.727550
1074.464992,-4811.338623,8580.269578,16136.489536
1074.465321,-6883.915261,5975.544884,16728.654289
1074.465651,-6809.894666,1225.752797,16136.489536
1074.465981,-5995.668130,-3140.991542,12879.583391
1074.466310,-5773.606348,-7584.345430,7402.059420
1074.466640,-4145.153275,-10878.556072,4441.235652
1074.466970,0.000000,-9959.241474,4959.379811
1074.467300,2294.638420,-4903.011187,7846.182985
1074.467629,2664.741391,2374.896044,11029.068536
1074.467959,2294.638420,7890.783629,13323.706956
1074.468289,1776.494261,10035.851024,12657.521608
1074.468618,740.205942,7814.174080,14063.912898
1074.468948,-2146.597232,4979.620737,16876.695478
1074.469278,-5625.565159,3677.258390,16950.716072
1074.469607,-7402.059420,1685.410096,13545.768739
1074.469937,-6365.771101,-3753.867940,9400.615463
1074.470267,-3627.009116,-8350.440928,5329.482782
1074.470597,-962.267725,-9193.145976,1628.453072
1074.470926,2368.659014,-8427.050478,444.123565
1074.471256,5847.626942,-3524.039291,2812.782580
1074.471586,6513.812290,4903.011187,7772.162391
1074.471915,4737.318029,11108.384721,11399.171507
1074.472245,2072.576638,12563.966167,10807.006753
1074.472575,-1480.411884,10418.898773,13175.665768
1074.472904,-3627.009116,7967.393179,15692.365970
1074.473234,-4959.379811,5975.544884,15544.324782
1074.473564,-5255.462188,995.924147,11325.150913
1074.473894,-5033.400406,-4596.572988,6809.894666
1074.474223,-4219.173869,-8580.269578,2664.741391
1074.474553,-1850.514855,-9269.755526,-444.123565
1074.474883,1184.329507,-7737.564530,-1332.370696
1074.475212,3997.112087,-3370.820191,1924.535449
1074.475542,4589.276840,4213.525239,7994.224174
1074.475872,2442.679609,8656.879127,10807.006753
1074.476201,74.020594,9882.631924,11769.274478
1074.476531,-3627.009116,9346.365076,14211.954086
1074.476861,-6735.874072,8120.612279,16876.695478
1074.477190,-7105.977043,3830.477490,17912.983796
1074.477520,-5847.626942,-383.047749,14137.933492
1074.477850,-5551.544565,-4903.011187,8808.450710
1074.478180,-3701.029710,-9116.536426,3923.091493
1074.478509,-592.164754,-11031.775171,3034.844362
1074.478839,3182.885551,-7354.516781,4663.297435
1074.479169,4959.379811,-1838.629195,8142.265362
1074.479498,5181.441594,4903.011187,11991.336260
1074.479828,4145.153275,9806.022374,13397.727550
1074.480158,2146.597232,9116.536426,14582.057057
1074.480487,-1480.411884,5286.058936,17838.963202
1074.480817,-4811.338623,5592.497135,20503.704593
1074.481147,-6439.791695,4749.792088,18949.272115
1074.481477,-5551.544565,536.266849,12583.501014
1074.481806,-5255.462188,-5439.278036,4737.318029
1074.482136,-3108.864956,-11031.775171,-74.020594
1074.482466,1628.453072,-12487.356617,-888.247130
1074.482795,4737.318029,-7737.564530,1628.453072
1074.483125,4737.318029,229.828649,6587.832884
1074.483455,1628.453072,8044.002729,11769.274478
1074.483784,-1184.329507,12717.185267,13767.830521
1074.484114,-1924.535449,12334.137518,12287.418637
1074.484444,-2442.679609,6588.421283,13249.686362
1074.484774,-3256.906145,3524.039291,15544.324782
1074.485103,-4441.235652,3830.477490,14211.954086
1074.485433,-4367.215058,-536.266849,10288.862594
1074.485763,-3552.988522,-5439.278036,5477.523971
1074.486092,-2590.720797,-8120.612279,518.144159
1074.486422,370.102971,-8120.612279,-1332.370696
1074.486752,5181.441594,-6818.249932,814.226536
1074.487081,7105.977043,612.876398,5181.441594
1074.487411,5107.421000,8350.440928,9178.553681
1074.487741,2442.679609,8427.050478,11473.192101
1074.488071,-1036.288319,8120.612279,13397.727550
1074.488400,-5773.606348,10189.070123,15840.407159
1074.488730,-7698.141797,6665.030833,17468.860231
1074.489060,-7031.956449,1915.238745,14730.098246
1074.489389,-5551.544565,-2068.457845,9992.780217
1074.489719,-3701.029710,-7890.783629,3775.050304
1074.490049,-1258.350101,-12257.527968,1406.391290
1074.490378,1184.329507,-9729.412825,3108.864956
1074.490708,2368.659014,-2834.553343,7624.121203
1074.491038,2146.597232,2604.724693,11103.089130
1074.491368,740.205942,9499.584175,12805.562797
1074.491697,1998.556043,10648.727422,12287.418637
1074.492027,1554.432478,4443.353888,16580.613101
1074.492357,-1258.350101,4903.011187,18949.272115
1074.492686,-6291.750507,5286.058936,18505.148550
1074.493016,-6439.791695,766.095498,15026.180623
1074.493346,-4737.318029,-2451.505594,11251.130318
1074.493675,-3627.009116,-5822.325785,5403.503377
1074.494005,0.000000,-9959.241474,1110.308913
1074.494335,4293.194464,-10189.070123,148.041188
1074.494665,7105.977043,-2604.724693,3552.988522
1074.494994,6291.750507,5439.278036,8216.285956
1074.495324,2738.761985,9116.536426,10955.047942
1074.495654,-518.144159,12257.527968,12509.480420
1074.495983,-3701.029710,8810.098227,15618.345376
1074.496313,-5181.441594,7660.954980,17172.777854
1074.496643,-6069.688724,5669.106685,14063.912898
1074.496972,-3849.070898,-1838.629195,10881.027347
1074.497302,-2664.741391,-5898.935335,6513.812290
1074.497632,-2886.803174,-7201.297681,2516.700203
1074.497962,-370.102971,-8044.002729,-1110.308913
1074.498291,3330.926739,-5362.668486,-1036.288319
1074.498621,5699.585753,-153.219100,2516.700203
1074.498951,5773.606348,5975.544884,7846.182985
1074.499280,4367.215058,7660.954980,10288.862594
1074.499610,1776.494261,9729.412825,11547.212695
1074.499940,-3034.844362,8503.660028,14508.036463
1074.500269,-7698.141797,6281.983084,17616.901420
1074.500599,-9326.594869,4290.134789,17320.819043
1074.500929,-8290.306550,-1762.019645,13841.851115
1074.501259,-7105.977043,-5822.325785,7254.018232
1074.501588,-4737.318029,-9193.145976,2516.700203
1074.501918,-962.267725,-11874.480219,666.185348
1074.502248,2590.720797,-8503.660028,3552.988522
1074.502577,3552.988522,-689.485948,8512.368333
1074.502907,3034.844362,6358.592633,12583.501014
1074.503237,1406.391290,9576.193725,13471.748144
1074.503566,-666.185348,10801.946522,11843.295072
1074.503896,-1406.391290,7584.345430,16950.716072
1074.504226,-1480.411884,1915.238745,21095.869347
1074.504556,-4885.359217,4213.525239,17764.942608
1074.504885,-7698.141797,995.924147,10288.862594
1074.505215,-5403.503377,-6665.030833,6365.771101
1074.505545,-1258.350101,-9499.584175,4885.359217
1074.505874,1258.350101,-9806.022374,3997.112087
1074.506204,3182.885551,-7201.297681,2960.823768
1074.506534,4219.173869,0.000000,5551.544565
1074.506863,3775.050304,8197.221829,9844.739029
1074.507193,3627.009116,7584.345430,13767.830521
1074.507523,-222.061783,6358.592633,15100.201217
1074.507853,-5329.482782,11031.775171,14656.077652
1074.508182,-5921.647536,7660.954980,14508.036463
1074.508512,-3034.844362,1915.238745,13175.665768
1074.508842,-2294.638420,-459.657299,9474.636058
1074.509171,-2294.638420,-6052.154434,2886.803174
1074.509501,444.123565,-9806.022374,-1406.391290
1074.509831,3627.009116,-7890.783629,-444.123565
1074.510160,5625.565159,-536.266849,3256.906145
1074.510490,4663.297435,4136.915689,7105.977043
1074.510820,2886.803174,7201.297681,8734.430116
1074.511150,2516.700203,9959.241474,10658.965565
1074.511479,74.020594,7201.297681,14878.139434
1074.511809,-4145.153275,7201.297681,17542.880825
1074.512139,-8586.388927,5975.544884,17246.798449
1074.512468,-8734.430116,1149.143247,13841.851115
1074.512798,-6143.709319,-2451.505594,9918.759623
1074.513128,-3404.947333,-7890.783629,5033.400406
1074.513457,-666.185348,-10265.679673,1480.411884
1074.513787,1628.453072,-8350.440928,592.164754
1074.514117,4071.132681,-3830.477490,4737.318029
1074.514447,5477.523971,3983.696590,9400.615463
1074.514776,3701.029710,8273.831378,12287.418637
1074.515106,1110.308913,11108.384721,12435.459826
1074.515436,-3182.885551,9806.022374,12953.603985
1074.515765,-4737.318029,5745.716235,15470.304188
1074.516095,-4293.194464,766.095498,18801.230927
1074.516425,-5773.606348,-1072.533697,16654.633695
1074.516754,-8142.265362,-1302.362347,9992.780217
1074.517084,-7031.956449,-7890.783629,5477.523971
1074.517414,-1776.494261,-11184.994271,4959.379811
1074.517744,2516.700203,-6128.763984,4663.297435
1074.518073,4367.215058,-2451.505594,5403.503377
1074.518403,5329.482782,2604.724693,7550.100608
1074.518733,3775.050304,9882.631924,10288.862594
1074.519062,1776.494261,10648.727422,12435.459826
1074.519392,-1258.350101,6971.469032,14730.098246
1074.519722,-5329.482782,6741.640382,15396.283594
1074.520051,-7402.059420,5056.230287,14285.974681
1074.520381,-5921.647536,153.219100,11917.315666
1074.520711,-4219.173869,-4673.182538,7772.162391
1074.521041,-1850.514855,-8503.660028,2516.700203
1074.521370,962.267725,-11108.384721,-444.123565
1074.521700,3701.029710,-6128.763984,518.144159
1074.522030,5477.523971,2528.115143,5329.482782
1074.522359,5107.421000,7124.688131,9474.636058
1074.522689,3627.009116,10572.117872,9770.718434
1074.523019,814.226536,9576.193725,11251.130318
1074.523348,-962.267725,6435.202183,15100.201217
1074.523678,-4071.132681,5745.716235,17098.757260
1074.524008,-7846.182985,2528.115143,15174.221811
1074.524338,-8142.265362,-1302.362347,11843.295072
1074.524667,-6661.853478,-4903.011187,8216.285956
1074.524997,-2368.659014,-8350.440928,2294.638420
1074.525327,2442.679609,-10955.165621,-666.185348
1074.525656,6143.709319,-6818.249932,1406.391290
1074.525986,6735.874072,1532.190996,6809.894666
1074.526316,4811.338623,7431.126331,11251.130318
1074.526645,2738.761985,10342.289223,12139.377449
1074.526975,0.000000,9193.145976,16432.571912
1074.527305,-3256.906145,7507.735880,18801.230927
1074.527634,-7772.162391,6052.154434,17987.004391
1074.527964,-8142.265362,-229.828649,13841.851115
1074.528294,-5255.462188,-4136.915689,10288.862594
1074.528624,-3034.844362,-7124.688131,5773.606348
1074.528953,-1036.288319,-11261.603821,3849.070898
1074.529283,814.226536,-10342.289223,3923.091493
1074.529613,2590.720797,-1685.410096,6735.874072
1074.529942,4441.235652,4596.572988,8956.491898
1074.530272,5181.441594,7814.174080,11177.109724
1074.530602,3849.070898,12257.527968,10881.027347
1074.530931,592.164754,9882.631924,12953.603985
1074.531261,-2368.659014,3983.696590,17098.757260
1074.531591,-6735.874072,4443.353888,17394.839637
1074.531921,-9474.636058,4443.353888,13841.851115
1074.532250,-8660.409521,-3447.429741,9030.512492
1074.532580,-5403.503377,-9269.755526,5107.421000
1074.532910,-592.164754,-10265.679673,1998.556043
1074.533239,3478.967927,-9039.926876,-1258.350101
1074.533569,5773.606348,-3064.381992,-0.000000
1074.533899,5329.482782,5286.058936,4959.379811
1074.534228,4663.297435,11108.384721,11399.171507
1074.534558,2812.782580,12870.404366,12583.501014
1074.534888,-2368.659014,12717.185267,12509.480420
1074.535218,-4515.256246,7277.907231,15026.180623
1074.535547,-5329.482782,2145.067394,15766.386565
1074.535877,-7179.997637,-1225.752797,14211.954086
1074.536207,-7994.224174,-5209.449386,9992.780217
1074.536536,-6883.915261,-7967.393179,5033.400406
1074.536866,-3330.926739,-9116.536426,1850.514855
1074.537196,1332.370696,-7890.783629,962.267725
1074.537525,5107.421000,-4213.525239,3256.906145
1074.537855,6217.729913,3447.429741,7772.162391
1074.538185,5107.421000,10112.460574,11251.130318
1074.538514,2516.700203,12257.527968,12435.459826
1074.538844,-1480.411884,9499.584175,15544.324782
1074.539173,-4811.338623,6511.811733,19023.292709
1074.539503,-7105.977043,3064.381992,18061.024985
1074.539832,-7698.141797,-995.924147,12879.583391
1074.540162,-5477.523971,-5898.935335,7994.224174
1074.540491,-1258.350101,-10189.070123,4959.379811
1074.540821,962.267725,-12257.527968,3404.947333
1074.541151,2664.741391,-9116.536426,3404.947333
1074.541480,3552.988522,-842.705048,6661.853478
1074.541810,3775.050304,7431.126331,11177.109724
1074.542139,4219.173869,11797.870669,12953.603985
1074.542469,2368.659014,9806.022374,15544.324782
1074.542798,-740.205942,6358.592633,16358.551318
1074.543128,-4737.318029,5669.106685,16580.613101
1074.543457,-7031.956449,2834.553343,14137.933492
1074.543787,-6587.832884,-766.095498,11917.315666
1074.544116,-5329.482782,-5669.106685,7254.018232
1074.544446,-3478.967927,-9269.755526,1998.556043
1074.544775,296.082377,-10801.946522,-1554.432478
1074.545105,5181.441594,-7124.688131,-74.020594
1074.545434,7254.018232,1149.143247,4737.318029
1074.545764,5847.626942,7890.783629,9770.718434
1074.546094,4367.215058,13713.109414,11325.150913
1074.546423,2072.576638,13023.623466,12287.418637
1074.546753,-1554.432478,8503.660028,14582.057057
1074.547082,-4737.318029,5209.449386,16876.695478
1074.547412,-7698.141797,2221.676944,14952.160028
1074.547741,-5403.503377,-2374.896044,11843.295072
1074.548071,-4145.153275,-6741.640382,7550.100608
1074.548400,-3923.091493,-8963.317327,2886.803174
1074.548730,-1628.453072,-10265.679673,-1332.370696
1074.549059,3182.885551,-6894.859482,-296.082377
1074.549389,7550.100608,76.609550,5551.544565
1074.549718,7105.977043,7354.516781,11399.171507
1074.550048,3627.009116,10725.336972,12731.542202
1074.550377,-888.247130,10342.289223,14359.995275
1074.550707,-5107.421000,8273.831378,16580.613101
1074.551037,-7402.059420,6971.469032,18579.169144
1074.551366,-7846.182985,2604.724693,15396.283594
1074.551696,-6513.812290,-4903.011187,9696.697840
1074.552025,-4885.359217,-9882.631924,4145.153275
1074.552355,-2960.823768,-12640.575717,2960.823768
1074.552684,-444.123565,-11644.651570,4515.256246
1074.553014,370.102971,-4136.915689,7550.100608
1074.553343,0.000000,4290.134789,10881.027347
1074.553673,444.123565,8503.660028,13101.645173
1074.554002,2220.617826,10648.727422,13545.768739
1074.554332,296.082377,10878.556072,12953.603985
1074.554661,-1998.556043,8120.612279,13175.665768
1074.554991,-4441.235652,1532.190996,15100.201217
1074.555320,-7031.956449,1838.629195,14063.912898
1074.555650,-8586.388927,-1072.533697,9992.780217
1074.555980,-7550.100608,-7890.783629,5477.523971
1074.556309,-3108.864956,-10418.898773,2590.720797
1074.556639,-222.061783,-9346.365076,2146.597232
1074.556968,3108.864956,-5592.497135,3182.885551
1074.557298,3108.864956,1225.752797,6291.750507
1074.557627,1702.473667,10112.460574,10955.047942
1074.557957,518.144159,13789.718964,13471.748144
1074.558286,-2590.720797,11031.775171,15914.427753
1074.558616,-5921.647536,8810.098227,15100.201217
1074.558945,-8586.388927,5362.668486,13323.706956
1074.559275,-8216.285956,-459.657299,11473.192101
1074.559604,-6809.894666,-2987.772442,7402.059420
1074.559934,-5847.626942,-7507.735880,2146.597232
1074.560263,-2516.700203,-11414.822920,296.082377
1074.560593,-222.061783,-9576.193725,1702.473667
1074.560923,0.000000,-2451.505594,4589.276840
1074.561252,-888.247130,4903.011187,8142.265362
1074.561582,0.000000,8963.317327,11177.109724
1074.561911,814.226536,12793.794817,13693.809927
1074.562241,-740.205942,12104.308868,14137.933492
1074.562570,-3701.029710,7201.297681,12879.583391
1074.562900,-7476.080014,1072.533697,12805.562797
1074.563229,-11251.130318,-2068.457845,13693.809927
1074.563559,-12879.583391,-2298.286494,12065.356855
1074.563888,-9844.739029,-7354.516781,9548.656652
1074.564218,-5107.421000,-11721.261119,6217.729913
1074.564547,-1184.329507,-9652.803275,3701.029710
1074.564877,2368.659014,-5975.544884,3997.112087
1074.565206,4071.132681,-842.705048,7624.121203
1074.565536,2738.761985,8120.612279,12583.501014
1074.565866,370.102971,15551.738609,15470.304188
1074.566195,-1554.432478,14249.376263,16432.571912
1074.566525,-3849.070898,9652.803275,15618.345376
1074.566854,-5995.668130,5592.497135,13545.768739
1074.567184,-7624.121203,-1915.238745,11325.150913
1074.567513,-9622.677246,-6128.763984,9400.615463
1074.567843,-11177.109724,-7814.174080,7402.059420
1074.568172,-9992.780217,-9806.022374,6291.750507
1074.568502,-7402.059420,-9039.926876,4959.379811
1074.568831,-3552.988522,-4213.525239,2960.823768
1074.569161,518.144159,1762.019645,2664.741391
1074.569490,3701.029710,3983.696590,5255.462188
1074.569820,3108.864956,8503.660028,10881.027347
1074.570149,-444.123565,13866.328514,15100.201217
1074.570479,-4589.276840,13483.280765,15618.345376
1074.570809,-7624.121203,10725.336972,14211.954086
1074.571138,-8438.347739,4519.963438,11843.295072
1074.571468,-7179.997637,-2528.115143,8734.430116
1074.571797,-5477.523971,-9422.974625,6291.750507
1074.572127,-5477.523971,-10495.508323,5255.462188
1074.572456,-6587.832884,-7124.688131,5107.421000
1074.572786,-6735.874072,-3217.601092,4737.318029
1074.573115,-5403.503377,-153.219100,5995.668130
1074.573445,-3182.885551,2221.676944,8586.388927
1074.573774,-740.205942,5898.935335,10288.862594
1074.574104,1036.288319,9422.974625,11103.089130
1074.574433,1332.370696,8044.002729,11029.068536
1074.574763,-222.061783,4596.572988,12583.501014
1074.575092,-4441.235652,2757.943793,12953.603985
1074.575422,-8216.285956,2451.505594,11621.233289
1074.575751,-9474.636058,-1149.143247,9992.780217
1074.576081,-9030.512492,-4290.134789,10066.800811
1074.576411,-6957.935855,-4366.744339,9918.759623
1074.576740,-4959.379811,-4060.306139,7031.956449
1074.577070,-2294.638420,-3830.477490,5625.565159
1074.577399,-370.102971,-689.485948,6735.874072
1074.577729,-814.226536,3983.696590,10881.027347
1074.578058,-3256.906145,7048.078582,13693.809927
1074.578388,-6069.688724,7354.516781,13101.645173
1074.578717,-8142.265362,5056.230287,12879.583391
1074.579047,-8290.306550,2987.772442,12731.542202
1074.579376,-6069.688724,-995.924147,11325.150913
1074.579706,-4737.318029,-4903.011187,8660.409521
1074.580035,-4071.132681,-7124.688131,4959.379811
1074.580365,-2738.761985,-5975.544884,3997.112087
1074.580694,0.000000,-1762.019645,6365.771101
1074.581024,1480.411884,919.314598,8142.265362
1074.581354,444.123565,3907.087040,9474.636058
1074.581683,-1332.370696,6894.859482,10140.821405
1074.582013,-2294.638420,8044.002729,11843.295072
1074.582342,-3034.844362,6741.640382,13249.686362
1074.582672,-4737.318029,4136.915689,12583.501014
1074.583001,-5699.585753,842.705048,9918.759623
1074.583331,-5033.400406,-2987.772442,8364.327145
1074.583660,-3775.050304,-4596.572988,7402.059420
1074.583990,-2738.761985,-4366.744339,7031.956449
1074.584319,-2442.679609,-2987.772442,6957.935855
1074.584649,-3404.947333,-766.095498,7254.018232
1074.584978,-4589.276840,1991.848295,9030.512492
1074.585308,-5921.647536,4213.525239,11103.089130
1074.585637,-6661.853478,5898.935335,11843.295072
1074.585967,-7105.977043,4596.572988,11843.295072
1074.586297,-6439.791695,2528.115143,10732.986159
1074.586626,-5181.441594,0.000000,9474.636058
1074.586956,-3182.885551,-2374.896044,8068.244768
1074.587285,-1850.514855,-3217.601092,6957.935855
1074.587615,-1110.308913,-2068.457845,6587.832884
1074.587944,0.000000,153.219100,7402.059420
1074.588274,1332.370696,1838.629195,8438.347739
1074.588603,592.164754,3753.867940,9696.697840
1074.588933,-2220.617826,4979.620737,11399.171507
1074.589262,-5107.421000,6588.421283,12731.542202
1074.589592,-7920.203579,6205.373534,13545.768739
1074.589921,-8586.388927,3677.258390,13767.830521
1074.590251,-9548.656652,612.876398,12287.418637
1074.590580,-8734.430116,-2068.457845,9326.594869
1074.590910,-6143.709319,-4903.011187,7031.956449
1074.591240,-3256.906145,-5975.544884,5329.482782
1074.591569,-592.164754,-2911.162892,6069.688724
1074.591899,296.082377,459.657299,6217.729913
1074.592228,0.000000,2834.553343,8068.244768
1074.592558,-1850.514855,5669.106685,10214.842000
1074.592887,-3478.967927,8350.440928,11547.212695
1074.593217,-4515.256246,7048.078582,11769.274478
1074.593546,-6291.750507,3217.601092,11769.274478
1074.593876,-8068.244768,-612.876398,12361.439231
1074.594205,-9104.533087,-2145.067394,12139.377449
1074.594535,-9400.615463,-3140.991542,10066.800811
1074.594864,-7254.018232,-4443.353888,7105.977043
1074.595194,-4145.153275,-4749.792088,5773.606348
1074.595523,-1110.308913,-2528.115143,5329.482782
1074.595853,1924.535449,306.438199,5921.647536
1074.596183,2368.659014,2911.162892,6883.915261
1074.596512,1184.329507,6894.859482,9030.512492
1074.596842,-1702.473667,8733.488677,10288.862594
1074.597171,-5033.400406,6818.249932,12657.521608
1074.597501,-7994.224174,3600.648841,13545.768739
1074.597830,-9992.780217,842.705048,12435.459826
1074.598160,-10362.883188,-2757.943793,10955.047942
1074.598489,-8956.491898,-6205.373534,9474.636058
1074.598819,-6883.915261,-7354.516781,8512.368333
1074.599148,-4589.276840,-5515.887586,7476.080014
1074.599478,-1998.556043,-2451.505594,6439.791695
1074.599807,370.102971,536.266849,7105.977043
1074.600137,2146.597232,4290.134789,9474.636058
1074.600466,2368.659014,6435.202183,10510.924376
1074.600796,740.205942,7660.954980,11843.295072
1074.601126,-1850.514855,5745.716235,12879.583391
1074.601455,-4663.297435,2911.162892,14211.954086
1074.601785,-7846.182985,1378.971896,14211.954086
1074.602114,-10066.800811,-766.095498,12139.377449
1074.602444,-9474.636058,-4136.915689,8956.491898
1074.602773,-6291.750507,-6052.154434,6365.771101
1074.603103,-2590.720797,-5056.230287,5181.441594
1074.603432,296.082377,-2757.943793,5107.421000
1074.603762,1702.473667,612.876398,5921.647536
1074.604091,740.205942,5362.668486,7328.038826
1074.604421,-740.205942,9499.584175,9326.594869
1074.604750,-2738.761985,10265.679673,11621.233289
1074.605080,-4885.359217,7890.783629,12805.562797
1074.605409,-6587.832884,3983.696590,13249.686362
1074.605739,-7698.141797,459.657299,12139.377449
1074.606069,-8660.409521,-1455.581446,11251.130318
1074.606398,-8956.491898,-3524.039291,9326.594869
1074.606728,-7476.080014,-4060.306139,7624.121203
1074.607057,-4885.359217,-2145.067394,6439.791695
1074.607387,-1850.514855,306.438199,5551.544565
1074.607716,518.144159,2298.286494,6217.729913
1074.608046,1110.308913,4979.620737,7402.059420
1074.608375,444.123565,7507.735880,8956.491898
1074.608705,-444.123565,8044.002729,10362.883188
1074.609034,-1998.556043,6435.202183,11991.336260
1074.609364,-3552.988522,4979.620737,12139.377449
1074.609693,-4515.256246,2757.943793,11325.150913
1074.610023,-4737.318029,0.000000,9770.718434
1074.610352,-3775.050304,-1838.629195,8734.430116
1074.610682,-2294.638420,-2451.505594,8290.306550
1074.611012,-1776.494261,-306.438199,8142.265362
1074.611341,-1850.514855,2604.724693,8364.327145
1074.611671,-1924.535449,3830.477490,9326.594869
1074.612000,-1924.535449,5515.887586,10584.944971
1074.612330,-1998.556043,6971.469032,11769.274478
1074.612659,-1924.535449,6818.249932,11473.192101
1074.612989,-2516.700203,4673.182538,11547.212695
1074.613318,-2294.638420,3370.820191,11029.068536
1074.613648,-1628.453072,1991.848295,9844.739029
1074.613977,-1554.432478,919.314598,8882.471304
1074.614307,-1332.370696,1378.971896,7920.203579
1074.614636,-814.226536,1915.238745,8808.450710
1074.614966,-74.020594,4060.306139,9696.697840
1074.615295,-962.267725,6435.202183,10140.821405
1074.615625,-1924.535449,7354.516781,10436.903782
1074.615955,-2368.659014,7354.516781,9696.697840
1074.616284,-2442.679609,6741.640382,9178.553681
1074.616614,-2812.782580,5362.668486,8586.388927
1074.616943,-2072.576638,3217.601092,7105.977043
1074.617273,-1110.308913,1225.752797,5773.606348
1074.617602,0.000000,0.000000,5773.606348
1074.617932,-592.164754,459.657299,7254.018232
1074.618261,-1776.494261,2221.676944,7920.203579
1074.618591,-2368.659014,4596.572988,9030.512492
1074.618920,-2738.761985,6511.811733,10584.944971
1074.619250,-2664.741391,7660.954980,11251.130318
1074.619579,-1628.453072,7277.907231,10807.006753
1074.619909,-740.205942,5822.325785,10362.883188
1074.620238,-592.164754,4749.792088,9844.739029
1074.620568,-814.226536,3830.477490,9844.739029
1074.620898,-1110.308913,2987.772442,9696.697840
1074.621227,-962.267725,2528.115143,8734.430116
1074.621557,-296.082377,2298.286494,8808.450710
1074.621886,148.041188,2145.067394,9104.533087
1074.622216,592.164754,1991.848295,9622.677246
1074.622545,0.000000,2681.334243,10288.862594
1074.622875,-1702.473667,4979.620737,11103.089130
1074.623204,-2220.617826,5975.544884,11621.233289
1074.623534,-1924.535449,5975.544884,12065.356855
1074.623863,-1406.391290,5439.278036,11769.274478
1074.624193,-962.267725,4596.572988,10436.903782
1074.624522,-740.205942,3907.087040,9104.533087
1074.624852,370.102971,3447.429741,9030.512492
1074.625181,444.123565,4366.744339,9178.553681
1074.625511,296.082377,4979.620737,8438.347739
1074.625841,148.041188,4290.134789,7328.038826
1074.626170,296.082377,3140.991542,7105.977043
1074.626500,0.000000,1991.848295,7254.018232
1074.626829,-1184.329507,2298.286494,7994.224174
1074.627159,-2294.638420,2451.505594,9104.533087
1074.627488,-3256.906145,2604.724693,9622.677246
1074.627818,-3182.885551,3294.210641,10510.924376
1074.628147,-2294.638420,3677.258390,10510.924376
1074.628477,-1628.453072,4290.134789,10140.821405
1074.628806,-962.267725,5056.230287,9622.677246
1074.629136,-370.102971,5515.887586,9252.574275
1074.629465,148.041188,6205.373534,9326.594869
1074.629795,518.144159,5669.106685,9474.636058
1074.630124,74.020594,5898.935335,9104.533087
1074.630454,-740.205942,5056.230287,7994.224174
1074.630784,-1628.453072,3140.991542,7402.059420
1074.631113,-2146.597232,1149.143247,7254.018232
1074.631443,-2516.700203,459.657299,7624.121203
1074.631772,-2516.700203,-536.266849,8734.430116
1074.632102,-2516.700203,459.657299,9696.697840
1074.632431,-1628.453072,1915.238745,10362.883188
1074.632761,-666.185348,2987.772442,11103.089130
1074.633090,0.000000,3753.867940,11621.233289
1074.633420,740.205942,5898.935335,12657.521608
1074.633749,74.020594,7660.954980,13027.624579
1074.634079,222.061783,7660.954980,12065.356855
1074.634408,148.041188,5592.497135,10658.965565
1074.634738,0.000000,3907.087040,9844.739029
1074.635067,-888.247130,2604.724693,9474.636058
1074.635397,-1702.473667,2834.553343,8734.430116
1074.635727,-2442.679609,2451.505594,8364.327145
1074.636056,-2072.576638,1302.362347,7698.141797
1074.636386,-1554.432478,995.924147,7624.121203
1074.636715,-962.267725,1149.143247,7994.224174
1074.637045,-666.185348,1532.190996,8364.327145
1074.637374,-962.267725,3907.087040,9400.615463
1074.637704,-1184.329507,5975.544884,10658.965565
1074.638033,-1554.432478,7354.516781,11621.233289
1074.638363,-1332.370696,7048.078582,12213.398043
1074.638693,-1776.494261,6971.469032,11695.253884
1074.639022,-2368.659014,6511.811733,10066.800811
1074.639352,-2368.659014,5745.716235,7772.162391
1074.639681,-518.144159,3907.087040,5033.400406
1074.640011,1776.494261,1685.410096,4071.132681
1074.640340,3404.947333,842.705048,4441.235652
1074.640670,3108.864956,1685.410096,5625.565159
1074.640999,222.061783,3217.601092,7031.956449
1074.641329,-2072.576638,5209.449386,9252.574275
1074.641659,-3627.009116,6358.592633,12213.398043
1074.641988,-4589.276840,6741.640382,14211.954086
1074.642318,-4515.256246,6052.154434,14359.995275
1074.642647,-3997.112087,5439.278036,13101.645173
1074.642977,-4071.132681,3600.648841,11547.212695
1074.643306,-3256.906145,3064.381992,9918.759623
1074.643636,-1110.308913,2681.334243,8216.285956
1074.643966,1776.494261,2221.676944,6143.709319
1074.644295,4663.297435,2451.505594,4811.338623
1074.644625,5773.606348,2221.676944,5107.421000
1074.644954,4219.173869,3447.429741,7179.997637
1074.645284,666.185348,6205.373534,10140.821405
1074.645613,-3330.926739,8656.879127,12731.542202
1074.645943,-4737.318029,9039.926876,14508.036463
1074.646273,-4737.318029,6665.030833,14582.057057
1074.646602,-2812.782580,3447.429741,13397.727550
1074.646932,-1258.350101,76.609550,10288.862594
1074.647261,-444.123565,-229.828649,7105.977043
1074.647591,-518.144159,1072.533697,6365.771101
1074.647920,-740.205942,2757.943793,8216.285956
1074.648250,-1258.350101,5209.449386,9474.636058
1074.648580,-1924.535449,5898.935335,8068.244768
1074.648909,-1406.391290,3677.258390,5847.626942
1074.649239,-666.185348,1608.800546,6291.750507
1074.649568,-740.205942,1149.143247,8512.368333
1074.649898,-1702.473667,2834.553343,11695.253884
1074.650227,-2590.720797,4979.620737,12657.521608
1074.650557,-2886.803174,6205.373534,12583.501014
1074.650886,-1998.556043,5669.106685,11473.192101
1074.651216,-222.061783,3907.087040,8882.471304
1074.651546,1184.329507,2528.115143,5847.626942
1074.651875,2664.741391,459.657299,5403.503377
1074.652205,3182.885551,1149.143247,6513.812290
1074.652534,2072.576638,3370.820191,7920.203579
1074.652864,666.185348,3677.258390,9548.656652
1074.653193,-962.267725,3907.087040,11325.150913
1074.653523,-3182.885551,4903.011187,12583.501014
1074.653853,-3701.029710,5515.887586,12435.459826
1074.654182,-2442.679609,3524.039291,12361.439231
1074.654512,-1850.514855,1991.848295,12213.398043
1074.654841,-2294.638420,2451.505594,11251.130318
1074.655171,-2442.679609,3140.991542,9474.636058
1074.655500,-1776.494261,3677.258390,7772.162391
1074.655830,-814.226536,4213.525239,7402.059420
1074.656160,518.144159,4673.182538,7402.059420
1074.656489,2294.638420,4060.306139,7105.977043
1074.656819,2368.659014,2221.676944,6217.729913
1074.657148,1554.432478,2604.724693,7031.956449
1074.657478,-148.041188,3447.429741,10140.821405
1074.657807,-2220.617826,5515.887586,14063.912898
1074.658137,-3701.029710,8886.707777,15100.201217
1074.658466,-3775.050304,8733.488677,14359.995275
1074.658796,-2368.659014,6281.983084,12361.439231
1074.659126,-1036.288319,3294.210641,10584.944971
1074.659455,-1554.432478,2068.457845,8142.265362
1074.659785,-2294.638420,2145.067394,5625.565159
1074.660114,-1776.494261,2681.334243,3627.009116
1074.660444,-148.041188,4060.306139,3478.967927
1074.660773,1036.288319,2528.115143,3627.009116
1074.661103,1702.473667,2298.286494,4293.194464
1074.661433,962.267725,4136.915689,4737.318029
1074.661762,1110.308913,4749.792088,7105.977043
1074.662092,518.144159,4826.401637,10881.027347
1074.662421,-1406.391290,5439.278036,13989.892304
1074.662751,-3775.050304,5362.668486,14656.077652
1074.663080,-3997.112087,3447.429741,14434.015869
1074.663410,-2960.823768,3217.601092,14137.933492
1074.663740,-3034.844362,4596.572988,12657.521608
1074.664069,-2664.741391,1608.800546,9918.759623
1074.664399,-1554.432478,-1685.410096,6957.935855
1074.664728,-444.123565,-1762.019645,5033.400406
1074.665058,1184.329507,-1225.752797,4515.256246
1074.665387,2294.638420,306.438199,4737.318029
1074.665717,2516.700203,766.095498,5995.668130
1074.666046,2590.720797,766.095498,8882.471304
1074.666376,2442.679609,1072.533697,12879.583391
1074.666706,148.041188,2757.943793,15026.180623
1074.667035,-2220.617826,3064.381992,15692.365970
1074.667365,-3182.885551,1378.971896,16284.530724
1074.667694,-3701.029710,383.047749,15692.365970
1074.668024,-4441.235652,306.438199,13915.871710
1074.668353,-4145.153275,-995.924147,10881.027347
1074.668683,-2738.761985,-306.438199,7772.162391
1074.669013,444.123565,-689.485948,5625.565159
1074.669342,3627.009116,-1072.533697,4219.173869
1074.669672,5403.503377,-1762.019645,2368.659014
1074.670001,4515.256246,-536.266849,2442.679609
1074.670331,3552.988522,2221.676944,5181.441594
1074.670660,1850.514855,3677.258390,9622.677246
1074.670990,148.041188,4443.353888,13915.871710
1074.671320,-2368.659014,3677.258390,15322.262999
1074.671649,-5329.482782,1762.019645,14434.015869
1074.671979,-7698.141797,153.219100,13989.892304
1074.672308,-8882.471304,-1225.752797,12731.542202
1074.672638,-8142.265362,-2145.067394,10807.006753
1074.672967,-5773.606348,-2681.334243,8290.306550
1074.673297,-1998.556043,-2911.162892,4367.215058
1074.673627,2368.659014,-2221.676944,2812.782580
1074.673956,5033.400406,-1149.143247,2812.782580
1074.674286,4737.318029,2681.334243,3701.029710
1074.674615,3478.967927,5286.058936,5329.482782
1074.674945,3701.029710,5132.839837,10288.862594
1074.675274,2072.576638,6281.983084,15618.345376
1074.675604,-2960.823768,5822.325785,17764.942608
1074.675933,-7846.182985,3140.991542,16358.551318
1074.676263,-8512.368333,153.219100,14804.118840
1074.676593,-6439.791695,-995.924147,11621.233289
1074.676922,-3182.885551,-2987.772442,8216.285956
1074.677252,74.020594,-5439.278036,5329.482782
1074.677581,1776.494261,-4673.182538,2590.720797
1074.677911,3034.844362,-1838.629195,1628.453072
1074.678240,4737.318029,1685.410096,2960.823768
1074.678570,5921.647536,4366.744339,6883.915261
1074.678900,4737.318029,4366.744339,11991.336260
1074.679229,518.144159,5669.106685,15618.345376
1074.679559,-3849.070898,6205.373534,17616.901420
1074.679888,-7105.977043,5362.668486,17912.983796
1074.680218,-7698.141797,2528.115143,16728.654289
1074.680547,-6809.894666,-1378.971896,13323.706956
1074.680877,-3552.988522,-4596.572988,8438.347739
1074.681207,296.082377,-5898.935335,4737.318029
1074.681536,2664.741391,-4136.915689,2368.659014
1074.681866,3478.967927,-995.924147,2146.597232
1074.682195,4441.235652,919.314598,3701.029710
1074.682525,4589.276840,3524.039291,7698.141797
1074.682854,3923.091493,6128.763984,12731.542202
1074.683184,222.061783,8273.831378,14804.118840
1074.683513,-2812.782580,6665.030833,14656.077652
1074.683843,-4663.297435,1915.238745,15174.221811
1074.684173,-5551.544565,306.438199,14952.160028
1074.684502,-5477.523971,-383.047749,12583.501014
1074.684832,-4663.297435,-2451.505594,8512.368333
1074.685161,-1850.514855,-3447.429741,3923.091493
1074.685491,1036.288319,-3524.039291,370.102971
1074.685820,4441.235652,-3370.820191,148.041188
1074.686150,6365.771101,-919.314598,2072.576638
1074.686480,4663.297435,3600.648841,4885.359217
1074.686809,666.185348,6281.983084,9770.718434
1074.687139,-3108.864956,7737.564530,14508.036463
1074.687468,-6069.688724,7124.688131,16728.654289
1074.687798,-7994.224174,2221.676944,16728.654289
1074.688127,-8882.471304,-842.705048,14656.077652
1074.688457,-6957.935855,-2451.505594,11103.089130
1074.688787,-3775.050304,-6205.373534,7994.224174
1074.689116,-1184.329507,-8427.050478,5107.421000
1074.689446,-444.123565,-6128.763984,3849.070898
1074.689775,1554.432478,-2221.676944,4293.194464
1074.690105,3627.009116,1072.533697,6439.791695
1074.690434,5255.462188,4136.915689,9252.574275
1074.690764,5403.503377,4366.744339,11917.315666
1074.691093,2960.823768,3447.429741,14804.118840
1074.691423,-888.247130,5132.839837,17690.922014
1074.691753,-4737.318029,6665.030833,18949.272115
1074.692082,-5995.668130,4136.915689,16876.695478
1074.692412,-4145.153275,-229.828649,12583.501014
1074.692741,-1110.308913,-5592.497135,7550.100608
1074.693071,1776.494261,-7507.735880,4071.132681
1074.693400,3108.864956,-5286.058936,1480.411884
1074.693730,3330.926739,-1991.848295,2146.597232
1074.694060,3404.947333,919.314598,4441.235652
1074.694389,2294.638420,3983.696590,9104.533087
1074.694719,74.020594,6205.373534,13323.706956
1074.695048,-2738.761985,7660.954980,14952.160028
1074.695378,-5625.565159,6205.373534,14804.118840
1074.695707,-6957.935855,4749.792088,15692.365970
1074.696037,-7105.977043,2451.505594,14656.077652
1074.696367,-5551.544565,-229.828649,10881.027347
1074.696696,-3034.844362,-3370.820191,5255.462188
1074.697026,-962.267725,-4673.182538,444.123565
1074.697355,1184.329507,-4213.525239,518.144159
1074.697685,3256.906145,-919.314598,2516.700203
1074.698014,4145.153275,2298.286494,4367.215058
1074.698344,3923.091493,4673.182538,7105.977043
1074.698674,2294.638420,5669.106685,10955.047942
1074.699003,-1258.350101,6741.640382,14285.974681
1074.699333,-4515.256246,5745.716235,15840.407159
1074.699662,-6143.709319,3600.648841,15618.345376
1074.699992,-5477.523971,1915.238745,13915.871710
1074.700321,-3330.926739,-1072.533697,10436.903782
1074.700651,-814.226536,-5209.449386,6513.812290
1074.700980,148.041188,-7124.688131,2664.741391
1074.701310,1036.288319,-4979.620737,2664.741391
1074.701640,2886.803174,-1302.362347,3701.029710
1074.701969,4367.215058,1915.238745,5995.668130
1074.702299,3775.050304,2451.505594,9178.553681
1074.702628,1480.411884,2987.772442,13619.789333
1074.702958,-2368.659014,4903.011187,16580.613101
1074.703287,-4959.379811,6511.811733,17764.942608
1074.703617,-6735.874072,4060.306139,17616.901420
1074.703947,-6883.915261,0.000000,15914.427753
1074.704276,-5477.523971,-3140.991542,12065.356855
1074.704606,-2516.700203,-6818.249932,7476.080014
1074.704935,0.000000,-7737.564530,3552.988522
1074.705265,1998.556043,-4979.620737,3182.885551
1074.705594,4367.215058,-2221.676944,4589.276840
1074.705924,4737.318029,536.266849,7105.977043
1074.706254,3404.947333,3370.820191,10881.027347
1074.706583,740.205942,6665.030833,13989.892304
1074.706913,-2442.679609,7737.564530,15470.304188
1074.707242,-4293.194464,7201.297681,15988.448347
1074.707572,-4811.338623,3677.258390,16358.551318
1074.707901,-4959.379811,689.485948,13693.809927
1074.708231,-3923.091493,-1455.581446,8216.285956
1074.708560,-2146.597232,-4596.572988,3108.864956
1074.708890,-370.102971,-5056.230287,592.164754
1074.709220,1776.494261,-4366.744339,814.226536
1074.709549,2664.741391,-1072.533697,1850.514855
1074.709879,3108.864956,2068.457845,4293.194464
1074.710208,2072.576638,4519.963438,8216.285956
1074.710538,-1554.432478,6281.983084,12213.398043
1074.710867,-4589.276840,6511.811733,14582.057057
1074.711197,-7031.956449,4903.011187,15840.407159
1074.711527,-7550.100608,3600.648841,14878.139434
1074.711856,-6661.853478,689.485948,11843.295072
1074.712186,-3701.029710,-2987.772442,8068.244768
1074.712515,-1258.350101,-6435.202183,4441.235652
1074.712845,0.000000,-7124.688131,2294.638420
1074.713174,592.164754,-2987.772442,2516.700203
1074.713504,2812.782580,-153.219100,4959.379811
1074.713834,4737.318029,2145.067394,8808.450710
1074.714163,4885.359217,3217.601092,12953.603985
1074.714493,2368.659014,3907.087040,15174.221811
1074.714822,-2220.617826,4443.353888,16358.551318
1074.715152,-4441.235652,4290.134789,17912.983796
1074.715481,-5181.441594,4060.306139,18579.169144
1074.715811,-4145.153275,1225.752797,15766.386565
1074.716140,-1998.556043,-3600.648841,9474.636058
1074.716470,740.205942,-8120.612279,3923.091493
1074.716800,2738.761985,-7814.174080,1998.556043
1074.717129,3997.112087,-3524.039291,3923.091493
1074.717459,4737.318029,536.266849,5403.503377
1074.717788,4071.132681,3294.210641,8216.285956
1074.718118,1998.556043,4213.525239,11547.212695
1074.718447,-1184.329507,5975.544884,13693.809927
1074.718777,-3552.988522,6818.249932,15396.283594
1074.719107,-5107.421000,5669.106685,16062.468941
1074.719436,-7031.956449,3524.039291,15100.201217
1074.719766,-6439.791695,612.876398,12139.377449
1074.720095,-5329.482782,-3064.381992,8216.285956
1074.720425,-3849.070898,-5132.839837,3330.926739
1074.720754,-1110.308913,-4136.915689,666.185348
1074.721084,2738.761985,-2528.115143,-444.123565
1074.721414,4515.256246,-1762.019645,1036.288319
1074.721743,4589.276840,766.095498,4663.297435
1074.722073,1332.370696,5209.449386,11251.130318
1074.722402,-2442.679609,9499.584175,14804.118840
1074.722732,-5921.647536,9499.584175,15396.283594
1074.723061,-5329.482782,5056.230287,15914.427753
1074.723391,-4885.359217,1762.019645,14508.036463
1074.723721,-3404.947333,-612.876398,10658.965565
1074.724050,-1332.370696,-2451.505594,6291.750507
1074.724380,444.123565,-4749.792088,3627.009116
1074.724709,740.205942,-4826.401637,2442.679609
1074.725039,1184.329507,-1225.752797,4293.194464
1074.725368,1998.556043,0.000000,5995.668130
1074.725698,2886.803174,2068.457845,8586.388927
1074.726027,1554.432478,3907.087040,12879.583391
1074.726357,-1332.370696,4519.963438,14878.139434
1074.726687,-4515.256246,3907.087040,16802.674883
1074.727016,-6069.688724,3677.258390,17690.922014
1074.727346,-6735.874072,3524.039291,16136.489536
1074.727675,-4589.276840,76.609550,11843.295072
1074.728005,-1554.432478,-5975.544884,7179.997637
1074.728334,1332.370696,-7890.783629,3849.070898
1074.728664,2072.576638,-4903.011187,3849.070898
1074.728994,2220.617826,-919.314598,5033.400406
1074.729323,3775.050304,2451.505594,7550.100608
1074.729653,2812.782580,4519.963438,11843.295072
1074.729982,962.267725,5209.449386,14508.036463
1074.730312,-1554.432478,6128.763984,15914.427753
1074.730641,-2886.803174,6128.763984,15544.324782
1074.730971,-3627.009116,4826.401637,14878.139434
1074.731301,-4293.194464,842.705048,13101.645173
1074.731630,-3182.885551,-2374.896044,9696.697840
1074.731960,-1924.535449,-4519.963438,5921.647536
1074.732289,-740.205942,-3217.601092,2220.617826
1074.732619,1036.288319,-1455.581446,-296.082377
1074.732948,3034.844362,-2451.505594,1258.350101
1074.733278,4959.379811,-689.485948,4663.297435
1074.733607,3108.864956,4519.963438,9770.718434
1074.733937,-814.226536,9039.926876,11843.295072
1074.734267,-4219.173869,9193.145976,12509.480420
1074.734596,-4367.215058,5515.887586,13841.851115
1074.734926,-4515.256246,2834.553343,14656.077652
1074.735255,-5181.441594,766.095498,12361.439231
1074.735585,-4589.276840,-766.095498,8216.285956
1074.735914,-3627.009116,-2604.724693,3627.009116
1074.736244,-1998.556043,-5209.449386,1924.535449
1074.736574,222.061783,-5056.230287,2442.679609
1074.736903,2072.576638,-3064.381992,4885.359217
1074.737233,2590.720797,-153.219100,6143.709319
1074.737562,888.247130,2834.553343,9696.697840
1074.737892,-1332.370696,4673.182538,14804.118840
1074.738221,-3552.988522,5592.497135,18061.024985
1074.738551,-4589.276840,5822.325785,18949.272115
1074.738881,-5033.400406,4213.525239,16876.695478
1074.739210,-4367.215058,1532.190996,13471.748144
1074.739540,-2146.597232,-3140.991542,9844.739029
1074.739869,296.082377,-5745.716235,7105.977043
1074.740199,1332.370696,-5132.839837,5699.585753
1074.740529,1554.432478,-1685.410096,5033.400406
1074.740858,3108.864956,612.876398,5625.565159
1074.741188,2960.823768,919.314598,8438.347739
1074.741518,1850.514855,2911.162892,11991.336260
1074.741847,-444.123565,5669.106685,14878.139434
1074.742177,-2368.659014,6128.763984,15322.262999
1074.742506,-3552.988522,5669.106685,15026.180623
1074.742836,-4737.318029,4596.572988,14211.954086
1074.743166,-4811.338623,766.095498,11621.233289
1074.743495,-4071.132681,-2451.505594,7179.997637
1074.743825,-2590.720797,-3600.648841,2664.741391
1074.744155,-518.144159,-2604.724693,814.226536
1074.744484,1036.288319,-2374.896044,1850.514855
1074.744814,2146.597232,-1302.362347,2960.823768
1074.745143,1628.453072,1838.629195,6513.812290
1074.745473,-222.061783,5286.058936,10510.924376
1074.745803,-2960.823768,8656.879127,13175.665768
1074.746132,-5181.441594,8120.612279,14656.077652
1074.746462,-5033.400406,5975.544884,15248.242405
1074.746792,-4737.318029,4060.306139,13693.809927
1074.747121,-2960.823768,612.876398,9918.759623
1074.747451,-814.226536,-2145.067394,5551.544565
1074.747780,74.020594,-4826.401637,2886.803174
1074.748110,0.000000,-3677.258390,2738.761985
1074.748440,740.205942,-1762.019645,3775.050304
1074.748769,2146.597232,383.047749,5699.585753
1074.749099,3182.885551,1608.800546,7698.141797
1074.749429,2368.659014,2451.505594,11621.233289
1074.749758,-148.041188,4213.525239,15396.283594
1074.750088,-3552.988522,6128.763984,16950.716072
1074.750417,-4071.132681,4903.011187,16802.674883
1074.750747,-4145.153275,3600.648841,14878.139434
1074.751077,-2368.659014,0.000000,12657.521608
1074.751406,-518.144159,-3677.258390,9104.533087
1074.751736,0.000000,-4519.963438,5033.400406
1074.752066,222.061783,-3447.429741,2886.803174
1074.752395,1554.432478,-3370.820191,4145.153275
1074.752725,2442.679609,-1991.848295,8364.327145
1074.753054,814.226536,2068.457845,11917.315666
1074.753384,-2146.597232,4519.963438,14137.933492
1074.753714,-4589.276840,4903.011187,14582.057057
1074.754043,-4959.379811,4903.011187,15100.201217
1074.754373,-4589.276840,3677.258390,15396.283594
1074.754703,-4219.173869,1915.238745,14211.954086
1074.755032,-2294.638420,-383.047749,10510.924376
1074.755362,-814.226536,-2528.115143,5477.523971
1074.755691,296.082377,-3753.867940,2072.576638
1074.756021,1554.432478,-2987.772442,1776.494261
1074.756351,3330.926739,-1378.971896,4811.338623
1074.756680,3775.050304,2451.505594,7328.038826
1074.757010,1850.514855,4903.011187,9400.615463
1074.757340,-1110.308913,7048.078582,11769.274478
1074.757669,-2960.823768,6205.373534,13323.706956
1074.757999,-3552.988522,4366.744339,14434.015869
1074.758328,-3775.050304,4749.792088,13767.830521
1074.758658,-4219.173869,2604.724693,10362.883188
1074.758988,-2664.741391,-383.047749,7328.038826
1074.759317,-1850.514855,-3140.991542,4219.173869
1074.759647,-1628.453072,-3524.039291,2368.659014
1074.759977,-888.247130,-2221.676944,3034.844362
1074.760306,444.123565,-919.314598,3552.988522
1074.760636,666.185348,2374.896044,6365.771101
1074.760965,296.082377,2757.943793,9844.739029
1074.761295,-814.226536,2834.553343,13397.727550
1074.761625,-3034.844362,4136.915689,14730.098246
1074.761954,-4293.194464,5209.449386,16284.530724
1074.762284,-4441.235652,5056.230287,16284.530724
1074.762613,-2960.823768,2681.334243,13915.871710
1074.762943,-148.041188,-995.924147,10510.924376
1074.763273,1998.556043,-4903.011187,6217.729913
1074.763602,3108.864956,-3830.477490,4071.132681
1074.763932,2886.803174,-995.924147,5477.523971
1074.764262,2590.720797,306.438199,7179.997637
1074.764591,2294.638420,1532.190996,9400.615463
1074.764921,1258.350101,2528.115143,12731.542202
1074.765250,-222.061783,4519.963438,14804.118840
1074.765580,-2960.823768,4519.963438,14359.995275
1074.765910,-4145.153275,3294.210641,14211.954086
1074.766239,-3997.112087,2757.943793,14063.912898
1074.766569,-2960.823768,1225.752797,11843.295072
1074.766899,-1850.514855,-995.924147,7402.059420
1074.767228,-592.164754,-2987.772442,3627.009116
1074.767558,740.205942,-3294.210641,2590.720797
1074.767887,1110.308913,-612.876398,3775.050304
1074.768217,1332.370696,919.314598,5477.523971
1074.768547,296.082377,1838.629195,7624.121203
1074.768876,-740.205942,3830.477490,10881.027347
1074.769206,-2960.823768,5975.544884,13693.809927
1074.769536,-3997.112087,5745.716235,14211.954086
1074.769865,-4367.215058,2987.772442,13693.809927
1074.770195,-4663.297435,1225.752797,11843.295072
1074.770524,-3701.029710,76.609550,9400.615463
1074.770854,-1480.411884,-2221.676944,7550.100608
1074.771184,0.000000,-2681.334243,4737.318029
1074.771513,1332.370696,-2451.505594,1776.494261
1074.771843,2368.659014,-2604.724693,2738.761985
1074.772173,3108.864956,-1225.752797,5403.503377
1074.772502,2886.803174,1072.533697,9474.636058
1074.772832,74.020594,4366.744339,13841.851115
1074.773161,-2886.803174,5592.497135,15248.242405
1074.773491,-4441.235652,5286.058936,16210.510130
1074.773821,-3923.091493,3140.991542,15470.304188
1074.774150,-3627.009116,1608.800546,13767.830521
1074.774480,-1702.473667,-689.485948,10584.944971
1074.774810,222.061783,-3600.648841,7031.956449
1074.775139,444.123565,-3677.258390,4589.276840
1074.775469,444.123565,-2451.505594,3997.112087
1074.775798,814.226536,-1991.848295,5773.606348
1074.776128,740.205942,0.000000,7698.141797
1074.776458,-296.082377,1838.629195,10955.047942
1074.776787,-2146.597232,3830.477490,13693.809927
1074.777117,-3404.947333,3447.429741,14878.139434
1074.777447,-3775.050304,3140.991542,14952.160028
1074.777776,-3923.091493,2987.772442,14434.015869
1074.778106,-3775.050304,995.924147,11991.336260
1074.778435,-1554.432478,-536.266849,9844.739029
1074.778765,740.205942,-1149.143247,7105.977043
1074.779095,1924.535449,-689.485948,4811.338623
1074.779424,2294.638420,766.095498,3849.070898
1074.779754,3182.885551,-459.657299,4293.194464
1074.780084,2738.761985,842.705048,7402.059420
1074.780413,740.205942,3600.648841,10584.944971
1074.780743,-1776.494261,5745.716235,12657.521608
1074.781072,-3478.967927,5669.106685,13619.789333
1074.781402,-4219.173869,2987.772442,13841.851115
1074.781732,-5477.523971,2834.553343,12879.583391
1074.782061,-5329.482782,383.047749,10362.883188
1074.782391,-2886.803174,-919.314598,8216.285956
1074.782721,-1184.329507,-459.657299,4589.276840
1074.783050,740.205942,-536.266849,740.205942
1074.783380,2590.720797,-2834.553343,1184.329507
1074.783709,3701.029710,-2068.457845,3552.988522
1074.784039,2590.720797,2451.505594,6883.915261
1074.784369,74.020594,6205.373534,10955.047942
1074.784698,-2664.741391,5975.544884,13693.809927
1074.785028,-4589.276840,4213.525239,15100.201217
1074.785358,-5403.503377,2374.896044,15766.386565
1074.785687,-5551.544565,1608.800546,13989.892304
1074.786017,-3330.926739,-1378.971896,11177.109724
1074.786346,-740.205942,-3907.087040,8364.327145
1074.786676,-148.041188,-4366.744339,5551.544565
1074.787006,74.020594,-3447.429741,4737.318029
1074.787335,1406.391290,-2987.772442,5477.523971
1074.787665,3034.844362,0.000000,7105.977043
1074.787995,2738.761985,2451.505594,8956.491898
1074.788324,2294.638420,995.924147,11843.295072
1074.788654,370.102971,1149.143247,15174.221811
1074.788983,-2442.679609,2221.676944,17394.839637
1074.789313,-4885.359217,4136.915689,17987.004391
1074.789643,-5403.503377,3447.429741,15396.283594
1074.789972,-3108.864956,0.000000,11769.274478
1074.790302,518.144159,-4290.134789,8882.471304
1074.790632,2220.617826,-4749.792088,5699.585753
1074.790961,2442.679609,-1915.238745,3478.967927
1074.791291,2368.659014,-1072.533697,3701.029710
1074.791620,1184.329507,842.705048,4737.318029
1074.791950,-148.041188,2068.457845,8808.450710
1074.792280,-2072.576638,3830.477490,12953.603985
1074.792609,-4515.256246,4673.182538,13693.809927
1074.792939,-6365.771101,3217.601092,12805.562797
1074.793269,-6217.729913,1991.848295,12361.439231
1074.793598,-5699.585753,-306.438199,11029.068536
1074.793928,-3478.967927,-1915.238745,9104.533087
1074.794257,-1110.308913,-1685.410096,5921.647536
1074.794587,592.164754,-229.828649,3108.864956
1074.794917,2220.617826,0.000000,1628.453072
1074.795246,4293.194464,153.219100,3108.864956
1074.795576,4589.276840,1608.800546,5403.503377
1074.795906,3552.988522,2987.772442,8586.388927
1074.796235,1036.288319,4979.620737,13323.706956
1074.796565,-2368.659014,5898.935335,15026.180623
1074.796894,-4959.379811,4136.915689,15766.386565
1074.797224,-5847.626942,1685.410096,14730.098246
1074.797554,-4959.379811,229.828649,12139.377449
1074.797883,-2294.638420,-2298.286494,9770.718434
1074.798213,148.041188,-3830.477490,7105.977043
1074.798543,1184.329507,-1608.800546,3997.112087
1074.798872,1480.411884,-2221.676944,2072.576638
1074.799202,3775.050304,-1762.019645,3478.967927
1074.799531,3923.091493,1455.581446,7105.977043
1074.799861,1702.473667,4213.525239,11251.130318
1074.800191,-1110.308913,4519.963438,14359.995275
1074.800520,-3849.070898,3524.039291,15544.324782
1074.800850,-5107.421000,1302.362347,17098.757260
1074.801180,-5847.626942,1149.143247,17838.963202
1074.801509,-5921.647536,842.705048,15174.221811
1074.801839,-3849.070898,-1608.800546,10807.006753
1074.802168,-666.185348,-4060.306139,6291.750507
1074.802498,1776.494261,-3370.820191,3923.091493
1074.802828,3627.009116,-842.705048,4219.173869
1074.803157,4145.153275,306.438199,4589.276840
1074.803487,3775.050304,2451.505594,6513.812290
1074.803817,1628.453072,3294.210641,9400.615463
1074.804146,-222.061783,4749.792088,12953.603985
1074.804476,-2960.823768,4903.011187,14878.139434
1074.804805,-4293.194464,3447.429741,15470.304188
1074.805135,-5107.421000,2298.286494,14508.036463
1074.805465,-5477.523971,919.314598,11695.253884
1074.805794,-3775.050304,-1915.238745,8956.491898
1074.806124,-1702.473667,-2681.334243,5107.421000
1074.806454,222.061783,-1225.752797,1184.329507
1074.806783,2738.761985,-1149.143247,-0.000000
1074.807113,4071.132681,-1225.752797,2146.597232
1074.807442,3849.070898,153.219100,4811.338623
1074.807772,888.247130,3753.867940,9696.697840
1074.808102,-2516.700203,6358.592633,13545.768739
1074.808431,-5699.585753,5975.544884,15248.242405
1074.808761,-6735.874072,3217.601092,15766.386565
1074.809091,-6439.791695,1762.019645,13989.892304
1074.809420,-4589.276840,-383.047749,11325.150913
1074.809750,-1406.391290,-3677.258390,7772.162391
1074.810079,148.041188,-4749.792088,3997.112087
1074.810409,1036.288319,-3447.429741,3849.070898
1074.810739,1776.494261,-1991.848295,4589.276840
1074.811068,3552.988522,383.047749,6143.709319
1074.811398,3404.947333,1608.800546,8586.388927
1074.811728,3108.864956,1685.410096,12065.356855
1074.812057,888.247130,2374.896044,15766.386565
1074.812387,-2516.700203,3294.210641,17690.922014
1074.812716,-4959.379811,2451.505594,18209.066173
1074.813046,-5773.606348,2145.067394,16802.674883
1074.813376,-3923.091493,306.438199,14137.933492
1074.813705,-888.247130,-3370.820191,9918.759623
1074.814035,1406.391290,-6128.763984,4885.359217
1074.814365,3330.926739,-4903.011187,2220.617826
1074.814694,4663.297435,-842.705048,4737.318029
1074.815024,4441.235652,2451.505594,6291.750507
1074.815353,2368.659014,4060.306139,7994.224174
1074.815683,296.082377,4366.744339,11621.233289
1074.816013,-1702.473667,5822.325785,13397.727550
1074.816342,-3330.926739,4826.401637,13989.892304
1074.816672,-4589.276840,2221.676944,14211.954086
1074.817002,-6587.832884,612.876398,13027.624579
1074.817331,-7179.997637,-919.314598,11473.192101
1074.817661,-5699.585753,-1685.410096,8734.430116
1074.817990,-3404.947333,-1149.143247,4071.132681
1074.818320,0.000000,-612.876398,222.061783
1074.818650,4663.297435,-2451.505594,-888.247130
1074.818979,5995.668130,-919.314598,1998.556043
1074.819309,4515.256246,3064.381992,5773.606348
1074.819639,1036.288319,6818.249932,10732.986159
1074.819968,-2738.761985,8427.050478,13693.809927
1074.820298,-5625.565159,7814.174080,16284.530724
1074.820627,-5699.585753,4136.915689,17394.839637
1074.820957,-5033.400406,1225.752797,14878.139434
1074.821287,-3552.988522,-1685.410096,10214.842000
1074.821616,-1628.453072,-3447.429741,6143.709319
1074.821946,-666.185348,-4060.306139,4145.153275
1074.822276,444.123565,-2374.896044,3404.947333
1074.822605,2146.597232,-612.876398,4737.318029
1074.822935,3108.864956,1685.410096,5625.565159
1074.823264,3404.947333,2604.724693,7550.100608
1074.823594,1998.556043,2528.115143,12657.521608
1074.823924,-1184.329507,3983.696590,15840.407159
1074.824253,-4441.235652,4826.401637,16876.695478
1074.824583,-5551.544565,3600.648841,16876.695478
1074.824913,-4885.359217,2145.067394,15100.201217
1074.825242,-3330.926739,-1072.533697,12509.480420
1074.825572,-888.247130,-4060.306139,8438.347739
1074.825901,370.102971,-4443.353888,4515.256246
1074.826231,2368.659014,-2681.334243,2442.679609
1074.826561,3478.967927,-1149.143247,4885.359217
1074.826890,3923.091493,1532.190996,7105.977043
1074.827220,2368.659014,3677.258390,10732.986159
1074.827550,-222.061783,4673.182538,12509.480420
1074.827879,-2664.741391,4673.182538,13693.809927
1074.828209,-3701.029710,3753.867940,15026.180623
1074.828538,-4145.153275,3064.381992,15322.262999
1074.828868,-4663.297435,1149.143247,13323.706956
1074.829198,-3552.988522,-1149.143247,9104.533087
1074.829527,-1998.556043,-3677.258390,4441.235652
1074.829857,-296.082377,-3524.039291,1850.514855
1074.830187,2294.638420,-1455.581446,1406.391290
1074.830516,3923.091493,-612.876398,3849.070898
1074.830846,3552.988522,1685.410096,4663.297435
1074.831175,2294.638420,3447.429741,7772.162391
1074.831505,-370.102971,4903.011187,12139.377449
1074.831835,-4219.173869,6971.469032,14878.139434
1074.832164,-5773.606348,6435.202183,15766.386565
1074.832494,-5847.626942,3447.429741,14656.077652
1074.832824,-4737.318029,383.047749,11991.336260
1074.833153,-2960.823768,-2221.676944,9104.533087
1074.833483,-1924.535449,-4213.525239,4441.235652
1074.833812,-1554.432478,-4443.353888,1776.494261
1074.834142,74.020594,-3370.820191,2516.700203
1074.834472,1110.308913,0.000000,5477.523971
1074.834801,1924.535449,1532.190996,6957.935855
1074.835131,1924.535449,1455.581446,10881.027347
1074.835461,444.123565,1915.238745,13693.809927
1074.835790,-2368.659014,3294.210641,16136.489536
1074.836120,-4071.132681,4519.963438,17838.963202
1074.836449,-4589.276840,3983.696590,17764.942608
1074.836779,-3849.070898,1991.848295,15026.180623
1074.837109,-962.267725,-2145.067394,11251.130318
1074.837438,1258.350101,-4903.011187,7254.018232
1074.837768,1406.391290,-2987.772442,4811.338623
1074.838098,2146.597232,-1685.410096,3552.988522
1074.838427,3627.009116,229.828649,5921.647536
1074.838757,3478.967927,2298.286494,7772.162391
1074.839087,2294.638420,3064.381992,11325.150913
1074.839416,-444.123565,5286.058936,13397.727550
1074.839746,-3404.947333,5286.058936,13841.851115
1074.840076,-4219.173869,4596.572988,14434.015869
1074.840405,-4515.256246,3217.601092,13693.809927
1074.840735,-4071.132681,1378.971896,11325.150913
1074.841065,-3182.885551,-1455.581446,7846.182985
1074.841395,-2442.679609,-1762.019645,3627.009116
1074.841724,-518.144159,-1302.362347,666.185348
1074.842054,518.144159,-2374.896044,1924.535449
1074.842384,2664.741391,-229.828649,3034.844362
1074.842713,1924.535449,2528.115143,6735.874072
1074.843043,148.041188,5056.230287,9918.759623
1074.843373,-2590.720797,6435.202183,11917.315666
1074.843702,-4071.132681,5975.544884,13915.871710
1074.844032,-4589.276840,4213.525239,14730.098246
1074.844362,-4737.318029,3370.820191,14137.933492
1074.844692,-2812.782580,383.047749,10881.027347
1074.845021,-740.205942,-2987.772442,7846.182985
1074.845351,-888.247130,-3447.429741,4737.318029
1074.845681,-1184.329507,-2451.505594,3923.091493
1074.846010,-370.102971,-1685.410096,5107.421000
1074.846340,1332.370696,229.828649,4959.379811
1074.846670,2664.741391,766.095498,8734.430116
1074.847000,2368.659014,919.314598,12805.562797
1074.847329,-888.247130,2451.505594,14878.139434
1074.847659,-3701.029710,4596.572988,15322.262999
1074.847989,-4737.318029,4290.134789,15396.283594
1074.848318,-3552.988522,2987.772442,15174.221811
1074.848648,-1258.350101,689.485948,13989.892304
1074.848978,0.000000,-2911.162892,10140.821405
1074.849307,0.000000,-4213.525239,4441.235652
1074.849637,888.247130,-3677.258390,2960.823768
1074.849967,1776.494261,-2068.457845,5107.421000
1074.850297,2886.803174,1302.362347,7254.018232
1074.850626,2146.597232,2604.724693,10658.965565
1074.850956,222.061783,3217.601092,11695.253884
1074.851286,-2590.720797,3983.696590,12213.398043
1074.851615,-3923.091493,3370.820191,13915.871710
1074.851945,-4737.318029,3294.210641,15100.201217
1074.852275,-4589.276840,2987.772442,13841.851115
1074.852604,-2738.761985,612.876398,10140.821405
1074.852934,-1628.453072,-2298.286494,5255.462188
1074.853264,-592.164754,-3524.039291,2590.720797
1074.853594,0.000000,-2757.943793,2590.720797
1074.853923,1776.494261,-612.876398,5255.462188
1074.854253,1332.370696,2604.724693,6735.874072
1074.854583,1258.350101,3064.381992,8882.471304
1074.854912,0.000000,4443.353888,11621.233289
1074.855242,-2146.597232,4903.011187,12583.501014
1074.855572,-2886.803174,4749.792088,14656.077652
1074.855901,-3108.864956,4903.011187,14508.036463
1074.856231,-3256.906145,4136.915689,12361.439231
1074.856561,-2368.659014,306.438199,9178.553681
1074.856891,-1184.329507,-3677.258390,5995.668130
1074.857220,-814.226536,-3294.210641,2368.659014
1074.857550,74.020594,-2604.724693,3552.988522
1074.857880,518.144159,-306.438199,4441.235652
1074.858209,592.164754,1225.752797,6069.688724
1074.858539,888.247130,995.924147,10436.903782
1074.858869,-962.267725,2298.286494,12879.583391
1074.859198,-3404.947333,4290.134789,14211.954086
1074.859528,-4071.132681,4136.915689,14656.077652
1074.859858,-4367.215058,2911.162892,14137.933492
1074.860188,-2664.741391,1991.848295,12583.501014
1074.860517,-888.247130,-1991.848295,10214.842000
1074.860847,666.185348,-4749.792088,7624.121203
1074.861177,740.205942,-3064.381992,4663.297435
1074.861506,518.144159,-2145.067394,5921.647536
1074.861836,1332.370696,-1072.533697,6883.915261
1074.862166,2294.638420,229.828649,9030.512492
1074.862495,2072.576638,1532.190996,12361.439231
1074.862825,0.000000,3140.991542,14063.912898
1074.863155,-2590.720797,4366.744339,14952.160028
1074.863485,-3404.947333,4519.963438,15248.242405
1074.863814,-4145.153275,3600.648841,14137.933492
1074.864144,-3256.906145,2145.067394,11621.233289
1074.864474,-1554.432478,-1532.190996,8216.285956
1074.864803,0.000000,-2834.553343,4811.338623
1074.865133,0.000000,-1762.019645,4293.194464
1074.865463,370.102971,-1991.848295,2960.823768
1074.865792,518.144159,-919.314598,4441.235652
1074.866122,518.144159,153.219100,7476.080014
1074.866452,-888.247130,3983.696590,11399.171507
1074.866782,-3552.988522,6971.469032,13101.645173
1074.867111,-4071.132681,6435.202183,12287.418637
1074.867441,-4145.153275,3294.210641,11991.336260
1074.867771,-3849.070898,1915.238745,11325.150913
1074.868100,-2960.823768,1149.143247,10584.944971
1074.868430,-1776.494261,-1072.533697,8142.265362
1074.868760,-592.164754,-766.095498,4367.215058
1074.869089,-1036.288319,-995.924147,1924.535449
1074.869419,1776.494261,-1991.848295,3552.988522
1074.869749,2516.700203,-919.314598,6291.750507
1074.870079,2072.576638,1838.629195,9474.636058
1074.870408,0.000000,5056.230287,11917.315666
1074.870738,-2368.659014,4749.792088,13397.727550
1074.871068,-3775.050304,3753.867940,14804.118840
1074.871397,-3701.029710,2681.334243,14878.139434
1074.871727,-2960.823768,1838.629195,13101.645173
1074.872057,-740.205942,306.438199,10955.047942
1074.872386,666.185348,-2987.772442,7772.162391
1074.872716,0.000000,-3447.429741,5477.523971
1074.873046,148.041188,-3217.601092,4441.235652
1074.873376,1628.453072,-2298.286494,6735.874072
1074.873705,1554.432478,0.000000,7920.203579
1074.874035,222.061783,766.095498,10955.047942
1074.874365,-1480.411884,2451.505594,13397.727550
1074.874694,-3182.885551,2834.553343,14952.160028
1074.875024,-3997.112087,2451.505594,16358.551318
1074.875354,-4219.173869,3753.867940,15618.345376
1074.875683,-4219.173869,3600.648841,12805.562797
1074.876013,-2220.617826,-842.705048,9622.677246
1074.876343,-370.102971,-3217.601092,6513.812290
1074.876673,1036.288319,-2451.505594,3108.864956
1074.877002,1332.370696,-1225.752797,4663.297435
1074.877332,1850.514855,612.876398,4959.379811
1074.877662,1036.288319,766.095498,7105.977043
1074.877991,370.102971,2221.676944,9844.739029
1074.878321,-1924.535449,3983.696590,12139.377449
1074.878651,-2960.823768,4903.011187,12953.603985
1074.878981,-3923.091493,3600.648841,13619.789333
1074.879310,-4737.318029,2911.162892,12657.521608
1074.879640,-4145.153275,2681.334243,10436.903782
1074.879970,-2072.576638,-1225.752797,7994.224174
1074.880299,-222.061783,-2221.676944,4589.276840
1074.880629,0.000000,-153.219100,2960.823768
1074.880959,1258.350101,0.000000,2664.741391
1074.881288,1480.411884,76.609550,3701.029710
1074.881618,962.267725,229.828649,5033.400406
1074.881948,592.164754,536.266849,9474.636058
1074.882278,-1702.473667,2374.896044,13841.851115
1074.882607,-4885.359217,4060.306139,15914.427753
1074.882937,-6883.915261,4290.134789,15618.345376
1074.883267,-5477.523971,2451.505594,14285.974681
1074.883596,-2960.823768,76.609550,11843.295072
1074.883926,148.041188,-3600.648841,9622.677246
1074.884256,888.247130,-5132.839837,6809.894666
1074.884585,592.164754,-2374.896044,4515.256246
1074.884915,296.082377,-229.828649,5921.647536
1074.885245,2220.617826,842.705048,6365.771101
1074.885575,3849.070898,229.828649,9326.594869
1074.885904,3034.844362,-229.828649,12657.521608
1074.886234,-370.102971,2068.457845,14804.118840
1074.886564,-3997.112087,2987.772442,15100.201217
1074.886893,-5477.523971,2528.115143,16210.510130
1074.887223,-4737.318029,2757.943793,15766.386565
1074.887553,-3108.864956,1149.143247,12509.480420
1074.887882,148.041188,-1762.019645,8882.471304
1074.888212,1628.453072,-3600.648841,4441.235652
1074.888542,1554.432478,-1991.848295,2220.617826
1074.888872,2516.700203,-1149.143247,2738.761985
1074.889201,2072.576638,229.828649,5773.606348
1074.889531,1110.308913,2221.676944,8216.285956
1074.889861,-962.267725,3983.696590,11103.089130
1074.890190,-3330.926739,4060.306139,12657.521608
1074.890520,-4663.297435,3140.991542,13989.892304
1074.890850,-5403.503377,2528.115143,14878.139434
1074.891179,-5921.647536,3217.601092,13101.645173
1074.891509,-4737.318029,1455.581446,9992.780217
1074.891839,-2294.638420,-1608.800546,6587.832884
1074.892169,-592.164754,-1302.362347,2812.782580
1074.892498,666.185348,-1378.971896,1776.494261
1074.892828,1924.535449,-306.438199,2886.803174
1074.893158,2442.679609,76.609550,4071.132681
1074.893487,1702.473667,1685.410096,8364.327145
1074.893817,-740.205942,2834.553343,12657.521608
1074.894147,-4071.132681,4136.915689,14878.139434
1074.894476,-5181.441594,3983.696590,15174.221811
1074.894806,-5033.400406,2604.724693,14434.015869
1074.895136,-3034.844362,1685.410096,13175.665768
1074.895466,-962.267725,-689.485948,11177.109724
1074.895795,1258.350101,-2068.457845,9178.553681
1074.896125,1628.453072,-766.095498,3849.070898
1074.896455,2516.700203,-842.705048,2368.659014
1074.896784,3701.029710,-383.047749,4145.153275
1074.897114,3775.050304,2451.505594,6661.853478
1074.897444,2738.761985,3524.039291,9844.739029
1074.897773,296.082377,2834.553343,12731.542202
1074.898103,-3330.926739,1762.019645,13989.892304
1074.898433,-5995.668130,1302.362347,16062.468941
1074.898763,-7254.018232,919.314598,17172.777854
1074.899092,-7402.059420,1685.410096,15618.345376
1074.899422,-5329.482782,229.828649,10732.986159
1074.899752,-1776.494261,-3447.429741,7105.977043
1074.900081,1258.350101,-2987.772442,3182.885551
1074.900411,2960.823768,-1378.971896,4515.256246
1074.900741,4589.276840,766.095498,4811.338623
1074.901070,3849.070898,2681.334243,5625.565159
1074.901400,2368.659014,3677.258390,8586.388927
1074.901730,518.144159,3600.648841,13175.665768
1074.902060,-1702.473667,3524.039291,15248.242405
1074.902389,-3627.009116,2911.162892,15840.407159
1074.902719,-5329.482782,2757.943793,14804.118840
1074.903049,-5403.503377,1532.190996,12583.501014
1074.903378,-3256.906145,-919.314598,9622.677246
1074.903708,-814.226536,-2604.724693,6217.729913
1074.904038,1258.350101,-1455.581446,1776.494261
1074.904367,2368.659014,-1225.752797,962.267725
1074.904697,3256.906145,-229.828649,1850.514855
1074.905027,1998.556043,1072.533697,4441.235652
1074.905357,0.000000,2145.067394,8956.491898
1074.905686,-3552.988522,4136.915689,13027.624579
1074.906016,-6365.771101,5209.449386,14878.139434
1074.906346,-8290.306550,2298.286494,15026.180623
1074.906675,-7846.182985,-1225.752797,14359.995275
1074.907005,-5921.647536,-1915.238745,12287.418637
1074.907335,-2812.782580,-2451.505594,9844.739029
1074.907665,-444.123565,-4136.915689,6143.709319
1074.907994,592.164754,-2451.505594,3627.009116
1074.908324,1628.453072,-1072.533697,4885.359217
1074.908654,3775.050304,766.095498,5255.462188
1074.908983,5329.482782,2145.067394,7994.224174
1074.909313,5699.585753,1378.971896,10807.006753
1074.909643,2368.659014,1991.848295,14804.118840
1074.909972,-2072.576638,3677.258390,16728.654289
1074.910302,-5107.421000,3140.991542,17616.901420
1074.910632,-5329.482782,2145.067394,16580.613101
1074.910962,-3849.070898,153.219100,13545.768739
1074.911291,-1554.432478,-2911.162892,9696.697840
1074.911621,740.205942,-4979.620737,6513.812290
1074.911951,1776.494261,-2987.772442,2960.823768
1074.912280,3997.112087,-842.705048,2368.659014
1074.912610,4071.132681,919.314598,4145.153275
1074.912940,3552.988522,3217.601092,7179.997637
1074.913269,444.123565,5822.325785,11843.295072
1074.913599,-2294.638420,7814.174080,13915.871710
1074.913929,-4293.194464,6818.249932,13767.830521
1074.914259,-4959.379811,3907.087040,14508.036463
1074.914588,-5847.626942,1455.581446,14508.036463
1074.914918,-6291.750507,0.000000,12731.542202
1074.915248,-5181.441594,-842.705048,8808.450710
1074.915577,-3701.029710,-1149.143247,3849.070898
1074.915907,-666.185348,-1225.752797,370.102971
1074.916237,3552.988522,-995.924147,2294.638420
1074.916566,4811.338623,459.657299,3775.050304
1074.916896,4515.256246,3524.039291,5625.565159
1074.917226,1406.391290,5286.058936,7920.203579
1074.917556,-1998.556043,6588.421283,11917.315666
1074.917885,-4071.132681,6894.859482,15544.324782
1074.918215,-5107.421000,5592.497135,16062.468941
1074.918545,-4737.318029,2528.115143,14137.933492
1074.918874,-3404.947333,-766.095498,9622.677246
1074.919204,-1406.391290,-4136.915689,6587.832884
1074.919534,-222.061783,-4673.182538,5773.606348
1074.919863,-148.041188,-2528.115143,3923.091493
1074.920193,962.267725,-383.047749,4145.153275
1074.920523,2590.720797,612.876398,5181.441594
1074.920853,3701.029710,842.705048,9030.512492
1074.921182,1998.556043,2374.896044,13101.645173
1074.921512,-1628.453072,3907.087040,15026.180623
1074.921842,-4367.215058,4060.306139,16432.571912
1074.922171,-6069.688724,3600.648841,17024.736666
1074.922501,-6291.750507,1762.019645,15544.324782
1074.922831,-3997.112087,-2757.943793,12139.377449
1074.923160,-1332.370696,-6358.592633,8290.306550
1074.923490,0.000000,-4903.011187,4737.318029
1074.923820,1184.329507,-3064.381992,4071.132681
1074.924150,2294.638420,-1608.800546,6217.729913
1074.924479,2960.823768,612.876398,7994.224174
1074.924809,2738.761985,2681.334243,11325.150913
1074.925139,2442.679609,4826.401637,13323.706956
1074.925468,0.000000,4903.011187,13841.851115
1074.925798,-2516.700203,4903.011187,14211.954086
1074.926128,-3997.112087,3753.867940,14952.160028
1074.926457,-4145.153275,2451.505594,13841.851115
1074.926787,-2886.803174,919.314598,9992.780217
1074.927117,-1258.350101,-2834.553343,5033.400406
1074.927447,-666.185348,-3753.867940,1924.535449
1074.927776,1406.391290,-3524.039291,1258.350101
1074.928106,2590.720797,-842.705048,3108.864956
1074.928436,3478.967927,1838.629195,3997.112087
1074.928765,1776.494261,3677.258390,6439.791695
1074.929095,-740.205942,5515.887586,11325.150913
1074.929425,-3775.050304,7507.735880,13619.789333
1074.929754,-5625.565159,7431.126331,13693.809927
1074.930084,-5625.565159,4290.134789,12805.562797
1074.930414,-4737.318029,1225.752797,11251.130318
1074.930744,-4219.173869,-1608.800546,8808.450710
1074.931073,-3182.885551,-4136.915689,6513.812290
1074.931403,-1924.535449,-4673.182538,3330.926739
1074.931733,-296.082377,-2987.772442,2960.823768
1074.932062,1554.432478,-1378.971896,4219.173869
1074.932392,3923.091493,229.828649,7476.080014
1074.932722,4071.132681,1532.190996,11547.212695
1074.933051,2072.576638,3677.258390,14582.057057
1074.933381,-1258.350101,6358.592633,15988.448347
1074.933711,-3330.926739,6358.592633,17394.839637
1074.934041,-3849.070898,4903.011187,18135.045579
1074.934370,-2886.803174,2145.067394,15692.365970
1074.934700,-666.185348,-1762.019645,11325.150913
1074.935030,666.185348,-4826.401637,7105.977043
1074.935359,666.185348,-4366.744339,2886.803174
1074.935689,1184.329507,-3140.991542,5403.503377
1074.936019,2368.659014,-612.876398,6069.688724
1074.936348,2812.782580,1455.581446,7328.038826
1074.936678,2146.597232,2757.943793,9992.780217
1074.937008,-370.102971,4060.306139,13027.624579
1074.937338,-3256.906145,5592.497135,14285.974681
1074.937667,-5033.400406,6052.154434,14730.098246
1074.937997,-5107.421000,4673.182538,14359.995275
1074.938327,-5255.462188,1532.190996,11843.295072
1074.938656,-4219.173869,-1608.800546,8290.306550
1074.938986,-2886.803174,-2528.115143,4515.256246
1074.939316,-1332.370696,-2604.724693,444.123565
1074.939646,888.247130,-2451.505594,962.267725
1074.939975,2960.823768,-766.095498,3330.926739
1074.940305,2812.782580,1685.410096,7402.059420
1074.940634,888.247130,4290.134789,10436.903782
1074.940964,-1776.494261,6358.592633,12509.480420
1074.941294,-3182.885551,6741.640382,13027.624579
1074.941623,-3404.947333,4903.011187,13693.809927
1074.941953,-3182.885551,2681.334243,13545.768739
1074.942282,-2220.617826,153.219100,10807.006753
1074.942612,-444.123565,-2451.505594,7846.182985
1074.942941,-518.144159,-3370.820191,3997.112087
1074.943271,-444.123565,-3217.601092,2738.761985
1074.943601,814.226536,-2987.772442,4441.235652
1074.943930,2886.803174,-1378.971896,6587.832884
1074.944260,4219.173869,2145.067394,7994.224174
1074.944589,3108.864956,2528.115143,11769.274478
1074.944919,148.041188,2451.505594,14063.912898
1074.945248,-3627.009116,4519.963438,15840.407159
1074.945578,-5181.441594,5975.544884,17098.757260
1074.945908,-4959.379811,3524.039291,16358.551318
1074.946237,-3775.050304,-383.047749,12879.583391
1074.946567,-2368.659014,-4290.134789,9030.512492
1074.946896,-1406.391290,-6128.763984,5551.544565
1074.947226,-222.061783,-5209.449386,4663.297435
1074.947555,1332.370696,-2145.067394,5403.503377
1074.947885,2294.638420,-229.828649,7254.018232
1074.948215,1628.453072,2374.896044,10214.842000
1074.948544,0.000000,3907.087040,13323.706956
1074.948874,-1554.432478,5132.839837,14285.974681
1074.949203,-2368.659014,5822.325785,14063.912898
1074.949533,-3330.926739,6128.763984,14285.974681
1074.949862,-3108.864956,4366.744339,13619.789333
1074.950192,-2664.741391,766.095498,9918.759623
1074.950522,-962.267725,-2374.896044,5329.482782
1074.950851,518.144159,-3294.210641,2590.720797
1074.951181,1258.350101,-2604.724693,1480.411884
1074.951510,2294.638420,-766.095498,3256.906145
1074.951840,2442.679609,766.095498,4959.379811
1074.952169,1998.556043,3064.381992,7550.100608
1074.952499,-444.123565,5209.449386,10658.965565
1074.952829,-2442.679609,6358.592633,13471.748144
1074.953158,-4219.173869,6818.249932,14285.974681
1074.953488,-4589.276840,5515.887586,13471.748144
1074.953817,-4219.173869,2987.772442,11029.068536
1074.954147,-3108.864956,-1072.533697,8290.306550
1074.954476,-1998.556043,-3600.648841,5699.585753
1074.954806,-1480.411884,-3294.210641,4589.276840
1074.955136,-1184.329507,-2145.067394,4441.235652
1074.955465,-666.185348,-1608.800546,4663.297435
1074.955795,444.123565,-459.657299,6069.688724
1074.956124,1776.494261,459.657299,10658.965565
1074.956454,888.247130,2451.505594,15248.242405
1074.956784,-1628.453072,4979.620737,15914.427753
1074.957113,-3997.112087,5745.716235,15766.386565
1074.957443,-3108.864956,3600.648841,14804.118840
1074.957772,-1406.391290,459.657299,13397.727550
1074.958102,1036.288319,-2221.676944,11769.274478
1074.958431,1850.514855,-3677.258390,8882.471304
1074.958761,148.041188,-2451.505594,5181.441594
1074.959091,666.185348,-1225.752797,4737.318029
1074.959420,1628.453072,-1302.362347,6587.832884
1074.959750,3404.947333,-766.095498,9400.615463
1074.960079,2664.741391,1378.971896,12213.398043
1074.960409,296.082377,4290.134789,12731.542202
1074.960738,-2664.741391,4826.401637,12139.377449
1074.961068,-3627.009116,3294.210641,13101.645173
1074.961398,-3478.967927,3064.381992,13619.789333
1074.961727,-3478.967927,3447.429741,11695.253884
1074.962057,-2738.761985,995.924147,7994.224174
1074.962386,-1998.556043,-2451.505594,4293.194464
1074.962716,-1332.370696,-4136.915689,2146.597232
1074.963045,-296.082377,-4290.134789,3256.906145
1074.963375,296.082377,-2221.676944,5551.544565
1074.963705,74.020594,1838.629195,7254.018232
1074.964034,-1110.308913,4749.792088,10732.986159
1074.964364,-2516.700203,5592.497135,13175.665768
1074.964693,-3330.926739,5822.325785,13545.768739
1074.965023,-2664.741391,4979.620737,13545.768739
1074.965352,-1924.535449,3753.867940,12065.356855
1074.965682,-814.226536,919.314598,9400.615463
1074.966012,0.000000,-1762.019645,7994.224174
1074.966341,-666.185348,-2604.724693,5477.523971
1074.966671,-814.226536,-1838.629195,4293.194464
1074.967000,518.144159,-2068.457845,4219.173869
1074.967330,1776.494261,-842.705048,6513.812290
1074.967659,2664.741391,306.438199,9622.677246
1074.967989,1258.350101,1838.629195,12287.418637
1074.968319,-1110.308913,2987.772442,12953.603985
1074.968648,-2812.782580,4596.572988,13619.789333
1074.968978,-3256.906145,5209.449386,14359.995275
1074.969307,-2960.823768,3677.258390,14137.933492
1074.969637,-2738.761985,536.266849,10955.047942
1074.969966,-1628.453072,-4213.525239,7328.038826
1074.970296,-1480.411884,-5515.887586,4737.318029
1074.970626,-1480.411884,-4749.792088,4515.256246
