#time,accel_x,accel_y,accel_z
1032.575065,-1258.350101,1072.533697,9474.636058
1032.575394,-1184.329507,919.314598,9548.656652
1032.575724,-1036.288319,1149.143247,9622.677246
1032.576053,-888.247130,842.705048,9548.656652
1032.576383,-888.247130,1072.533697,9548.656652
1032.576712,-1184.329507,995.924147,9326.594869
1032.577042,-740.205942,1149.143247,9400.615463
1032.577372,-1184.329507,536.266849,9400.615463
1032.577701,-962.267725,995.924147,9548.656652
1032.578031,-962.267725,1149.143247,9474.636058
1032.578360,-1332.370696,1072.533697,9474.636058
1032.578690,-666.185348,766.095498,9400.615463
1032.579020,-1036.288319,995.924147,9474.636058
1032.579349,-1110.308913,1149.143247,9474.636058
1032.579679,-888.247130,766.095498,9474.636058
1032.580008,-814.226536,1149.143247,9474.636058
1032.580338,-962.267725,919.314598,9474.636058
1032.580668,-888.247130,536.266849,9326.594869
1032.580997,-962.267725,842.705048,9474.636058
1032.581327,-1036.288319,689.485948,9400.615463
1032.581656,-1110.308913,1072.533697,9474.636058
1032.581986,-1036.288319,1532.190996,9770.718434
1032.582316,-740.205942,689.485948,9252.574275
1032.582645,-1258.350101,1072.533697,9474.636058
1032.582975,-962.267725,766.095498,9770.718434
1032.583304,-962.267725,919.314598,9474.636058
1032.583634,-814.226536,842.705048,9474.636058
1032.583964,-888.247130,995.924147,9696.697840
1032.584293,-962.267725,919.314598,9548.656652
1032.584623,-1110.308913,766.095498,9474.636058
1032.584952,-1110.308913,1149.143247,9696.697840
1032.585282,-1036.288319,919.314598,9696.697840
1032.585612,-962.267725,612.876398,9474.636058
1032.585941,-962.267725,919.314598,9474.636058
1032.586271,-962.267725,995.924147,9548.656652
1032.586600,-1110.308913,919.314598,9474.636058
1032.586930,-1110.308913,1072.533697,9474.636058
1032.587260,-962.267725,1455.581446,9474.636058
1032.587589,-1332.370696,919.314598,9474.636058
1032.587919,-1036.288319,995.924147,9474.636058
1032.588248,-814.226536,1072.533697,9548.656652
1032.588578,-1110.308913,766.095498,9474.636058
1032.588908,-1036.288319,919.314598,9400.615463
1032.589237,-962.267725,689.485948,9696.697840
1032.589567,-1036.288319,842.705048,9696.697840
1032.589896,-1036.288319,995.924147,9400.615463
1032.590226,-962.267725,995.924147,9400.615463
1032.590555,-888.247130,919.314598,9474.636058
1032.590885,-592.164754,995.924147,9104.533087
1032.591215,-1036.288319,995.924147,9474.636058
1032.591544,-962.267725,995.924147,9474.636058
1032.591874,-1110.308913,995.924147,9400.615463
1032.592203,-1110.308913,919.314598,9622.677246
1032.592533,-962.267725,1302.362347,9474.636058
1032.592863,-962.267725,766.095498,9400.615463
1032.593192,-888.247130,919.314598,9770.718434
1032.593522,-1036.288319,995.924147,9548.656652
1032.593851,-1258.350101,1072.533697,9474.636058
1032.594181,-962.267725,919.314598,9474.636058
1032.594511,-740.205942,1302.362347,9696.697840
1032.594840,-1110.308913,1149.143247,9770.718434
1032.595170,-962.267725,536.266849,9770.718434
1032.595499,-1110.308913,995.924147,9474.636058
1032.595829,-814.226536,689.485948,9770.718434
1032.596159,-962.267725,689.485948,9400.615463
1032.596488,-888.247130,1072.533697,9770.718434
1032.596818,-962.267725,1072.533697,9548.656652
1032.597147,-962.267725,1072.533697,9548.656652
1032.597477,-888.247130,766.095498,9474.636058
1032.597807,-592.164754,842.705048,9548.656652
1032.598136,-888.247130,766.095498,9622.677246
1032.598466,-1036.288319,689.485948,9400.615463
1032.598795,-962.267725,1072.533697,9622.677246
1032.599125,-1110.308913,1072.533697,9474.636058
1032.599455,-814.226536,1149.143247,9474.636058
1032.599784,-1332.370696,919.314598,9548.656652
1032.600114,-814.226536,995.924147,9400.615463
1032.600443,-1036.288319,995.924147,9400.615463
1032.600773,-1036.288319,766.095498,9474.636058
1032.601103,-1036.288319,689.485948,9326.594869
1032.601432,-888.247130,842.705048,9104.533087
1032.601762,-962.267725,1149.143247,9474.636058
1032.602091,-888.247130,842.705048,9474.636058
1032.602421,-888.247130,919.314598,9548.656652
1032.602750,-1036.288319,1072.533697,9474.636058
1032.603080,-1110.308913,1149.143247,9696.697840
1032.603410,-888.247130,612.876398,9400.615463
1032.603739,-592.164754,919.314598,9104.533087
1032.604069,444.123565,536.266849,9030.512492
1032.604398,962.267725,689.485948,9474.636058
1032.604728,888.247130,383.047749,8956.491898
1032.605058,740.205942,1149.143247,9474.636058
1032.605387,0.000000,612.876398,9548.656652
1032.605717,-370.102971,612.876398,10436.903782
1032.606046,-740.205942,766.095498,10584.944971
1032.606376,-592.164754,459.657299,10436.903782
1032.606706,-222.061783,536.266849,9770.718434
1032.607035,814.226536,0.000000,9326.594869
1032.607365,1924.535449,0.000000,9178.553681
1032.607694,2442.679609,76.609550,9030.512492
1032.608024,3182.885551,919.314598,8956.491898
1032.608354,3404.947333,1685.410096,9252.574275
1032.608683,3775.050304,1915.238745,9252.574275
1032.609013,3552.988522,1838.629195,9918.759623
1032.609342,2812.782580,1149.143247,10214.842000
1032.609672,2146.597232,842.705048,10214.842000
1032.610002,1628.453072,995.924147,10881.027347
1032.610331,1258.350101,0.000000,10658.965565
1032.610661,1258.350101,-536.266849,10066.800811
1032.610990,1776.494261,-459.657299,9548.656652
1032.611320,2590.720797,-383.047749,8956.491898
1032.611650,3552.988522,0.000000,8956.491898
1032.611979,4663.297435,1149.143247,8882.471304
1032.612309,4219.173869,2374.896044,9252.574275
1032.612638,3552.988522,2834.553343,9844.739029
1032.612968,2368.659014,3064.381992,10436.903782
1032.613298,592.164754,3140.991542,10658.965565
1032.613627,-1110.308913,1532.190996,10066.800811
1032.613957,-1850.514855,689.485948,8734.430116
1032.614286,-888.247130,-229.828649,7994.224174
1032.614616,666.185348,-1685.410096,7254.018232
1032.614945,2294.638420,-1225.752797,6587.832884
1032.615275,3552.988522,-383.047749,6439.791695
1032.615605,3849.070898,689.485948,7031.956449
1032.615934,3923.091493,2528.115143,9104.533087
1032.616264,2738.761985,4136.915689,10955.047942
1032.616593,1628.453072,4213.525239,11991.336260
1032.616923,518.144159,3294.210641,12583.501014
1032.617253,-370.102971,1991.848295,12435.459826
1032.617582,-1258.350101,0.000000,12065.356855
1032.617912,-1850.514855,-1608.800546,10955.047942
1032.618241,-1036.288319,-2298.286494,9622.677246
1032.618571,222.061783,-2451.505594,8808.450710
1032.618901,1850.514855,-1302.362347,7846.182985
1032.619230,3330.926739,-459.657299,7179.997637
1032.619560,4367.215058,842.705048,7328.038826
1032.619889,4219.173869,2757.943793,7920.203579
1032.620219,3849.070898,4290.134789,9178.553681
1032.620549,3256.906145,4443.353888,10066.800811
1032.620878,3108.864956,3983.696590,11325.150913
1032.621208,2072.576638,2528.115143,11103.089130
1032.621537,1036.288319,919.314598,11177.109724
1032.621867,296.082377,-459.657299,10436.903782
1032.622197,-444.123565,-1225.752797,10140.821405
1032.622526,-370.102971,-1532.190996,10732.986159
1032.622856,0.000000,-1378.971896,10658.965565
1032.623185,444.123565,-536.266849,10658.965565
1032.623515,1036.288319,0.000000,9622.677246
1032.623845,2146.597232,459.657299,8142.265362
1032.624174,3330.926739,689.485948,7698.141797
1032.624504,4589.276840,1302.362347,8142.265362
1032.624833,4885.359217,842.705048,8068.244768
1032.625163,4663.297435,689.485948,8216.285956
1032.625493,4219.173869,1149.143247,9252.574275
1032.625822,2960.823768,1915.238745,9770.718434
1032.626152,1850.514855,1762.019645,10362.883188
1032.626481,740.205942,1532.190996,10658.965565
1032.626811,962.267725,1685.410096,10881.027347
1032.627141,1036.288319,1915.238745,10066.800811
1032.627470,1628.453072,1225.752797,8956.491898
1032.627800,2146.597232,459.657299,7698.141797
1032.628129,2960.823768,153.219100,7624.121203
1032.628459,2960.823768,229.828649,7772.162391
1032.628788,2590.720797,919.314598,8512.368333
1032.629118,1924.535449,1225.752797,9400.615463
1032.629448,296.082377,1072.533697,9770.718434
1032.629777,-592.164754,306.438199,10288.862594
1032.630107,-1184.329507,229.828649,11621.233289
1032.630436,-1258.350101,153.219100,12213.398043
1032.630766,-1480.411884,0.000000,12139.377449
1032.631096,-1480.411884,-383.047749,11103.089130
1032.631425,74.020594,0.000000,10214.842000
1032.631755,1702.473667,-153.219100,8660.409521
1032.632084,4367.215058,689.485948,7846.182985
1032.632414,6735.874072,2068.457845,7328.038826
1032.632744,8512.368333,2604.724693,7476.080014
1032.633073,9030.512492,3294.210641,8364.327145
1032.633403,7402.059420,4519.963438,9474.636058
1032.633732,4811.338623,5362.668486,10881.027347
1032.634062,2368.659014,4290.134789,12361.439231
1032.634392,-740.205942,2451.505594,13693.809927
1032.634721,-3997.112087,306.438199,12805.562797
1032.635051,-6365.771101,-1302.362347,11843.295072
1032.635380,-7179.997637,-2681.334243,10066.800811
1032.635710,-5847.626942,-2834.553343,7179.997637
1032.636040,-2220.617826,-2987.772442,4219.173869
1032.636369,3849.070898,-3983.696590,2072.576638
1032.636699,8068.244768,-2681.334243,2220.617826
1032.637028,9474.636058,1838.629195,3701.029710
1032.637358,9400.615463,4979.620737,7031.956449
1032.637688,8068.244768,8580.269578,10288.862594
1032.638017,4959.379811,9729.412825,13027.624579
1032.638347,1406.391290,8810.098227,14952.160028
1032.638676,-2220.617826,3830.477490,16580.613101
1032.639006,-4959.379811,-153.219100,16728.654289
1032.639336,-6587.832884,-2068.457845,14359.995275
1032.639665,-4885.359217,-4673.182538,11029.068536
1032.639995,-518.144159,-7277.907231,7846.182985
1032.640324,3775.050304,-7124.688131,4811.338623
1032.640654,7698.141797,-3983.696590,2664.741391
1032.640983,11769.274478,-1455.581446,3182.885551
1032.641313,13027.624579,1762.019645,6661.853478
1032.641643,9770.718434,7124.688131,10066.800811
1032.641972,4367.215058,8963.317327,11991.336260
1032.642302,-592.164754,8044.002729,14211.954086
1032.642631,-2590.720797,5745.716235,15174.221811
1032.642961,-2590.720797,1532.190996,14211.954086
1032.643291,-2368.659014,-3370.820191,11399.171507
1032.643620,-2146.597232,-6971.469032,7105.977043
1032.643950,814.226536,-7431.126331,5107.421000
1032.644279,2664.741391,-6511.811733,6365.771101
1032.644609,2738.761985,-2145.067394,7846.182985
1032.644939,1628.453072,2451.505594,7772.162391
1032.645268,1998.556043,4290.134789,8216.285956
1032.645598,3552.988522,5515.887586,10140.821405
1032.645927,4145.153275,4136.915689,12805.562797
1032.646257,2368.659014,2834.553343,13027.624579
1032.646587,-444.123565,612.876398,11917.315666
1032.646916,-2812.782580,-1378.971896,11621.233289
1032.647246,-4441.235652,-1838.629195,10881.027347
1032.647575,-4441.235652,-2911.162892,8512.368333
1032.647905,-1480.411884,-4903.011187,5403.503377
1032.648235,3404.947333,-5056.230287,4219.173869
1032.648564,6809.894666,-2451.505594,5625.565159
1032.648894,8216.285956,2911.162892,6587.832884
1032.649223,6587.832884,5898.935335,7179.997637
1032.649553,4219.173869,7048.078582,10140.821405
1032.649883,1776.494261,7967.393179,14508.036463
1032.650212,-1924.535449,8427.050478,16950.716072
1032.650542,-5477.523971,6281.983084,14359.995275
1032.650871,-6661.853478,-229.828649,11843.295072
1032.651201,-6661.853478,-6511.811733,11251.130318
1032.651531,-5773.606348,-6511.811733,10658.965565
1032.651860,-4441.235652,-6052.154434,8882.471304
1032.652190,-3478.967927,-4749.792088,6365.771101
1032.652519,-2516.700203,-919.314598,4293.194464
1032.652849,222.061783,766.095498,4811.338623
1032.653179,4885.359217,1762.019645,7328.038826
1032.653508,7031.956449,4213.525239,9104.533087
1032.653838,5921.647536,9499.584175,9696.697840
1032.654167,4663.297435,9346.365076,10066.800811
1032.654497,4367.215058,5669.106685,12213.398043
1032.654827,1850.514855,3907.087040,13175.665768
1032.655156,-1184.329507,3830.477490,12287.418637
1032.655486,-2220.617826,3217.601092,11325.150913
1032.655815,-1998.556043,1072.533697,9918.759623
1032.656145,-2368.659014,-1532.190996,8068.244768
1032.656475,-3923.091493,-1762.019645,6069.688724
1032.656804,-3627.009116,-1378.971896,6513.812290
1032.657134,-3108.864956,0.000000,7772.162391
1032.657463,-3997.112087,2451.505594,8882.471304
1032.657793,-4219.173869,3064.381992,7846.182985
1032.658123,-1480.411884,229.828649,7031.956449
1032.658452,2146.597232,-2298.286494,7105.977043
1032.658782,3552.988522,-536.266849,6883.915261
1032.659111,3701.029710,1302.362347,8512.368333
1032.659441,3404.947333,2145.067394,11621.233289
1032.659771,1258.350101,2298.286494,13323.706956
1032.660100,-814.226536,3983.696590,13249.686362
1032.660430,0.000000,3830.477490,12287.418637
1032.660759,1036.288319,842.705048,11991.336260
1032.661089,0.000000,-306.438199,10510.924376
1032.661419,-666.185348,-306.438199,9622.677246
1032.661748,-2368.659014,-2068.457845,9992.780217
1032.662078,-3849.070898,-1532.190996,10140.821405
1032.662407,-6217.729913,-612.876398,9400.615463
1032.662737,-5921.647536,-1455.581446,9400.615463
1032.663067,-3034.844362,-1608.800546,8808.450710
1032.663396,-962.267725,-1225.752797,6661.853478
1032.663726,1406.391290,-689.485948,5773.606348
1032.664055,2368.659014,-1149.143247,8512.368333
1032.664385,1036.288319,1302.362347,11843.295072
1032.664715,-2368.659014,4596.572988,14137.933492
1032.665044,-5107.421000,5898.935335,14804.118840
1032.665374,-4959.379811,5056.230287,14063.912898
1032.665704,-3775.050304,536.266849,11991.336260
1032.666033,-2590.720797,-3677.258390,10288.862594
1032.666363,-2442.679609,-3600.648841,8882.471304
1032.666692,-3701.029710,-2987.772442,8068.244768
1032.667022,-4219.173869,-2068.457845,7772.162391
1032.667352,-4515.256246,153.219100,7402.059420
1032.667681,-1628.453072,1302.362347,7105.977043
1032.668011,2960.823768,1225.752797,5921.647536
1032.668340,5921.647536,1532.190996,5107.421000
1032.668670,6883.915261,3064.381992,5551.544565
1032.669000,5625.565159,3677.258390,8808.450710
1032.669329,2220.617826,4749.792088,12139.377449
1032.669659,-2146.597232,7890.783629,13841.851115
1032.669988,-4367.215058,7584.345430,14359.995275
1032.670318,-3923.091493,4596.572988,12583.501014
1032.670648,-2664.741391,-383.047749,8586.388927
1032.670977,-1406.391290,-4136.915689,6143.709319
1032.671307,-1036.288319,-4979.620737,6587.832884
1032.671636,-2516.700203,-3064.381992,8660.409521
1032.671966,-4663.297435,1685.410096,9178.553681
1032.672296,-4663.297435,4213.525239,6809.894666
1032.672625,-296.082377,1378.971896,5699.585753
1032.672955,5329.482782,-766.095498,6439.791695
1032.673284,7624.121203,1455.581446,7920.203579
1032.673614,6513.812290,4060.306139,9104.533087
1032.673944,3108.864956,4443.353888,10658.965565
1032.674273,-592.164754,4979.620737,12435.459826
1032.674603,-1998.556043,4443.353888,14952.160028
1032.674932,-2368.659014,2451.505594,16062.468941
1032.675262,-2960.823768,1915.238745,13027.624579
1032.675592,-1924.535449,-766.095498,9622.677246
1032.675921,-1258.350101,-4290.134789,8142.265362
1032.676251,-1924.535449,-4749.792088,8734.430116
1032.676580,-3923.091493,-1838.629195,8956.491898
1032.676910,-4885.359217,2068.457845,8142.265362
1032.677240,-3478.967927,1455.581446,8956.491898
1032.677569,-370.102971,0.000000,8586.388927
1032.677899,1406.391290,153.219100,7105.977043
1032.678228,2146.597232,-229.828649,7179.997637
1032.678558,1850.514855,0.000000,9474.636058
1032.678888,-1110.308913,2604.724693,11991.336260
1032.679217,-4219.173869,4366.744339,12879.583391
1032.679547,-5033.400406,2528.115143,12583.501014
1032.679877,-4441.235652,1378.971896,11473.192101
1032.680206,-2368.659014,0.000000,9622.677246
1032.680536,-740.205942,-2987.772442,8586.388927
1032.680865,-1184.329507,-3677.258390,8438.347739
1032.681195,-3478.967927,-1915.238745,8660.409521
1032.681525,-5033.400406,0.000000,9030.512492
1032.681854,-3923.091493,2604.724693,8882.471304
1032.682184,-888.247130,2604.724693,7846.182985
1032.682513,2886.803174,-1455.581446,6217.729913
1032.682843,5403.503377,-1149.143247,7179.997637
1032.683173,5551.544565,995.924147,9474.636058
1032.683502,2220.617826,2604.724693,11177.109724
1032.683832,-3108.864956,5056.230287,12435.459826
1032.684161,-7105.977043,6894.859482,12065.356855
1032.684491,-6291.750507,3447.429741,11621.233289
1032.684821,-2960.823768,-1378.971896,10362.883188
1032.685150,-592.164754,-2834.553343,7994.224174
1032.685480,-296.082377,-3600.648841,6291.750507
1032.685809,-1406.391290,-4749.792088,7105.977043
1032.686139,-3034.844362,-2374.896044,7994.224174
1032.686469,-2664.741391,1378.971896,8734.430116
1032.686798,-296.082377,2681.334243,9400.615463
1032.687128,3552.988522,2298.286494,10066.800811
1032.687457,6883.915261,3524.039291,9622.677246
1032.687787,7402.059420,2911.162892,8808.450710
1032.688117,6365.771101,1838.629195,9252.574275
1032.688446,2590.720797,3217.601092,12065.356855
1032.688776,-1924.535449,5975.544884,14508.036463
1032.689105,-4367.215058,5822.325785,14211.954086
1032.689435,-4219.173869,1838.629195,11621.233289
1032.689765,-2442.679609,-1762.019645,8660.409521
1032.690094,-814.226536,-3753.867940,6957.935855
1032.690424,-1258.350101,-4290.134789,7031.956449
1032.690753,-3330.926739,-1991.848295,7179.997637
1032.691083,-6069.688724,1225.752797,6069.688724
1032.691413,-5403.503377,2451.505594,7994.224174
1032.691742,-1850.514855,383.047749,10066.800811
1032.692072,518.144159,612.876398,9770.718434
1032.692401,1998.556043,2298.286494,7624.121203
1032.692731,3034.844362,1378.971896,8216.285956
1032.693061,2368.659014,1455.581446,11325.150913
1032.693390,-962.267725,4136.915689,13841.851115
1032.693720,-4219.173869,5745.716235,13841.851115
1032.694050,-4515.256246,4903.011187,13175.665768
1032.694379,-3404.947333,2374.896044,11251.130318
1032.694709,-1258.350101,-842.705048,9696.697840
1032.695038,-1184.329507,-4290.134789,8882.471304
1032.695368,-3108.864956,-3524.039291,7846.182985
1032.695698,-5329.482782,229.828649,8068.244768
1032.696027,-5107.421000,1302.362347,7920.203579
1032.696357,-3034.844362,1532.190996,7105.977043
1032.696686,0.000000,-536.266849,5847.626942
1032.697016,3330.926739,-1762.019645,5773.606348
1032.697346,4885.359217,689.485948,7328.038826
1032.697675,3923.091493,2451.505594,11399.171507
1032.698005,-296.082377,4826.401637,14211.954086
1032.698334,-4737.318029,7354.516781,14804.118840
1032.698664,-5403.503377,6818.249932,13175.665768
1032.698994,-3034.844362,1915.238745,11769.274478
1032.699323,-518.144159,-1378.971896,9030.512492
1032.699653,-296.082377,-2987.772442,6735.874072
1032.699982,-1406.391290,-3907.087040,5995.668130
1032.700312,-2886.803174,-3370.820191,6513.812290
1032.700642,-4293.194464,0.000000,7328.038826
1032.700971,-3034.844362,1455.581446,8660.409521
1032.701301,-740.205942,1608.800546,8290.306550
1032.701630,2368.659014,2145.067394,6365.771101
1032.701960,4959.379811,459.657299,6143.709319
1032.702290,5699.585753,76.609550,8956.491898
1032.702619,3108.864956,3064.381992,12139.377449
1032.702949,-2220.617826,5209.449386,13693.809927
1032.703278,-5477.523971,6358.592633,14137.933492
1032.703608,-5477.523971,4060.306139,13249.686362
1032.703938,-3330.926739,-536.266849,10881.027347
1032.704267,-1184.329507,-4596.572988,8808.450710
1032.704597,-296.082377,-4366.744339,8512.368333
1032.704926,-2294.638420,-2145.067394,8808.450710
1032.705256,-4515.256246,-1608.800546,8216.285956
1032.705586,-4885.359217,536.266849,8438.347739
1032.705915,-2590.720797,1302.362347,9696.697840
1032.706245,1184.329507,0.000000,10140.821405
1032.706574,2738.761985,306.438199,8808.450710
1032.706904,3627.009116,842.705048,7031.956449
1032.707234,3923.091493,-689.485948,8290.306550
1032.707563,1332.370696,306.438199,11843.295072
1032.707893,-2294.638420,5056.230287,14508.036463
1032.708222,-4367.215058,6052.154434,14582.057057
1032.708552,-4071.132681,2451.505594,12287.418637
1032.708882,-2738.761985,-153.219100,9918.759623
1032.709211,-740.205942,-2451.505594,8808.450710
1032.709541,-370.102971,-3600.648841,8734.430116
1032.709871,-2886.803174,-1378.971896,8290.306550
1032.710200,-5033.400406,1838.629195,7846.182985
1032.710530,-3330.926739,1991.848295,7105.977043
1032.710859,-148.041188,1225.752797,7254.018232
1032.711189,2516.700203,0.000000,5847.626942
1032.711519,3256.906145,0.000000,5403.503377
1032.711848,1924.535449,536.266849,7772.162391
1032.712178,-740.205942,3064.381992,11029.068536
1032.712507,-3923.091493,4749.792088,13249.686362
1032.712837,-5773.606348,5209.449386,13841.851115
1032.713167,-4589.276840,4060.306139,12509.480420
1032.713496,-2368.659014,612.876398,9548.656652
1032.713826,518.144159,-3447.429741,5477.523971
1032.714155,2072.576638,-4366.744339,5699.585753
1032.714485,296.082377,-1991.848295,8142.265362
1032.714815,-1850.514855,2145.067394,10214.842000
1032.715144,-2960.823768,4903.011187,10066.800811
1032.715474,-962.267725,3524.039291,8364.327145
1032.715803,2146.597232,1455.581446,7328.038826
1032.716133,4367.215058,229.828649,7846.182985
1032.716463,5329.482782,1762.019645,9548.656652
1032.716792,2960.823768,2451.505594,10066.800811
1032.717122,-1036.288319,4136.915689,11103.089130
1032.717451,-4737.318029,4213.525239,12435.459826
1032.717781,-5329.482782,3753.867940,13397.727550
1032.718111,-4441.235652,2221.676944,12361.439231
1032.718440,-3256.906145,0.000000,9548.656652
1032.718770,-2812.782580,-1991.848295,7105.977043
1032.719099,-3108.864956,-2911.162892,7105.977043
1032.719429,-4589.276840,-3140.991542,8660.409521
1032.719759,-5773.606348,-842.705048,9548.656652
1032.720088,-5329.482782,2451.505594,9474.636058
1032.720418,-2368.659014,1072.533697,8734.430116
1032.720747,1480.411884,-1685.410096,8586.388927
1032.721077,3923.091493,-1072.533697,8216.285956
1032.721407,4589.276840,153.219100,9474.636058
1032.721736,2516.700203,2145.067394,10881.027347
1032.722066,-814.226536,5209.449386,12583.501014
1032.722395,-2664.741391,6588.421283,13101.645173
1032.722725,-2590.720797,3524.039291,13101.645173
1032.723055,-1554.432478,459.657299,11547.212695
1032.723384,-666.185348,-153.219100,9104.533087
1032.723714,-518.144159,-2221.676944,7698.141797
1032.724044,-1776.494261,-3370.820191,7550.100608
1032.724373,-4959.379811,-2987.772442,7624.121203
1032.724703,-5699.585753,0.000000,8290.306550
1032.725032,-4071.132681,1302.362347,8290.306550
1032.725362,-814.226536,536.266849,7328.038826
1032.725692,1924.535449,-229.828649,7105.977043
1032.726021,2886.803174,-995.924147,8364.327145
1032.726351,1628.453072,383.047749,10288.862594
1032.726680,-1554.432478,3983.696590,12139.377449
1032.727010,-4367.215058,5975.544884,13249.686362
1032.727340,-4293.194464,5592.497135,13323.706956
1032.727669,-2812.782580,2681.334243,12139.377449
1032.727999,-962.267725,-612.876398,8808.450710
1032.728328,518.144159,-2451.505594,7031.956449
1032.728658,592.164754,-1762.019645,7105.977043
1032.728988,-1184.329507,0.000000,8512.368333
1032.729317,-2960.823768,1378.971896,8808.450710
1032.729647,-2146.597232,2451.505594,8586.388927
1032.729976,962.267725,1838.629195,7624.121203
1032.730306,3330.926739,1302.362347,6883.915261
1032.730636,4737.318029,2145.067394,7476.080014
1032.730965,4589.276840,2374.896044,8882.471304
1032.731295,1850.514855,2911.162892,10584.944971
1032.731624,-1850.514855,5056.230287,11621.233289
1032.731954,-4515.256246,6128.763984,12657.521608
1032.732284,-4515.256246,4519.963438,12361.439231
1032.732613,-4145.153275,1838.629195,10732.986159
1032.732943,-3034.844362,-842.705048,8438.347739
1032.733272,-2738.761985,-2451.505594,7920.203579
1032.733602,-4071.132681,-2451.505594,8364.327145
1032.733932,-6513.812290,-1685.410096,8438.347739
1032.734261,-6809.894666,0.000000,8512.368333
1032.734591,-3627.009116,612.876398,8586.388927
1032.734920,444.123565,-995.924147,7920.203579
1032.735250,2960.823768,-766.095498,6957.935855
1032.735580,4219.173869,612.876398,7550.100608
1032.735909,3997.112087,1991.848295,9918.759623
1032.736239,1332.370696,3294.210641,12435.459826
1032.736568,-1702.473667,7048.078582,13249.686362
1032.736898,-3182.885551,6205.373534,13101.645173
1032.737228,-2220.617826,1455.581446,12953.603985
1032.737557,-1554.432478,-1225.752797,11547.212695
1032.737887,-1110.308913,-2298.286494,9696.697840
1032.738217,-1702.473667,-3447.429741,8142.265362
1032.738546,-2442.679609,-4136.915689,8586.388927
1032.738876,-4071.132681,-1685.410096,9252.574275
1032.739205,-4071.132681,1072.533697,8808.450710
1032.739535,-2368.659014,-306.438199,7698.141797
1032.739865,148.041188,-383.047749,6735.874072
1032.740194,2812.782580,536.266849,7105.977043
1032.740524,4071.132681,0.000000,9474.636058
1032.740853,1776.494261,536.266849,11991.336260
1032.741183,-2590.720797,3064.381992,12731.542202
1032.741513,-4293.194464,5439.278036,12213.398043
1032.741842,-2738.761985,1991.848295,11325.150913
1032.742172,-814.226536,-1149.143247,10288.862594
1032.742501,370.102971,-2068.457845,9030.512492
1032.742831,962.267725,-2528.115143,8364.327145
1032.743161,0.000000,-1608.800546,8438.347739
1032.743490,-1702.473667,536.266849,8068.244768
1032.743820,-2812.782580,2528.115143,8216.285956
1032.744149,0.000000,1762.019645,9030.512492
1032.744479,2960.823768,842.705048,8216.285956
1032.744809,4441.235652,1149.143247,6661.853478
1032.745138,4885.359217,2451.505594,6809.894666
1032.745468,4145.153275,2068.457845,8660.409521
1032.745797,1332.370696,2757.943793,11029.068536
1032.746127,-2516.700203,5822.325785,12065.356855
1032.746457,-4737.318029,6358.592633,12361.439231
1032.746786,-4737.318029,3140.991542,11473.192101
1032.747116,-4441.235652,-153.219100,9548.656652
1032.747445,-3849.070898,-1685.410096,7994.224174
1032.747775,-3701.029710,-3370.820191,8364.327145
1032.748105,-4959.379811,-1915.238745,9178.553681
1032.748434,-6735.874072,689.485948,9104.533087
1032.748764,-5847.626942,1225.752797,8808.450710
1032.749093,-2442.679609,306.438199,8364.327145
1032.749423,814.226536,-229.828649,7994.224174
1032.749753,3182.885551,842.705048,7846.182985
1032.750082,3108.864956,1532.190996,9178.553681
1032.750412,1776.494261,3294.210641,11547.212695
1032.750741,-1184.329507,5056.230287,12065.356855
1032.751071,-2960.823768,5592.497135,12361.439231
1032.751400,-2516.700203,3524.039291,13027.624579
1032.751730,-1628.453072,1455.581446,12213.398043
1032.752059,-740.205942,-1072.533697,10066.800811
1032.752389,-962.267725,-2604.724693,7698.141797
1032.752718,-2220.617826,-2911.162892,7254.018232
1032.753047,-3034.844362,-1532.190996,9030.512492
1032.753377,-3997.112087,995.924147,9992.780217
1032.753706,-3108.864956,1685.410096,9696.697840
1032.754036,-592.164754,612.876398,7772.162391
1032.754365,2072.576638,76.609550,6069.688724
1032.754695,3182.885551,-842.705048,7179.997637
1032.755024,2886.803174,76.609550,10658.965565
1032.755354,-592.164754,3217.601092,12509.480420
1032.755683,-4145.153275,5822.325785,11991.336260
1032.756013,-4663.297435,4596.572988,11177.109724
1032.756342,-2516.700203,1149.143247,10955.047942
1032.756671,-370.102971,-1149.143247,9844.739029
1032.757001,74.020594,-2604.724693,8216.285956
1032.757330,-592.164754,-2757.943793,7105.977043
1032.757660,-1554.432478,-1225.752797,7476.080014
1032.757989,-2886.803174,229.828649,8216.285956
1032.758319,-1554.432478,1838.629195,9252.574275
1032.758648,1258.350101,1608.800546,8808.450710
1032.758978,4589.276840,689.485948,7476.080014
1032.759307,6439.791695,2145.067394,6069.688724
1032.759637,6217.729913,1915.238745,7105.977043
1032.759966,4293.194464,2068.457845,10584.944971
1032.760295,148.041188,4519.963438,12657.521608
1032.760625,-3627.009116,7124.688131,13471.748144
1032.760954,-3849.070898,4903.011187,13323.706956
1032.761284,-3404.947333,459.657299,12509.480420
1032.761613,-3108.864956,-2221.676944,10658.965565
1032.761943,-3034.844362,-3907.087040,9474.636058
1032.762272,-4145.153275,-3983.696590,8808.450710
1032.762602,-5625.565159,-536.266849,7476.080014
1032.762931,-4811.338623,842.705048,6661.853478
1032.763261,-2220.617826,0.000000,6883.915261
1032.763590,1184.329507,-536.266849,7550.100608
1032.763919,2812.782580,919.314598,7920.203579
1032.764249,2664.741391,2834.553343,9030.512492
1032.764578,1480.411884,3447.429741,10807.006753
1032.764908,-1110.308913,4673.182538,12583.501014
1032.765237,-3478.967927,4596.572988,13249.686362
1032.765567,-4293.194464,3753.867940,12657.521608
1032.765896,-3182.885551,1838.629195,11917.315666
1032.766226,-1998.556043,-536.266849,9992.780217
1032.766555,-1480.411884,-2374.896044,7994.224174
1032.766884,-3034.844362,-3217.601092,7105.977043
1032.767214,-4663.297435,-2528.115143,7105.977043
1032.767543,-5477.523971,153.219100,7772.162391
1032.767873,-4145.153275,1455.581446,9030.512492
1032.768202,-1554.432478,612.876398,9326.594869
1032.768532,592.164754,766.095498,7550.100608
1032.768861,2664.741391,76.609550,6957.935855
1032.769191,4441.235652,0.000000,8882.471304
1032.769520,2590.720797,1149.143247,12065.356855
1032.769850,-1480.411884,3677.258390,13101.645173
1032.770179,-3923.091493,6435.202183,12509.480420
1032.770508,-3108.864956,4060.306139,12139.377449
1032.770838,-1036.288319,1225.752797,11621.233289
1032.771167,148.041188,-1378.971896,9030.512492
1032.771497,-296.082377,-2987.772442,7254.018232
1032.771826,-1332.370696,-3983.696590,8142.265362
1032.772156,-3330.926739,-1225.752797,9252.574275
1032.772485,-4071.132681,1838.629195,8808.450710
1032.772815,-1702.473667,919.314598,7698.141797
1032.773144,2442.679609,-536.266849,7105.977043
1032.773474,5847.626942,612.876398,5921.647536
1032.773803,7179.997637,1302.362347,6661.853478
1032.774132,5847.626942,2145.067394,8956.491898
1032.774462,1480.411884,5286.058936,11547.212695
1032.774791,-2294.638420,6894.859482,13175.665768
1032.775121,-2812.782580,5286.058936,13693.809927
1032.775450,-2368.659014,2681.334243,11917.315666
1032.775780,-1110.308913,-1225.752797,9474.636058
1032.776109,0.000000,-4136.915689,8290.306550
1032.776439,-888.247130,-4213.525239,8882.471304
1032.776768,-2960.823768,-1915.238745,9622.677246
1032.777098,-4959.379811,766.095498,8068.244768
1032.777427,-3997.112087,2298.286494,7550.100608
1032.777756,-296.082377,1072.533697,7698.141797
1032.778086,3034.844362,0.000000,7476.080014
1032.778415,4219.173869,1378.971896,7772.162391
1032.778745,3404.947333,2145.067394,8882.471304
1032.779074,0.000000,2604.724693,10658.965565
1032.779404,-3404.947333,4213.525239,12731.542202
1032.779733,-5033.400406,4213.525239,13619.789333
1032.780063,-4737.318029,1532.190996,12583.501014
1032.780392,-4293.194464,-1302.362347,9918.759623
1032.780721,-2738.761985,-2451.505594,8512.368333
1032.781051,-2294.638420,-4060.306139,9474.636058
1032.781380,-3330.926739,-2604.724693,10510.924376
1032.781710,-5477.523971,229.828649,9622.677246
1032.782039,-5033.400406,1838.629195,8216.285956
1032.782369,-1332.370696,919.314598,8438.347739
1032.782698,2220.617826,-612.876398,8734.430116
1032.783028,4071.132681,0.000000,8438.347739
1032.783357,3997.112087,1991.848295,8364.327145
1032.783687,2368.659014,2757.943793,9844.739029
1032.784016,-370.102971,3677.258390,11917.315666
1032.784345,-2738.761985,4673.182538,13249.686362
1032.784675,-3923.091493,4136.915689,12731.542202
1032.785004,-3478.967927,2068.457845,11843.295072
1032.785334,-2368.659014,-383.047749,10214.842000
1032.785663,-2294.638420,-842.705048,8216.285956
1032.785993,-2590.720797,-2987.772442,6513.812290
1032.786322,-3775.050304,-2987.772442,7476.080014
1032.786652,-4441.235652,-306.438199,8438.347739
1032.786981,-3330.926739,2451.505594,8142.265362
1032.787311,0.000000,919.314598,7031.956449
1032.787640,2368.659014,76.609550,5995.668130
1032.787969,5255.462188,1225.752797,6439.791695
1032.788299,6069.688724,2528.115143,8586.388927
1032.788628,4145.153275,4213.525239,10436.903782
1032.788958,-296.082377,5975.544884,11325.150913
1032.789287,-2812.782580,5745.716235,12361.439231
1032.789617,-2072.576638,2987.772442,14137.933492
1032.789946,-1332.370696,766.095498,13101.645173
1032.790276,-888.247130,0.000000,9474.636058
1032.790605,-592.164754,-1991.848295,6809.894666
1032.790935,-518.144159,-3677.258390,6439.791695
1032.791264,-1184.329507,-1302.362347,6809.894666
1032.791593,-1628.453072,2145.067394,6957.935855
1032.791923,0.000000,2528.115143,7105.977043
1032.792252,2146.597232,2221.676944,7254.018232
1032.792582,3923.091493,1915.238745,8142.265362
1032.792911,4071.132681,2681.334243,9770.718434
1032.793241,1406.391290,2681.334243,11547.212695
1032.793570,-2368.659014,3753.867940,13175.665768
1032.793900,-4737.318029,4290.134789,14952.160028
1032.794229,-5403.503377,2604.724693,14878.139434
1032.794558,-4885.359217,0.000000,11991.336260
1032.794888,-4367.215058,-2987.772442,8734.430116
1032.795217,-3108.864956,-3830.477490,6513.812290
1032.795547,-2664.741391,-4290.134789,7179.997637
1032.795876,-3256.906145,-3370.820191,8068.244768
1032.796206,-3775.050304,459.657299,8364.327145
1032.796535,-2294.638420,1915.238745,8882.471304
1032.796865,296.082377,612.876398,8808.450710
1032.797194,2812.782580,0.000000,8364.327145
1032.797524,3923.091493,459.657299,9030.512492
1032.797853,3775.050304,1608.800546,11103.089130
1032.798182,1554.432478,3140.991542,13027.624579
1032.798512,-1628.453072,4903.011187,13471.748144
1032.798841,-3627.009116,4290.134789,12435.459826
1032.799171,-3404.947333,842.705048,11399.171507
1032.799500,-2442.679609,-995.924147,10658.965565
1032.799830,-1554.432478,-1225.752797,8882.471304
1032.800159,-2368.659014,-2221.676944,7105.977043
1032.800489,-4293.194464,-3217.601092,6365.771101
1032.800818,-4811.338623,-3217.601092,7402.059420
1032.801148,-4145.153275,-766.095498,8882.471304
1032.801477,-2664.741391,1149.143247,8364.327145
1032.801806,-370.102971,766.095498,7698.141797
1032.802136,2294.638420,153.219100,6957.935855
1032.802465,3775.050304,1532.190996,8142.265362
1032.802795,3478.967927,2757.943793,10140.821405
1032.803124,888.247130,3370.820191,11991.336260
1032.803454,-1110.308913,6588.421283,12213.398043
1032.803783,-2220.617826,5669.106685,12509.480420
1032.804113,-1110.308913,1838.629195,11991.336260
1032.804442,296.082377,-1072.533697,10436.903782
1032.804772,740.205942,-1838.629195,8512.368333
1032.805101,0.000000,-2451.505594,7624.121203
1032.805430,-1184.329507,-1149.143247,7328.038826
1032.805760,-1110.308913,1072.533697,7254.018232
1032.806089,518.144159,2451.505594,7179.997637
1032.806419,2812.782580,1991.848295,6957.935855
1032.806748,4219.173869,2451.505594,6661.853478
1032.807078,4811.338623,2987.772442,7624.121203
1032.807407,3701.029710,2834.553343,10955.047942
1032.807737,222.061783,3370.820191,13915.871710
1032.808066,-4367.215058,4673.182538,14434.015869
1032.808395,-6365.771101,4749.792088,13323.706956
1032.808725,-5625.565159,1378.971896,12213.398043
1032.809054,-3627.009116,-1762.019645,10214.842000
1032.809384,-2146.597232,-3140.991542,8512.368333
1032.809713,-2220.617826,-3907.087040,6957.935855
1032.810043,-3627.009116,-2911.162892,6661.853478
1032.810372,-4737.318029,0.000000,7031.956449
1032.810702,-3849.070898,1915.238745,8290.306550
1032.811031,-1332.370696,766.095498,9622.677246
1032.811361,444.123565,536.266849,9474.636058
1032.811690,1628.453072,2145.067394,8512.368333
1032.812019,2738.761985,1302.362347,8660.409521
1032.812349,2072.576638,612.876398,11325.150913
1032.812678,-444.123565,2604.724693,13693.809927
1032.813008,-3182.885551,3753.867940,13175.665768
1032.813337,-3182.885551,2451.505594,11695.253884
1032.813667,-2368.659014,919.314598,10658.965565
1032.813996,-1480.411884,-1072.533697,10436.903782
1032.814326,-1850.514855,-2298.286494,9696.697840
1032.814655,-3108.864956,-1608.800546,8142.265362
1032.814985,-4145.153275,-1532.190996,7550.100608
1032.815314,-4219.173869,-842.705048,7772.162391
1032.815643,-3330.926739,-229.828649,8068.244768
1032.815973,-1406.391290,-995.924147,8512.368333
1032.816302,740.205942,-612.876398,7846.182985
1032.816632,2442.679609,1762.019645,7476.080014
1032.816961,2664.741391,1608.800546,9548.656652
1032.817291,740.205942,2451.505594,11473.192101
1032.817620,-2664.741391,4826.401637,12287.418637
1032.817950,-3034.844362,5898.935335,11621.233289
1032.818279,-1258.350101,1608.800546,11991.336260
1032.818609,-666.185348,-459.657299,11325.150913
1032.818938,-1110.308913,-919.314598,8734.430116
1032.819267,-962.267725,-3140.991542,7254.018232
1032.819597,-740.205942,-1608.800546,7994.224174
1032.819926,-962.267725,1685.410096,7254.018232
1032.820256,-222.061783,1838.629195,5625.565159
1032.820585,2516.700203,153.219100,5403.503377
1032.820915,4959.379811,1225.752797,6883.915261
1032.821244,6069.688724,2604.724693,8216.285956
1032.821574,4737.318029,3294.210641,8956.491898
1032.821903,518.144159,4519.963438,10288.862594
1032.822232,-3627.009116,4596.572988,12509.480420
1032.822562,-5033.400406,4903.011187,14359.995275
1032.822891,-4737.318029,3370.820191,13989.892304
1032.823221,-4885.359217,0.000000,11251.130318
1032.823550,-4219.173869,-3447.429741,7772.162391
1032.823880,-3108.864956,-4596.572988,7328.038826
1032.824209,-2368.659014,-4366.744339,9474.636058
1032.824539,-3552.988522,-995.924147,9548.656652
1032.824868,-4737.318029,2451.505594,7772.162391
1032.825198,-2516.700203,3600.648841,6587.832884
1032.825527,2368.659014,766.095498,7994.224174
1032.825856,4959.379811,-766.095498,9400.615463
1032.826186,4515.256246,1685.410096,9030.512492
1032.826515,2220.617826,2374.896044,9918.759623
1032.826845,0.000000,3064.381992,11917.315666
1032.827174,-2294.638420,3524.039291,14211.954086
1032.827504,-3108.864956,2068.457845,15100.201217
1032.827833,-3478.967927,0.000000,13397.727550
1032.828163,-2590.720797,-1378.971896,11695.253884
1032.828492,-1628.453072,-1378.971896,9400.615463
1032.828822,-1702.473667,-2451.505594,7846.182985
1032.829151,-2664.741391,-3447.429741,7772.162391
1032.829480,-3775.050304,-919.314598,7031.956449
1032.829810,-2738.761985,2451.505594,5551.544565
1032.830139,74.020594,536.266849,6661.853478
1032.830469,2664.741391,-1302.362347,8142.265362
1032.830798,1924.535449,995.924147,8438.347739
1032.831128,814.226536,2451.505594,8586.388927
1032.831457,-370.102971,2834.553343,10066.800811
1032.831787,-1850.514855,4443.353888,11843.295072
1032.832116,-3404.947333,5439.278036,11695.253884
1032.832446,-3478.967927,2757.943793,11029.068536
1032.832775,-2664.741391,0.000000,9474.636058
1032.833104,-1628.453072,-1302.362347,9474.636058
1032.833434,-1258.350101,-2757.943793,9400.615463
1032.833763,-3256.906145,-1225.752797,8512.368333
1032.834093,-3849.070898,-919.314598,8586.388927
1032.834422,-2368.659014,612.876398,7994.224174
1032.834752,740.205942,2145.067394,6365.771101
1032.835081,4885.359217,1225.752797,4959.379811
1032.835411,6809.894666,229.828649,5403.503377
1032.835740,6883.915261,2604.724693,7254.018232
1032.836069,4737.318029,4290.134789,11177.109724
1032.836399,1184.329507,4519.963438,14359.995275
1032.836728,-3775.050304,7201.297681,14063.912898
1032.837058,-5551.544565,6665.030833,13249.686362
1032.837387,-4219.173869,306.438199,13101.645173
1032.837717,-2368.659014,-1915.238745,11399.171507
1032.838046,-3256.906145,-2298.286494,8882.471304
1032.838376,-4663.297435,-4213.525239,7402.059420
1032.838705,-7105.977043,-2451.505594,7772.162391
1032.839035,-7624.121203,1072.533697,8512.368333
1032.839364,-5107.421000,1378.971896,7846.182985
1032.839693,-1850.514855,-536.266849,6661.853478
1032.840023,1332.370696,0.000000,6661.853478
1032.840352,3330.926739,919.314598,7550.100608
1032.840682,3330.926739,1225.752797,9474.636058
1032.841011,888.247130,3140.991542,11843.295072
1032.841341,-2368.659014,5132.839837,12953.603985
1032.841670,-3256.906145,5439.278036,12435.459826
1032.842000,-1332.370696,2451.505594,13027.624579
1032.842329,148.041188,-612.876398,12435.459826
1032.842659,222.061783,-2298.286494,11029.068536
1032.842988,-1628.453072,-2834.553343,9474.636058
1032.843317,-3552.988522,-2298.286494,9178.553681
1032.843647,-4219.173869,0.000000,9178.553681
1032.843976,-3404.947333,1072.533697,8290.306550
1032.844306,-740.205942,-306.438199,6883.915261
1032.844635,1480.411884,-1225.752797,5551.544565
1032.844965,3404.947333,-766.095498,6291.750507
1032.845294,3849.070898,612.876398,8364.327145
1032.845624,814.226536,2298.286494,10362.883188
1032.845953,-2368.659014,4213.525239,13397.727550
1032.846283,-4663.297435,4903.011187,14063.912898
1032.846612,-4515.256246,3524.039291,13323.706956
1032.846941,-2886.803174,995.924147,11251.130318
1032.847271,-1332.370696,-1608.800546,9178.553681
1032.847600,-592.164754,-2298.286494,7624.121203
1032.847930,-1036.288319,-2451.505594,6883.915261
1032.848259,-1924.535449,-1915.238745,7105.977043
1032.848589,-2368.659014,919.314598,6883.915261
1032.848918,-740.205942,2451.505594,6809.894666
1032.849248,2886.803174,1608.800546,7994.224174
1032.849577,4959.379811,1455.581446,8068.244768
1032.849906,5477.523971,2681.334243,7105.977043
1032.850236,3997.112087,3294.210641,7846.182985
1032.850565,888.247130,3140.991542,11103.089130
1032.850895,-2886.803174,4903.011187,14656.077652
1032.851224,-5995.668130,5362.668486,14508.036463
1032.851554,-6661.853478,2757.943793,12287.418637
1032.851883,-5255.462188,-383.047749,10436.903782
1032.852213,-2960.823768,-3447.429741,9030.512492
1032.852542,-2368.659014,-3677.258390,8142.265362
1032.852872,-3997.112087,-2911.162892,6883.915261
1032.853201,-5625.565159,-459.657299,6957.935855
1032.853531,-5255.462188,2987.772442,6809.894666
1032.853861,-2368.659014,1915.238745,8586.388927
1032.854190,518.144159,76.609550,9104.533087
1032.854520,1258.350101,1532.190996,8438.347739
1032.854850,1776.494261,2221.676944,7846.182985
1032.855179,1776.494261,1149.143247,10584.944971
1032.855509,-888.247130,3217.601092,13471.748144
1032.855839,-3849.070898,4749.792088,13619.789333
1032.856168,-4219.173869,2987.772442,12065.356855
1032.856498,-2442.679609,842.705048,10881.027347
1032.856828,-518.144159,-1378.971896,10436.903782
1032.857157,-222.061783,-3294.210641,9844.739029
1032.857487,-2368.659014,-3217.601092,9474.636058
1032.857817,-4737.318029,-1225.752797,9770.718434
1032.858146,-4885.359217,1302.362347,9030.512492
1032.858476,-2442.679609,2451.505594,7476.080014
1032.858806,1258.350101,0.000000,6661.853478
1032.859135,4219.173869,-2834.553343,6735.874072
1032.859465,5033.400406,-383.047749,7031.956449
1032.859794,4145.153275,2834.553343,9030.512492
1032.860124,1184.329507,2681.334243,11843.295072
1032.860454,-2442.679609,4290.134789,13989.892304
1032.860783,-4367.215058,4673.182538,14730.098246
1032.861113,-2738.761985,2374.896044,13471.748144
1032.861443,-962.267725,-459.657299,10288.862594
1032.861772,518.144159,-2145.067394,7550.100608
1032.862102,1480.411884,-3907.087040,6513.812290
1032.862432,370.102971,-3830.477490,7550.100608
1032.862761,-1406.391290,0.000000,7772.162391
1032.863091,-1628.453072,3447.429741,7105.977043
1032.863421,444.123565,3830.477490,5625.565159
1032.863750,3404.947333,1838.629195,6291.750507
1032.864080,5625.565159,383.047749,7846.182985
1032.864410,6069.688724,1608.800546,8586.388927
1032.864739,3478.967927,1991.848295,10066.800811
1032.865069,-1184.329507,2604.724693,12361.439231
1032.865399,-5403.503377,5209.449386,14359.995275
1032.865728,-6069.688724,3830.477490,13619.789333
1032.866058,-3701.029710,-153.219100,12213.398043
1032.866388,-2368.659014,-1072.533697,9178.553681
1032.866717,-1628.453072,-1838.629195,7550.100608
1032.867047,-2664.741391,-2528.115143,7179.997637
1032.867376,-3997.112087,-1378.971896,8734.430116
1032.867706,-5625.565159,2528.115143,8364.327145
1032.868036,-4737.318029,4290.134789,7031.956449
1032.868365,-962.267725,1455.581446,7624.121203
1032.868695,1110.308913,306.438199,8142.265362
1032.869025,2146.597232,995.924147,8660.409521
1032.869354,2220.617826,1302.362347,9400.615463
1032.869684,0.000000,2834.553343,10807.006753
1032.870014,-3256.906145,4903.011187,11473.192101
1032.870343,-4367.215058,3983.696590,12139.377449
1032.870673,-3923.091493,1915.238745,12583.501014
1032.871003,-3627.009116,995.924147,11547.212695
1032.871332,-3404.947333,459.657299,9474.636058
1032.871662,-3256.906145,-919.314598,7846.182985
1032.871992,-3627.009116,-3064.381992,8216.285956
1032.872321,-5181.441594,-2604.724693,9474.636058
1032.872651,-5477.523971,76.609550,9326.594869
1032.872981,-3997.112087,1378.971896,8364.327145
1032.873310,-370.102971,0.000000,8290.306550
1032.873640,2146.597232,-306.438199,8290.306550
1032.873970,4367.215058,153.219100,8882.471304
1032.874299,3701.029710,-153.219100,10658.965565
1032.874629,814.226536,2145.067394,13323.706956
1032.874959,-2738.761985,6205.373534,13841.851115
1032.875288,-2738.761985,5209.449386,12361.439231
1032.875618,-888.247130,1072.533697,11399.171507
1032.875947,962.267725,-383.047749,9548.656652
1032.876277,1998.556043,-1685.410096,7328.038826
1032.876607,1628.453072,-3677.258390,7105.977043
1032.876936,-962.267725,-1532.190996,7698.141797
1032.877266,-3256.906145,2221.676944,8586.388927
1032.877596,-2294.638420,2068.457845,8438.347739
1032.877925,1184.329507,1378.971896,7920.203579
1032.878255,4145.153275,1072.533697,7105.977043
1032.878585,5551.544565,229.828649,6439.791695
1032.878914,4663.297435,1225.752797,7476.080014
1032.879244,1480.411884,3064.381992,9844.739029
1032.879574,-1998.556043,4060.306139,12657.521608
1032.879903,-4219.173869,4519.963438,12805.562797
1032.880233,-4441.235652,3447.429741,11991.336260
1032.880563,-2664.741391,0.000000,10288.862594
1032.880892,-666.185348,-2528.115143,9252.574275
1032.881222,0.000000,-2451.505594,7846.182985
1032.881552,-1554.432478,-2451.505594,8142.265362
1032.881881,-3478.967927,-383.047749,8734.430116
1032.882211,-4293.194464,4060.306139,8660.409521
1032.882541,-1924.535449,3830.477490,8290.306550
1032.882870,1554.432478,536.266849,7328.038826
1032.883200,3108.864956,536.266849,7031.956449
1032.883529,2886.803174,1072.533697,8290.306550
1032.883859,1628.453072,1532.190996,10955.047942
1032.884189,-2368.659014,2834.553343,13323.706956
1032.884518,-5847.626942,5132.839837,14434.015869
1032.884848,-6587.832884,3524.039291,13027.624579
1032.885178,-5255.462188,-153.219100,11399.171507
1032.885507,-2812.782580,-2374.896044,9622.677246
1032.885837,-1702.473667,-3370.820191,8068.244768
1032.886167,-2886.803174,-2604.724693,7179.997637
1032.886496,-4885.359217,-1685.410096,7550.100608
1032.886826,-5551.544565,-306.438199,8586.388927
1032.887156,-3923.091493,1838.629195,9622.677246
1032.887485,-1184.329507,1608.800546,9622.677246
1032.887815,1036.288319,153.219100,8734.430116
1032.888145,2516.700203,995.924147,7772.162391
1032.888474,3404.947333,919.314598,8734.430116
1032.888804,2516.700203,1532.190996,11769.274478
1032.889134,-1258.350101,4290.134789,13323.706956
1032.889463,-4071.132681,6741.640382,12139.377449
1032.889793,-4071.132681,3370.820191,10658.965565
1032.890123,-1702.473667,-1762.019645,11177.109724
1032.890452,-148.041188,-2604.724693,10881.027347
1032.890782,-1184.329507,-2451.505594,9770.718434
1032.891112,-3108.864956,-2757.943793,8216.285956
1032.891441,-4293.194464,-536.266849,7402.059420
1032.891771,-2368.659014,612.876398,6365.771101
1032.892100,1258.350101,153.219100,5551.544565
1032.892430,5107.421000,-689.485948,6069.688724
1032.892760,6883.915261,2451.505594,5551.544565
1032.893089,7105.977043,4136.915689,6513.812290
1032.893419,5625.565159,2528.115143,9400.615463
1032.893749,2072.576638,4903.011187,12657.521608
1032.894078,-2294.638420,7048.078582,14211.954086
1032.894408,-3627.009116,5822.325785,13471.748144
1032.894738,-2294.638420,1532.190996,12065.356855
1032.895067,-1554.432478,-1762.019645,10066.800811
1032.895397,-1628.453072,-4366.744339,9030.512492
1032.895727,-2886.803174,-4596.572988,9474.636058
1032.896056,-4737.318029,-1149.143247,9326.594869
1032.896386,-5625.565159,2451.505594,7550.100608
1032.896716,-3552.988522,2987.772442,5625.565159
1032.897045,666.185348,306.438199,5921.647536
1032.897375,3627.009116,229.828649,7105.977043
1032.897705,4145.153275,1915.238745,7550.100608
1032.898034,3108.864956,2604.724693,8808.450710
1032.898364,-592.164754,4136.915689,11399.171507
1032.898694,-3108.864956,4673.182538,14063.912898
1032.899023,-4515.256246,3830.477490,14656.077652
1032.899353,-4219.173869,1915.238745,13767.830521
1032.899682,-3775.050304,-766.095498,11029.068536
1032.900012,-2516.700203,-1072.533697,9252.574275
1032.900342,-2294.638420,-3140.991542,9178.553681
1032.900671,-3478.967927,-2757.943793,9252.574275
1032.901001,-5181.441594,-229.828649,8808.450710
1032.901331,-5107.421000,2451.505594,8216.285956
1032.901660,-2664.741391,2528.115143,7846.182985
1032.901990,222.061783,-229.828649,8216.285956
1032.902320,1998.556043,153.219100,8216.285956
1032.902649,3108.864956,1225.752797,8142.265362
1032.902979,2072.576638,1455.581446,9326.594869
1032.903309,-666.185348,2834.553343,11103.089130
1032.903638,-3330.926739,4136.915689,12583.501014
1032.903968,-4145.153275,3447.429741,12509.480420
1032.904298,-3923.091493,1149.143247,12065.356855
1032.904627,-2738.761985,-919.314598,10955.047942
1032.904957,-1554.432478,-1991.848295,8956.491898
1032.905287,-1628.453072,-4596.572988,8808.450710
1032.905616,-3182.885551,-3370.820191,9030.512492
1032.905946,-3182.885551,766.095498,8142.265362
1032.906276,-222.061783,2681.334243,7105.977043
1032.906605,2960.823768,1608.800546,6143.709319
1032.906935,5033.400406,1378.971896,4885.359217
1032.907265,5921.647536,2374.896044,5995.668130
1032.907594,5625.565159,2681.334243,7994.224174
1032.907924,2812.782580,4596.572988,10658.965565
1032.908253,-1998.556043,5439.278036,12361.439231
1032.908583,-4145.153275,3983.696590,13915.871710
1032.908913,-4515.256246,1149.143247,14211.954086
1032.909242,-3330.926739,-1991.848295,12139.377449
1032.909572,-2146.597232,-3447.429741,8882.471304
1032.909902,-1924.535449,-3983.696590,7550.100608
1032.910231,-1554.432478,-3217.601092,9104.533087
1032.910561,-2072.576638,-459.657299,9104.533087
1032.910891,-2294.638420,3217.601092,6809.894666
1032.911220,74.020594,4673.182538,4959.379811
1032.911550,3627.009116,1608.800546,6365.771101
1032.911880,5181.441594,2528.115143,8364.327145
1032.912209,3775.050304,3907.087040,9992.780217
1032.912539,1554.432478,3217.601092,11251.130318
1032.912869,-2516.700203,3294.210641,12065.356855
1032.913198,-5625.565159,3753.867940,13323.706956
1032.913528,-5921.647536,1762.019645,13915.871710
1032.913858,-4737.318029,-536.266849,11843.295072
1032.914187,-3849.070898,-1302.362347,8364.327145
1032.914517,-2368.659014,-2451.505594,7105.977043
1032.914847,-2072.576638,-3524.039291,7994.224174
1032.915176,-3182.885551,-1685.410096,9400.615463
1032.915506,-5033.400406,2298.286494,9326.594869
1032.915835,-3627.009116,4060.306139,7624.121203
1032.916165,0.000000,1685.410096,7254.018232
1032.916495,2812.782580,0.000000,8068.244768
1032.916824,4219.173869,153.219100,9030.512492
1032.917154,3256.906145,1685.410096,9918.759623
1032.917484,444.123565,2451.505594,10881.027347
1032.917813,-2368.659014,4213.525239,11991.336260
1032.918143,-3552.988522,3600.648841,12657.521608
1032.918473,-2812.782580,842.705048,13545.768739
1032.918802,-2220.617826,153.219100,12879.583391
1032.919132,-1924.535449,76.609550,9844.739029
1032.919462,-1850.514855,-1532.190996,7920.203579
1032.919791,-2664.741391,-3524.039291,8068.244768
1032.920121,-3775.050304,-2068.457845,8882.471304
1032.920451,-3627.009116,1149.143247,8068.244768
1032.920780,-1110.308913,2068.457845,6291.750507
1032.921110,2294.638420,1149.143247,4959.379811
1032.921440,4367.215058,0.000000,5551.544565
1032.921769,5699.585753,689.485948,7698.141797
1032.922099,4737.318029,2451.505594,10288.862594
1032.922429,888.247130,5132.839837,11473.192101
1032.922758,-2072.576638,6741.640382,11843.295072
1032.923088,-2812.782580,4213.525239,12953.603985
1032.923418,-1924.535449,383.047749,13323.706956
1032.923747,-1480.411884,-1378.971896,11325.150913
1032.924077,-814.226536,-1378.971896,9178.553681
1032.924406,-740.205942,-2757.943793,8216.285956
1032.924736,-2294.638420,-2987.772442,8216.285956
1032.925066,-3627.009116,-612.876398,7550.100608
1032.925395,-2368.659014,1762.019645,6587.832884
1032.925725,1406.391290,1838.629195,6217.729913
1032.926055,4219.173869,2221.676944,6809.894666
1032.926384,4293.194464,1991.848295,7402.059420
1032.926714,2738.761985,1762.019645,9548.656652
1032.927044,74.020594,2451.505594,12287.418637
1032.927373,-3849.070898,6665.030833,13767.830521
1032.927703,-5921.647536,6052.154434,13471.748144
1032.928033,-4811.338623,1072.533697,12657.521608
1032.928362,-3552.988522,-2834.553343,10955.047942
1032.928692,-2368.659014,-3447.429741,9622.677246
1032.929022,-3108.864956,-3524.039291,9326.594869
1032.929351,-4811.338623,-2451.505594,9992.780217
1032.929681,-5773.606348,306.438199,9622.677246
1032.930011,-5033.400406,1915.238745,8216.285956
1032.930340,-296.082377,766.095498,7031.956449
1032.930670,3849.070898,-153.219100,6365.771101
1032.931000,5403.503377,919.314598,6069.688724
1032.931329,5329.482782,1991.848295,8216.285956
1032.931659,3775.050304,3064.381992,11621.233289
1032.931988,0.000000,4826.401637,13693.809927
1032.932318,-3108.864956,5515.887586,14211.954086
1032.932648,-3997.112087,3524.039291,13915.871710
1032.932977,-3108.864956,459.657299,12287.418637
1032.933307,-1554.432478,-3217.601092,10881.027347
1032.933637,-1110.308913,-4443.353888,9622.677246
1032.933966,-2738.761985,-3140.991542,8586.388927
1032.934296,-5107.421000,-612.876398,7846.182985
1032.934626,-5551.544565,995.924147,5477.523971
1032.934955,-2590.720797,2451.505594,4441.235652
1032.935285,1036.288319,-383.047749,5403.503377
1032.935615,3404.947333,-306.438199,6735.874072
1032.935944,3108.864956,2681.334243,7772.162391
1032.936274,2368.659014,3677.258390,9252.574275
1032.936604,1036.288319,4060.306139,11251.130318
1032.936933,-1036.288319,4443.353888,12583.501014
1032.937263,-2146.597232,3064.381992,12879.583391
1032.937593,-1998.556043,689.485948,12065.356855
1032.937922,-1184.329507,-306.438199,11177.109724
1032.938252,888.247130,-1149.143247,10288.862594
1032.938582,888.247130,-2681.334243,8734.430116
1032.938911,-814.226536,-2221.676944,8364.327145
1032.939241,-1702.473667,0.000000,7772.162391
1032.939571,-814.226536,2374.896044,7254.018232
1032.939900,1628.453072,3447.429741,7402.059420
1032.940230,3775.050304,2221.676944,7179.997637
1032.940559,4219.173869,1991.848295,6957.935855
1032.940889,3997.112087,1991.848295,7772.162391
1032.941219,1998.556043,2298.286494,11103.089130
1032.941548,-2516.700203,3907.087040,13767.830521
1032.941878,-6883.915261,4519.963438,14285.974681
1032.942208,-7328.038826,3600.648841,13175.665768
1032.942537,-5625.565159,-383.047749,11621.233289
1032.942867,-2812.782580,-3140.991542,9844.739029
1032.943197,-2516.700203,-4366.744339,8216.285956
1032.943526,-4441.235652,-4136.915689,8290.306550
1032.943856,-6217.729913,-766.095498,9030.512492
1032.944186,-5773.606348,2451.505594,8216.285956
1032.944515,-2442.679609,2451.505594,8068.244768
1032.944845,1554.432478,536.266849,7698.141797
1032.945175,3404.947333,459.657299,7550.100608
1032.945504,3923.091493,1685.410096,7105.977043
1032.945834,4589.276840,1455.581446,9104.533087
1032.946164,2072.576638,2451.505594,12361.439231
1032.946493,-1850.514855,4366.744339,14582.057057
1032.946823,-4293.194464,4366.744339,14582.057057
1032.947153,-3775.050304,1915.238745,13323.706956
1032.947482,-2220.617826,-1302.362347,10436.903782
1032.947812,-814.226536,-3217.601092,9252.574275
1032.948141,-1480.411884,-3294.210641,9030.512492
1032.948471,-3256.906145,-2834.553343,9104.533087
1032.948801,-4367.215058,-383.047749,7846.182985
1032.949130,-4071.132681,2681.334243,5921.647536
1032.949460,-148.041188,1532.190996,5625.565159
1032.949790,3108.864956,-1149.143247,7031.956449
1032.950119,3997.112087,306.438199,7994.224174
1032.950449,2590.720797,3370.820191,7772.162391
1032.950779,1110.308913,2911.162892,8734.430116
1032.951108,-814.226536,2221.676944,12953.603985
1032.951438,-3627.009116,3753.867940,14804.118840
1032.951768,-4293.194464,3140.991542,14508.036463
1032.952097,-2664.741391,153.219100,11177.109724
1032.952427,-518.144159,-1915.238745,8882.471304
1032.952757,740.205942,-3524.039291,8586.388927
1032.953086,740.205942,-2987.772442,9474.636058
1032.953416,-518.144159,-153.219100,8216.285956
1032.953746,-1332.370696,3830.477490,5847.626942
1032.954075,1036.288319,4673.182538,4515.256246
1032.954405,4441.235652,2451.505594,6069.688724
1032.954735,5477.523971,1149.143247,7550.100608
1032.955064,4219.173869,2145.067394,8068.244768
1032.955394,2146.597232,2911.162892,9104.533087
1032.955724,-1036.288319,3447.429741,12139.377449
1032.956053,-4737.318029,4060.306139,14359.995275
1032.956383,-6291.750507,2604.724693,14211.954086
1032.956713,-5699.585753,1225.752797,12583.501014
1032.957042,-3775.050304,-1225.752797,10288.862594
1032.957372,-2368.659014,-1608.800546,8882.471304
1032.957702,-2738.761985,-2145.067394,8956.491898
1032.958031,-4811.338623,-1762.019645,9326.594869
1032.958361,-5551.544565,1072.533697,8438.347739
1032.958691,-4515.256246,4136.915689,5995.668130
1032.959020,-1184.329507,1685.410096,4737.318029
1032.959350,2294.638420,-1915.238745,6809.894666
1032.959680,3849.070898,-919.314598,8808.450710
1032.960009,2516.700203,2298.286494,10436.903782
1032.960339,0.000000,3217.601092,11325.150913
1032.960669,-2960.823768,5132.839837,12287.418637
1032.960998,-3997.112087,3447.429741,14582.057057
1032.961328,-2220.617826,459.657299,15396.283594
1032.961658,-1924.535449,306.438199,13471.748144
1032.961987,-1776.494261,995.924147,9474.636058
1032.962317,-1628.453072,-612.876398,6069.688724
1032.962647,-1628.453072,-3600.648841,6735.874072
1032.962976,-2664.741391,-2911.162892,8734.430116
1032.963306,-3108.864956,919.314598,8512.368333
1032.963636,-2368.659014,2451.505594,6217.729913
1032.963965,-370.102971,1608.800546,6513.812290
1032.964295,2220.617826,-536.266849,8660.409521
1032.964625,3256.906145,-153.219100,9400.615463
1032.964954,3034.844362,1149.143247,10066.800811
1032.965284,518.144159,2374.896044,12583.501014
1032.965614,-2960.823768,5822.325785,14359.995275
1032.965943,-4663.297435,4979.620737,14137.933492
1032.966273,-3034.844362,-229.828649,12065.356855
1032.966603,-814.226536,-1149.143247,9400.615463
1032.966932,888.247130,-995.924147,6735.874072
1032.967262,1850.514855,-3064.381992,6217.729913
1032.967592,148.041188,-3140.991542,7328.038826
1032.967921,-2294.638420,1072.533697,7994.224174
1032.968251,-1184.329507,3370.820191,7624.121203
1032.968581,2220.617826,2911.162892,7031.956449
1032.968910,4367.215058,3064.381992,5995.668130
1032.969240,4959.379811,1072.533697,6439.791695
1032.969570,5181.441594,76.609550,8586.388927
1032.969899,3034.844362,2604.724693,11917.315666
1032.970229,-1480.411884,5056.230287,14508.036463
1032.970559,-4959.379811,6281.983084,13767.830521
1032.970888,-5551.544565,3064.381992,12287.418637
1032.971218,-3108.864956,-1072.533697,11325.150913
1032.971548,-1110.308913,-3600.648841,9548.656652
1032.971877,-740.205942,-2451.505594,7920.203579
1032.972207,-3478.967927,-1378.971896,7772.162391
1032.972537,-6069.688724,-919.314598,9622.677246
1032.972866,-6735.874072,1991.848295,9474.636058
1032.973196,-3775.050304,3064.381992,8290.306550
1032.973526,0.000000,766.095498,6439.791695
1032.973855,2812.782580,0.000000,6217.729913
1032.974185,2886.803174,689.485948,8142.265362
1032.974515,1998.556043,1455.581446,10955.047942
1032.974845,-888.247130,2681.334243,13175.665768
1032.975174,-4737.318029,4903.011187,14285.974681
1032.975504,-5921.647536,4826.401637,13915.871710
1032.975834,-4811.338623,1072.533697,12953.603985
1032.976163,-2368.659014,-2451.505594,11621.233289
1032.976493,-1184.329507,-2834.553343,9030.512492
1032.976823,-2368.659014,-2451.505594,7476.080014
1032.977152,-2516.700203,-1838.629195,7254.018232
1032.977482,-3108.864956,-153.219100,7476.080014
1032.977812,-2146.597232,1915.238745,7624.121203
1032.978141,-518.144159,2221.676944,7105.977043
1032.978471,1480.411884,842.705048,6883.915261
1032.978801,3552.988522,1762.019645,7105.977043
1032.979130,3404.947333,2451.505594,7994.224174
1032.979460,2220.617826,1302.362347,10510.924376
1032.979790,-1406.391290,995.924147,12731.542202
1032.980119,-5255.462188,2757.943793,13841.851115
1032.980449,-6217.729913,3140.991542,13101.645173
1032.980779,-4737.318029,383.047749,11473.192101
1032.981108,-1924.535449,-1762.019645,10288.862594
1032.981438,-444.123565,-2834.553343,8660.409521
1032.981768,-666.185348,-3140.991542,7105.977043
1032.982097,-1258.350101,-1225.752797,6587.832884
1032.982427,-518.144159,2374.896044,6291.750507
1032.982757,1332.370696,4290.134789,6735.874072
1032.983086,3775.050304,2451.505594,6735.874072
1032.983416,5403.503377,1762.019645,6365.771101
1032.983746,6143.709319,2298.286494,7105.977043
1032.984075,5403.503377,1455.581446,9844.739029
1032.984405,1850.514855,1915.238745,13915.871710
1032.984735,-3478.967927,4826.401637,15396.283594
1032.985064,-5847.626942,4519.963438,14211.954086
1032.985394,-4293.194464,306.438199,12731.542202
1032.985724,-2294.638420,-1378.971896,11103.089130
1032.986053,-888.247130,-2298.286494,8734.430116
1032.986383,-1332.370696,-2681.334243,7994.224174
1032.986713,-3108.864956,-1149.143247,7846.182985
1032.987042,-4737.318029,2604.724693,6735.874072
1032.987372,-3404.947333,3217.601092,6661.853478
1032.987702,-888.247130,995.924147,7179.997637
1032.988031,444.123565,536.266849,8364.327145
1032.988361,518.144159,1838.629195,8068.244768
1032.988691,814.226536,1762.019645,9030.512492
1032.989020,222.061783,1762.019645,11103.089130
1032.989350,-2146.597232,2451.505594,14656.077652
1032.989680,-5625.565159,2834.553343,14211.954086
1032.990009,-6809.894666,2911.162892,11769.274478
1032.990339,-4885.359217,153.219100,9474.636058
1032.990669,-2294.638420,-2221.676944,9696.697840
1032.990998,-1480.411884,-2221.676944,9992.780217
1032.991328,-2812.782580,-2757.943793,8216.285956
1032.991658,-3997.112087,-1378.971896,7624.121203
1032.991987,-3627.009116,1762.019645,6957.935855
1032.992317,-1036.288319,2911.162892,7402.059420
1032.992647,1628.453072,-612.876398,8586.388927
1032.992976,2442.679609,306.438199,8882.471304
1032.993306,2590.720797,4136.915689,7772.162391
1032.993636,2886.803174,2681.334243,9252.574275
1032.993965,814.226536,2451.505594,11029.068536
1032.994295,-3182.885551,4596.572988,12509.480420
1032.994625,-4367.215058,1762.019645,13471.748144
1032.994954,-3923.091493,153.219100,12213.398043
1032.995284,-3775.050304,0.000000,11103.089130
1032.995614,-3552.988522,-2298.286494,9770.718434
1032.995943,-3108.864956,-4213.525239,9474.636058
1032.996273,-2886.803174,-2834.553343,8956.491898
1032.996603,-2220.617826,689.485948,7846.182985
1032.996932,-592.164754,2068.457845,5329.482782
1032.997262,1702.473667,2298.286494,4515.256246
1032.997592,5107.421000,1532.190996,6069.688724
1032.997921,7179.997637,1608.800546,7328.038826
1032.998251,6809.894666,3677.258390,7254.018232
1032.998581,4219.173869,3677.258390,10881.027347
1032.998910,-148.041188,4290.134789,13841.851115
1032.999240,-3627.009116,6052.154434,14878.139434
1032.999570,-3552.988522,2451.505594,14285.974681
1032.999899,-1406.391290,-383.047749,12435.459826
1033.000229,-962.267725,-2451.505594,9474.636058
1033.000559,-1258.350101,-3370.820191,8734.430116
1033.000888,-2220.617826,-3907.087040,9696.697840
1033.001218,-3701.029710,-229.828649,9696.697840
1033.001548,-3627.009116,3983.696590,7254.018232
1033.001877,-1480.411884,3217.601092,5329.482782
1033.002207,1184.329507,919.314598,5477.523971
1033.002537,2886.803174,229.828649,6513.812290
1033.002866,2960.823768,766.095498,8438.347739
1033.003196,1184.329507,3064.381992,10066.800811
1033.003526,-2960.823768,4136.915689,12065.356855
1033.003855,-5403.503377,2987.772442,14359.995275
1033.004185,-6143.709319,2145.067394,14508.036463
1033.004515,-5107.421000,153.219100,13397.727550
1033.004844,-3034.844362,-1302.362347,10214.842000
1033.005174,-1998.556043,-2374.896044,7031.956449
1033.005504,-1332.370696,-2451.505594,7402.059420
1033.005833,-2516.700203,-2757.943793,8956.491898
1033.006163,-3775.050304,536.266849,9474.636058
1033.006493,-3552.988522,4213.525239,7254.018232
1033.006822,-888.247130,1915.238745,6883.915261
1033.007152,2368.659014,-306.438199,8512.368333
1033.007482,2960.823768,842.705048,9030.512492
1033.007811,2812.782580,1149.143247,9400.615463
1033.008141,1332.370696,1838.629195,10214.842000
1033.008471,-1998.556043,4443.353888,11251.130318
1033.008800,-4071.132681,4749.792088,11843.295072
1033.009130,-3404.947333,842.705048,12731.542202
1033.009460,-3182.885551,-612.876398,12509.480420
1033.009789,-3256.906145,536.266849,10584.944971
1033.010119,-3404.947333,-1991.848295,8438.347739
1033.010449,-3034.844362,-3753.867940,8438.347739
1033.010778,-3330.926739,-2068.457845,9178.553681
1033.011108,-3478.967927,306.438199,7698.141797
1033.011438,-1258.350101,1608.800546,5847.626942
1033.011767,2220.617826,1685.410096,4959.379811
1033.012097,5107.421000,1455.581446,5329.482782
1033.012427,6439.791695,1915.238745,7031.956449
1033.012756,5995.668130,2298.286494,8808.450710
1033.013086,3034.844362,3677.258390,12509.480420
1033.013416,-1332.370696,6128.763984,13915.871710
1033.013745,-4145.153275,6205.373534,13989.892304
1033.014075,-3330.926739,2068.457845,13397.727550
1033.014405,-2072.576638,-1838.629195,12435.459826
1033.014734,-740.205942,-1915.238745,9918.759623
1033.015064,-1036.288319,-3140.991542,8068.244768
1033.015394,-2220.617826,-3140.991542,7402.059420
1033.015723,-3330.926739,153.219100,6513.812290
1033.016053,-2886.803174,3370.820191,6365.771101
1033.016383,-222.061783,2451.505594,6735.874072
1033.016712,2294.638420,1991.848295,7328.038826
1033.017042,2368.659014,2911.162892,8068.244768
1033.017372,2368.659014,1685.410096,9326.594869
1033.017701,888.247130,1302.362347,13323.706956
1033.018031,-3330.926739,2681.334243,15322.262999
1033.018361,-7179.997637,5439.278036,14211.954086
1033.018690,-6957.935855,2451.505594,11399.171507
1033.019020,-3478.967927,-1838.629195,10288.862594
1033.019350,-592.164754,-3830.477490,9326.594869
1033.019679,-888.247130,-3600.648841,7550.100608
1033.020009,-2590.720797,-2757.943793,7105.977043
1033.020339,-4145.153275,229.828649,8068.244768
1033.020668,-3849.070898,4290.134789,8660.409521
1033.020998,-518.144159,2451.505594,8660.409521
1033.021328,2516.700203,0.000000,7846.182985
1033.021657,3256.906145,1532.190996,7031.956449
1033.021987,3404.947333,2374.896044,8142.265362
1033.022317,2886.803174,1378.971896,10214.842000
1033.022646,148.041188,2068.457845,12287.418637
1033.022976,-3923.091493,2145.067394,12509.480420
1033.023306,-5329.482782,2145.067394,12509.480420
1033.023635,-4737.318029,1072.533697,12139.377449
1033.023965,-3701.029710,-1149.143247,11177.109724
1033.024295,-2590.720797,-2757.943793,9474.636058
1033.024624,-2516.700203,-3140.991542,8290.306550
1033.024954,-2590.720797,-2528.115143,7846.182985
1033.025284,-2738.761985,0.000000,6957.935855
1033.025613,-1406.391290,2528.115143,5847.626942
1033.025943,1628.453072,1991.848295,5995.668130
1033.026273,4293.194464,306.438199,6513.812290
1033.026602,5107.421000,2451.505594,7402.059420
1033.026932,4589.276840,3753.867940,9178.553681
1033.027262,2590.720797,3064.381992,11991.336260
1033.027591,-1554.432478,4290.134789,14137.933492
1033.027921,-3997.112087,4443.353888,14211.954086
1033.028251,-3849.070898,1225.752797,12361.439231
1033.028581,-2220.617826,-1378.971896,10881.027347
1033.028910,-1258.350101,-2374.896044,9696.697840
1033.029240,-888.247130,-3140.991542,9030.512492
1033.029570,-1258.350101,-2911.162892,8512.368333
1033.029899,-1776.494261,-383.047749,7624.121203
1033.030229,-1110.308913,2757.943793,5995.668130
1033.030559,1036.288319,2834.553343,5921.647536
1033.030888,3775.050304,1762.019645,6957.935855
1033.031218,4515.256246,1608.800546,7772.162391
1033.031548,4293.194464,2757.943793,8956.491898
1033.031877,1924.535449,2911.162892,11547.212695
1033.032207,-2368.659014,3217.601092,14804.118840
1033.032537,-6365.771101,3524.039291,15914.427753
1033.032866,-7550.100608,2604.724693,14211.954086
1033.033196,-5329.482782,-229.828649,10807.006753
1033.033526,-2368.659014,-2145.067394,8142.265362
1033.033855,-740.205942,-2911.162892,6809.894666
1033.034185,-1036.288319,-3217.601092,7105.977043
1033.034515,-2664.741391,-1762.019645,7254.018232
1033.034844,-3701.029710,1838.629195,6957.935855
1033.035174,-2738.761985,4060.306139,6587.832884
1033.035504,-740.205942,1685.410096,7476.080014
1033.035833,1776.494261,76.609550,8882.471304
1033.036163,2960.823768,689.485948,9252.574275
1033.036493,2664.741391,1685.410096,8882.471304
1033.036822,1406.391290,2298.286494,10436.903782
1033.037152,-1850.514855,1685.410096,13767.830521
1033.037482,-4515.256246,3447.429741,14952.160028
1033.037811,-5403.503377,3064.381992,13027.624579
1033.038141,-3701.029710,383.047749,10510.924376
1033.038471,-814.226536,-1072.533697,8882.471304
1033.038800,-370.102971,-2451.505594,7994.224174
1033.039130,-1406.391290,-3140.991542,8512.368333
1033.039460,-3775.050304,-2221.676944,8142.265362
1033.039789,-4885.359217,1915.238745,6735.874072
1033.040119,-2886.803174,2604.724693,6513.812290
1033.040449,1184.329507,-229.828649,7772.162391
1033.040778,3552.988522,0.000000,8808.450710
1033.041108,3775.050304,1685.410096,7846.182985
1033.041438,2738.761985,1838.629195,9252.574275
1033.041767,444.123565,2987.772442,13175.665768
1033.042097,-3330.926739,6358.592633,15618.345376
1033.042427,-4737.318029,5592.497135,14730.098246
1033.042756,-3478.967927,1532.190996,11769.274478
1033.043086,-1258.350101,-995.924147,8586.388927
1033.043416,1110.308913,-2451.505594,7179.997637
1033.043745,1628.453072,-3830.477490,6513.812290
1033.044075,0.000000,-2757.943793,6291.750507
1033.044405,-1924.535449,1455.581446,6365.771101
1033.044734,-1258.350101,3370.820191,6217.729913
1033.045064,1258.350101,2145.067394,7105.977043
1033.045394,3108.864956,919.314598,7772.162391
1033.045723,3775.050304,1762.019645,9474.636058
1033.046053,3627.009116,2298.286494,11547.212695
1033.046383,518.144159,3140.991542,13915.871710
1033.046712,-3849.070898,5669.106685,14656.077652
1033.047042,-6735.874072,5669.106685,12213.398043
1033.047372,-4959.379811,1685.410096,9622.677246
1033.047701,-2368.659014,-2681.334243,8438.347739
1033.048031,-1110.308913,-2911.162892,7994.224174
1033.048361,-1776.494261,-2528.115143,7624.121203
1033.048690,-3849.070898,-2451.505594,7994.224174
1033.049020,-4885.359217,-229.828649,9474.636058
1033.049350,-4885.359217,1685.410096,9030.512492
1033.049679,-3552.988522,2298.286494,7994.224174
1033.050009,-888.247130,229.828649,8290.306550
1033.050339,1184.329507,995.924147,9252.574275
1033.050668,2590.720797,1915.238745,10140.821405
1033.050998,1850.514855,919.314598,10436.903782
1033.051328,-1184.329507,1532.190996,12065.356855
1033.051657,-4515.256246,3907.087040,12731.542202
1033.051987,-5181.441594,4213.525239,11769.274478
1033.052317,-3849.070898,919.314598,11177.109724
1033.052646,-1480.411884,-689.485948,9622.677246
1033.052976,-1480.411884,-1762.019645,8068.244768
1033.053306,-1480.411884,-3140.991542,7698.141797
1033.053635,-3330.926739,-2298.286494,9252.574275
1033.053964,-5847.626942,306.438199,9548.656652
1033.054294,-7105.977043,2834.553343,7698.141797
1033.054623,-5625.565159,1149.143247,7698.141797
1033.054953,-2368.659014,-1149.143247,8808.450710
1033.055282,-962.267725,383.047749,9474.636058
1033.055612,0.000000,1532.190996,9030.512492
1033.055941,0.000000,1915.238745,8956.491898
1033.056271,-1258.350101,2911.162892,9326.594869
1033.056601,-2886.803174,4290.134789,10288.862594
1033.056930,-2960.823768,3983.696590,10807.006753
1033.057260,-2368.659014,2604.724693,10658.965565
1033.057589,-2368.659014,2298.286494,9400.615463
1033.057919,-2368.659014,0.000000,8068.244768
1033.058249,-2072.576638,-2528.115143,9030.512492
1033.058578,-4589.276840,-2221.676944,11473.192101
1033.058908,-8734.430116,842.705048,11843.295072
1033.059237,-9992.780217,2298.286494,9992.780217
1033.059567,-7476.080014,1608.800546,8142.265362
1033.059897,-3478.967927,-229.828649,6957.935855
1033.060226,0.000000,-1608.800546,6587.832884
1033.060556,1850.514855,-689.485948,6439.791695
1033.060885,2368.659014,2681.334243,6735.874072
1033.061215,1184.329507,5056.230287,8808.450710
1033.061544,-1480.411884,5362.668486,11399.171507
1033.061874,-4219.173869,6511.811733,12657.521608
1033.062204,-5773.606348,4366.744339,12213.398043
1033.062533,-6735.874072,1838.629195,11547.212695
1033.062863,-7550.100608,383.047749,11843.295072
1033.063192,-7328.038826,-1072.533697,11843.295072
1033.063522,-7772.162391,-2451.505594,10436.903782
1033.063852,-7698.141797,-3140.991542,8882.471304
1033.064181,-6809.894666,-1838.629195,8216.285956
1033.064511,-5181.441594,0.000000,8512.368333
1033.064840,-4219.173869,842.705048,8068.244768
1033.065170,-4219.173869,1838.629195,7994.224174
1033.065500,-4515.256246,1991.848295,8216.285956
1033.065829,-3108.864956,2911.162892,9474.636058
1033.066159,-1998.556043,2451.505594,9918.759623
1033.066488,-2368.659014,919.314598,9104.533087
1033.066818,-2220.617826,536.266849,8364.327145
1033.067147,-1184.329507,536.266849,8956.491898
1033.067477,-814.226536,306.438199,10658.965565
1033.067807,-2664.741391,1072.533697,11843.295072
1033.068136,-5921.647536,1991.848295,12361.439231
1033.068466,-7920.203579,1991.848295,11695.253884
1033.068795,-8216.285956,1838.629195,11029.068536
1033.069125,-5995.668130,1915.238745,10214.842000
1033.069455,-3552.988522,-459.657299,7476.080014
1033.069784,-1406.391290,-3064.381992,5699.585753
1033.070114,0.000000,-2451.505594,4885.359217
1033.070443,444.123565,-536.266849,5995.668130
1033.070773,74.020594,612.876398,7846.182985
1033.071103,-2146.597232,2604.724693,9400.615463
1033.071432,-5107.421000,3294.210641,11029.068536
1033.071762,-6809.894666,2451.505594,12139.377449
1033.072091,-7846.182985,766.095498,13249.686362
1033.072421,-8438.347739,995.924147,12953.603985
1033.072750,-8364.327145,536.266849,10881.027347
1033.073080,-5773.606348,-1225.752797,8364.327145
1033.073410,-1776.494261,-2528.115143,6661.853478
1033.073739,1924.535449,-2451.505594,5995.668130
1033.074069,3034.844362,76.609550,5107.421000
1033.074398,2590.720797,3064.381992,6587.832884
1033.074728,1628.453072,4596.572988,9474.636058
1033.075058,-666.185348,6281.983084,11843.295072
1033.075387,-3552.988522,5822.325785,12731.542202
1033.075717,-6735.874072,3064.381992,13915.871710
1033.076046,-9844.739029,766.095498,14730.098246
1033.076376,-11621.233289,459.657299,13989.892304
1033.076706,-10658.965565,-1685.410096,11251.130318
1033.077035,-7698.141797,-3447.429741,7105.977043
1033.077365,-3775.050304,-3677.258390,4367.215058
1033.077694,592.164754,-2987.772442,3478.967927
1033.078024,3552.988522,-766.095498,4737.318029
1033.078353,3627.009116,4596.572988,6661.853478
1033.078683,1480.411884,8427.050478,8586.388927
1033.079013,-222.061783,9193.145976,10732.986159
1033.079342,-2886.803174,8044.002729,13767.830521
1033.079672,-5403.503377,5898.935335,14285.974681
1033.080001,-7476.080014,1532.190996,13101.645173
1033.080331,-9770.718434,-1685.410096,11843.295072
1033.080661,-10807.006753,-3983.696590,11177.109724
1033.080990,-10214.842000,-5209.449386,9474.636058
1033.081320,-8290.306550,-4903.011187,7328.038826
1033.081649,-4885.359217,-2987.772442,4959.379811
1033.081979,-1184.329507,-1072.533697,3849.070898
1033.082309,1406.391290,1455.581446,4663.297435
1033.082638,2072.576638,3907.087040,6587.832884
1033.082968,444.123565,6281.983084,9178.553681
1033.083297,-2294.638420,7814.174080,11177.109724
1033.083627,-5033.400406,6358.592633,12879.583391
1033.083956,-7105.977043,2451.505594,13915.871710
1033.084286,-8512.368333,-1225.752797,12509.480420
1033.084616,-8956.491898,-3447.429741,10584.944971
1033.084945,-7550.100608,-5592.497135,9326.594869
1033.085275,-5773.606348,-5132.839837,8734.430116
1033.085604,-3849.070898,-3064.381992,7920.203579
1033.085934,-962.267725,-995.924147,7031.956449
1033.086264,1258.350101,766.095498,6957.935855
1033.086593,2294.638420,3600.648841,8586.388927
1033.086923,1554.432478,5515.887586,9844.739029
1033.087252,-962.267725,4903.011187,11621.233289
1033.087582,-3552.988522,2987.772442,13619.789333
1033.087912,-6883.915261,1915.238745,14804.118840
1033.088241,-9474.636058,612.876398,13693.809927
1033.088571,-10066.800811,-2068.457845,10214.842000
1033.088900,-8142.265362,-5132.839837,7105.977043
1033.089230,-4219.173869,-6511.811733,5403.503377
1033.089559,-592.164754,-4673.182538,5033.400406
1033.089889,962.267725,-766.095498,6143.709319
1033.090219,518.144159,3294.210641,7328.038826
1033.090548,-666.185348,6358.592633,9252.574275
1033.090878,-2072.576638,8273.831378,11177.109724
1033.091207,-3034.844362,7814.174080,12879.583391
1033.091537,-4959.379811,5439.278036,13915.871710
1033.091867,-5773.606348,2757.943793,13545.768739
1033.092196,-6957.935855,612.876398,12139.377449
1033.092526,-7179.997637,-2221.676944,10732.986159
1033.092855,-6735.874072,-3753.867940,8438.347739
1033.093185,-4959.379811,-2528.115143,6957.935855
1033.093515,-2812.782580,0.000000,5995.668130
1033.093844,-444.123565,2068.457845,6069.688724
1033.094174,1184.329507,3677.258390,7031.956449
1033.094503,1480.411884,5592.497135,8068.244768
1033.094833,0.000000,7048.078582,9030.512492
1033.095162,-2294.638420,7048.078582,10362.883188
1033.095492,-4071.132681,5898.935335,11695.253884
1033.095822,-5625.565159,3983.696590,11769.274478
1033.096151,-6143.709319,1685.410096,10510.924376
1033.096481,-5403.503377,-306.438199,9030.512492
1033.096810,-3478.967927,-1532.190996,7772.162391
1033.097140,-2368.659014,-612.876398,7624.121203
1033.097470,-1776.494261,1915.238745,7846.182985
1033.097799,-1406.391290,3907.087040,7920.203579
1033.098129,-1406.391290,5362.668486,9104.533087
1033.098458,-1776.494261,6205.373534,10362.883188
1033.098788,-2072.576638,7660.954980,11547.212695
1033.099118,-2368.659014,5975.544884,11547.212695
1033.099447,-2294.638420,3524.039291,10955.047942
1033.099777,-1554.432478,2068.457845,10214.842000
1033.100106,-1406.391290,1225.752797,9400.615463
1033.100436,-962.267725,1608.800546,9104.533087
1033.100765,-592.164754,1685.410096,8956.491898
1033.101095,74.020594,3140.991542,9474.636058
1033.101425,296.082377,5515.887586,10214.842000
1033.101754,-518.144159,7201.297681,10362.883188
1033.102084,-1258.350101,7890.783629,10732.986159
1033.102413,-2368.659014,7354.516781,10214.842000
1033.102743,-3404.947333,6435.202183,9770.718434
1033.103073,-3849.070898,4290.134789,8660.409521
1033.103402,-3182.885551,1532.190996,7105.977043
1033.103732,-1628.453072,842.705048,5847.626942
1033.104061,-1184.329507,0.000000,5847.626942
1033.104391,-1184.329507,153.219100,6291.750507
1033.104721,-1702.473667,2068.457845,7328.038826
1033.105050,-2146.597232,4979.620737,8808.450710
1033.105380,-2146.597232,6741.640382,10140.821405
1033.105709,-1998.556043,7201.297681,11325.150913
1033.106039,-1258.350101,6894.859482,10881.027347
1033.106368,-740.205942,5286.058936,10510.924376
1033.106698,-370.102971,4136.915689,10510.924376
1033.107028,-222.061783,3447.429741,10436.903782
1033.107357,-444.123565,2528.115143,10288.862594
1033.107687,-1036.288319,2298.286494,9622.677246
1033.108016,-962.267725,2145.067394,9030.512492
1033.108346,222.061783,2528.115143,8956.491898
1033.108676,1184.329507,2681.334243,9104.533087
1033.109005,962.267725,3217.601092,9622.677246
1033.109335,-962.267725,4519.963438,10732.986159
1033.109664,-2294.638420,5592.497135,11399.171507
1033.109994,-2368.659014,5362.668486,12065.356855
1033.110323,-2516.700203,4903.011187,11843.295072
1033.110653,-1998.556043,4366.744339,10955.047942
1033.110983,-2220.617826,3217.601092,9844.739029
1033.111312,-1554.432478,3064.381992,9696.697840
1033.111642,-888.247130,4519.963438,9326.594869
1033.111971,-222.061783,4979.620737,8438.347739
1033.112301,444.123565,4826.401637,6809.894666
1033.112631,962.267725,4136.915689,6217.729913
1033.112960,1036.288319,2911.162892,6143.709319
1033.113290,222.061783,2221.676944,7254.018232
1033.113619,-1480.411884,2604.724693,8734.430116
1033.113949,-3256.906145,3447.429741,10066.800811
1033.114279,-3627.009116,3677.258390,11251.130318
1033.114608,-3182.885551,3983.696590,11843.295072
1033.114938,-1998.556043,4596.572988,11621.233289
1033.115267,-1332.370696,5056.230287,10510.924376
1033.115597,-666.185348,6052.154434,9844.739029
1033.115926,814.226536,6205.373534,9178.553681
1033.116256,518.144159,6358.592633,8808.450710
1033.116586,0.000000,6205.373534,7254.018232
1033.116915,-296.082377,4979.620737,6291.750507
1033.117245,-370.102971,3064.381992,5773.606348
1033.117574,-518.144159,1225.752797,5847.626942
1033.117904,-1480.411884,153.219100,6661.853478
1033.118234,-2368.659014,76.609550,8364.327145
1033.118563,-3404.947333,306.438199,10288.862594
1033.118893,-3182.885551,2451.505594,12361.439231
1033.119222,-2368.659014,4903.011187,13249.686362
1033.119552,-1480.411884,4519.963438,12731.542202
1033.119882,-888.247130,5209.449386,13101.645173
1033.120211,-370.102971,6588.421283,12583.501014
1033.120541,-222.061783,7277.907231,11325.150913
1033.120870,592.164754,5515.887586,10436.903782
1033.121200,370.102971,3370.820191,9252.574275
1033.121529,-148.041188,2681.334243,8512.368333
1033.121859,-1480.411884,2451.505594,8142.265362
1033.122189,-2072.576638,2374.896044,8290.306550
1033.122518,-1628.453072,1532.190996,8290.306550
1033.122848,-814.226536,1225.752797,8438.347739
1033.123177,0.000000,1991.848295,9474.636058
1033.123507,148.041188,2681.334243,10066.800811
1033.123837,-222.061783,3983.696590,10584.944971
1033.124166,-1184.329507,5822.325785,10658.965565
1033.124496,-1110.308913,6971.469032,11177.109724
1033.124825,-962.267725,6435.202183,12361.439231
1033.125155,-1850.514855,6511.811733,12213.398043
1033.125485,-3182.885551,7048.078582,10362.883188
1033.125814,-3478.967927,5822.325785,7476.080014
1033.126144,-2072.576638,4213.525239,4737.318029
1033.126473,74.020594,2145.067394,3552.988522
1033.126803,2294.638420,1302.362347,4219.173869
1033.127132,2220.617826,1685.410096,4959.379811
1033.127462,666.185348,2604.724693,5921.647536
1033.127792,-1554.432478,3983.696590,7772.162391
1033.128121,-3330.926739,5439.278036,10658.965565
1033.128451,-4589.276840,5975.544884,13989.892304
1033.128780,-4737.318029,6894.859482,15322.262999
1033.129110,-5033.400406,5822.325785,14137.933492
1033.129440,-4367.215058,4136.915689,11843.295072
1033.129769,-2516.700203,2834.553343,10288.862594
1033.130099,74.020594,2374.896044,8438.347739
1033.130428,2664.741391,2451.505594,6809.894666
1033.130758,4589.276840,2757.943793,5699.585753
1033.131088,5181.441594,3830.477490,6365.771101
1033.131417,4145.153275,3983.696590,8068.244768
1033.131747,592.164754,5209.449386,10658.965565
1033.132076,-3256.906145,8044.002729,13397.727550
1033.132406,-5403.503377,8810.098227,14508.036463
1033.132735,-5625.565159,6588.421283,13767.830521
1033.133065,-4145.153275,2528.115143,12065.356855
1033.133395,-1998.556043,-383.047749,9918.759623
1033.133724,-1110.308913,-306.438199,6809.894666
1033.134054,-666.185348,1225.752797,5403.503377
1033.134383,-296.082377,2528.115143,6513.812290
1033.134713,-370.102971,3524.039291,7846.182985
1033.135043,-666.185348,4979.620737,7179.997637
1033.135372,-888.247130,4366.744339,6439.791695
1033.135702,-222.061783,1608.800546,6883.915261
1033.136031,-592.164754,1149.143247,9918.759623
1033.136361,-2294.638420,3140.991542,12509.480420
1033.136691,-3404.947333,4443.353888,12731.542202
1033.137020,-3256.906145,3907.087040,12139.377449
1033.137350,-2442.679609,3294.210641,11547.212695
1033.137679,-1406.391290,3447.429741,9918.759623
1033.138009,74.020594,2145.067394,7105.977043
1033.138338,2220.617826,153.219100,5033.400406
1033.138668,3182.885551,-766.095498,4811.338623
1033.138998,2738.761985,-306.438199,6365.771101
1033.139327,1554.432478,1225.752797,8734.430116
1033.139657,-740.205942,2145.067394,11695.253884
1033.139986,-2664.741391,2911.162892,14063.912898
1033.140316,-4367.215058,4366.744339,14285.974681
1033.140646,-3552.988522,3447.429741,14211.954086
1033.140975,-2220.617826,153.219100,13545.768739
1033.141305,-1850.514855,-306.438199,12805.562797
1033.141634,-2146.597232,842.705048,10436.903782
1033.141964,-1702.473667,1685.410096,8512.368333
1033.142294,-666.185348,2068.457845,8216.285956
1033.142623,-592.164754,2911.162892,8438.347739
1033.142953,74.020594,3217.601092,7179.997637
1033.143282,1554.432478,1608.800546,5477.523971
1033.143612,2442.679609,-919.314598,4737.318029
1033.143941,962.267725,-1149.143247,6661.853478
1033.144271,-814.226536,919.314598,11621.233289
1033.144601,-3108.864956,3064.381992,15248.242405
1033.144930,-5625.565159,5669.106685,15692.365970
1033.145260,-6069.688724,7048.078582,14063.912898
1033.145589,-3256.906145,3753.867940,11769.274478
1033.145919,-370.102971,-842.705048,9918.759623
1033.146249,370.102971,-995.924147,7846.182985
1033.146578,-222.061783,1991.848295,5033.400406
1033.146908,0.000000,2298.286494,3627.009116
1033.147237,222.061783,1378.971896,5033.400406
1033.147567,148.041188,3524.039291,6735.874072
1033.147897,-1258.350101,4596.572988,5921.647536
1033.148226,0.000000,2681.334243,5477.523971
1033.148556,1776.494261,306.438199,6957.935855
1033.148885,1036.288319,0.000000,9696.697840
1033.149215,-444.123565,1225.752797,12731.542202
1033.149544,-2442.679609,2681.334243,13619.789333
1033.149874,-3034.844362,4290.134789,13619.789333
1033.150204,-2812.782580,4060.306139,11843.295072
1033.150533,-2072.576638,2528.115143,9992.780217
1033.150863,-148.041188,-229.828649,8660.409521
1033.151192,592.164754,-1608.800546,7105.977043
1033.151522,222.061783,-995.924147,5921.647536
1033.151852,-444.123565,-459.657299,6513.812290
1033.152181,-1554.432478,-766.095498,8660.409521
1033.152511,-3256.906145,459.657299,10214.842000
1033.152840,-3849.070898,2374.896044,10510.924376
1033.153170,-1110.308913,766.095498,10881.027347
1033.153500,740.205942,-536.266849,11621.233289
1033.153829,962.267725,-766.095498,11843.295072
1033.154159,-148.041188,-1149.143247,12139.377449
1033.154489,-444.123565,-995.924147,12509.480420
1033.154818,-1480.411884,536.266849,13175.665768
1033.155148,-2664.741391,2145.067394,12805.562797
1033.155478,-2664.741391,766.095498,11991.336260
1033.155807,-1554.432478,-1762.019645,10436.903782
1033.156137,0.000000,-2145.067394,8068.244768
1033.156466,444.123565,-1608.800546,7179.997637
1033.156796,296.082377,-536.266849,7476.080014
1033.157126,0.000000,383.047749,7846.182985
1033.157455,148.041188,1072.533697,7772.162391
1033.157785,1480.411884,842.705048,8512.368333
1033.158115,1924.535449,689.485948,8512.368333
1033.158444,592.164754,383.047749,9030.512492
1033.158774,-1110.308913,0.000000,9696.697840
1033.159104,-2516.700203,-612.876398,11547.212695
1033.159433,-3923.091493,689.485948,12139.377449
1033.159763,-4219.173869,2221.676944,11621.233289
1033.160092,-4515.256246,1762.019645,10362.883188
1033.160422,-3330.926739,919.314598,9474.636058
1033.160752,-1850.514855,459.657299,8216.285956
1033.161081,-370.102971,1455.581446,7624.121203
1033.161411,222.061783,2604.724693,7476.080014
1033.161741,-222.061783,4290.134789,6809.894666
1033.162070,0.000000,3600.648841,6365.771101
1033.162400,1036.288319,1532.190996,6217.729913
1033.162730,1554.432478,995.924147,7402.059420
1033.163059,1036.288319,1608.800546,8586.388927
1033.163389,-740.205942,1608.800546,9992.780217
1033.163719,-2368.659014,612.876398,11769.274478
1033.164048,-3034.844362,1225.752797,13249.686362
1033.164378,-3701.029710,3217.601092,13027.624579
1033.164707,-3330.926739,2911.162892,11399.171507
1033.165037,-1332.370696,1991.848295,10362.883188
1033.165367,-148.041188,766.095498,9474.636058
1033.165696,444.123565,1991.848295,8660.409521
1033.166026,370.102971,2374.896044,8216.285956
1033.166356,-444.123565,2528.115143,8216.285956
1033.166685,-1480.411884,2451.505594,7254.018232
1033.167015,-1554.432478,1149.143247,7254.018232
1033.167345,-148.041188,153.219100,7772.162391
1033.167674,814.226536,-536.266849,8364.327145
1033.168004,666.185348,-1149.143247,9326.594869
1033.168334,0.000000,-842.705048,10658.965565
1033.168663,-2146.597232,76.609550,13471.748144
1033.168993,-3404.947333,2911.162892,14656.077652
1033.169322,-4071.132681,4366.744339,13249.686362
1033.169652,-2442.679609,2374.896044,11029.068536
1033.169982,0.000000,-612.876398,9400.615463
1033.170311,1258.350101,-1915.238745,7402.059420
1033.170641,1036.288319,-1608.800546,6143.709319
1033.170971,222.061783,-919.314598,6069.688724
1033.171300,-148.041188,76.609550,7179.997637
1033.171630,-740.205942,1302.362347,8364.327145
1033.171960,-222.061783,-229.828649,7994.224174
1033.172289,1036.288319,-1378.971896,8512.368333
1033.172619,1332.370696,-1762.019645,9474.636058
1033.172949,148.041188,-536.266849,11103.089130
1033.173278,-1406.391290,536.266849,13545.768739
1033.173608,-3108.864956,2451.505594,14952.160028
1033.173937,-3627.009116,4290.134789,14063.912898
1033.174267,-3552.988522,2528.115143,11621.233289
1033.174597,-1776.494261,-689.485948,9252.574275
1033.174926,-296.082377,-3064.381992,7550.100608
1033.175256,-296.082377,-2528.115143,6587.832884
1033.175586,-666.185348,-536.266849,6587.832884
1033.175915,-1332.370696,612.876398,7105.977043
1033.176245,-1480.411884,1532.190996,8290.306550
1033.176575,-962.267725,2298.286494,7920.203579
1033.176904,444.123565,842.705048,7846.182985
1033.177234,2072.576638,-383.047749,8216.285956
1033.177563,1924.535449,0.000000,10140.821405
1033.177893,-370.102971,919.314598,11621.233289
1033.178223,-2442.679609,1378.971896,13175.665768
1033.178552,-3034.844362,2451.505594,13915.871710
1033.178882,-2960.823768,2987.772442,12953.603985
1033.179212,-3182.885551,1762.019645,10140.821405
1033.179541,-1924.535449,-383.047749,8956.491898
1033.179871,-666.185348,-919.314598,7772.162391
1033.180201,0.000000,0.000000,6883.915261
1033.180530,-444.123565,1302.362347,6809.894666
1033.180860,-1036.288319,1762.019645,6883.915261
1033.181190,-1628.453072,2757.943793,7031.956449
1033.181519,-1332.370696,1685.410096,6661.853478
1033.181849,592.164754,76.609550,7402.059420
1033.182178,2072.576638,-153.219100,9252.574275
1033.182508,1924.535449,689.485948,10510.924376
1033.182838,-518.144159,842.705048,10732.986159
1033.183167,-2294.638420,306.438199,12361.439231
1033.183497,-2960.823768,1838.629195,13989.892304
1033.183827,-3256.906145,3447.429741,13619.789333
1033.184156,-2516.700203,2374.896044,12139.377449
1033.184486,-814.226536,306.438199,9992.780217
1033.184816,666.185348,-1302.362347,7994.224174
1033.185145,814.226536,-995.924147,6883.915261
1033.185475,296.082377,766.095498,7772.162391
1033.185805,0.000000,2374.896044,8216.285956
1033.186134,0.000000,1915.238745,7698.141797
1033.186464,814.226536,689.485948,7994.224174
1033.186793,1110.308913,-1302.362347,8882.471304
1033.187123,592.164754,-612.876398,10510.924376
1033.187453,-1110.308913,0.000000,11547.212695
1033.187782,-2664.741391,612.876398,12509.480420
1033.188112,-4367.215058,1455.581446,13249.686362
1033.188442,-4293.194464,1838.629195,12731.542202
1033.188771,-2886.803174,383.047749,11251.130318
1033.189101,-1332.370696,-842.705048,9474.636058
1033.189431,222.061783,153.219100,7846.182985
1033.189760,740.205942,536.266849,7105.977043
1033.190090,592.164754,1149.143247,7105.977043
1033.190420,222.061783,2451.505594,7179.997637
1033.190749,222.061783,3370.820191,6957.935855
1033.191079,1184.329507,2911.162892,6217.729913
1033.191408,1924.535449,76.609550,6513.812290
1033.191738,814.226536,-919.314598,8216.285956
1033.192068,-1184.329507,-306.438199,10140.821405
1033.192397,-3478.967927,0.000000,11621.233289
1033.192727,-5033.400406,842.705048,12213.398043
1033.193057,-4959.379811,1072.533697,12139.377449
1033.193386,-3775.050304,689.485948,11177.109724
1033.193716,-2590.720797,-459.657299,9770.718434
1033.194046,-1184.329507,-995.924147,7920.203579
1033.194375,148.041188,0.000000,7476.080014
1033.194705,888.247130,1455.581446,7698.141797
1033.195034,0.000000,2451.505594,8364.327145
1033.195364,-1184.329507,2604.724693,8586.388927
1033.195694,-1184.329507,1608.800546,8438.347739
1033.196023,0.000000,536.266849,8660.409521
1033.196353,1036.288319,-383.047749,9992.780217
1033.196683,888.247130,-919.314598,10881.027347
1033.197012,-222.061783,-1225.752797,11843.295072
1033.197342,-1702.473667,-995.924147,12731.542202
1033.197672,-2960.823768,536.266849,13545.768739
1033.198001,-3330.926739,2145.067394,13101.645173
1033.198331,-2368.659014,1225.752797,12139.377449
1033.198661,-814.226536,0.000000,10288.862594
1033.198990,0.000000,-919.314598,8068.244768
1033.199320,888.247130,-1302.362347,7105.977043
1033.199649,814.226536,-1302.362347,7624.121203
1033.199979,0.000000,1225.752797,8956.491898
1033.200309,-888.247130,3217.601092,8364.327145
1033.200638,-296.082377,1915.238745,7846.182985
1033.200968,1850.514855,0.000000,8660.409521
1033.201298,1776.494261,-612.876398,9770.718434
1033.201627,0.000000,0.000000,10140.821405
1033.201957,-1776.494261,612.876398,10807.006753
1033.202287,-3627.009116,1838.629195,12657.521608
1033.202616,-4515.256246,4213.525239,12731.542202
1033.202946,-4293.194464,2757.943793,10658.965565
1033.203276,-2442.679609,-612.876398,8660.409521
1033.203605,-296.082377,-1455.581446,7254.018232
1033.203935,-370.102971,-612.876398,6957.935855
1033.204264,-1036.288319,1225.752797,6957.935855
1033.204594,-1258.350101,1838.629195,7476.080014
1033.204924,-1258.350101,2834.553343,8068.244768
1033.205253,-740.205942,4519.963438,8068.244768
1033.205583,962.267725,2528.115143,7550.100608
1033.205913,2072.576638,306.438199,8364.327145
1033.206242,1406.391290,153.219100,9400.615463
1033.206572,-444.123565,1378.971896,10881.027347
1033.206902,-1850.514855,2221.676944,12435.459826
1033.207231,-2812.782580,2451.505594,13027.624579
1033.207561,-3478.967927,2987.772442,11843.295072
1033.207891,-3034.844362,1149.143247,10066.800811
1033.208220,-1258.350101,-995.924147,9548.656652
1033.208550,296.082377,-689.485948,9178.553681
1033.208879,0.000000,383.047749,7254.018232
1033.209209,-666.185348,766.095498,7772.162391
1033.209539,-962.267725,1838.629195,8956.491898
1033.209868,-1332.370696,3370.820191,8660.409521
1033.210198,-666.185348,2451.505594,7846.182985
1033.210528,1184.329507,766.095498,8290.306550
1033.210857,2072.576638,1685.410096,9252.574275
1033.211187,1110.308913,1378.971896,10140.821405
1033.211517,-518.144159,0.000000,10881.027347
1033.211846,-1924.535449,0.000000,12435.459826
1033.212176,-3701.029710,1991.848295,13545.768739
1033.212505,-4959.379811,2911.162892,12583.501014
1033.212835,-3923.091493,306.438199,11399.171507
1033.213165,-2220.617826,-1838.629195,9474.636058
1033.213494,-518.144159,-1608.800546,7994.224174
1033.213824,-148.041188,-459.657299,6661.853478
1033.214154,296.082377,0.000000,6809.894666
1033.214483,888.247130,1072.533697,7105.977043
1033.214813,592.164754,1915.238745,7179.997637
1033.215143,1480.411884,1378.971896,7772.162391
1033.215472,2294.638420,0.000000,8734.430116
1033.215802,2590.720797,-306.438199,10140.821405
1033.216132,740.205942,-689.485948,11991.336260
1033.216461,-1998.556043,1225.752797,13693.809927
1033.216791,-4219.173869,2451.505594,14285.974681
1033.217120,-4515.256246,2451.505594,13323.706956
1033.217450,-3627.009116,1149.143247,11769.274478
1033.217780,-2220.617826,-1608.800546,9770.718434
1033.218109,-1480.411884,-2221.676944,7994.224174
1033.218439,-1332.370696,-1149.143247,6735.874072
1033.218769,-1628.453072,459.657299,7105.977043
1033.219098,-1924.535449,1915.238745,7698.141797
1033.219428,-1110.308913,2604.724693,7402.059420
1033.219758,0.000000,1532.190996,6735.874072
1033.220087,1332.370696,306.438199,7254.018232
1033.220417,1480.411884,995.924147,8734.430116
1033.220747,814.226536,1225.752797,10436.903782
1033.221076,-1258.350101,1608.800546,11991.336260
1033.221406,-3034.844362,2528.115143,13175.665768
1033.221735,-3775.050304,4290.134789,13471.748144
1033.222065,-2664.741391,2987.772442,11769.274478
1033.222395,-1332.370696,766.095498,9918.759623
1033.222724,-1036.288319,-612.876398,7846.182985
1033.223054,-370.102971,612.876398,7254.018232
1033.223384,-592.164754,1225.752797,6735.874072
1033.223713,-1110.308913,2528.115143,7254.018232
1033.224043,-1702.473667,3370.820191,7105.977043
1033.224373,-1406.391290,2987.772442,6661.853478
1033.224702,-222.061783,1302.362347,6883.915261
1033.225032,666.185348,-229.828649,7994.224174
1033.225362,0.000000,1302.362347,9844.739029
1033.225691,-1406.391290,1225.752797,11103.089130
1033.226021,-2664.741391,1378.971896,12509.480420
1033.226350,-3182.885551,2528.115143,13841.851115
1033.226680,-2886.803174,2604.724693,13101.645173
1033.227010,-1998.556043,1838.629195,11177.109724
1033.227339,-814.226536,383.047749,9992.780217
1033.227669,222.061783,0.000000,8734.430116
1033.227999,666.185348,0.000000,7698.141797
1033.228328,666.185348,229.828649,7994.224174
1033.228658,-148.041188,1608.800546,8586.388927
1033.228988,-814.226536,2298.286494,8734.430116
1033.229317,0.000000,1225.752797,8586.388927
1033.229647,1258.350101,-995.924147,8956.491898
1033.229976,1332.370696,-1532.190996,9918.759623
1033.230306,148.041188,-153.219100,11695.253884
1033.230636,-1850.514855,995.924147,12805.562797
1033.230965,-3627.009116,2221.676944,13397.727550
1033.231295,-4293.194464,3447.429741,12731.542202
1033.231625,-3108.864956,2451.505594,10807.006753
1033.231954,-2072.576638,153.219100,9696.697840
1033.232284,-1332.370696,-612.876398,8216.285956
1033.232614,-1480.411884,-612.876398,6809.894666
1033.232943,-1110.308913,-459.657299,6365.771101
1033.233273,-1480.411884,383.047749,7105.977043
1033.233603,-1998.556043,2757.943793,7772.162391
1033.233932,-962.267725,2681.334243,8068.244768
1033.234262,296.082377,842.705048,7624.121203
1033.234591,1258.350101,-459.657299,7550.100608
1033.234921,666.185348,0.000000,9474.636058
1033.235251,-740.205942,1302.362347,11251.130318
1033.235580,-2146.597232,2145.067394,12361.439231
1033.235910,-3627.009116,3370.820191,12509.480420
1033.236240,-3478.967927,2987.772442,11177.109724
1033.236569,-2072.576638,612.876398,9844.739029
1033.236899,-444.123565,-306.438199,9400.615463
1033.237229,148.041188,0.000000,7476.080014
1033.237558,0.000000,612.876398,7254.018232
1033.237888,-740.205942,1455.581446,7624.121203
1033.238218,-1480.411884,1991.848295,7846.182985
1033.238547,-1628.453072,2068.457845,8290.306550
1033.238877,-148.041188,1455.581446,8216.285956
1033.239206,888.247130,76.609550,8882.471304
1033.239536,444.123565,-689.485948,9252.574275
1033.239866,-592.164754,-153.219100,10955.047942
1033.240195,-2072.576638,842.705048,12361.439231
1033.240525,-2664.741391,2451.505594,13101.645173
1033.240855,-3034.844362,4136.915689,13101.645173
1033.241184,-2146.597232,3217.601092,11473.192101
1033.241514,-592.164754,459.657299,9770.718434
1033.241844,740.205942,-919.314598,8512.368333
1033.242173,740.205942,76.609550,7624.121203
1033.242503,0.000000,1762.019645,7105.977043
1033.242833,-444.123565,1915.238745,8512.368333
1033.243162,-1406.391290,2451.505594,8956.491898
1033.243492,-1258.350101,1532.190996,8808.450710
1033.243821,0.000000,-306.438199,8734.430116
1033.244151,740.205942,-1149.143247,9474.636058
1033.244481,-666.185348,0.000000,10881.027347
1033.244810,-2368.659014,995.924147,11843.295072
1033.245140,-2738.761985,1838.629195,12953.603985
1033.245470,-3330.926739,2757.943793,12287.418637
1033.245799,-3108.864956,4366.744339,10881.027347
1033.246129,-1702.473667,2298.286494,9548.656652
1033.246459,0.000000,0.000000,8216.285956
1033.246788,74.020594,-383.047749,6883.915261
1033.247118,-962.267725,306.438199,6809.894666
1033.247447,-2072.576638,1455.581446,7179.997637
1033.247777,-2146.597232,2221.676944,8216.285956
1033.248107,-1924.535449,2068.457845,8216.285956
1033.248436,-666.185348,842.705048,7698.141797
1033.248766,888.247130,-1378.971896,8438.347739
1033.249096,666.185348,-1225.752797,8956.491898
1033.249425,0.000000,612.876398,10510.924376
1033.249755,-1554.432478,1225.752797,11843.295072
1033.250085,-2590.720797,3370.820191,13101.645173
1033.250414,-3108.864956,4673.182538,12213.398043
1033.250744,-2146.597232,2987.772442,11251.130318
1033.251074,-888.247130,1378.971896,9400.615463
1033.251403,444.123565,306.438199,7994.224174
1033.251733,444.123565,0.000000,6587.832884
1033.252062,-296.082377,306.438199,6735.874072
1033.252392,-1332.370696,1991.848295,7624.121203
1033.252722,-2294.638420,3217.601092,7772.162391
1033.253051,-1702.473667,2068.457845,7476.080014
1033.253381,-370.102971,-229.828649,8142.265362
1033.253711,518.144159,-842.705048,9400.615463
1033.254040,-222.061783,229.828649,9918.759623
1033.254370,-2294.638420,0.000000,10214.842000
1033.254700,-2738.761985,0.000000,11473.192101
1033.255029,-3775.050304,2451.505594,13471.748144
1033.255359,-3182.885551,3677.258390,13249.686362
1033.255689,-2442.679609,1762.019645,11621.233289
1033.256018,-814.226536,0.000000,9400.615463
1033.256348,518.144159,-536.266849,7920.203579
1033.256678,740.205942,-1072.533697,7698.141797
1033.257008,0.000000,459.657299,8660.409521
1033.257337,-740.205942,2221.676944,9178.553681
1033.257667,-1110.308913,2451.505594,8956.491898
1033.257997,0.000000,383.047749,7994.224174
1033.258326,740.205942,-2374.896044,9030.512492
1033.258656,888.247130,-2681.334243,10436.903782
1033.258986,-666.185348,-1072.533697,10807.006753
1033.259316,-2516.700203,-383.047749,11843.295072
1033.259645,-3182.885551,0.000000,13249.686362
1033.259975,-3775.050304,1762.019645,13323.706956
1033.260305,-3330.926739,2068.457845,11399.171507
1033.260634,-1628.453072,153.219100,10140.821405
1033.260964,0.000000,153.219100,8734.430116
1033.261294,74.020594,842.705048,7402.059420
1033.261624,-444.123565,76.609550,6809.894666
1033.261953,-1036.288319,229.828649,7624.121203
1033.262283,-1628.453072,2757.943793,8364.327145
1033.262613,-1406.391290,2681.334243,8142.265362
1033.262942,-444.123565,383.047749,7624.121203
1033.263272,-444.123565,-2451.505594,8512.368333
1033.263602,-962.267725,-1149.143247,9918.759623
1033.263932,-2072.576638,612.876398,11547.212695
1033.264261,-3182.885551,2145.067394,12509.480420
1033.264591,-3997.112087,3370.820191,12287.418637
1033.264921,-3330.926739,3370.820191,11325.150913
1033.265250,-1628.453072,2068.457845,9548.656652
1033.265580,222.061783,1072.533697,8290.306550
1033.265910,1184.329507,1685.410096,6735.874072
1033.266240,962.267725,1991.848295,5847.626942
1033.266569,444.123565,1072.533697,6661.853478
1033.266899,0.000000,2757.943793,7994.224174
1033.267229,-1184.329507,3370.820191,7846.182985
1033.267558,-962.267725,1915.238745,7772.162391
1033.267888,148.041188,0.000000,8808.450710
1033.268218,74.020594,-1072.533697,10214.842000
1033.268548,-1258.350101,-229.828649,11769.274478
1033.268877,-2960.823768,1072.533697,12731.542202
1033.269207,-3849.070898,2911.162892,12953.603985
1033.269537,-3627.009116,3907.087040,12509.480420
1033.269866,-2220.617826,2451.505594,11325.150913
1033.270196,-666.185348,0.000000,9400.615463
1033.270526,814.226536,0.000000,7994.224174
1033.270855,592.164754,766.095498,6809.894666
1033.271185,148.041188,919.314598,6957.935855
1033.271515,-370.102971,766.095498,8364.327145
1033.271845,-1406.391290,1762.019645,9252.574275
1033.272174,-1702.473667,1532.190996,8808.450710
1033.272504,-370.102971,-689.485948,9104.533087
1033.272834,0.000000,-1915.238745,9400.615463
1033.273163,0.000000,-1378.971896,11399.171507
1033.273493,-1332.370696,-229.828649,12287.418637
1033.273823,-2442.679609,842.705048,12435.459826
1033.274153,-3182.885551,2298.286494,11695.253884
1033.274482,-2664.741391,2451.505594,11325.150913
1033.274812,-1332.370696,1378.971896,9844.739029
1033.275142,-148.041188,0.000000,8216.285956
1033.275471,666.185348,-1072.533697,5921.647536
1033.275801,592.164754,-1072.533697,6439.791695
1033.276131,-740.205942,229.828649,7624.121203
1033.276461,-1998.556043,1302.362347,8956.491898
1033.276790,-2590.720797,995.924147,8512.368333
1033.277120,-1258.350101,-1072.533697,8882.471304
1033.277450,0.000000,-2374.896044,10066.800811
1033.277779,-444.123565,-919.314598,10955.047942
1033.278109,-1480.411884,0.000000,11473.192101
1033.278439,-2072.576638,76.609550,11547.212695
1033.278769,-2294.638420,1455.581446,12435.459826
1033.279098,-2220.617826,3064.381992,12583.501014
1033.279428,-2072.576638,2451.505594,10955.047942
1033.279758,-1110.308913,1072.533697,9400.615463
1033.280087,74.020594,0.000000,7550.100608
1033.280417,592.164754,0.000000,6735.874072
1033.280747,222.061783,-306.438199,7105.977043
1033.281077,-370.102971,229.828649,7994.224174
1033.281406,-1480.411884,2451.505594,8142.265362
1033.281736,-1110.308913,2374.896044,7994.224174
1033.282066,370.102971,229.828649,8438.347739
1033.282395,740.205942,-689.485948,9252.574275
1033.282725,-518.144159,766.095498,9918.759623
1033.283055,-1850.514855,1302.362347,10881.027347
1033.283385,-2072.576638,1149.143247,11917.315666
1033.283714,-2960.823768,2528.115143,11917.315666
1033.284044,-2886.803174,3140.991542,11177.109724
1033.284374,-2368.659014,1838.629195,9474.636058
1033.284703,-518.144159,0.000000,8068.244768
1033.285033,0.000000,383.047749,7772.162391
1033.285363,0.000000,1072.533697,7031.956449
1033.285693,-888.247130,459.657299,7624.121203
1033.286022,-962.267725,919.314598,7920.203579
1033.286352,-1332.370696,2068.457845,8068.244768
1033.286682,-296.082377,1149.143247,8882.471304
1033.287011,444.123565,-306.438199,9770.718434
1033.287341,0.000000,0.000000,10436.903782
1033.287671,-592.164754,229.828649,11399.171507
1033.288001,-1702.473667,306.438199,12065.356855
1033.288330,-1998.556043,1225.752797,12879.583391
1033.288660,-2960.823768,2451.505594,11843.295072
1033.288990,-2220.617826,919.314598,10584.944971
1033.289319,-222.061783,-229.828649,10214.842000
1033.289649,370.102971,-153.219100,9622.677246
1033.289979,0.000000,995.924147,8068.244768
1033.290309,-1184.329507,1378.971896,7328.038826
1033.290638,-962.267725,536.266849,8438.347739
1033.290968,-666.185348,1838.629195,9178.553681
1033.291298,-740.205942,2451.505594,8734.430116
1033.291627,0.000000,-306.438199,7994.224174
1033.291957,-296.082377,-1378.971896,8734.430116
1033.292287,-1036.288319,-766.095498,10510.924376
1033.292616,-2368.659014,383.047749,11621.233289
1033.292946,-2960.823768,1378.971896,12287.418637
1033.293276,-3478.967927,3064.381992,11547.212695
1033.293606,-2738.761985,2451.505594,10066.800811
1033.293935,-962.267725,1072.533697,9326.594869
1033.294265,370.102971,76.609550,7920.203579
1033.294595,814.226536,919.314598,6957.935855
1033.294924,444.123565,1685.410096,6661.853478
1033.295254,-222.061783,2757.943793,7624.121203
1033.295584,-592.164754,3677.258390,8142.265362
1033.295914,-814.226536,2528.115143,7328.038826
1033.296243,0.000000,689.485948,7031.956449
1033.296573,1036.288319,-306.438199,8216.285956
1033.296903,296.082377,-383.047749,9326.594869
1033.297232,-1480.411884,-689.485948,10807.006753
1033.297562,-3256.906145,153.219100,12065.356855
1033.297892,-4219.173869,2528.115143,13175.665768
1033.298222,-4219.173869,3907.087040,13101.645173
1033.298551,-2442.679609,2451.505594,11399.171507
1033.298881,-1554.432478,306.438199,9622.677246
1033.299211,-148.041188,-459.657299,7994.224174
1033.299540,666.185348,-153.219100,7550.100608
1033.299870,592.164754,612.876398,7994.224174
1033.300200,74.020594,2374.896044,8586.388927
1033.300530,-1036.288319,2221.676944,8364.327145
1033.300859,-370.102971,1072.533697,8586.388927
1033.301189,1184.329507,-153.219100,9474.636058
1033.301519,1480.411884,-1225.752797,9918.759623
1033.301848,518.144159,-1302.362347,10140.821405
1033.302178,-1554.432478,-766.095498,11843.295072
1033.302508,-2442.679609,766.095498,13693.809927
1033.302838,-3552.988522,3064.381992,13249.686362
1033.303167,-3478.967927,2451.505594,11399.171507
1033.303497,-1332.370696,-229.828649,9622.677246
1033.303827,148.041188,-1149.143247,8290.306550
1033.304156,518.144159,-766.095498,7031.956449
1033.304486,-296.082377,-536.266849,6365.771101
1033.304816,-592.164754,383.047749,7179.997637
1033.305146,-1110.308913,2221.676944,8142.265362
1033.305475,-1406.391290,1838.629195,8364.327145
1033.305805,-296.082377,-689.485948,8956.491898
1033.306135,370.102971,-1915.238745,9474.636058
1033.306464,-592.164754,-612.876398,10362.883188
1033.306794,-1332.370696,383.047749,11325.150913
1033.307124,-1628.453072,612.876398,12065.356855
1033.307454,-2590.720797,2374.896044,13101.645173
1033.307783,-2664.741391,3983.696590,11917.315666
1033.308113,-1924.535449,2451.505594,10288.862594
1033.308443,0.000000,306.438199,8956.491898
1033.308772,370.102971,229.828649,7476.080014
1033.309102,148.041188,612.876398,6661.853478
1033.309432,74.020594,995.924147,7550.100608
1033.309762,0.000000,2374.896044,8438.347739
1033.310091,-1036.288319,3677.258390,7994.224174
1033.310421,-740.205942,1762.019645,7550.100608
1033.310751,370.102971,-76.609550,8512.368333
1033.311080,518.144159,306.438199,9770.718434
1033.311410,-666.185348,2221.676944,10955.047942
1033.311740,-2072.576638,2221.676944,11621.233289
1033.312070,-3182.885551,2834.553343,12361.439231
1033.312399,-3552.988522,4136.915689,12287.418637
1033.312729,-3182.885551,3983.696590,10288.862594
1033.313059,-1480.411884,1685.410096,8882.471304
1033.313388,74.020594,153.219100,7328.038826
1033.313718,666.185348,229.828649,6661.853478
1033.314048,-148.041188,1532.190996,6587.832884
1033.314378,-370.102971,2221.676944,7698.141797
1033.314707,-1258.350101,3064.381992,7994.224174
1033.315037,-1480.411884,2757.943793,7476.080014
1033.315367,74.020594,612.876398,7994.224174
1033.315696,1554.432478,-919.314598,8808.450710
1033.316026,1628.453072,-153.219100,9548.656652
1033.316356,0.000000,536.266849,10140.821405
1033.316685,-1702.473667,229.828649,11769.274478
1033.317015,-2664.741391,1762.019645,13027.624579
1033.317345,-3034.844362,2987.772442,13693.809927
1033.317675,-1850.514855,2221.676944,11917.315666
1033.318004,-444.123565,-766.095498,9918.759623
1033.318334,592.164754,-1762.019645,9178.553681
1033.318664,74.020594,-995.924147,8734.430116
1033.318993,-1258.350101,459.657299,9474.636058
1033.319323,-1628.453072,2068.457845,9844.739029
1033.319653,-1628.453072,1838.629195,9326.594869
1033.319983,-1036.288319,-459.657299,8290.306550
1033.320312,666.185348,-2681.334243,9400.615463
1033.320642,1332.370696,-2987.772442,10584.944971
1033.320972,-148.041188,-459.657299,11177.109724
1033.321301,-1776.494261,1455.581446,11399.171507
1033.321631,-2738.761985,1685.410096,12509.480420
1033.321961,-2368.659014,2911.162892,13545.768739
1033.322291,-1850.514855,3140.991542,12139.377449
1033.322620,-592.164754,1915.238745,9178.553681
1033.322950,666.185348,-306.438199,6957.935855
1033.323280,222.061783,-1532.190996,6513.812290
1033.323609,-1036.288319,153.219100,7105.977043
1033.323939,-2368.659014,1915.238745,7846.182985
1033.324269,-2664.741391,2757.943793,7328.038826
1033.324599,-1628.453072,2834.553343,6513.812290
1033.324928,-592.164754,919.314598,6143.709319
1033.325258,1036.288319,-1378.971896,6883.915261
1033.325588,814.226536,-536.266849,7772.162391
1033.325917,-814.226536,1915.238745,9770.718434
1033.326247,-2294.638420,3753.867940,11695.253884
1033.326577,-3923.091493,4749.792088,12065.356855
1033.326907,-3478.967927,4290.134789,11325.150913
1033.327236,-1924.535449,1838.629195,9918.759623
1033.327566,0.000000,459.657299,8734.430116
1033.327896,1036.288319,76.609550,7550.100608
1033.328225,1036.288319,153.219100,7328.038826
1033.328555,0.000000,459.657299,7772.162391
1033.328885,-1110.308913,2221.676944,8956.491898
1033.329215,-1036.288319,3370.820191,10066.800811
1033.329544,-296.082377,2757.943793,10066.800811
1033.329874,666.185348,1149.143247,9770.718434
1033.330204,1628.453072,383.047749,10436.903782
1033.330533,888.247130,306.438199,11251.130318
1033.330863,-740.205942,766.095498,11473.192101
1033.331193,-2738.761985,1532.190996,12361.439231
1033.331523,-3775.050304,2757.943793,13249.686362
1033.331852,-3330.926739,2451.505594,12435.459826
1033.332182,-2146.597232,536.266849,10732.986159
1033.332512,-370.102971,-766.095498,9030.512492
1033.332841,0.000000,-689.485948,7550.100608
1033.333171,0.000000,0.000000,7254.018232
1033.333501,0.000000,1302.362347,7920.203579
1033.333831,-814.226536,2451.505594,8512.368333
1033.334160,-666.185348,2528.115143,8438.347739
1033.334490,74.020594,1149.143247,8808.450710
1033.334820,814.226536,-1149.143247,8734.430116
1033.335149,666.185348,-842.705048,9178.553681
1033.335479,-592.164754,-919.314598,9622.677246
1033.335809,-1702.473667,153.219100,11325.150913
1033.336139,-3034.844362,1915.238745,12139.377449
1033.336468,-3775.050304,2834.553343,11621.233289
1033.336798,-2590.720797,1762.019645,9918.759623
1033.337128,0.000000,-536.266849,8364.327145
1033.337457,370.102971,-306.438199,7402.059420
1033.337787,0.000000,0.000000,6883.915261
1033.338117,-666.185348,-229.828649,7550.100608
1033.338447,-1258.350101,1378.971896,8216.285956
1033.338776,-2072.576638,2911.162892,8290.306550
1033.339106,-814.226536,1838.629195,7920.203579
1033.339436,592.164754,-536.266849,9030.512492
1033.339765,444.123565,-1149.143247,9770.718434
1033.340095,-962.267725,0.000000,10732.986159
1033.340425,-1924.535449,306.438199,11917.315666
1033.340754,-2664.741391,2298.286494,13175.665768
1033.341084,-3701.029710,3830.477490,13323.706956
1033.341414,-2886.803174,2987.772442,11991.336260
1033.341744,-1036.288319,1225.752797,10510.924376
1033.342073,0.000000,459.657299,8882.471304
1033.342403,74.020594,1762.019645,7031.956449
1033.342733,-592.164754,536.266849,6291.750507
1033.343062,-370.102971,919.314598,7698.141797
1033.343392,-962.267725,2374.896044,8438.347739
1033.343722,-1702.473667,2834.553343,7994.224174
1033.344052,-148.041188,766.095498,7698.141797
1033.344381,888.247130,-919.314598,8882.471304
1033.344711,518.144159,76.609550,9918.759623
1033.345041,-740.205942,1225.752797,10881.027347
1033.345370,-1628.453072,1225.752797,11843.295072
1033.345700,-2294.638420,2834.553343,12065.356855
1033.346030,-3182.885551,3753.867940,11843.295072
1033.346360,-1924.535449,2145.067394,10881.027347
1033.346689,-740.205942,612.876398,9474.636058
1033.347019,0.000000,536.266849,7550.100608
1033.347349,148.041188,459.657299,6365.771101
1033.347678,148.041188,0.000000,6587.832884
1033.348008,-222.061783,229.828649,8068.244768
1033.348338,-1332.370696,1838.629195,8438.347739
1033.348668,-1036.288319,1378.971896,8216.285956
1033.348997,0.000000,-612.876398,8882.471304
1033.349327,370.102971,-1685.410096,10066.800811
1033.349657,-148.041188,0.000000,11547.212695
1033.349986,-1628.453072,842.705048,12435.459826
1033.350316,-2590.720797,1991.848295,13101.645173
1033.350646,-3404.947333,3447.429741,12583.501014
1033.350976,-2886.803174,2528.115143,11177.109724
1033.351305,-1258.350101,919.314598,9770.718434
1033.351635,518.144159,-536.266849,8734.430116
1033.351965,444.123565,0.000000,7698.141797
1033.352294,-518.144159,383.047749,7105.977043
1033.352624,-1332.370696,383.047749,7846.182985
1033.352954,-1702.473667,1072.533697,8364.327145
1033.353284,-1480.411884,1915.238745,8068.244768
1033.353613,-148.041188,153.219100,7994.224174
1033.353943,666.185348,-1608.800546,8438.347739
1033.354273,-222.061783,-995.924147,9474.636058
1033.354602,-1480.411884,383.047749,10732.986159
1033.354932,-2664.741391,1072.533697,11843.295072
1033.355262,-3108.864956,2757.943793,13249.686362
1033.355592,-3478.967927,4136.915689,11991.336260
1033.355921,-2738.761985,1608.800546,9326.594869
1033.356251,-740.205942,-1302.362347,7772.162391
1033.356581,592.164754,-612.876398,7031.956449
1033.356910,444.123565,1149.143247,7031.956449
1033.357240,-740.205942,2068.457845,7031.956449
1033.357570,-1628.453072,1608.800546,7031.956449
1033.357899,-1628.453072,1225.752797,7105.977043
1033.358229,-1110.308913,153.219100,7772.162391
1033.358558,0.000000,-1302.362347,9104.533087
1033.358888,296.082377,-1072.533697,9992.780217
1033.359218,-740.205942,-229.828649,10807.006753
1033.359547,-1776.494261,0.000000,11843.295072
1033.359877,-2738.761985,1149.143247,13323.706956
1033.360206,-3034.844362,3217.601092,14434.015869
1033.360536,-2368.659014,3524.039291,12657.521608
1033.360866,-888.247130,1149.143247,10584.944971
1033.361195,666.185348,-1302.362347,8808.450710
1033.361525,1776.494261,-1302.362347,7994.224174
1033.361855,592.164754,-229.828649,8290.306550
1033.362184,-370.102971,1455.581446,8734.430116
1033.362514,-1406.391290,1838.629195,8956.491898
1033.362843,-1184.329507,1072.533697,8956.491898
1033.363173,-592.164754,-766.095498,9178.553681
1033.363503,-148.041188,-1685.410096,9326.594869
1033.363832,-148.041188,-1455.581446,10140.821405
1033.364162,-1554.432478,-689.485948,10955.047942
1033.364491,-2960.823768,459.657299,12065.356855
1033.364821,-3923.091493,1838.629195,13249.686362
1033.365151,-3627.009116,3064.381992,11843.295072
1033.365480,-1924.535449,2374.896044,9696.697840
1033.365810,-518.144159,612.876398,7846.182985
1033.366139,370.102971,-306.438199,6957.935855
1033.366469,666.185348,0.000000,6439.791695
1033.366799,-666.185348,1455.581446,6883.915261
1033.367128,-888.247130,2834.553343,7476.080014
1033.367458,-1480.411884,3140.991542,8142.265362
1033.367787,-666.185348,1149.143247,8216.285956
1033.368117,592.164754,-995.924147,8660.409521
1033.368447,518.144159,-1302.362347,9030.512492
1033.368776,-518.144159,766.095498,10362.883188
1033.369106,-1850.514855,1991.848295,11695.253884
1033.369435,-3034.844362,2604.724693,12731.542202
1033.369765,-3775.050304,3677.258390,12731.542202
1033.370095,-2812.782580,3140.991542,11399.171507
1033.370424,-1850.514855,1685.410096,8956.491898
1033.370754,-1184.329507,76.609550,7772.162391
1033.371084,-148.041188,-153.219100,6883.915261
1033.371413,-222.061783,153.219100,6513.812290
1033.371743,-814.226536,1072.533697,7550.100608
1033.372072,-1702.473667,2068.457845,7624.121203
1033.372402,-1776.494261,2834.553343,8438.347739
1033.372732,0.000000,919.314598,8808.450710
1033.373061,888.247130,-536.266849,9548.656652
1033.373391,888.247130,0.000000,10510.924376
1033.373720,-444.123565,612.876398,11473.192101
1033.374050,-1776.494261,689.485948,12213.398043
1033.374380,-3330.926739,2451.505594,12805.562797
1033.374709,-3034.844362,2604.724693,12435.459826
1033.375039,-1702.473667,1072.533697,11399.171507
1033.375368,-296.082377,-306.438199,9326.594869
1033.375698,0.000000,-1149.143247,7105.977043
1033.376028,518.144159,-1302.362347,6587.832884
1033.376357,0.000000,-689.485948,7328.038826
1033.376687,-1480.411884,1915.238745,8290.306550
1033.377016,-2368.659014,2911.162892,8586.388927
1033.377346,-1110.308913,689.485948,8438.347739
1033.377676,74.020594,-1991.848295,9252.574275
1033.378005,444.123565,-2681.334243,10288.862594
1033.378335,-444.123565,-1532.190996,10658.965565
1033.378665,-1776.494261,-1608.800546,11769.274478
1033.378994,-3108.864956,-383.047749,13101.645173
1033.379324,-4737.318029,3294.210641,13249.686362
1033.379653,-3923.091493,2757.943793,12879.583391
1033.379983,-1332.370696,306.438199,11103.089130
1033.380313,296.082377,-306.438199,8512.368333
1033.380642,814.226536,-842.705048,7328.038826
1033.380972,518.144159,0.000000,7105.977043
1033.381301,-444.123565,612.876398,7920.203579
1033.381631,-1110.308913,1608.800546,8956.491898
1033.381961,-1110.308913,2451.505594,9252.574275
1033.382290,-444.123565,995.924147,9326.594869
1033.382620,0.000000,-919.314598,8734.430116
1033.382949,0.000000,-1991.848295,8808.450710
1033.383279,-1110.308913,0.000000,10510.924376
1033.383609,-2072.576638,1608.800546,11917.315666
1033.383938,-3478.967927,3370.820191,12435.459826
1033.384268,-3997.112087,4443.353888,11251.130318
1033.384597,-2812.782580,2298.286494,9252.574275
1033.384927,-1258.350101,306.438199,8364.327145
1033.385257,74.020594,536.266849,7772.162391
1033.385586,222.061783,1455.581446,6661.853478
1033.385916,-148.041188,1685.410096,6735.874072
1033.386245,-592.164754,1685.410096,6365.771101
1033.386575,-1332.370696,3217.601092,7031.956449
1033.386905,-962.267725,2528.115143,7476.080014
1033.387234,444.123565,612.876398,8660.409521
1033.387564,666.185348,229.828649,9548.656652
1033.387894,-1036.288319,153.219100,9918.759623
1033.388223,-1184.329507,383.047749,11029.068536
1033.388553,-2220.617826,1149.143247,12213.398043
1033.388882,-3256.906145,3447.429741,12953.603985
