#time,accel_x,accel_y,accel_z
764.299614,-740.205942,919.314598,9844.739029
764.299943,-1036.288319,1149.143247,9400.615463
764.300272,-888.247130,919.314598,9770.718434
764.300602,-1110.308913,689.485948,9474.636058
764.300931,-888.247130,1149.143247,9770.718434
764.301260,-1036.288319,1225.752797,9844.739029
764.301589,-740.205942,842.705048,9548.656652
764.301918,-1110.308913,995.924147,9548.656652
764.302248,-1036.288319,919.314598,9474.636058
764.302577,-888.247130,1149.143247,9548.656652
764.302906,-888.247130,1072.533697,9474.636058
764.303235,-1036.288319,1455.581446,9622.677246
764.303565,-814.226536,1072.533697,9400.615463
764.303894,-1184.329507,995.924147,9474.636058
764.304223,-1110.308913,1072.533697,9474.636058
764.304552,-1184.329507,995.924147,9548.656652
764.304881,-962.267725,1072.533697,9474.636058
764.305211,-1332.370696,842.705048,9252.574275
764.305540,-1036.288319,919.314598,9474.636058
764.305869,-1110.308913,689.485948,9622.677246
764.306198,-1036.288319,842.705048,9474.636058
764.306528,-1110.308913,766.095498,9548.656652
764.306857,-1332.370696,612.876398,9252.574275
764.307186,-1036.288319,1149.143247,9548.656652
764.307515,-1110.308913,995.924147,9622.677246
764.307844,-1036.288319,995.924147,9548.656652
764.308174,-888.247130,919.314598,9622.677246
764.308503,-1036.288319,1378.971896,9696.697840
764.308832,-888.247130,766.095498,9326.594869
764.309161,-1332.370696,689.485948,9474.636058
764.309490,-962.267725,995.924147,9474.636058
764.309820,-1110.308913,766.095498,9622.677246
764.310149,-1036.288319,1455.581446,9474.636058
764.310478,-1332.370696,1302.362347,9030.512492
764.310807,-1110.308913,689.485948,9474.636058
764.311137,-888.247130,766.095498,9474.636058
764.311466,-1110.308913,842.705048,9548.656652
764.311795,-1110.308913,689.485948,9474.636058
764.312124,-888.247130,842.705048,9548.656652
764.312453,-1184.329507,1072.533697,9622.677246
764.312783,-1036.288319,919.314598,9474.636058
764.313112,-1110.308913,919.314598,9474.636058
764.313441,-1036.288319,1072.533697,9548.656652
764.313770,-814.226536,1455.581446,9474.636058
764.314100,-1110.308913,1378.971896,8956.491898
764.314429,-1110.308913,1072.533697,9474.636058
764.314758,-1258.350101,766.095498,9400.615463
764.315087,-962.267725,919.314598,9474.636058
764.315416,-1110.308913,919.314598,9548.656652
764.315746,-1036.288319,1302.362347,9474.636058
764.316075,-1036.288319,1149.143247,9474.636058
764.316404,-1110.308913,995.924147,9474.636058
764.316733,-1036.288319,995.924147,9548.656652
764.317062,-1110.308913,1149.143247,9474.636058
764.317392,-962.267725,842.705048,9474.636058
764.317721,-814.226536,919.314598,9474.636058
764.318050,-1036.288319,995.924147,9474.636058
764.318379,-962.267725,995.924147,9474.636058
764.318709,-962.267725,842.705048,9400.615463
764.319038,-1258.350101,1149.143247,9326.594869
764.319367,-1110.308913,842.705048,8808.450710
764.319696,0.000000,995.924147,8882.471304
764.320025,814.226536,536.266849,9326.594869
764.320355,888.247130,536.266849,9400.615463
764.320684,518.144159,536.266849,9400.615463
764.321013,148.041188,536.266849,9696.697840
764.321342,-296.082377,1302.362347,10214.842000
764.321672,-740.205942,1072.533697,10140.821405
764.322001,-592.164754,383.047749,10510.924376
764.322330,-296.082377,153.219100,9918.759623
764.322659,0.000000,153.219100,9696.697840
764.322988,666.185348,153.219100,9400.615463
764.323318,1776.494261,306.438199,9030.512492
764.323647,2738.761985,766.095498,8734.430116
764.323976,3552.988522,1149.143247,9178.553681
764.324305,3775.050304,1838.629195,9104.533087
764.324634,3775.050304,1991.848295,9474.636058
764.324964,2960.823768,1378.971896,9992.780217
764.325293,1924.535449,1225.752797,10362.883188
764.325622,814.226536,995.924147,10881.027347
764.325951,222.061783,536.266849,11399.171507
764.326281,74.020594,0.000000,10658.965565
764.326610,296.082377,-536.266849,9844.739029
764.326939,814.226536,-766.095498,9030.512492
764.327268,1998.556043,-536.266849,8734.430116
764.327597,2960.823768,766.095498,8586.388927
764.327927,3849.070898,1608.800546,8512.368333
764.328256,3182.885551,2681.334243,8808.450710
764.328585,2886.803174,2681.334243,8808.450710
764.328914,2220.617826,2834.553343,9474.636058
764.329244,666.185348,2374.896044,9918.759623
764.329573,-1406.391290,1991.848295,10510.924376
764.329902,-3034.844362,1455.581446,10881.027347
764.330231,-4737.318029,689.485948,10658.965565
764.330560,-5107.421000,153.219100,10140.821405
764.330890,-4293.194464,0.000000,8956.491898
764.331219,-2368.659014,-842.705048,7402.059420
764.331548,-148.041188,-306.438199,6217.729913
764.331877,1702.473667,536.266849,5847.626942
764.332206,2886.803174,1378.971896,6883.915261
764.332536,2368.659014,2528.115143,8660.409521
764.332865,296.082377,3907.087040,10510.924376
764.333194,-2220.617826,4366.744339,11991.336260
764.333523,-3849.070898,3677.258390,13175.665768
764.333853,-4885.359217,1225.752797,13101.645173
764.334182,-4959.379811,-919.314598,11917.315666
764.334511,-4145.153275,-2451.505594,10214.842000
764.334840,-2368.659014,-2451.505594,8734.430116
764.335169,-370.102971,-2757.943793,7846.182985
764.335499,1184.329507,-995.924147,7920.203579
764.335828,2590.720797,612.876398,7846.182985
764.336157,3552.988522,2221.676944,8216.285956
764.336486,3478.967927,3524.039291,8882.471304
764.336816,2368.659014,4060.306139,9992.780217
764.337145,370.102971,3677.258390,11177.109724
764.337474,-1924.535449,2834.553343,11991.336260
764.337803,-3552.988522,2221.676944,11991.336260
764.338132,-4293.194464,612.876398,11251.130318
764.338462,-3404.947333,-995.924147,9844.739029
764.338791,-2146.597232,-2911.162892,8438.347739
764.339120,-1184.329507,-2604.724693,7328.038826
764.339449,-222.061783,-1532.190996,7179.997637
764.339778,592.164754,229.828649,7698.141797
764.340108,148.041188,2145.067394,8290.306550
764.340437,-592.164754,2757.943793,9030.512492
764.340766,-1110.308913,3294.210641,9844.739029
764.341095,-1258.350101,2757.943793,10140.821405
764.341425,-1184.329507,1225.752797,10066.800811
764.341754,-1406.391290,0.000000,10140.821405
764.342083,-962.267725,-766.095498,9548.656652
764.342412,-666.185348,-1455.581446,9622.677246
764.342741,148.041188,-1072.533697,9622.677246
764.343071,296.082377,0.000000,9474.636058
764.343400,444.123565,842.705048,10362.883188
764.343729,-148.041188,2145.067394,10584.944971
764.344058,-1036.288319,3600.648841,10436.903782
764.344388,-1628.453072,3524.039291,9918.759623
764.344717,-1332.370696,2374.896044,8956.491898
764.345046,-962.267725,1225.752797,8068.244768
764.345375,-666.185348,766.095498,7476.080014
764.345704,-518.144159,-536.266849,6883.915261
764.346034,-148.041188,-995.924147,7550.100608
764.346363,-666.185348,-76.609550,9326.594869
764.346692,-1850.514855,1838.629195,10658.965565
764.347021,-3256.906145,2221.676944,11769.274478
764.347350,-3775.050304,2068.457845,11547.212695
764.347680,-4219.173869,2068.457845,11547.212695
764.348009,-4071.132681,1455.581446,10955.047942
764.348338,-3108.864956,383.047749,10140.821405
764.348667,-1924.535449,-689.485948,9178.553681
764.348997,-222.061783,-306.438199,8290.306550
764.349326,148.041188,-459.657299,7402.059420
764.349655,1258.350101,0.000000,7994.224174
764.349984,1776.494261,842.705048,8586.388927
764.350313,1628.453072,2298.286494,9104.533087
764.350643,1110.308913,3370.820191,9696.697840
764.350972,740.205942,3524.039291,9770.718434
764.351301,148.041188,3140.991542,9918.759623
764.351630,-888.247130,2604.724693,10288.862594
764.351960,-1776.494261,1991.848295,9992.780217
764.352289,-2146.597232,1149.143247,9474.636058
764.352618,-2220.617826,-229.828649,8734.430116
764.352947,-2960.823768,-1225.752797,8734.430116
764.353276,-3404.947333,-995.924147,9030.512492
764.353606,-3627.009116,-306.438199,9252.574275
764.353935,-3775.050304,76.609550,9252.574275
764.354264,-3330.926739,153.219100,9400.615463
764.354593,-2738.761985,689.485948,10066.800811
764.354922,-2220.617826,612.876398,10066.800811
764.355252,-1184.329507,536.266849,9992.780217
764.355581,-222.061783,766.095498,9474.636058
764.355910,962.267725,536.266849,9326.594869
764.356239,1850.514855,229.828649,9992.780217
764.356569,1332.370696,766.095498,10658.965565
764.356898,370.102971,1532.190996,11251.130318
764.357227,-296.082377,2145.067394,11251.130318
764.357556,-444.123565,1991.848295,10732.986159
764.357885,0.000000,1225.752797,9918.759623
764.358215,370.102971,995.924147,9030.512492
764.358544,1110.308913,153.219100,8142.265362
764.358873,1480.411884,0.000000,7624.121203
764.359202,1332.370696,306.438199,7772.162391
764.359532,814.226536,919.314598,8290.306550
764.359861,-296.082377,1685.410096,9548.656652
764.360190,-1628.453072,1532.190996,10362.883188
764.360519,-2960.823768,1762.019645,10658.965565
764.360848,-3923.091493,1302.362347,10658.965565
764.361178,-4367.215058,612.876398,10288.862594
764.361507,-3997.112087,0.000000,10066.800811
764.361836,-3182.885551,-766.095498,9622.677246
764.362165,-1924.535449,-536.266849,9104.533087
764.362494,-518.144159,-306.438199,8586.388927
764.362824,1184.329507,229.828649,8438.347739
764.363153,2294.638420,1072.533697,8882.471304
764.363482,2368.659014,2145.067394,9104.533087
764.363811,1850.514855,2987.772442,9622.677246
764.364141,1184.329507,3677.258390,10140.821405
764.364470,370.102971,3524.039291,10436.903782
764.364799,0.000000,2911.162892,10510.924376
764.365128,-1110.308913,1455.581446,9918.759623
764.365457,-1628.453072,995.924147,9400.615463
764.365787,-1850.514855,-153.219100,8660.409521
764.366116,-2072.576638,-689.485948,8660.409521
764.366445,-2368.659014,-383.047749,8956.491898
764.366774,-2516.700203,383.047749,9474.636058
764.367104,-3478.967927,766.095498,9400.615463
764.367433,-3701.029710,1072.533697,9474.636058
764.367762,-3330.926739,995.924147,9992.780217
764.368091,-2960.823768,919.314598,10214.842000
764.368421,-2738.761985,1149.143247,9622.677246
764.368750,-2294.638420,536.266849,9622.677246
764.369080,-1702.473667,0.000000,9474.636058
764.369409,-814.226536,-229.828649,9844.739029
764.369738,-592.164754,229.828649,10066.800811
764.370068,-296.082377,536.266849,10362.883188
764.370397,-148.041188,1608.800546,10362.883188
764.370726,0.000000,2221.676944,10362.883188
764.371056,74.020594,2374.896044,9770.718434
764.371385,888.247130,1915.238745,8956.491898
764.371715,1924.535449,995.924147,8142.265362
764.372044,2368.659014,1302.362347,7698.141797
764.372373,2516.700203,766.095498,7624.121203
764.372703,2220.617826,766.095498,8364.327145
764.373032,888.247130,766.095498,9252.574275
764.373361,-518.144159,1378.971896,10288.862594
764.373691,-2146.597232,1685.410096,10510.924376
764.374020,-3478.967927,1225.752797,11325.150913
764.374350,-4367.215058,536.266849,11029.068536
764.374679,-4663.297435,0.000000,10362.883188
764.375008,-3997.112087,-689.485948,9696.697840
764.375338,-2590.720797,-1149.143247,8956.491898
764.375667,-1406.391290,-612.876398,8438.347739
764.375996,-518.144159,-229.828649,8142.265362
764.376326,370.102971,229.828649,8290.306550
764.376655,1258.350101,766.095498,8364.327145
764.376985,1480.411884,1378.971896,9178.553681
764.377314,1258.350101,2451.505594,10214.842000
764.377643,518.144159,3294.210641,10584.944971
764.377973,0.000000,2911.162892,11029.068536
764.378302,-444.123565,2145.067394,10584.944971
764.378632,-592.164754,1378.971896,10214.842000
764.378961,-592.164754,536.266849,10214.842000
764.379290,-1110.308913,0.000000,9622.677246
764.379620,-1776.494261,0.000000,9474.636058
764.379949,-2368.659014,229.828649,9252.574275
764.380278,-2442.679609,306.438199,9326.594869
764.380608,-3108.864956,612.876398,9474.636058
764.380937,-3627.009116,536.266849,9104.533087
764.381267,-3923.091493,689.485948,9178.553681
764.381596,-3552.988522,76.609550,9326.594869
764.381925,-3404.947333,459.657299,8956.491898
764.382255,-2812.782580,0.000000,8586.388927
764.382584,-2294.638420,-153.219100,8956.491898
764.382913,-1258.350101,383.047749,9770.718434
764.383243,-962.267725,1225.752797,9918.759623
764.383572,-962.267725,1608.800546,10214.842000
764.383902,-1184.329507,2451.505594,10436.903782
764.384231,-740.205942,3370.820191,10214.842000
764.384560,-666.185348,2604.724693,9400.615463
764.384890,518.144159,1685.410096,8808.450710
764.385219,1776.494261,1225.752797,7846.182985
764.385548,2368.659014,766.095498,7476.080014
764.385878,2738.761985,766.095498,7698.141797
764.386207,2072.576638,1225.752797,8734.430116
764.386537,518.144159,1685.410096,9770.718434
764.386866,-888.247130,1532.190996,10362.883188
764.387195,-2220.617826,1532.190996,11029.068536
764.387525,-2664.741391,1608.800546,10658.965565
764.387854,-3182.885551,1072.533697,10288.862594
764.388183,-3034.844362,-383.047749,9770.718434
764.388513,-2664.741391,-1072.533697,9548.656652
764.388842,-1776.494261,-689.485948,9548.656652
764.389172,-1258.350101,0.000000,9474.636058
764.389501,0.000000,0.000000,9400.615463
764.389830,1110.308913,229.828649,8882.471304
764.390160,1554.432478,689.485948,8882.471304
764.390489,1554.432478,1608.800546,9474.636058
764.390818,1036.288319,2604.724693,10214.842000
764.391148,592.164754,3064.381992,10584.944971
764.391477,0.000000,2681.334243,10584.944971
764.391807,-740.205942,1608.800546,10066.800811
764.392136,-444.123565,689.485948,9622.677246
764.392465,0.000000,-229.828649,9030.512492
764.392795,-592.164754,-536.266849,8512.368333
764.393124,-444.123565,153.219100,8734.430116
764.393453,-1406.391290,76.609550,8956.491898
764.393783,-2072.576638,612.876398,9030.512492
764.394112,-2368.659014,1149.143247,9326.594869
764.394442,-2812.782580,1532.190996,9622.677246
764.394771,-2664.741391,1149.143247,9770.718434
764.395100,-2960.823768,766.095498,10140.821405
764.395430,-3256.906145,612.876398,10066.800811
764.395759,-2886.803174,-153.219100,9770.718434
764.396088,-2220.617826,-459.657299,9992.780217
764.396418,-1850.514855,0.000000,10362.883188
764.396747,-2368.659014,383.047749,10140.821405
764.397077,-2294.638420,612.876398,10584.944971
764.397406,-1924.535449,1072.533697,10066.800811
764.397735,-1702.473667,1532.190996,9474.636058
764.398065,-592.164754,1532.190996,8438.347739
764.398394,1258.350101,919.314598,8142.265362
764.398723,1998.556043,1149.143247,7402.059420
764.399053,2590.720797,1072.533697,7402.059420
764.399382,2664.741391,1149.143247,8364.327145
764.399712,1924.535449,2145.067394,9622.677246
764.400041,444.123565,2451.505594,10362.883188
764.400370,-1480.411884,2221.676944,11399.171507
764.400700,-2590.720797,1149.143247,11843.295072
764.401029,-3849.070898,995.924147,11325.150913
764.401358,-4293.194464,536.266849,10362.883188
764.401688,-4071.132681,-229.828649,9400.615463
764.402017,-2664.741391,-1302.362347,9104.533087
764.402347,-1924.535449,-842.705048,8512.368333
764.402676,-1110.308913,76.609550,7846.182985
764.403005,-444.123565,612.876398,7772.162391
764.403335,518.144159,842.705048,7994.224174
764.403664,740.205942,1608.800546,8586.388927
764.403993,148.041188,2298.286494,9474.636058
764.404323,0.000000,2911.162892,10214.842000
764.404652,-222.061783,2528.115143,10510.924376
764.404982,-370.102971,1838.629195,10658.965565
764.405311,-666.185348,1915.238745,10362.883188
764.405640,-592.164754,842.705048,9622.677246
764.405970,0.000000,0.000000,9696.697840
764.406299,-222.061783,0.000000,9474.636058
764.406628,-592.164754,1072.533697,9696.697840
764.406958,-888.247130,1149.143247,9252.574275
764.407287,-1332.370696,1072.533697,9252.574275
764.407617,-2294.638420,1302.362347,9104.533087
764.407946,-2442.679609,1685.410096,9326.594869
764.408275,-2294.638420,689.485948,9474.636058
764.408605,-2812.782580,-306.438199,9030.512492
764.408934,-2590.720797,306.438199,8512.368333
764.409263,-1998.556043,-229.828649,9252.574275
764.409593,-1850.514855,-306.438199,9622.677246
764.409922,-1776.494261,383.047749,10436.903782
764.410252,-2220.617826,1225.752797,10807.006753
764.410581,-2220.617826,2374.896044,10732.986159
764.410910,-1998.556043,2298.286494,10362.883188
764.411240,-1184.329507,1991.848295,9548.656652
764.411569,0.000000,1302.362347,8808.450710
764.411898,1036.288319,919.314598,7994.224174
764.412228,1850.514855,1072.533697,7254.018232
764.412557,2294.638420,842.705048,7624.121203
764.412887,1850.514855,689.485948,8512.368333
764.413216,592.164754,1532.190996,9844.739029
764.413545,-888.247130,2145.067394,10732.986159
764.413875,-2220.617826,1762.019645,11399.171507
764.414204,-2886.803174,1455.581446,11177.109724
764.414533,-4071.132681,459.657299,10288.862594
764.414863,-3775.050304,-229.828649,9844.739029
764.415192,-3034.844362,-1225.752797,9548.656652
764.415522,-2220.617826,-1149.143247,9030.512492
764.415851,-1406.391290,-153.219100,8364.327145
764.416180,-444.123565,76.609550,8364.327145
764.416510,518.144159,229.828649,8660.409521
764.416839,666.185348,995.924147,8882.471304
764.417168,370.102971,1991.848295,9474.636058
764.417498,0.000000,2221.676944,9918.759623
764.417827,-740.205942,2757.943793,10140.821405
764.418157,-962.267725,2145.067394,10732.986159
764.418486,-888.247130,1225.752797,10510.924376
764.418815,-666.185348,459.657299,9918.759623
764.419145,-592.164754,0.000000,9178.553681
764.419474,-444.123565,-383.047749,8882.471304
764.419803,-370.102971,0.000000,8734.430116
764.420133,-518.144159,306.438199,8808.450710
764.420462,-962.267725,1225.752797,9030.512492
764.420792,-1480.411884,1685.410096,9030.512492
764.421121,-1554.432478,1762.019645,9252.574275
764.421450,-1850.514855,1455.581446,9622.677246
764.421780,-2220.617826,1072.533697,9992.780217
764.422109,-2368.659014,842.705048,9844.739029
764.422438,-2294.638420,153.219100,9696.697840
764.422768,-2072.576638,0.000000,9474.636058
764.423097,-1480.411884,0.000000,9918.759623
764.423427,-1924.535449,383.047749,10214.842000
764.423756,-2294.638420,1302.362347,10436.903782
764.424085,-2368.659014,1991.848295,10288.862594
764.424415,-2072.576638,2451.505594,9622.677246
764.424744,-962.267725,1762.019645,9030.512492
764.425073,370.102971,1149.143247,7920.203579
764.425403,1406.391290,995.924147,7476.080014
764.425732,2220.617826,689.485948,7105.977043
764.426062,2072.576638,536.266849,7994.224174
764.426391,1406.391290,689.485948,8956.491898
764.426720,-518.144159,2298.286494,10807.006753
764.427050,-1850.514855,2451.505594,11621.233289
764.427379,-2738.761985,1762.019645,11843.295072
764.427708,-3256.906145,1149.143247,11695.253884
764.428038,-3552.988522,536.266849,10732.986159
764.428367,-3034.844362,-766.095498,9770.718434
764.428697,-1924.535449,-1072.533697,9252.574275
764.429026,-1258.350101,-766.095498,8734.430116
764.429355,-592.164754,0.000000,8438.347739
764.429685,0.000000,536.266849,8290.306550
764.430014,518.144159,459.657299,8290.306550
764.430343,592.164754,1378.971896,8808.450710
764.430673,222.061783,1991.848295,9622.677246
764.431002,-444.123565,2451.505594,9992.780217
764.431332,-814.226536,2451.505594,10288.862594
764.431661,-1184.329507,1991.848295,10584.944971
764.431990,-1332.370696,1378.971896,10436.903782
764.432320,-1110.308913,995.924147,9548.656652
764.432649,-962.267725,153.219100,8956.491898
764.432978,-666.185348,0.000000,8808.450710
764.433308,-814.226536,306.438199,9030.512492
764.433637,-962.267725,1072.533697,9474.636058
764.433967,-2220.617826,1149.143247,9400.615463
764.434296,-2886.803174,1532.190996,9622.677246
764.434625,-2960.823768,919.314598,9696.697840
764.434955,-2590.720797,229.828649,9918.759623
764.435284,-2294.638420,306.438199,9622.677246
764.435613,-1702.473667,76.609550,8956.491898
764.435943,-740.205942,-383.047749,9104.533087
764.436272,-666.185348,0.000000,9548.656652
764.436602,-740.205942,689.485948,9844.739029
764.436931,-962.267725,766.095498,11103.089130
764.437260,-1184.329507,2221.676944,11177.109724
764.437590,-1776.494261,2681.334243,10955.047942
764.437919,-962.267725,2298.286494,10066.800811
764.438249,0.000000,1225.752797,9252.574275
764.438578,1110.308913,842.705048,8290.306550
764.438907,2072.576638,766.095498,7328.038826
764.439237,2072.576638,229.828649,7179.997637
764.439566,1924.535449,766.095498,8216.285956
764.439895,592.164754,1532.190996,9400.615463
764.440225,-740.205942,1838.629195,10510.924376
764.440554,-2664.741391,2145.067394,10881.027347
764.440884,-3108.864956,1762.019645,11103.089130
764.441213,-4071.132681,689.485948,10362.883188
764.441542,-3849.070898,-229.828649,10140.821405
764.441872,-3034.844362,-1149.143247,9474.636058
764.442201,-2072.576638,-995.924147,8734.430116
764.442530,-888.247130,-919.314598,8290.306550
764.442860,148.041188,0.000000,8512.368333
764.443189,1036.288319,383.047749,8808.450710
764.443519,1184.329507,1608.800546,9326.594869
764.443848,888.247130,3294.210641,9622.677246
764.444177,370.102971,3524.039291,10140.821405
764.444507,0.000000,3140.991542,10584.944971
764.444836,-518.144159,2451.505594,10732.986159
764.445165,-962.267725,1608.800546,10510.924376
764.445495,-888.247130,1149.143247,9548.656652
764.445824,-1110.308913,306.438199,8364.327145
764.446154,-1036.288319,-306.438199,8364.327145
764.446483,-1110.308913,153.219100,8216.285956
764.446812,-1184.329507,536.266849,8512.368333
764.447142,-1702.473667,1378.971896,8808.450710
764.447471,-2442.679609,1762.019645,9400.615463
764.447800,-2812.782580,2068.457845,10140.821405
764.448130,-3256.906145,1532.190996,10362.883188
764.448459,-3330.926739,1149.143247,10140.821405
764.448789,-3182.885551,536.266849,9844.739029
764.449118,-2368.659014,-459.657299,9178.553681
764.449447,-1332.370696,-1072.533697,9474.636058
764.449777,-1332.370696,-459.657299,9474.636058
764.450106,-1480.411884,76.609550,9992.780217
764.450435,-1554.432478,995.924147,10510.924376
764.450765,-1628.453072,2068.457845,10584.944971
764.451094,-1036.288319,2681.334243,9918.759623
764.451424,0.000000,2145.067394,9252.574275
764.451753,1554.432478,1225.752797,8216.285956
764.452082,2220.617826,766.095498,7179.997637
764.452412,2590.720797,919.314598,7179.997637
764.452741,2442.679609,459.657299,8290.306550
764.453070,1480.411884,1072.533697,9400.615463
764.453400,-222.061783,1762.019645,10807.006753
764.453729,-1998.556043,1838.629195,11621.233289
764.454059,-3108.864956,1225.752797,11991.336260
764.454388,-4071.132681,229.828649,11621.233289
764.454717,-4515.256246,612.876398,10658.965565
764.455047,-3923.091493,-919.314598,9770.718434
764.455376,-2960.823768,-1455.581446,9178.553681
764.455705,-2072.576638,-1149.143247,8438.347739
764.456035,-1184.329507,-612.876398,8068.244768
764.456364,0.000000,-459.657299,7698.141797
764.456694,814.226536,383.047749,8364.327145
764.457023,1258.350101,1225.752797,9104.533087
764.457352,962.267725,2298.286494,9918.759623
764.457682,592.164754,3064.381992,10510.924376
764.458011,222.061783,3294.210641,10584.944971
764.458340,-370.102971,2604.724693,10584.944971
764.458670,-296.082377,1991.848295,10362.883188
764.458999,-740.205942,995.924147,9992.780217
764.459329,-370.102971,0.000000,9400.615463
764.459658,-592.164754,0.000000,9104.533087
764.459987,-1628.453072,995.924147,8882.471304
764.460317,-2294.638420,842.705048,9252.574275
764.460646,-2664.741391,612.876398,9104.533087
764.460975,-3108.864956,1225.752797,8956.491898
764.461305,-3182.885551,1532.190996,8734.430116
764.461634,-2590.720797,1149.143247,9622.677246
764.461964,-2960.823768,536.266849,9326.594869
764.462293,-2738.761985,383.047749,9104.533087
764.462622,-2072.576638,76.609550,9400.615463
764.462952,-1184.329507,0.000000,9622.677246
764.463281,-962.267725,766.095498,9844.739029
764.463610,-1332.370696,1532.190996,10732.986159
764.463940,-1628.453072,2451.505594,10955.047942
764.464269,-1258.350101,2604.724693,10658.965565
764.464599,-518.144159,2604.724693,9770.718434
764.464928,518.144159,1838.629195,8956.491898
764.465257,1924.535449,1302.362347,7698.141797
764.465587,2664.741391,995.924147,7254.018232
764.465916,2812.782580,842.705048,7550.100608
764.466245,2368.659014,1225.752797,8734.430116
764.466575,888.247130,1685.410096,9918.759623
764.466904,-888.247130,2145.067394,10658.965565
764.467234,-2368.659014,1608.800546,11325.150913
764.467563,-3478.967927,1072.533697,11177.109724
764.467892,-3849.070898,689.485948,10066.800811
764.468222,-3404.947333,-383.047749,9770.718434
764.468551,-3034.844362,-1455.581446,9030.512492
764.468880,-2072.576638,-919.314598,8660.409521
764.469210,-962.267725,-536.266849,8734.430116
764.469539,-370.102971,459.657299,8660.409521
764.469868,444.123565,995.924147,8586.388927
764.470197,592.164754,1532.190996,8956.491898
764.470527,1110.308913,1685.410096,9474.636058
764.470856,666.185348,2681.334243,10436.903782
764.471185,0.000000,3064.381992,10732.986159
764.471514,-666.185348,2528.115143,10732.986159
764.471843,-814.226536,1378.971896,10066.800811
764.472172,-666.185348,383.047749,9548.656652
764.472501,-370.102971,0.000000,9104.533087
764.472831,-444.123565,0.000000,8808.450710
764.473160,-740.205942,229.828649,8808.450710
764.473489,-1184.329507,766.095498,8660.409521
764.473818,-1406.391290,1225.752797,8956.491898
764.474147,-1628.453072,1378.971896,9326.594869
764.474476,-2368.659014,1685.410096,9400.615463
764.474805,-2664.741391,1149.143247,9696.697840
764.475135,-2886.803174,459.657299,10066.800811
764.475464,-2664.741391,612.876398,10066.800811
764.475793,-2960.823768,383.047749,9474.636058
764.476122,-2368.659014,0.000000,9918.759623
764.476451,-2072.576638,76.609550,9992.780217
764.476780,-1998.556043,842.705048,10288.862594
764.477109,-2146.597232,1225.752797,10214.842000
764.477439,-2072.576638,1455.581446,10288.862594
764.477768,-1406.391290,1915.238745,9696.697840
764.478097,-444.123565,1378.971896,8882.471304
764.478426,666.185348,766.095498,8142.265362
764.478755,1554.432478,842.705048,7402.059420
764.479084,2664.741391,766.095498,7179.997637
764.479413,2590.720797,1149.143247,8068.244768
764.479743,1998.556043,1685.410096,9548.656652
764.480072,518.144159,2145.067394,10584.944971
764.480401,-1258.350101,2068.457845,11843.295072
764.480730,-2516.700203,1991.848295,11547.212695
764.481059,-3404.947333,1685.410096,10881.027347
764.481388,-3775.050304,0.000000,10881.027347
764.481717,-3701.029710,-766.095498,10436.903782
764.482047,-3330.926739,-919.314598,9178.553681
764.482376,-2220.617826,-1072.533697,8734.430116
764.482705,-1110.308913,-1072.533697,8438.347739
764.483034,-148.041188,0.000000,7846.182985
764.483363,444.123565,153.219100,7772.162391
764.483692,666.185348,612.876398,8660.409521
764.484021,296.082377,2604.724693,9696.697840
764.484351,0.000000,3447.429741,10214.842000
764.484680,-666.185348,2451.505594,10436.903782
764.485009,-592.164754,2145.067394,10436.903782
764.485338,-666.185348,1225.752797,9844.739029
764.485667,0.000000,76.609550,9622.677246
764.485996,148.041188,0.000000,9474.636058
764.486325,-222.061783,306.438199,9474.636058
764.486654,-888.247130,919.314598,9326.594869
764.486984,-1332.370696,1149.143247,9030.512492
764.487313,-1554.432478,1532.190996,8882.471304
764.487642,-1924.535449,1532.190996,9178.553681
764.487971,-2146.597232,766.095498,9622.677246
764.488300,-2590.720797,689.485948,9622.677246
764.488629,-2738.761985,459.657299,9400.615463
764.488958,-2664.741391,-153.219100,8882.471304
764.489288,-2368.659014,-459.657299,9252.574275
764.489617,-1924.535449,-766.095498,9844.739029
764.489946,-2146.597232,536.266849,9992.780217
764.490275,-2220.617826,995.924147,10510.924376
764.490604,-2368.659014,1455.581446,10732.986159
764.490933,-1998.556043,2068.457845,10584.944971
764.491262,-1406.391290,1762.019645,9918.759623
764.491592,0.000000,1072.533697,9178.553681
764.491921,1480.411884,1378.971896,8586.388927
764.492250,2368.659014,1072.533697,7254.018232
764.492579,3108.864956,306.438199,7328.038826
764.492908,2886.803174,612.876398,8290.306550
764.493237,2072.576638,2145.067394,8882.471304
764.493566,444.123565,2451.505594,10584.944971
764.493896,-1480.411884,2145.067394,10881.027347
764.494225,-2738.761985,1762.019645,11029.068536
764.494554,-3330.926739,536.266849,11251.130318
764.494883,-3552.988522,-306.438199,10584.944971
764.495212,-3478.967927,-383.047749,9252.574275
764.495541,-2442.679609,-919.314598,8956.491898
764.495870,-1628.453072,-1149.143247,8364.327145
764.496200,-888.247130,-536.266849,8290.306550
764.496529,0.000000,-229.828649,8142.265362
764.496858,74.020594,766.095498,8882.471304
764.497187,74.020594,1915.238745,9474.636058
764.497516,-222.061783,2834.553343,10436.903782
764.497845,-666.185348,2604.724693,10955.047942
764.498174,-814.226536,2298.286494,10732.986159
764.498504,-518.144159,1915.238745,10362.883188
764.498833,-222.061783,536.266849,10066.800811
764.499162,-222.061783,0.000000,9548.656652
764.499491,-148.041188,-153.219100,9400.615463
764.499820,-444.123565,76.609550,8882.471304
764.500149,-592.164754,1149.143247,8808.450710
764.500478,-740.205942,1149.143247,9104.533087
764.500808,-1554.432478,1685.410096,9326.594869
764.501137,-2220.617826,1838.629195,9696.697840
764.501466,-2442.679609,1762.019645,9992.780217
764.501795,-2368.659014,1378.971896,10140.821405
764.502124,-2516.700203,919.314598,9400.615463
764.502453,-2516.700203,0.000000,9326.594869
764.502782,-2072.576638,-766.095498,9326.594869
764.503112,-1924.535449,-153.219100,9474.636058
764.503441,-2146.597232,459.657299,9400.615463
764.503770,-2220.617826,766.095498,10658.965565
764.504099,-2590.720797,1378.971896,10214.842000
764.504428,-2368.659014,1915.238745,9696.697840
764.504757,-518.144159,1378.971896,9252.574275
764.505086,814.226536,1072.533697,8364.327145
764.505416,1998.556043,1608.800546,7328.038826
764.505745,2738.761985,842.705048,6957.935855
764.506074,2812.782580,689.485948,7624.121203
764.506403,2368.659014,1762.019645,9104.533087
764.506732,814.226536,2451.505594,10436.903782
764.507061,-740.205942,2528.115143,11177.109724
764.507390,-2368.659014,1838.629195,11251.130318
764.507719,-3256.906145,995.924147,11621.233289
764.508049,-3923.091493,0.000000,11103.089130
764.508378,-3997.112087,-383.047749,10288.862594
764.508707,-3182.885551,-995.924147,9252.574275
764.509036,-1776.494261,-1455.581446,8364.327145
764.509365,-888.247130,-1072.533697,8068.244768
764.509694,-296.082377,-229.828649,8216.285956
764.510023,296.082377,229.828649,8364.327145
764.510353,148.041188,1378.971896,9178.553681
764.510682,0.000000,2068.457845,9844.739029
764.511011,-666.185348,2528.115143,10436.903782
764.511340,-296.082377,2221.676944,10658.965565
764.511669,-740.205942,1838.629195,10436.903782
764.511998,-888.247130,1225.752797,10510.924376
764.512327,-814.226536,766.095498,9844.739029
764.512657,-444.123565,229.828649,9326.594869
764.512986,-518.144159,-306.438199,8808.450710
764.513315,-666.185348,536.266849,9030.512492
764.513644,-1406.391290,1072.533697,9252.574275
764.513973,-1998.556043,1072.533697,9326.594869
764.514302,-2812.782580,1838.629195,9178.553681
764.514631,-3404.947333,1838.629195,9474.636058
764.514961,-3182.885551,995.924147,9770.718434
764.515290,-2738.761985,76.609550,9622.677246
764.515619,-2590.720797,-459.657299,8882.471304
764.515948,-2294.638420,-1072.533697,8438.347739
764.516277,-1628.453072,-919.314598,9326.594869
764.516606,-1332.370696,0.000000,9844.739029
764.516935,-1554.432478,842.705048,10436.903782
764.517265,-1702.473667,1991.848295,10881.027347
764.517594,-1406.391290,3064.381992,10584.944971
764.517923,-444.123565,2757.943793,10066.800811
764.518252,592.164754,1991.848295,8956.491898
764.518581,1628.453072,1608.800546,7994.224174
764.518910,2442.679609,919.314598,7105.977043
764.519239,3108.864956,459.657299,7254.018232
764.519569,2442.679609,459.657299,8142.265362
764.519898,814.226536,1838.629195,9770.718434
764.520227,-888.247130,2068.457845,10881.027347
764.520556,-2368.659014,1915.238745,11621.233289
764.520885,-3108.864956,1762.019645,11695.253884
764.521214,-3478.967927,459.657299,10584.944971
764.521543,-3478.967927,0.000000,9770.718434
764.521873,-2664.741391,-919.314598,9030.512492
764.522202,-1776.494261,-842.705048,8438.347739
764.522531,-888.247130,-536.266849,8216.285956
764.522860,0.000000,0.000000,8512.368333
764.523189,592.164754,612.876398,8586.388927
764.523518,666.185348,1302.362347,9252.574275
764.523847,518.144159,2374.896044,9844.739029
764.524177,0.000000,2757.943793,10214.842000
764.524506,-370.102971,2528.115143,10288.862594
764.524835,-740.205942,2451.505594,11029.068536
764.525164,-1184.329507,1455.581446,10510.924376
764.525493,-962.267725,766.095498,10066.800811
764.525822,-444.123565,0.000000,9178.553681
764.526151,-518.144159,-306.438199,8364.327145
764.526480,-592.164754,766.095498,8290.306550
764.526810,-666.185348,766.095498,8142.265362
764.527139,-1110.308913,995.924147,8956.491898
764.527468,-2294.638420,1838.629195,9252.574275
764.527797,-2886.803174,2298.286494,9622.677246
764.528126,-2886.803174,1378.971896,10066.800811
764.528455,-3330.926739,1072.533697,10362.883188
764.528784,-3256.906145,306.438199,9770.718434
764.529114,-2590.720797,-766.095498,9622.677246
764.529443,-2072.576638,-689.485948,9622.677246
764.529772,-1776.494261,0.000000,9844.739029
764.530101,-1628.453072,536.266849,10362.883188
764.530430,-1628.453072,1149.143247,10510.924376
764.530759,-1776.494261,1991.848295,10214.842000
764.531088,-1258.350101,2374.896044,9548.656652
764.531418,0.000000,1991.848295,9178.553681
764.531747,1258.350101,1762.019645,7920.203579
764.532076,2442.679609,612.876398,7254.018232
764.532405,2590.720797,536.266849,7402.059420
764.532734,2516.700203,919.314598,8142.265362
764.533063,1776.494261,1378.971896,9474.636058
764.533392,222.061783,2145.067394,10362.883188
764.533722,-1480.411884,2374.896044,11399.171507
764.534051,-2590.720797,1532.190996,11843.295072
764.534380,-3404.947333,842.705048,11399.171507
764.534709,-3997.112087,229.828649,10807.006753
764.535038,-3701.029710,-153.219100,9844.739029
764.535367,-3108.864956,-689.485948,8660.409521
764.535696,-1924.535449,-1149.143247,8734.430116
764.536026,-814.226536,-536.266849,8364.327145
764.536355,-296.082377,229.828649,8290.306550
764.536684,148.041188,383.047749,8290.306550
764.537013,518.144159,1225.752797,9030.512492
764.537342,148.041188,1991.848295,9992.780217
764.537671,-222.061783,2757.943793,10362.883188
764.538000,-296.082377,2451.505594,10436.903782
764.538330,-666.185348,2068.457845,10362.883188
764.538659,-1036.288319,1302.362347,9992.780217
764.538988,-518.144159,459.657299,9252.574275
764.539317,-296.082377,-383.047749,9474.636058
764.539646,-444.123565,0.000000,9474.636058
764.539975,-1480.411884,1149.143247,9252.574275
764.540304,-1850.514855,1378.971896,8882.471304
764.540634,-2146.597232,1762.019645,9030.512492
764.540963,-2738.761985,1532.190996,9326.594869
764.541292,-3034.844362,1608.800546,9548.656652
764.541621,-3256.906145,842.705048,9400.615463
764.541950,-3182.885551,536.266849,9104.533087
764.542279,-2664.741391,383.047749,8586.388927
764.542608,-2368.659014,-536.266849,8660.409521
764.542938,-1332.370696,-689.485948,9622.677246
764.543267,-1258.350101,383.047749,10362.883188
764.543596,-1702.473667,1378.971896,10732.986159
764.543925,-2072.576638,1762.019645,10732.986159
764.544254,-1776.494261,2145.067394,10732.986159
764.544583,-962.267725,2221.676944,9918.759623
764.544912,666.185348,1532.190996,9178.553681
764.545241,1924.535449,766.095498,8216.285956
764.545571,2738.761985,306.438199,7476.080014
764.545900,2738.761985,842.705048,7254.018232
764.546229,2886.803174,1149.143247,8364.327145
764.546558,1850.514855,2145.067394,9400.615463
764.546887,148.041188,1991.848295,10066.800811
764.547216,-1258.350101,1685.410096,11103.089130
764.547545,-2664.741391,1378.971896,11325.150913
764.547875,-3552.988522,1225.752797,11029.068536
764.548204,-4071.132681,153.219100,10288.862594
764.548533,-3404.947333,-689.485948,9622.677246
764.548862,-2368.659014,-995.924147,9252.574275
764.549191,-1184.329507,-1225.752797,8808.450710
764.549520,-222.061783,-229.828649,8364.327145
764.549849,370.102971,229.828649,8586.388927
764.550179,666.185348,1072.533697,8956.491898
764.550508,444.123565,1762.019645,9252.574275
764.550837,296.082377,2528.115143,10214.842000
764.551166,0.000000,2834.553343,10510.924376
764.551495,-444.123565,2604.724693,10732.986159
764.551824,-814.226536,1838.629195,10140.821405
764.552153,-962.267725,612.876398,9622.677246
764.552483,-666.185348,-459.657299,9252.574275
764.552812,-296.082377,-612.876398,9104.533087
764.553141,-518.144159,0.000000,9252.574275
764.553470,-888.247130,766.095498,9474.636058
764.553799,-1480.411884,995.924147,9400.615463
764.554128,-2072.576638,1762.019645,9622.677246
764.554457,-2294.638420,2528.115143,9622.677246
764.554787,-2442.679609,1149.143247,9622.677246
764.555116,-2442.679609,919.314598,9622.677246
764.555445,-2738.761985,459.657299,9400.615463
764.555774,-2812.782580,0.000000,9400.615463
764.556103,-2442.679609,76.609550,9474.636058
764.556432,-2072.576638,-229.828649,9918.759623
764.556761,-2368.659014,766.095498,10288.862594
764.557091,-2442.679609,1072.533697,10807.006753
764.557420,-2220.617826,1378.971896,10732.986159
764.557749,-2146.597232,2068.457845,9548.656652
764.558078,-666.185348,1455.581446,8438.347739
764.558407,814.226536,766.095498,8216.285956
764.558736,1628.453072,842.705048,7624.121203
764.559065,2294.638420,1072.533697,7254.018232
764.559395,2516.700203,1225.752797,7772.162391
764.559724,2072.576638,1762.019645,8660.409521
764.560053,1184.329507,2298.286494,10140.821405
764.560382,-296.082377,2068.457845,10881.027347
764.560711,-1850.514855,1685.410096,11325.150913
764.561040,-2886.803174,1608.800546,11177.109724
764.561369,-3552.988522,1455.581446,10658.965565
764.561699,-3849.070898,0.000000,9622.677246
764.562028,-2738.761985,-459.657299,9178.553681
764.562357,-1776.494261,-995.924147,8660.409521
764.562686,-1184.329507,-689.485948,8290.306550
764.563015,-518.144159,0.000000,8216.285956
764.563344,0.000000,536.266849,8512.368333
764.563673,0.000000,919.314598,9030.512492
764.564003,-370.102971,2068.457845,9844.739029
764.564332,-444.123565,2451.505594,10436.903782
764.564661,-592.164754,2221.676944,10584.944971
764.564990,-740.205942,1762.019645,10288.862594
764.565319,-444.123565,1072.533697,10362.883188
764.565648,-444.123565,459.657299,9696.697840
764.565977,0.000000,0.000000,9400.615463
764.566306,0.000000,-229.828649,9400.615463
764.566636,-444.123565,459.657299,9992.780217
764.566965,-1110.308913,1378.971896,10214.842000
764.567294,-1554.432478,1455.581446,9844.739029
764.567623,-2220.617826,1991.848295,9474.636058
764.567952,-2368.659014,1685.410096,9548.656652
764.568281,-2294.638420,842.705048,9548.656652
764.568610,-2072.576638,459.657299,9252.574275
764.568940,-2072.576638,0.000000,8808.450710
764.569269,-2146.597232,-153.219100,8660.409521
764.569598,-1850.514855,0.000000,9400.615463
764.569927,-1850.514855,306.438199,10362.883188
764.570256,-2146.597232,1608.800546,10362.883188
764.570585,-2516.700203,1685.410096,10658.965565
764.570914,-2516.700203,2221.676944,10140.821405
764.571244,-1628.453072,1915.238745,9474.636058
764.571573,-370.102971,1072.533697,8956.491898
764.571902,1110.308913,919.314598,8068.244768
764.572231,1628.453072,766.095498,7254.018232
764.572560,2368.659014,536.266849,7476.080014
764.572890,2368.659014,919.314598,8438.347739
764.573219,1332.370696,1762.019645,9474.636058
764.573548,74.020594,2451.505594,10732.986159
764.573877,-1184.329507,2528.115143,10732.986159
764.574206,-2072.576638,2451.505594,11029.068536
764.574536,-2664.741391,995.924147,10510.924376
764.574865,-2886.803174,76.609550,10066.800811
764.575194,-2664.741391,-612.876398,9696.697840
764.575523,-1850.514855,-766.095498,8734.430116
764.575852,-1332.370696,76.609550,8512.368333
764.576181,-518.144159,0.000000,8586.388927
764.576511,74.020594,0.000000,8586.388927
764.576840,296.082377,306.438199,8808.450710
764.577169,0.000000,1149.143247,9326.594869
764.577498,-518.144159,2528.115143,9548.656652
764.577827,-1036.288319,2451.505594,10510.924376
764.578157,-1628.453072,1991.848295,10584.944971
764.578486,-1776.494261,1302.362347,10140.821405
764.578815,-962.267725,383.047749,10140.821405
764.579144,-222.061783,0.000000,9548.656652
764.579473,-444.123565,-766.095498,9178.553681
764.579803,-518.144159,-383.047749,9178.553681
764.580132,-592.164754,153.219100,9474.636058
764.580461,-814.226536,1072.533697,9844.739029
764.580790,-1184.329507,1915.238745,9844.739029
764.581119,-2220.617826,1838.629195,9548.656652
764.581449,-1628.453072,1302.362347,9622.677246
764.581778,-1702.473667,612.876398,9622.677246
764.582107,-1702.473667,76.609550,9474.636058
764.582436,-1924.535449,-153.219100,9178.553681
764.582765,-1702.473667,-153.219100,9326.594869
764.583095,-1850.514855,-536.266849,10066.800811
764.583424,-2368.659014,612.876398,10807.006753
764.583753,-2664.741391,1302.362347,10881.027347
764.584082,-2664.741391,1685.410096,10658.965565
764.584411,-1924.535449,1532.190996,9770.718434
764.584741,-1554.432478,1149.143247,8586.388927
764.585070,222.061783,306.438199,8364.327145
764.585399,1036.288319,612.876398,7698.141797
764.585728,1480.411884,1225.752797,7328.038826
764.586057,1480.411884,1455.581446,7328.038826
764.586387,1406.391290,995.924147,8586.388927
764.586716,370.102971,2298.286494,9622.677246
764.587045,-1110.308913,2451.505594,10436.903782
764.587374,-2368.659014,2145.067394,11029.068536
764.587703,-3182.885551,1762.019645,11177.109724
764.588033,-3775.050304,1149.143247,10658.965565
764.588362,-3923.091493,383.047749,9622.677246
764.588691,-2738.761985,-536.266849,9104.533087
764.589020,-1110.308913,-689.485948,8882.471304
764.589349,-296.082377,-306.438199,8364.327145
764.589679,74.020594,0.000000,8068.244768
764.590008,592.164754,689.485948,8438.347739
764.590337,592.164754,1608.800546,9178.553681
764.590666,0.000000,2681.334243,9918.759623
764.590995,-518.144159,2834.553343,10510.924376
764.591325,-444.123565,2298.286494,10214.842000
764.591654,-814.226536,1838.629195,9918.759623
764.591983,-888.247130,919.314598,9992.780217
764.592312,-1036.288319,383.047749,9696.697840
764.592641,-666.185348,0.000000,9474.636058
764.592971,-814.226536,-153.219100,9252.574275
764.593300,-1406.391290,919.314598,9400.615463
764.593629,-1480.411884,1302.362347,9548.656652
764.593958,-1702.473667,1225.752797,9548.656652
764.594287,-1998.556043,1532.190996,9474.636058
764.594616,-2368.659014,1532.190996,9474.636058
764.594946,-2146.597232,1302.362347,9474.636058
764.595275,-2072.576638,76.609550,9474.636058
764.595604,-1776.494261,0.000000,8956.491898
764.595933,-1480.411884,-229.828649,9030.512492
764.596262,-1184.329507,-306.438199,9622.677246
764.596592,-1184.329507,0.000000,10214.842000
764.596921,-1554.432478,995.924147,10732.986159
764.597250,-2146.597232,1455.581446,10955.047942
764.597579,-1998.556043,1991.848295,10881.027347
764.597908,-1628.453072,1838.629195,9992.780217
764.598238,-370.102971,919.314598,9252.574275
764.598567,888.247130,229.828649,8142.265362
764.598896,1702.473667,153.219100,7179.997637
764.599225,1998.556043,153.219100,7179.997637
764.599554,2146.597232,612.876398,8142.265362
764.599884,1406.391290,1532.190996,9326.594869
764.600213,74.020594,1378.971896,10140.821405
764.600542,-1776.494261,2068.457845,11103.089130
764.600871,-2664.741391,1685.410096,11399.171507
764.601200,-3256.906145,1455.581446,11251.130318
764.601530,-3552.988522,459.657299,10288.862594
764.601859,-2960.823768,-612.876398,9474.636058
764.602188,-2220.617826,-766.095498,8586.388927
764.602517,-888.247130,-842.705048,8438.347739
764.602846,-148.041188,0.000000,8512.368333
764.603176,296.082377,459.657299,8586.388927
764.603505,222.061783,919.314598,8734.430116
764.603834,222.061783,2374.896044,9474.636058
764.604163,0.000000,2528.115143,10288.862594
764.604492,-444.123565,2528.115143,10510.924376
764.604822,-814.226536,1762.019645,10362.883188
764.605151,-1184.329507,1455.581446,10214.842000
764.605480,-1258.350101,995.924147,9622.677246
764.605809,-444.123565,229.828649,9622.677246
764.606138,-222.061783,0.000000,9178.553681
764.606468,-592.164754,76.609550,9178.553681
764.606797,-888.247130,689.485948,9326.594869
764.607126,-962.267725,1915.238745,9326.594869
764.607455,-1998.556043,2068.457845,9400.615463
764.607784,-2294.638420,1991.848295,9474.636058
764.608114,-2220.617826,1685.410096,9474.636058
764.608443,-2368.659014,1225.752797,9622.677246
764.608772,-2590.720797,459.657299,9474.636058
764.609101,-2368.659014,0.000000,8808.450710
764.609430,-2146.597232,-229.828649,9400.615463
764.609760,-1776.494261,0.000000,9770.718434
764.610089,-1850.514855,383.047749,10288.862594
764.610418,-2146.597232,1149.143247,10658.965565
764.610747,-1702.473667,1991.848295,10214.842000
764.611076,-1850.514855,2145.067394,9696.697840
764.611406,-518.144159,1532.190996,9178.553681
764.611735,592.164754,612.876398,8438.347739
764.612064,1776.494261,766.095498,7476.080014
764.612393,2368.659014,1072.533697,6957.935855
764.612722,2664.741391,689.485948,7846.182985
764.613052,1998.556043,1302.362347,8956.491898
764.613381,814.226536,1762.019645,10584.944971
764.613710,-888.247130,2068.457845,11325.150913
764.614039,-2072.576638,1685.410096,11251.130318
764.614368,-2738.761985,1762.019645,11399.171507
764.614697,-3552.988522,229.828649,10955.047942
764.615027,-3478.967927,-536.266849,10140.821405
764.615356,-2664.741391,-1149.143247,9104.533087
764.615685,-1850.514855,-1149.143247,8512.368333
764.616014,-814.226536,-1072.533697,8216.285956
764.616343,-666.185348,-153.219100,8512.368333
764.616673,-296.082377,536.266849,8882.471304
764.617002,-370.102971,1072.533697,9104.533087
764.617331,-444.123565,1532.190996,9696.697840
764.617660,-888.247130,1915.238745,9918.759623
764.617989,-888.247130,2221.676944,10362.883188
764.618319,-1258.350101,1838.629195,10658.965565
764.618648,-1110.308913,1149.143247,10066.800811
764.618977,-148.041188,229.828649,9622.677246
764.619306,0.000000,-153.219100,9326.594869
764.619635,0.000000,229.828649,8882.471304
764.619965,-592.164754,995.924147,9252.574275
764.620294,-962.267725,1608.800546,9178.553681
764.620623,-1702.473667,1762.019645,9400.615463
764.620952,-2220.617826,1915.238745,9474.636058
764.621281,-2442.679609,1455.581446,9548.656652
764.621611,-2812.782580,766.095498,9770.718434
764.621940,-2960.823768,306.438199,9474.636058
764.622269,-2812.782580,0.000000,9252.574275
764.622598,-2072.576638,-536.266849,9104.533087
764.622927,-1554.432478,-383.047749,9474.636058
764.623257,-1258.350101,842.705048,9844.739029
764.623586,-1702.473667,1608.800546,10436.903782
764.623915,-1998.556043,2451.505594,10658.965565
764.624244,-1924.535449,2834.553343,10214.842000
764.624573,-1036.288319,3140.991542,9548.656652
764.624903,370.102971,1838.629195,9104.533087
764.625232,1480.411884,1378.971896,7846.182985
764.625561,1924.535449,919.314598,7105.977043
764.625890,2294.638420,459.657299,7105.977043
764.626219,2072.576638,995.924147,8364.327145
764.626549,1628.453072,2298.286494,9252.574275
764.626878,0.000000,2221.676944,10362.883188
764.627207,-1554.432478,2298.286494,11103.089130
764.627536,-2442.679609,1762.019645,11177.109724
764.627865,-3108.864956,995.924147,10658.965565
764.628195,-2960.823768,536.266849,9548.656652
764.628524,-2368.659014,0.000000,9474.636058
764.628853,-1776.494261,-842.705048,8734.430116
764.629182,-1036.288319,-766.095498,8660.409521
764.629511,-222.061783,-229.828649,8734.430116
764.629841,74.020594,153.219100,8734.430116
764.630170,370.102971,995.924147,8660.409521
764.630499,222.061783,1225.752797,9696.697840
764.630828,0.000000,2221.676944,10584.944971
764.631157,-666.185348,2528.115143,10955.047942
764.631487,-962.267725,2068.457845,10807.006753
764.631816,-1036.288319,1378.971896,10214.842000
764.632145,-518.144159,306.438199,9918.759623
764.632474,-296.082377,-536.266849,9400.615463
764.632803,0.000000,-766.095498,9400.615463
764.633132,-518.144159,0.000000,9326.594869
764.633462,-814.226536,689.485948,9178.553681
764.633791,-1184.329507,1302.362347,9474.636058
764.634120,-1850.514855,1838.629195,9400.615463
764.634449,-2146.597232,2145.067394,9474.636058
764.634778,-2294.638420,1225.752797,9474.636058
764.635108,-2294.638420,536.266849,9622.677246
764.635437,-2664.741391,842.705048,9770.718434
764.635766,-2738.761985,229.828649,9844.739029
764.636095,-2738.761985,76.609550,9696.697840
764.636424,-2516.700203,0.000000,9770.718434
764.636754,-2442.679609,0.000000,10140.821405
764.637083,-2442.679609,766.095498,10658.965565
764.637412,-2368.659014,919.314598,9918.759623
764.637741,-1850.514855,1455.581446,9178.553681
764.638070,-666.185348,995.924147,8734.430116
764.638400,592.164754,842.705048,8068.244768
764.638729,2072.576638,1072.533697,7550.100608
764.639058,2516.700203,842.705048,7179.997637
764.639387,2886.803174,1532.190996,7846.182985
764.639716,2294.638420,2145.067394,9030.512492
764.640046,888.247130,2298.286494,10214.842000
764.640375,-370.102971,2374.896044,10807.006753
764.640704,-2516.700203,1762.019645,11621.233289
764.641033,-3182.885551,1455.581446,11695.253884
764.641362,-3849.070898,536.266849,10732.986159
764.641692,-3701.029710,-153.219100,9844.739029
764.642021,-2886.803174,-1149.143247,8882.471304
764.642350,-1776.494261,-1685.410096,8512.368333
764.642679,-518.144159,-766.095498,8216.285956
764.643008,0.000000,153.219100,8216.285956
764.643338,74.020594,689.485948,8290.306550
764.643667,0.000000,1225.752797,8882.471304
764.643996,0.000000,2374.896044,9622.677246
764.644325,-444.123565,2145.067394,10288.862594
764.644654,-666.185348,1915.238745,10955.047942
764.644984,-1332.370696,1302.362347,10658.965565
764.645313,-1184.329507,919.314598,10214.842000
764.645642,-740.205942,383.047749,9400.615463
764.645971,74.020594,-536.266849,9622.677246
764.646300,0.000000,-383.047749,9400.615463
764.646630,-296.082377,689.485948,9918.759623
764.646959,-592.164754,1378.971896,9844.739029
764.647288,-1406.391290,2145.067394,9474.636058
764.647617,-1924.535449,2451.505594,9178.553681
764.647946,-1998.556043,1762.019645,9474.636058
764.648276,-2146.597232,842.705048,9548.656652
764.648605,-2368.659014,306.438199,8956.491898
764.648934,-2516.700203,0.000000,8660.409521
764.649263,-1998.556043,-842.705048,9030.512492
764.649592,-1702.473667,-612.876398,9178.553681
764.649922,-1998.556043,306.438199,10066.800811
764.650251,-2294.638420,1455.581446,10658.965565
764.650580,-2590.720797,1685.410096,10955.047942
764.650909,-2442.679609,1685.410096,10362.883188
764.651238,-1776.494261,1838.629195,9474.636058
764.651568,-370.102971,995.924147,9104.533087
764.651897,962.267725,459.657299,8512.368333
764.652226,1850.514855,383.047749,7846.182985
764.652555,2294.638420,229.828649,7402.059420
764.652884,2294.638420,995.924147,8216.285956
764.653213,1702.473667,1455.581446,9104.533087
764.653543,592.164754,2145.067394,9770.718434
764.653872,-740.205942,2145.067394,10362.883188
764.654201,-1702.473667,1608.800546,10732.986159
764.654530,-2368.659014,995.924147,11103.089130
764.654859,-3330.926739,612.876398,10658.965565
764.655189,-3404.947333,229.828649,10214.842000
764.655518,-2368.659014,-459.657299,9400.615463
764.655847,-1628.453072,-536.266849,8808.450710
764.656176,-444.123565,-306.438199,8734.430116
764.656505,148.041188,0.000000,8512.368333
764.656835,148.041188,383.047749,8808.450710
764.657164,-222.061783,1608.800546,9400.615463
764.657493,-814.226536,2374.896044,9992.780217
764.657822,-740.205942,2298.286494,10510.924376
764.658151,-666.185348,2451.505594,10066.800811
764.658481,-740.205942,1455.581446,9992.780217
764.658810,-666.185348,919.314598,9548.656652
764.659139,-148.041188,153.219100,9400.615463
764.659468,0.000000,-383.047749,8956.491898
764.659797,-444.123565,229.828649,9178.553681
764.660127,-740.205942,1072.533697,9326.594869
764.660456,-1110.308913,1762.019645,9770.718434
764.660785,-1702.473667,1915.238745,9844.739029
764.661114,-2294.638420,2221.676944,9474.636058
764.661443,-2072.576638,2145.067394,9992.780217
764.661773,-1850.514855,1225.752797,9770.718434
764.662102,-2368.659014,766.095498,9474.636058
764.662431,-2664.741391,229.828649,8956.491898
764.662760,-2368.659014,-306.438199,9104.533087
764.663089,-1998.556043,-153.219100,9622.677246
764.663419,-2368.659014,306.438199,9844.739029
764.663748,-2368.659014,1072.533697,10436.903782
764.664077,-2812.782580,1532.190996,10214.842000
764.664406,-2442.679609,2068.457845,9622.677246
764.664735,-1258.350101,1149.143247,9030.512492
764.665065,148.041188,1532.190996,8512.368333
764.665394,1110.308913,1225.752797,7328.038826
764.665723,2146.597232,1072.533697,7254.018232
764.666052,2368.659014,766.095498,7920.203579
764.666381,2072.576638,1302.362347,9326.594869
764.666711,518.144159,2298.286494,10288.862594
764.667040,-666.185348,1915.238745,11325.150913
764.667369,-2146.597232,2145.067394,11547.212695
764.667698,-2516.700203,1072.533697,11695.253884
764.668027,-2886.803174,229.828649,10732.986159
764.668357,-2886.803174,-306.438199,9992.780217
764.668686,-2590.720797,-383.047749,9030.512492
764.669015,-1406.391290,-766.095498,8512.368333
764.669344,-740.205942,-536.266849,8586.388927
764.669673,-444.123565,0.000000,8586.388927
764.670003,-148.041188,612.876398,8734.430116
764.670332,-222.061783,1072.533697,8956.491898
764.670661,-518.144159,1532.190996,9474.636058
764.670990,-962.267725,2221.676944,10288.862594
764.671319,-1184.329507,1991.848295,10807.006753
764.671649,-1406.391290,1225.752797,10584.944971
764.671978,-1406.391290,1302.362347,10214.842000
764.672307,-814.226536,612.876398,9696.697840
764.672636,-148.041188,-229.828649,9326.594869
764.672965,-444.123565,0.000000,9252.574275
764.673295,-740.205942,1225.752797,9326.594869
764.673624,-1036.288319,1685.410096,9030.512492
764.673953,-1554.432478,1532.190996,9030.512492
764.674282,-1924.535449,1762.019645,9400.615463
764.674611,-2442.679609,1532.190996,9622.677246
764.674941,-2738.761985,689.485948,9770.718434
764.675270,-2442.679609,383.047749,9770.718434
764.675599,-2368.659014,0.000000,9252.574275
764.675928,-1554.432478,-1072.533697,9178.553681
764.676258,-1110.308913,-383.047749,9474.636058
764.676587,-1110.308913,536.266849,10214.842000
764.676916,-1480.411884,1378.971896,10807.006753
764.677245,-1924.535449,2451.505594,10510.924376
764.677574,-1924.535449,2451.505594,10436.903782
764.677904,-1258.350101,2068.457845,9622.677246
764.678233,0.000000,1455.581446,9104.533087
764.678562,962.267725,689.485948,7920.203579
764.678891,1850.514855,1072.533697,6661.853478
764.679220,2368.659014,229.828649,6661.853478
764.679550,2220.617826,306.438199,7920.203579
764.679879,1332.370696,1378.971896,9622.677246
764.680208,-296.082377,2528.115143,10807.006753
764.680537,-2072.576638,2604.724693,11473.192101
764.680866,-2886.803174,1838.629195,11547.212695
764.681196,-3627.009116,1149.143247,11399.171507
764.681525,-3627.009116,153.219100,10362.883188
764.681854,-2738.761985,-842.705048,9326.594869
764.682183,-1850.514855,-1149.143247,8734.430116
764.682513,-370.102971,-919.314598,8586.388927
764.682842,-148.041188,-612.876398,8216.285956
764.683171,222.061783,306.438199,8882.471304
764.683500,740.205942,995.924147,9326.594869
764.683829,370.102971,1915.238745,9770.718434
764.684159,0.000000,2528.115143,10288.862594
764.684488,0.000000,2374.896044,10510.924376
764.684817,-518.144159,2451.505594,10955.047942
764.685146,-1036.288319,1608.800546,10584.944971
764.685475,-962.267725,919.314598,9992.780217
764.685805,-592.164754,-612.876398,9474.636058
764.686134,-518.144159,-306.438199,8660.409521
764.686463,-666.185348,153.219100,8512.368333
764.686792,-814.226536,919.314598,8734.430116
764.687122,-1110.308913,1225.752797,9104.533087
764.687451,-1850.514855,1838.629195,9400.615463
764.687780,-2368.659014,1991.848295,9400.615463
764.688109,-3034.844362,1762.019645,9770.718434
764.688438,-2738.761985,995.924147,10140.821405
764.688768,-2960.823768,842.705048,9548.656652
764.689097,-2738.761985,-383.047749,9400.615463
764.689426,-2146.597232,-919.314598,9548.656652
764.689755,-1850.514855,-536.266849,9844.739029
764.690084,-2220.617826,153.219100,10140.821405
764.690414,-2220.617826,1149.143247,10584.944971
764.690743,-2146.597232,1991.848295,9992.780217
764.691072,-1406.391290,2374.896044,9252.574275
764.691401,0.000000,1378.971896,8216.285956
764.691730,1184.329507,1225.752797,7994.224174
764.692060,2220.617826,1302.362347,7624.121203
764.692389,2294.638420,995.924147,7402.059420
764.692718,1998.556043,919.314598,8660.409521
764.693047,1332.370696,1149.143247,9918.759623
764.693377,-74.020594,1455.581446,11103.089130
764.693706,-1850.514855,1685.410096,11695.253884
764.694035,-2812.782580,1225.752797,11769.274478
764.694364,-3627.009116,689.485948,11103.089130
764.694693,-3330.926739,153.219100,10066.800811
764.695023,-3182.885551,-612.876398,9474.636058
764.695352,-2146.597232,-229.828649,8882.471304
764.695681,-1184.329507,-536.266849,8364.327145
764.696010,-148.041188,0.000000,8290.306550
764.696339,74.020594,153.219100,8216.285956
764.696669,518.144159,1149.143247,8512.368333
764.696998,592.164754,1225.752797,8808.450710
764.697327,0.000000,1838.629195,9844.739029
764.697656,-1036.288319,2681.334243,10584.944971
764.697986,-1480.411884,2604.724693,10955.047942
764.698315,-1628.453072,1991.848295,10658.965565
764.698644,-1332.370696,306.438199,10066.800811
764.698973,-814.226536,383.047749,9400.615463
764.699302,-370.102971,-306.438199,9252.574275
764.699632,-444.123565,0.000000,9178.553681
764.699961,-814.226536,766.095498,9104.533087
764.700290,-1480.411884,1685.410096,9178.553681
764.700619,-1776.494261,1838.629195,9400.615463
764.700948,-2220.617826,1685.410096,9474.636058
764.701278,-2368.659014,1302.362347,9622.677246
764.701607,-2368.659014,612.876398,9474.636058
764.701936,-1998.556043,383.047749,9474.636058
764.702265,-1850.514855,0.000000,9178.553681
764.702594,-1554.432478,-612.876398,9474.636058
764.702924,-1110.308913,76.609550,9918.759623
764.703253,-1406.391290,842.705048,10436.903782
764.703582,-1480.411884,1762.019645,10362.883188
764.703911,-1406.391290,1762.019645,10732.986159
764.704241,-1776.494261,2451.505594,9992.780217
764.704570,-1258.350101,1915.238745,9178.553681
764.704899,-296.082377,1225.752797,8882.471304
764.705228,1036.288319,842.705048,7994.224174
764.705557,1628.453072,459.657299,6735.874072
764.705887,2294.638420,306.438199,7254.018232
764.706216,1776.494261,153.219100,8142.265362
764.706545,592.164754,1532.190996,9252.574275
764.706874,-592.164754,2068.457845,10584.944971
764.707203,-2220.617826,2374.896044,11103.089130
764.707533,-2812.782580,1991.848295,10955.047942
764.707862,-3108.864956,919.314598,10881.027347
764.708191,-2812.782580,76.609550,10066.800811
764.708520,-2220.617826,-383.047749,9622.677246
764.708849,-1406.391290,-689.485948,8882.471304
764.709179,-592.164754,-842.705048,8364.327145
764.709508,74.020594,0.000000,8512.368333
764.709837,444.123565,612.876398,8660.409521
764.710166,740.205942,919.314598,9326.594869
764.710496,370.102971,1838.629195,9622.677246
764.710825,-148.041188,2374.896044,10584.944971
764.711154,-888.247130,2604.724693,10955.047942
764.711483,-1406.391290,2374.896044,10807.006753
764.711812,-1776.494261,1225.752797,10066.800811
764.712142,-1480.411884,536.266849,9548.656652
764.712471,-666.185348,-306.438199,9326.594869
764.712800,-444.123565,-689.485948,8882.471304
764.713129,-444.123565,0.000000,9178.553681
764.713458,-962.267725,995.924147,9178.553681
764.713788,-1258.350101,1378.971896,9400.615463
764.714117,-1554.432478,2528.115143,9474.636058
764.714446,-1850.514855,2298.286494,9770.718434
764.714775,-2072.576638,1532.190996,9622.677246
764.715105,-1998.556043,995.924147,9844.739029
764.715434,-1998.556043,536.266849,9844.739029
764.715763,-2220.617826,76.609550,9474.636058
764.716092,-1480.411884,-689.485948,9548.656652
764.716421,-1924.535449,0.000000,9622.677246
764.716751,-2072.576638,612.876398,10140.821405
764.717080,-1998.556043,1302.362347,10288.862594
764.717409,-2072.576638,1838.629195,9844.739029
764.717738,-1480.411884,1225.752797,8956.491898
764.718067,-518.144159,1225.752797,8512.368333
764.718397,740.205942,919.314598,8438.347739
764.718726,1406.391290,766.095498,7772.162391
764.719055,1702.473667,689.485948,7624.121203
764.719384,1998.556043,995.924147,8142.265362
764.719713,1628.453072,1225.752797,8956.491898
764.720043,370.102971,1762.019645,10658.965565
764.720372,-888.247130,1685.410096,11399.171507
764.720701,-2368.659014,1455.581446,11473.192101
764.721030,-3330.926739,1225.752797,11325.150913
764.721360,-3552.988522,919.314598,10658.965565
764.721689,-3108.864956,-383.047749,10066.800811
764.722018,-2220.617826,-842.705048,9400.615463
764.722347,-1406.391290,-536.266849,8882.471304
764.722676,-444.123565,-612.876398,8586.388927
764.723006,148.041188,76.609550,8216.285956
764.723335,296.082377,536.266849,8512.368333
764.723664,148.041188,1225.752797,9030.512492
764.723993,0.000000,1838.629195,9844.739029
764.724322,-518.144159,2451.505594,10584.944971
764.724652,-1110.308913,2145.067394,10510.924376
764.724981,-1184.329507,1838.629195,10140.821405
764.725310,-1702.473667,766.095498,9474.636058
764.725639,-1036.288319,0.000000,9474.636058
764.725969,-222.061783,-612.876398,9030.512492
764.726298,-592.164754,0.000000,9104.533087
764.726627,-1036.288319,1302.362347,9400.615463
764.726956,-1406.391290,1225.752797,9548.656652
764.727285,-1998.556043,1378.971896,9696.697840
764.727615,-2294.638420,1838.629195,9622.677246
764.727944,-2294.638420,1685.410096,9548.656652
764.728273,-2294.638420,1149.143247,9326.594869
764.728602,-1998.556043,76.609550,9178.553681
764.728931,-2146.597232,0.000000,9104.533087
764.729261,-1480.411884,-536.266849,9326.594869
764.729590,-1332.370696,0.000000,9622.677246
764.729919,-1332.370696,842.705048,9770.718434
764.730248,-1850.514855,1072.533697,10362.883188
764.730577,-1776.494261,2068.457845,10584.944971
764.730907,-1850.514855,2528.115143,10658.965565
764.731236,-1258.350101,1838.629195,9844.739029
764.731565,-222.061783,995.924147,9178.553681
764.731894,666.185348,383.047749,8364.327145
764.732224,1628.453072,842.705048,7772.162391
764.732553,1998.556043,536.266849,7550.100608
764.732882,1924.535449,612.876398,8290.306550
764.733211,962.267725,1532.190996,9326.594869
764.733540,0.000000,2604.724693,10066.800811
764.733870,-1110.308913,2068.457845,10807.006753
764.734199,-2294.638420,1762.019645,11029.068536
764.734528,-3034.844362,1072.533697,10658.965565
764.734857,-3330.926739,459.657299,10288.862594
764.735186,-2738.761985,-306.438199,9770.718434
764.735516,-1702.473667,-536.266849,8808.450710
764.735845,-1110.308913,-612.876398,8438.347739
764.736174,-370.102971,-383.047749,8438.347739
764.736503,370.102971,-229.828649,8660.409521
764.736832,592.164754,459.657299,9104.533087
764.737162,148.041188,1225.752797,9622.677246
764.737491,0.000000,2145.067394,10362.883188
764.737820,-296.082377,2451.505594,10955.047942
764.738149,-814.226536,1915.238745,10807.006753
764.738479,-888.247130,1225.752797,10362.883188
764.738808,-370.102971,153.219100,9844.739029
764.739137,-370.102971,-306.438199,9030.512492
764.739466,-296.082377,-919.314598,9104.533087
764.739795,-814.226536,0.000000,9030.512492
764.740125,-1184.329507,459.657299,9474.636058
764.740454,-1480.411884,536.266849,9548.656652
764.740783,-1628.453072,1838.629195,9770.718434
764.741112,-2590.720797,1915.238745,9696.697840
764.741441,-2442.679609,1378.971896,9844.739029
764.741771,-2368.659014,842.705048,9622.677246
764.742100,-2442.679609,536.266849,9252.574275
764.742429,-2072.576638,0.000000,9252.574275
764.742758,-2220.617826,-229.828649,9178.553681
764.743088,-2146.597232,0.000000,9696.697840
764.743417,-2516.700203,842.705048,10436.903782
764.743746,-3034.844362,1302.362347,10732.986159
764.744075,-2886.803174,1991.848295,9770.718434
764.744404,-2442.679609,1378.971896,9474.636058
764.744734,-1110.308913,995.924147,8882.471304
764.745063,222.061783,995.924147,8364.327145
764.745392,1554.432478,766.095498,7624.121203
764.745721,2294.638420,766.095498,7476.080014
764.746050,2368.659014,1608.800546,7772.162391
764.746380,2294.638420,1838.629195,8882.471304
764.746709,1258.350101,2451.505594,9770.718434
764.747038,0.000000,2068.457845,10436.903782
764.747367,-1184.329507,1991.848295,10881.027347
764.747696,-2072.576638,1072.533697,10955.047942
764.748026,-3034.844362,1072.533697,10436.903782
764.748355,-3330.926739,0.000000,9992.780217
764.748684,-2738.761985,-383.047749,9252.574275
764.749013,-1924.535449,-536.266849,8882.471304
764.749343,-1036.288319,-306.438199,8512.368333
764.749672,-592.164754,612.876398,8586.388927
764.750001,-222.061783,459.657299,8660.409521
764.750330,-444.123565,1072.533697,8956.491898
764.750659,-888.247130,1685.410096,9548.656652
764.750989,-1036.288319,2145.067394,10140.821405
764.751318,-962.267725,2298.286494,10066.800811
764.751647,-1110.308913,1072.533697,10140.821405
764.751976,-962.267725,766.095498,10066.800811
764.752305,-592.164754,76.609550,9622.677246
764.752635,0.000000,-459.657299,9474.636058
764.752964,0.000000,153.219100,9252.574275
764.753293,-296.082377,1149.143247,9770.718434
764.753622,-518.144159,1302.362347,9992.780217
764.753952,-1036.288319,1838.629195,10140.821405
764.754281,-2072.576638,1991.848295,9844.739029
764.754610,-2516.700203,2068.457845,9548.656652
764.754939,-2368.659014,995.924147,9844.739029
764.755268,-2442.679609,229.828649,9326.594869
764.755598,-2516.700203,-306.438199,8808.450710
764.755927,-2442.679609,-766.095498,8882.471304
764.756256,-2294.638420,-612.876398,9548.656652
764.756585,-2590.720797,76.609550,9918.759623
764.756914,-2442.679609,1225.752797,10732.986159
764.757244,-2886.803174,2068.457845,10807.006753
764.757573,-2368.659014,2221.676944,10214.842000
764.757902,-1480.411884,1762.019645,9326.594869
764.758231,0.000000,536.266849,8586.388927
764.758560,1036.288319,842.705048,7920.203579
764.758890,2072.576638,536.266849,7328.038826
764.759219,2368.659014,612.876398,7402.059420
764.759548,2368.659014,842.705048,8438.347739
764.759877,1480.411884,1685.410096,9622.677246
764.760207,518.144159,2298.286494,10436.903782
764.760536,-666.185348,2374.896044,11325.150913
764.760865,-1776.494261,2145.067394,11325.150913
764.761194,-2590.720797,1608.800546,10658.965565
764.761523,-2738.761985,306.438199,10288.862594
764.761853,-2664.741391,-383.047749,9178.553681
764.762182,-1776.494261,-612.876398,8808.450710
764.762511,-740.205942,-306.438199,8808.450710
764.762840,-518.144159,-383.047749,8660.409521
764.763169,-296.082377,229.828649,8660.409521
764.763499,0.000000,459.657299,9400.615463
764.763828,-518.144159,1455.581446,9400.615463
764.764157,-666.185348,2451.505594,10288.862594
764.764486,-1110.308913,2528.115143,10436.903782
764.764815,-1258.350101,2068.457845,10584.944971
764.765145,-1184.329507,1915.238745,9918.759623
764.765474,-666.185348,1532.190996,9770.718434
764.765803,-296.082377,229.828649,9326.594869
764.766132,0.000000,76.609550,8734.430116
764.766462,0.000000,383.047749,9030.512492
764.766791,-518.144159,1302.362347,9030.512492
764.767120,-1110.308913,2068.457845,9548.656652
764.767449,-1480.411884,2068.457845,9326.594869
764.767778,-2146.597232,2145.067394,9474.636058
764.768108,-2368.659014,1378.971896,9770.718434
764.768437,-2368.659014,536.266849,9918.759623
764.768766,-2590.720797,919.314598,9548.656652
764.769095,-2516.700203,0.000000,9252.574275
764.769424,-2146.597232,-536.266849,9178.553681
764.769754,-1924.535449,-536.266849,9844.739029
764.770083,-2146.597232,153.219100,10510.924376
764.770412,-2220.617826,1762.019645,10288.862594
764.770741,-2368.659014,1915.238745,9918.759623
764.771071,-1776.494261,1838.629195,9474.636058
764.771400,-888.247130,919.314598,8734.430116
764.771729,518.144159,612.876398,8290.306550
764.772058,1628.453072,1455.581446,7550.100608
764.772387,2072.576638,1762.019645,7105.977043
764.772717,2146.597232,919.314598,7772.162391
764.773046,1702.473667,1225.752797,9252.574275
764.773375,666.185348,1685.410096,10510.924376
764.773704,-888.247130,1991.848295,11399.171507
764.774033,-1924.535449,1838.629195,11695.253884
764.774363,-2960.823768,1149.143247,11621.233289
764.774692,-3404.947333,0.000000,10732.986159
764.775021,-3182.885551,-689.485948,9918.759623
764.775350,-2368.659014,-1302.362347,9252.574275
764.775679,-1776.494261,-842.705048,8290.306550
764.776009,-592.164754,0.000000,8586.388927
764.776338,-296.082377,229.828649,8734.430116
764.776667,0.000000,689.485948,8660.409521
764.776996,0.000000,995.924147,9252.574275
764.777325,0.000000,1225.752797,9474.636058
764.777654,-888.247130,2221.676944,10510.924376
764.777984,-1110.308913,2374.896044,10807.006753
764.778313,-1332.370696,1378.971896,10658.965565
764.778642,-1184.329507,842.705048,9992.780217
764.778971,-592.164754,76.609550,9400.615463
764.779300,222.061783,0.000000,9400.615463
764.779630,0.000000,-306.438199,9400.615463
764.779959,-740.205942,919.314598,9474.636058
764.780288,-1480.411884,1378.971896,9474.636058
764.780617,-1702.473667,2068.457845,9770.718434
764.780946,-2368.659014,2145.067394,9400.615463
764.781276,-2442.679609,1915.238745,9030.512492
764.781605,-2294.638420,536.266849,9178.553681
764.781934,-2368.659014,76.609550,8734.430116
764.782263,-2294.638420,76.609550,8734.430116
764.782592,-1998.556043,-306.438199,9104.533087
764.782922,-1628.453072,459.657299,9844.739029
764.783251,-1702.473667,919.314598,10584.944971
764.783580,-1776.494261,1455.581446,10658.965565
764.783909,-2072.576638,2298.286494,10510.924376
764.784238,-2146.597232,2374.896044,10214.842000
764.784568,-1036.288319,2298.286494,9474.636058
764.784897,74.020594,1302.362347,8882.471304
764.785226,1184.329507,919.314598,8142.265362
764.785555,2220.617826,459.657299,7402.059420
764.785884,2664.741391,536.266849,7476.080014
764.786214,2368.659014,995.924147,8142.265362
764.786543,1702.473667,1838.629195,9548.656652
764.786872,222.061783,2374.896044,10584.944971
764.787201,-1036.288319,2451.505594,11029.068536
764.787530,-2294.638420,2068.457845,11251.130318
764.787860,-2590.720797,1838.629195,11325.150913
764.788189,-2812.782580,536.266849,10362.883188
764.788518,-2960.823768,-383.047749,9548.656652
764.788847,-2146.597232,-919.314598,9104.533087
764.789176,-962.267725,-919.314598,8956.491898
764.789506,-296.082377,-459.657299,8808.450710
764.789835,-296.082377,689.485948,8808.450710
764.790164,0.000000,689.485948,8808.450710
764.790493,0.000000,1532.190996,9474.636058
764.790822,-444.123565,2374.896044,10436.903782
764.791151,-962.267725,2604.724693,10732.986159
764.791481,-1036.288319,2451.505594,10584.944971
764.791810,-1036.288319,1072.533697,9992.780217
764.792139,-962.267725,153.219100,9400.615463
764.792468,-444.123565,-306.438199,9252.574275
764.792797,-296.082377,-459.657299,9030.512492
764.793127,-370.102971,-153.219100,8882.471304
764.793456,-888.247130,1072.533697,9252.574275
764.793785,-1184.329507,1455.581446,9400.615463
764.794114,-1702.473667,1915.238745,9622.677246
764.794443,-1924.535449,2221.676944,9696.697840
764.794773,-2368.659014,1532.190996,9474.636058
764.795102,-2368.659014,919.314598,9696.697840
764.795431,-2516.700203,153.219100,9622.677246
764.795760,-2516.700203,0.000000,9400.615463
764.796089,-2368.659014,-383.047749,9548.656652
764.796419,-2368.659014,-383.047749,9918.759623
764.796748,-2146.597232,0.000000,10436.903782
764.797077,-2294.638420,536.266849,10362.883188
764.797406,-2294.638420,1532.190996,10436.903782
764.797735,-1924.535449,1762.019645,9400.615463
764.798065,-444.123565,1302.362347,8660.409521
764.798394,1036.288319,1302.362347,8290.306550
764.798723,2220.617826,842.705048,7698.141797
764.799052,2664.741391,1072.533697,7920.203579
764.799381,2738.761985,1225.752797,8660.409521
764.799711,1924.535449,2068.457845,9326.594869
764.800040,592.164754,2298.286494,10066.800811
764.800369,-444.123565,2221.676944,10881.027347
764.800698,-1776.494261,1762.019645,11103.089130
764.801027,-2664.741391,995.924147,11029.068536
764.801357,-3256.906145,919.314598,10807.006753
764.801686,-3552.988522,153.219100,9918.759623
764.802015,-3182.885551,0.000000,9104.533087
764.802344,-1480.411884,-536.266849,8438.347739
764.802673,-814.226536,-383.047749,8364.327145
764.803003,-370.102971,153.219100,8142.265362
764.803332,-222.061783,612.876398,8216.285956
764.803661,-444.123565,1302.362347,8660.409521
764.803990,-962.267725,1302.362347,9622.677246
764.804319,-962.267725,2145.067394,10658.965565
764.804648,-1258.350101,2451.505594,10732.986159
764.804978,-1406.391290,1532.190996,10214.842000
764.805307,-1036.288319,919.314598,9696.697840
764.805636,-74.020594,153.219100,9030.512492
764.805965,0.000000,-229.828649,9104.533087
764.806294,0.000000,229.828649,9400.615463
764.806624,-444.123565,1149.143247,9474.636058
764.806953,-1036.288319,1455.581446,9918.759623
764.807282,-1554.432478,2451.505594,9992.780217
764.807611,-2072.576638,1762.019645,9770.718434
764.807940,-2590.720797,1378.971896,9696.697840
764.808270,-2368.659014,536.266849,9548.656652
764.808599,-2516.700203,0.000000,9326.594869
764.808928,-2368.659014,-306.438199,9104.533087
764.809257,-2220.617826,-306.438199,8808.450710
764.809586,-1850.514855,-459.657299,9474.636058
764.809916,-1850.514855,229.828649,10436.903782
764.810245,-2072.576638,1225.752797,10955.047942
764.810574,-2442.679609,1915.238745,11103.089130
764.810903,-2368.659014,2451.505594,10140.821405
764.811232,-1554.432478,1685.410096,9548.656652
764.811562,0.000000,842.705048,8956.491898
764.811891,1184.329507,229.828649,8290.306550
764.812220,2294.638420,76.609550,7698.141797
764.812549,2812.782580,383.047749,7476.080014
764.812878,2812.782580,1149.143247,8512.368333
764.813208,1776.494261,1915.238745,9178.553681
764.813537,518.144159,2374.896044,10288.862594
764.813866,-740.205942,2298.286494,10510.924376
764.814195,-1406.391290,2451.505594,11177.109724
764.814524,-2738.761985,1762.019645,10658.965565
764.814854,-3034.844362,919.314598,10436.903782
764.815183,-3034.844362,-229.828649,9696.697840
764.815512,-2368.659014,-995.924147,9104.533087
764.815841,-1332.370696,-689.485948,8808.450710
764.816170,-740.205942,0.000000,8068.244768
764.816499,-518.144159,229.828649,8438.347739
764.816829,-370.102971,842.705048,8956.491898
764.817158,-296.082377,1915.238745,9622.677246
764.817487,-518.144159,2604.724693,10214.842000
764.817816,-888.247130,2757.943793,10732.986159
764.818145,-1184.329507,1991.848295,10436.903782
764.818475,-1406.391290,1838.629195,10140.821405
764.818804,-962.267725,919.314598,9622.677246
764.819133,-296.082377,-459.657299,9178.553681
764.819462,0.000000,-383.047749,8956.491898
764.819791,-296.082377,76.609550,9252.574275
764.820121,-740.205942,689.485948,9474.636058
764.820450,-962.267725,1455.581446,9696.697840
764.820779,-1480.411884,2068.457845,9918.759623
764.821108,-2072.576638,2604.724693,9918.759623
764.821437,-2146.597232,1608.800546,9992.780217
764.821767,-2146.597232,842.705048,9844.739029
764.822096,-2368.659014,689.485948,9400.615463
764.822425,-2442.679609,0.000000,9252.574275
764.822754,-2220.617826,-383.047749,9400.615463
764.823083,-2294.638420,383.047749,10066.800811
764.823413,-2368.659014,0.000000,10140.821405
764.823742,-2738.761985,1225.752797,10807.006753
764.824071,-2738.761985,1685.410096,10214.842000
764.824400,-2072.576638,1838.629195,9474.636058
764.824729,-518.144159,1455.581446,8808.450710
764.825059,740.205942,842.705048,7772.162391
764.825388,1924.535449,536.266849,7698.141797
764.825717,2220.617826,766.095498,7402.059420
764.826046,2220.617826,1378.971896,8142.265362
764.826375,1702.473667,1838.629195,9104.533087
764.826705,740.205942,2374.896044,9770.718434
764.827034,-592.164754,1915.238745,10510.924376
764.827363,-1480.411884,1072.533697,11325.150913
764.827692,-2664.741391,766.095498,11621.233289
764.828021,-3627.009116,689.485948,11177.109724
764.828351,-3923.091493,0.000000,9844.739029
764.828680,-2812.782580,-612.876398,9548.656652
764.829009,-1850.514855,-689.485948,8956.491898
764.829338,-666.185348,-995.924147,8586.388927
764.829667,-296.082377,-536.266849,8290.306550
764.829996,370.102971,229.828649,8438.347739
764.830326,-740.205942,995.924147,8734.430116
764.830655,-814.226536,1762.019645,10066.800811
764.830984,-1332.370696,2681.334243,10584.944971
764.831313,-1184.329507,2451.505594,10732.986159
764.831642,-888.247130,1532.190996,10510.924376
764.831972,-888.247130,1149.143247,9474.636058
764.832301,-370.102971,306.438199,9252.574275
764.832630,0.000000,-306.438199,9104.533087
764.832959,-148.041188,-306.438199,9252.574275
764.833288,-740.205942,1225.752797,9696.697840
764.833618,-962.267725,1915.238745,9696.697840
764.833947,-1702.473667,1838.629195,9400.615463
764.834276,-2072.576638,2068.457845,9548.656652
764.834605,-2368.659014,1608.800546,9474.636058
764.834934,-2220.617826,1149.143247,9474.636058
764.835264,-2294.638420,459.657299,8956.491898
764.835593,-2442.679609,76.609550,9326.594869
764.835922,-2442.679609,-153.219100,8882.471304
764.836251,-1998.556043,153.219100,9326.594869
764.836580,-1776.494261,536.266849,10362.883188
764.836910,-1998.556043,1225.752797,10807.006753
764.837239,-2442.679609,2145.067394,11251.130318
764.837568,-2516.700203,2145.067394,10584.944971
764.837897,-1850.514855,1915.238745,9696.697840
764.838226,-370.102971,1072.533697,9030.512492
764.838556,1036.288319,766.095498,8216.285956
764.838885,2220.617826,842.705048,7476.080014
764.839214,2590.720797,76.609550,7179.997637
764.839543,2960.823768,995.924147,8142.265362
764.839872,2146.597232,1762.019645,9326.594869
764.840202,592.164754,2681.334243,10066.800811
764.840531,-814.226536,2451.505594,10510.924376
764.840860,-1850.514855,1991.848295,10807.006753
764.841189,-2664.741391,1455.581446,11251.130318
764.841518,-2960.823768,612.876398,10732.986159
764.841848,-2886.803174,-229.828649,9992.780217
764.842177,-2146.597232,-842.705048,9178.553681
764.842506,-1184.329507,-842.705048,8586.388927
764.842835,-444.123565,-612.876398,8512.368333
764.843164,-148.041188,153.219100,8734.430116
764.843493,0.000000,766.095498,9030.512492
764.843823,-296.082377,1608.800546,9474.636058
764.844152,-518.144159,2604.724693,9992.780217
764.844481,-962.267725,2604.724693,10584.944971
764.844810,-1258.350101,2068.457845,10732.986159
764.845139,-1184.329507,1378.971896,10288.862594
764.845469,-1110.308913,383.047749,9474.636058
764.845798,-370.102971,-153.219100,9252.574275
764.846127,-370.102971,-383.047749,9178.553681
764.846456,-592.164754,0.000000,9030.512492
764.846785,-888.247130,1225.752797,8882.471304
764.847115,-962.267725,1225.752797,9326.594869
764.847444,-1258.350101,1991.848295,9548.656652
764.847773,-2294.638420,1608.800546,9622.677246
764.848102,-2294.638420,1455.581446,10288.862594
764.848431,-2812.782580,919.314598,10288.862594
764.848761,-3108.864956,612.876398,10066.800811
764.849090,-3034.844362,-383.047749,9400.615463
764.849419,-2368.659014,-995.924147,9400.615463
764.849748,-2072.576638,-306.438199,9474.636058
764.850077,-2220.617826,0.000000,9844.739029
764.850407,-2368.659014,842.705048,9992.780217
764.850736,-2220.617826,1838.629195,9548.656652
764.851065,-1332.370696,1838.629195,9252.574275
764.851394,0.000000,1685.410096,8808.450710
764.851723,888.247130,1149.143247,8216.285956
764.852053,2220.617826,1225.752797,7624.121203
764.852382,2368.659014,1225.752797,7476.080014
764.852711,2812.782580,995.924147,8438.347739
764.853040,1998.556043,1915.238745,9622.677246
764.853369,370.102971,2451.505594,10436.903782
764.853699,-1184.329507,2298.286494,11177.109724
764.854028,-2368.659014,1762.019645,11399.171507
764.854357,-2664.741391,1149.143247,11251.130318
764.854686,-3034.844362,306.438199,10436.903782
764.855015,-2886.803174,-459.657299,9696.697840
764.855345,-2368.659014,-536.266849,9030.512492
764.855674,-1628.453072,-612.876398,8734.430116
764.856003,-1036.288319,0.000000,8512.368333
764.856332,-370.102971,306.438199,8512.368333
764.856661,296.082377,76.609550,8586.388927
764.856990,0.000000,842.705048,9030.512492
764.857320,0.000000,1532.190996,9770.718434
764.857649,-518.144159,2298.286494,10510.924376
764.857978,-1036.288319,2298.286494,10584.944971
764.858307,-1036.288319,1532.190996,10214.842000
764.858636,-666.185348,1302.362347,10214.842000
764.858966,-296.082377,383.047749,9770.718434
764.859295,74.020594,76.609550,9252.574275
764.859624,0.000000,153.219100,9252.574275
764.859953,-666.185348,995.924147,9400.615463
764.860282,-1406.391290,1302.362347,9326.594869
764.860612,-2220.617826,1532.190996,9770.718434
764.860941,-2960.823768,1532.190996,9474.636058
764.861270,-2664.741391,919.314598,9622.677246
764.861599,-2442.679609,612.876398,9178.553681
764.861928,-2738.761985,306.438199,8734.430116
764.862258,-2368.659014,-229.828649,8660.409521
764.862587,-2146.597232,-459.657299,9104.533087
764.862916,-1480.411884,76.609550,9844.739029
764.863245,-1702.473667,766.095498,9992.780217
764.863574,-1998.556043,1225.752797,10436.903782
764.863904,-2072.576638,1838.629195,10955.047942
764.864233,-1702.473667,2145.067394,10658.965565
764.864562,-888.247130,1608.800546,9622.677246
764.864891,74.020594,766.095498,9252.574275
764.865220,1332.370696,459.657299,7994.224174
764.865550,1776.494261,229.828649,7402.059420
764.865879,2072.576638,459.657299,7550.100608
764.866208,2146.597232,919.314598,8438.347739
764.866537,1110.308913,1915.238745,9474.636058
764.866866,0.000000,2528.115143,9696.697840
764.867196,-1406.391290,1915.238745,10140.821405
764.867525,-2294.638420,1608.800546,10732.986159
764.867854,-2886.803174,1149.143247,10732.986159
764.868183,-3256.906145,76.609550,10510.924376
764.868512,-2812.782580,-153.219100,9992.780217
764.868842,-2146.597232,-536.266849,9104.533087
764.869171,-962.267725,-766.095498,9104.533087
764.869500,0.000000,0.000000,8808.450710
764.869829,296.082377,536.266849,8734.430116
764.870158,296.082377,995.924147,8956.491898
764.870487,370.102971,2145.067394,9474.636058
764.870817,-296.082377,3064.381992,10288.862594
764.871146,-666.185348,3217.601092,10658.965565
764.871474,-1110.308913,2298.286494,10658.965565
764.871803,-1110.308913,1685.410096,9696.697840
764.872132,-888.247130,689.485948,9030.512492
764.872462,-444.123565,153.219100,8734.430116
764.872791,-296.082377,-153.219100,8882.471304
764.873120,-740.205942,536.266849,9178.553681
764.873450,-1184.329507,1149.143247,9474.636058
764.873779,-1406.391290,1378.971896,9770.718434
764.874108,-2220.617826,2451.505594,9992.780217
764.874438,-2368.659014,1991.848295,9770.718434
764.874767,-2368.659014,1455.581446,9696.697840
764.875096,-2294.638420,995.924147,9770.718434
764.875426,-1998.556043,229.828649,9696.697840
764.875755,-1998.556043,229.828649,9104.533087
764.876084,-1554.432478,-153.219100,9622.677246
764.876413,-1554.432478,306.438199,10066.800811
764.876743,-1776.494261,766.095498,10362.883188
764.877072,-2294.638420,1225.752797,10436.903782
764.877401,-2294.638420,2145.067394,9770.718434
764.877731,-1554.432478,1838.629195,9178.553681
764.878060,-518.144159,1532.190996,8808.450710
764.878389,814.226536,689.485948,8364.327145
764.878719,1480.411884,689.485948,7846.182985
764.879048,1924.535449,612.876398,7698.141797
764.879377,1924.535449,1302.362347,8068.244768
764.879707,1110.308913,1608.800546,9474.636058
764.880036,74.020594,2068.457845,10288.862594
764.880365,-1332.370696,1991.848295,11103.089130
764.880695,-2368.659014,1532.190996,11251.130318
764.881024,-3034.844362,1225.752797,11103.089130
764.881353,-3108.864956,153.219100,10955.047942
764.881683,-3108.864956,-383.047749,10066.800811
764.882012,-2220.617826,-536.266849,9474.636058
764.882341,-1184.329507,-612.876398,8512.368333
764.882671,74.020594,-612.876398,8364.327145
764.883000,444.123565,-383.047749,8512.368333
764.883329,740.205942,612.876398,8586.388927
764.883658,0.000000,1225.752797,9252.574275
764.883988,-444.123565,1991.848295,10066.800811
764.884317,-1110.308913,2451.505594,10658.965565
764.884646,-1480.411884,2451.505594,10510.924376
764.884976,-1776.494261,1455.581446,10362.883188
764.885305,-1554.432478,612.876398,10066.800811
764.885634,-962.267725,0.000000,9326.594869
764.885964,-296.082377,-459.657299,8882.471304
764.886293,-222.061783,306.438199,9178.553681
764.886622,-740.205942,612.876398,8734.430116
764.886952,-1258.350101,1608.800546,9622.677246
764.887281,-1702.473667,2068.457845,9770.718434
764.887610,-2072.576638,2068.457845,9844.739029
764.887940,-2294.638420,1302.362347,9252.574275
764.888269,-2146.597232,919.314598,9548.656652
764.888598,-2368.659014,306.438199,9326.594869
764.888928,-1924.535449,0.000000,8956.491898
764.889257,-1628.453072,0.000000,9178.553681
764.889586,-1480.411884,76.609550,9474.636058
764.889916,-1480.411884,689.485948,9992.780217
764.890245,-1480.411884,1685.410096,10658.965565
764.890574,-1998.556043,2221.676944,10584.944971
764.890904,-1998.556043,2374.896044,9844.739029
764.891233,-1406.391290,1915.238745,9178.553681
764.891562,0.000000,1455.581446,8438.347739
764.891891,814.226536,612.876398,7846.182985
764.892221,1776.494261,459.657299,7402.059420
764.892550,1924.535449,229.828649,7476.080014
764.892879,1776.494261,689.485948,8438.347739
764.893209,1036.288319,1532.190996,9474.636058
764.893538,296.082377,1915.238745,9844.739029
764.893867,-740.205942,1838.629195,10732.986159
764.894197,-1850.514855,1685.410096,11029.068536
764.894526,-2368.659014,1149.143247,11177.109724
764.894855,-2664.741391,229.828649,10955.047942
764.895185,-2516.700203,-153.219100,9696.697840
764.895514,-1628.453072,-995.924147,9030.512492
764.895843,-666.185348,-919.314598,9030.512492
764.896173,0.000000,-689.485948,8586.388927
764.896502,296.082377,-153.219100,8438.347739
764.896831,444.123565,689.485948,8660.409521
764.897161,518.144159,1685.410096,9252.574275
764.897490,-296.082377,2298.286494,10658.965565
764.897819,-962.267725,2451.505594,10881.027347
764.898149,-1258.350101,2068.457845,10510.924376
764.898478,-1554.432478,1149.143247,9770.718434
764.898807,-1332.370696,0.000000,9548.656652
764.899136,-1110.308913,-306.438199,9326.594869
764.899466,-1184.329507,-383.047749,9400.615463
764.899795,-1554.432478,76.609550,9252.574275
764.900124,-1702.473667,689.485948,9326.594869
764.900454,-1480.411884,1608.800546,9474.636058
764.900783,-1998.556043,1838.629195,9696.697840
764.901112,-2146.597232,2145.067394,9622.677246
764.901442,-1998.556043,1378.971896,9474.636058
764.901771,-1850.514855,1225.752797,9622.677246
764.902100,-2220.617826,1685.410096,9548.656652
764.902430,-2294.638420,536.266849,9030.512492
764.902759,-1628.453072,306.438199,9696.697840
764.903088,-1554.432478,229.828649,9992.780217
764.903418,-1702.473667,919.314598,10140.821405
764.903747,-1850.514855,1608.800546,10362.883188
764.904076,-2072.576638,1762.019645,10436.903782
764.904406,-1628.453072,1838.629195,9400.615463
764.904735,-518.144159,1685.410096,8512.368333
764.905064,666.185348,995.924147,7994.224174
764.905394,1406.391290,995.924147,7254.018232
764.905723,1998.556043,1072.533697,7179.997637
764.906052,2294.638420,1532.190996,7994.224174
764.906382,1406.391290,1838.629195,8734.430116
764.906711,148.041188,2145.067394,9622.677246
764.907040,-1036.288319,1685.410096,10140.821405
764.907369,-2368.659014,1532.190996,10658.965565
764.907699,-2960.823768,1455.581446,10955.047942
764.908028,-3627.009116,383.047749,10658.965565
764.908357,-3627.009116,-153.219100,10066.800811
764.908687,-2664.741391,-536.266849,9474.636058
764.909016,-1258.350101,-766.095498,9178.553681
764.909345,-222.061783,-842.705048,9178.553681
764.909675,0.000000,76.609550,8734.430116
764.910004,296.082377,383.047749,8586.388927
764.910333,222.061783,689.485948,9326.594869
764.910663,-222.061783,1608.800546,10288.862594
764.910992,-518.144159,2451.505594,10881.027347
764.911321,-962.267725,1991.848295,10881.027347
764.911651,-1332.370696,919.314598,10436.903782
764.911980,-962.267725,459.657299,9992.780217
764.912309,-518.144159,-229.828649,9622.677246
764.912639,-222.061783,-536.266849,9400.615463
764.912968,-444.123565,-153.219100,9770.718434
764.913297,-1406.391290,766.095498,9622.677246
764.913627,-1776.494261,1225.752797,9548.656652
764.913956,-2146.597232,1532.190996,10066.800811
764.914285,-2368.659014,1532.190996,9696.697840
764.914614,-2516.700203,766.095498,9104.533087
764.914944,-2368.659014,0.000000,9474.636058
764.915273,-2220.617826,0.000000,9252.574275
764.915602,-2146.597232,0.000000,9178.553681
764.915932,-1776.494261,0.000000,9104.533087
764.916261,-1924.535449,459.657299,9104.533087
764.916590,-1036.288319,842.705048,10288.862594
764.916920,-1628.453072,1455.581446,10584.944971
764.917249,-1776.494261,2221.676944,10807.006753
764.917578,-1924.535449,2374.896044,9918.759623
764.917908,-1036.288319,2298.286494,8882.471304
764.918237,222.061783,1302.362347,8364.327145
764.918566,1184.329507,536.266849,7846.182985
764.918896,1924.535449,536.266849,7179.997637
764.919225,2442.679609,1149.143247,7179.997637
764.919554,2516.700203,1378.971896,8216.285956
764.919884,1702.473667,2221.676944,9474.636058
764.920213,0.000000,2451.505594,10362.883188
764.920542,-1332.370696,2298.286494,11251.130318
764.920872,-2368.659014,2298.286494,11325.150913
764.921201,-3108.864956,1608.800546,11029.068536
764.921530,-3330.926739,306.438199,10362.883188
764.921860,-3034.844362,-766.095498,9622.677246
764.922189,-1998.556043,-919.314598,9104.533087
764.922518,-962.267725,-536.266849,8808.450710
764.922847,-148.041188,0.000000,8438.347739
764.923177,222.061783,612.876398,8586.388927
764.923506,222.061783,995.924147,9178.553681
764.923835,148.041188,1838.629195,10066.800811
764.924165,-296.082377,2911.162892,10881.027347
764.924494,-814.226536,2911.162892,11029.068536
764.924823,-962.267725,2374.896044,11029.068536
764.925153,-1332.370696,1532.190996,10288.862594
764.925482,-962.267725,76.609550,9696.697840
764.925811,-666.185348,-842.705048,9400.615463
764.926141,-518.144159,-383.047749,9030.512492
764.926470,-814.226536,0.000000,8586.388927
764.926799,-814.226536,919.314598,9178.553681
764.927129,-1184.329507,1149.143247,9326.594869
764.927458,-1554.432478,1991.848295,9622.677246
764.927787,-2368.659014,2374.896044,9844.739029
764.928117,-2590.720797,1685.410096,9918.759623
764.928446,-2368.659014,842.705048,9918.759623
764.928775,-2664.741391,0.000000,9326.594869
764.929105,-2442.679609,-995.924147,9326.594869
764.929434,-2368.659014,-1225.752797,9474.636058
764.929763,-2146.597232,-306.438199,9622.677246
764.930093,-2220.617826,153.219100,9696.697840
764.930422,-2368.659014,1532.190996,10288.862594
764.930751,-2072.576638,1838.629195,9696.697840
764.931080,-1184.329507,1915.238745,9178.553681
764.931410,0.000000,1302.362347,8586.388927
764.931739,1184.329507,1302.362347,8068.244768
764.932068,2072.576638,1455.581446,7698.141797
764.932398,2294.638420,766.095498,7698.141797
764.932727,2220.617826,1225.752797,8660.409521
764.933056,1184.329507,1685.410096,9696.697840
764.933386,0.000000,1838.629195,10658.965565
764.933715,-1332.370696,1225.752797,11251.130318
764.934044,-2516.700203,1532.190996,11325.150913
764.934374,-3108.864956,995.924147,10955.047942
764.934703,-3182.885551,153.219100,10288.862594
764.935032,-2738.761985,-459.657299,9844.739029
764.935362,-2146.597232,-689.485948,9030.512492
764.935691,-962.267725,-842.705048,8586.388927
764.936020,-814.226536,76.609550,8734.430116
764.936350,0.000000,383.047749,8586.388927
764.936679,148.041188,689.485948,8364.327145
764.937008,296.082377,1072.533697,9178.553681
764.937338,74.020594,1685.410096,10436.903782
764.937667,-814.226536,2374.896044,10807.006753
764.937996,-1332.370696,2298.286494,10881.027347
764.938325,-1406.391290,1838.629195,10584.944971
764.938655,-1406.391290,1072.533697,9844.739029
764.938984,-518.144159,153.219100,9178.553681
764.939313,148.041188,0.000000,8956.491898
764.939643,0.000000,0.000000,9030.512492
764.939972,-740.205942,842.705048,9178.553681
764.940301,-1332.370696,1991.848295,9400.615463
764.940631,-2072.576638,1838.629195,9178.553681
764.940960,-2220.617826,2681.334243,9030.512492
764.941289,-2664.741391,1532.190996,9326.594869
764.941619,-2590.720797,536.266849,9400.615463
764.941948,-2664.741391,0.000000,9400.615463
764.942277,-2368.659014,0.000000,9548.656652
764.942607,-1776.494261,0.000000,9622.677246
764.942936,-1850.514855,153.219100,9918.759623
764.943265,-1406.391290,919.314598,10214.842000
764.943595,-1702.473667,1302.362347,10658.965565
764.943924,-1924.535449,1915.238745,10510.924376
764.944253,-2072.576638,2451.505594,10140.821405
764.944583,-814.226536,1915.238745,9622.677246
764.944912,148.041188,995.924147,8882.471304
764.945241,1332.370696,229.828649,7994.224174
764.945571,2072.576638,612.876398,7254.018232
764.945900,2664.741391,459.657299,7624.121203
764.946229,2590.720797,766.095498,8660.409521
764.946558,1184.329507,1685.410096,9696.697840
764.946888,-296.082377,2221.676944,10955.047942
764.947217,-1776.494261,1991.848295,11473.192101
764.947546,-2738.761985,1915.238745,10955.047942
764.947876,-3182.885551,459.657299,10955.047942
764.948205,-2886.803174,-459.657299,10362.883188
764.948534,-2516.700203,-842.705048,9474.636058
764.948864,-1480.411884,-1072.533697,9030.512492
764.949193,-740.205942,-995.924147,8512.368333
764.949522,148.041188,-229.828649,8512.368333
764.949852,370.102971,383.047749,8956.491898
764.950181,370.102971,1072.533697,9252.574275
764.950510,370.102971,1991.848295,9696.697840
764.950840,0.000000,2451.505594,10436.903782
764.951169,-518.144159,2681.334243,10584.944971
764.951498,-962.267725,2068.457845,10362.883188
764.951828,-1332.370696,1302.362347,10066.800811
764.952157,-1036.288319,153.219100,9474.636058
764.952486,-296.082377,-612.876398,9030.512492
764.952816,-222.061783,-459.657299,8734.430116
764.953145,-296.082377,0.000000,9030.512492
764.953474,-666.185348,995.924147,9400.615463
764.953803,-1184.329507,1915.238745,9474.636058
764.954133,-1702.473667,2221.676944,9696.697840
764.954462,-2294.638420,2451.505594,9696.697840
764.954791,-2516.700203,1838.629195,9918.759623
764.955121,-2516.700203,1072.533697,9992.780217
764.955450,-2738.761985,612.876398,9918.759623
764.955779,-2590.720797,0.000000,9474.636058
764.956109,-2590.720797,-689.485948,9474.636058
764.956438,-1924.535449,-612.876398,9622.677246
764.956767,-2368.659014,919.314598,9844.739029
764.957097,-2220.617826,842.705048,10436.903782
764.957426,-1924.535449,1685.410096,9918.759623
764.957755,-1184.329507,2068.457845,9178.553681
764.958085,0.000000,1302.362347,8734.430116
764.958414,1184.329507,1225.752797,7772.162391
764.958743,1850.514855,1532.190996,7328.038826
764.959073,2294.638420,1378.971896,7550.100608
764.959402,1998.556043,1225.752797,8586.388927
764.959731,1110.308913,1455.581446,9770.718434
764.960061,148.041188,1302.362347,10436.903782
764.960390,-1702.473667,1532.190996,11103.089130
764.960719,-2664.741391,1608.800546,11177.109724
764.961049,-3108.864956,1072.533697,10807.006753
764.961378,-3108.864956,0.000000,10214.842000
764.961707,-2886.803174,-536.266849,9474.636058
764.962036,-1998.556043,0.000000,9030.512492
764.962366,-1110.308913,-306.438199,8512.368333
764.962695,-666.185348,-229.828649,8068.244768
764.963024,74.020594,229.828649,8512.368333
764.963354,74.020594,689.485948,8808.450710
764.963683,0.000000,766.095498,8956.491898
764.964012,-518.144159,1685.410096,10362.883188
764.964342,-962.267725,2145.067394,10881.027347
764.964671,-1184.329507,1455.581446,11029.068536
764.965000,-1628.453072,1302.362347,10584.944971
764.965330,-1332.370696,766.095498,9770.718434
764.965659,-888.247130,-306.438199,9474.636058
764.965988,0.000000,0.000000,9030.512492
764.966318,-148.041188,229.828649,8956.491898
764.966647,-518.144159,689.485948,9178.553681
764.966976,-1184.329507,1378.971896,9474.636058
764.967306,-1554.432478,1685.410096,9474.636058
764.967635,-2590.720797,1838.629195,9992.780217
764.967964,-2738.761985,842.705048,10066.800811
764.968294,-2590.720797,306.438199,9622.677246
764.968623,-2368.659014,76.609550,9474.636058
764.968952,-1998.556043,229.828649,9178.553681
764.969281,-1332.370696,-229.828649,9474.636058
764.969611,-1036.288319,153.219100,9770.718434
764.969940,-1332.370696,1149.143247,9992.780217
764.970269,-1332.370696,2068.457845,10658.965565
764.970599,-1406.391290,2834.553343,10362.883188
764.970928,-1924.535449,2681.334243,9622.677246
764.971257,-1110.308913,2145.067394,8956.491898
764.971587,0.000000,1149.143247,8438.347739
764.971916,888.247130,842.705048,7550.100608
764.972245,1776.494261,229.828649,6957.935855
764.972575,1702.473667,383.047749,7105.977043
764.972904,1628.453072,1072.533697,8512.368333
764.973233,592.164754,1838.629195,9474.636058
764.973563,-666.185348,2374.896044,10584.944971
764.973892,-1776.494261,2145.067394,11177.109724
764.974221,-2516.700203,2068.457845,10955.047942
764.974550,-2960.823768,919.314598,10807.006753
764.974879,-2960.823768,153.219100,10214.842000
764.975209,-2368.659014,-153.219100,9548.656652
764.975538,-1332.370696,-689.485948,9252.574275
764.975867,-296.082377,-306.438199,8512.368333
764.976196,0.000000,153.219100,8512.368333
764.976525,814.226536,689.485948,8956.491898
764.976855,814.226536,1225.752797,9326.594869
764.977184,444.123565,1685.410096,10066.800811
764.977513,222.061783,2451.505594,10510.924376
764.977842,-814.226536,2757.943793,10658.965565
764.978171,-962.267725,1838.629195,10732.986159
764.978501,-1480.411884,1149.143247,10288.862594
764.978830,-1332.370696,76.609550,9696.697840
764.979159,-962.267725,-536.266849,9326.594869
764.979488,-1036.288319,-383.047749,9030.512492
764.979817,-962.267725,-153.219100,9104.533087
764.980147,-1110.308913,842.705048,9326.594869
764.980476,-1406.391290,1378.971896,9400.615463
764.980805,-1998.556043,1838.629195,9326.594869
764.981134,-2146.597232,2068.457845,9326.594869
764.981463,-2220.617826,1149.143247,9400.615463
764.981793,-2220.617826,842.705048,9548.656652
764.982122,-2368.659014,842.705048,9326.594869
764.982451,-2146.597232,306.438199,9400.615463
764.982780,-1776.494261,-689.485948,9474.636058
764.983109,-1924.535449,-536.266849,9474.636058
764.983439,-2072.576638,536.266849,10214.842000
764.983768,-2294.638420,1225.752797,10510.924376
764.984097,-2368.659014,1991.848295,10214.842000
764.984426,-1850.514855,2068.457845,9622.677246
764.984755,-370.102971,995.924147,8734.430116
764.985084,518.144159,459.657299,8142.265362
764.985414,1480.411884,689.485948,7624.121203
764.985743,1998.556043,919.314598,7476.080014
764.986072,1776.494261,919.314598,8216.285956
764.986401,1480.411884,1532.190996,9548.656652
764.986730,0.000000,1838.629195,10140.821405
764.987060,-1258.350101,1455.581446,10510.924376
764.987389,-2220.617826,1225.752797,10881.027347
764.987718,-2886.803174,995.924147,11251.130318
764.988047,-3182.885551,306.438199,10807.006753
764.988376,-3108.864956,153.219100,10214.842000
764.988706,-2442.679609,0.000000,9770.718434
764.989035,-1406.391290,-153.219100,8956.491898
764.989364,-222.061783,-383.047749,8808.450710
764.989693,518.144159,306.438199,8660.409521
764.990022,518.144159,536.266849,8734.430116
764.990352,148.041188,1072.533697,9104.533087
764.990681,-370.102971,2221.676944,9918.759623
764.991010,-814.226536,2451.505594,10510.924376
764.991339,-1184.329507,2068.457845,10584.944971
764.991668,-1110.308913,1762.019645,10140.821405
764.991998,-1110.308913,995.924147,9474.636058
764.992327,-518.144159,76.609550,9326.594869
764.992656,-370.102971,-229.828649,9178.553681
764.992985,-888.247130,229.828649,9178.553681
764.993314,-740.205942,1149.143247,9326.594869
764.993644,-1554.432478,1838.629195,9400.615463
764.993973,-1850.514855,1915.238745,9696.697840
764.994302,-2220.617826,2221.676944,9474.636058
764.994631,-2368.659014,1225.752797,9474.636058
764.994960,-2368.659014,689.485948,9548.656652
764.995290,-2516.700203,1072.533697,9548.656652
764.995619,-2368.659014,229.828649,9252.574275
764.995948,-2072.576638,-383.047749,9400.615463
764.996277,-1406.391290,-153.219100,9844.739029
764.996606,-1332.370696,383.047749,10288.862594
764.996936,-1258.350101,1838.629195,10658.965565
764.997265,-1924.535449,2068.457845,10584.944971
764.997594,-1998.556043,2528.115143,9992.780217
764.997923,-1110.308913,1608.800546,9326.594869
764.998252,74.020594,1225.752797,8512.368333
764.998582,1184.329507,1302.362347,7476.080014
764.998911,1850.514855,0.000000,7031.956449
764.999240,2072.576638,153.219100,7402.059420
764.999569,1702.473667,612.876398,8808.450710
764.999898,592.164754,1532.190996,10066.800811
765.000228,-814.226536,2068.457845,10955.047942
765.000557,-2294.638420,1762.019645,11325.150913
765.000886,-2738.761985,1225.752797,11325.150913
765.001215,-2886.803174,536.266849,10807.006753
765.001544,-2738.761985,0.000000,9770.718434
765.001874,-2220.617826,-536.266849,9326.594869
765.002203,-1406.391290,-1149.143247,9030.512492
765.002532,-444.123565,-612.876398,8882.471304
765.002861,-148.041188,229.828649,8734.430116
765.003190,296.082377,459.657299,8882.471304
765.003520,296.082377,766.095498,9252.574275
765.003849,74.020594,2068.457845,10066.800811
765.004178,-222.061783,1991.848295,10436.903782
765.004507,-666.185348,2221.676944,11029.068536
765.004836,-1258.350101,1915.238745,10584.944971
765.005166,-1554.432478,1532.190996,10140.821405
765.005495,-1036.288319,842.705048,9696.697840
765.005824,-592.164754,153.219100,8586.388927
765.006153,-296.082377,-459.657299,9178.553681
765.006482,-666.185348,536.266849,9030.512492
765.006812,-1110.308913,1302.362347,9104.533087
765.007141,-1406.391290,1608.800546,9252.574275
765.007470,-1924.535449,2451.505594,9326.594869
765.007799,-2294.638420,1685.410096,9252.574275
765.008128,-2442.679609,1302.362347,9770.718434
765.008458,-2664.741391,1072.533697,9622.677246
765.008787,-2516.700203,766.095498,9400.615463
765.009116,-1628.453072,76.609550,9474.636058
765.009445,-1628.453072,-306.438199,9400.615463
765.009774,-1554.432478,153.219100,9696.697840
765.010104,-1702.473667,919.314598,10288.862594
765.010433,-2072.576638,1915.238745,10436.903782
765.010762,-2072.576638,2451.505594,10214.842000
765.011091,-1258.350101,2145.067394,9548.656652
765.011420,0.000000,1072.533697,8586.388927
765.011750,814.226536,766.095498,7920.203579
765.012079,1480.411884,842.705048,7476.080014
765.012408,2072.576638,229.828649,7476.080014
765.012737,1998.556043,1455.581446,8438.347739
765.013066,1480.411884,1455.581446,9696.697840
765.013396,148.041188,2221.676944,10288.862594
765.013725,-1110.308913,1915.238745,10732.986159
765.014054,-2220.617826,1455.581446,11029.068536
765.014383,-2368.659014,459.657299,10584.944971
765.014712,-3034.844362,76.609550,10658.965565
765.015042,-3182.885551,-306.438199,10510.924376
765.015371,-2590.720797,-536.266849,9696.697840
765.015700,-1480.411884,-689.485948,8882.471304
765.016029,-444.123565,-536.266849,8734.430116
765.016358,296.082377,76.609550,7920.203579
765.016688,666.185348,383.047749,8586.388927
765.017017,370.102971,689.485948,9252.574275
765.017346,-148.041188,1838.629195,9844.739029
765.017675,-962.267725,2374.896044,10584.944971
765.018004,-1406.391290,2068.457845,10584.944971
765.018334,-1554.432478,919.314598,10214.842000
765.018663,-1480.411884,689.485948,9918.759623
765.018992,-592.164754,0.000000,9474.636058
765.019321,-444.123565,-689.485948,9252.574275
765.019650,-666.185348,-229.828649,9178.553681
765.019980,-1332.370696,1225.752797,9400.615463
765.020309,-1776.494261,1302.362347,9548.656652
765.020638,-2146.597232,1608.800546,9696.697840
765.020967,-2368.659014,1991.848295,9696.697840
765.021296,-2294.638420,1455.581446,9770.718434
765.021626,-2294.638420,689.485948,9474.636058
765.021955,-2368.659014,229.828649,9326.594869
765.022284,-2072.576638,0.000000,9178.553681
765.022613,-1702.473667,-459.657299,9252.574275
765.022942,-1480.411884,0.000000,9696.697840
765.023272,-1480.411884,995.924147,9992.780217
765.023601,-1480.411884,919.314598,10288.862594
765.023930,-1998.556043,2145.067394,10510.924376
765.024259,-1850.514855,2451.505594,9696.697840
765.024588,-1332.370696,2221.676944,9104.533087
765.024918,0.000000,1762.019645,8364.327145
765.025247,962.267725,1608.800546,7994.224174
765.025576,1554.432478,689.485948,7105.977043
765.025905,1998.556043,459.657299,7550.100608
765.026234,1628.453072,919.314598,8586.388927
765.026564,592.164754,1838.629195,9622.677246
765.026893,-296.082377,2911.162892,10140.821405
765.027222,-1554.432478,1991.848295,10881.027347
765.027551,-2294.638420,1762.019645,10881.027347
765.027880,-2812.782580,919.314598,10807.006753
765.028210,-2664.741391,229.828649,10584.944971
765.028539,-2146.597232,-229.828649,9992.780217
765.028868,-1110.308913,-536.266849,9030.512492
765.029197,-518.144159,-306.438199,8512.368333
765.029526,444.123565,76.609550,8438.347739
765.029856,1110.308913,689.485948,8660.409521
765.030185,1480.411884,995.924147,8512.368333
765.030514,814.226536,1838.629195,9844.739029
765.030843,0.000000,2757.943793,10658.965565
765.031172,-1110.308913,2987.772442,11029.068536
765.031502,-1628.453072,2221.676944,10881.027347
765.031831,-1702.473667,1532.190996,10362.883188
765.032160,-1480.411884,689.485948,9622.677246
765.032489,-1110.308913,-766.095498,9030.512492
765.032818,-888.247130,-995.924147,8734.430116
765.033148,-1110.308913,0.000000,8808.450710
765.033477,-1406.391290,536.266849,9030.512492
765.033806,-1332.370696,459.657299,9252.574275
765.034135,-1628.453072,1532.190996,9622.677246
765.034464,-2072.576638,1915.238745,9770.718434
765.034794,-1998.556043,1378.971896,9696.697840
765.035123,-1850.514855,612.876398,9918.759623
765.035452,-1628.453072,153.219100,9548.656652
765.035781,-2146.597232,0.000000,9104.533087
765.036110,-1776.494261,-612.876398,9474.636058
765.036440,-1850.514855,-229.828649,9992.780217
765.036769,-2220.617826,612.876398,10214.842000
765.037098,-2072.576638,1302.362347,10584.944971
765.037427,-2072.576638,1608.800546,9844.739029
765.037756,-1554.432478,1455.581446,9252.574275
765.038086,-296.082377,1378.971896,8660.409521
765.038415,444.123565,995.924147,8216.285956
765.038744,1184.329507,919.314598,7920.203579
765.039073,1406.391290,919.314598,7624.121203
765.039402,1036.288319,919.314598,8660.409521
765.039732,518.144159,1302.362347,9474.636058
765.040061,-444.123565,1378.971896,10066.800811
765.040390,-1554.432478,1532.190996,10955.047942
765.040719,-2146.597232,1072.533697,11177.109724
765.041048,-2960.823768,1378.971896,10807.006753
765.041378,-3108.864956,229.828649,10436.903782
765.041707,-2590.720797,0.000000,9918.759623
765.042036,-1924.535449,-229.828649,9474.636058
765.042365,-592.164754,76.609550,8882.471304
765.042694,0.000000,0.000000,8068.244768
765.043024,888.247130,689.485948,8290.306550
765.043353,962.267725,995.924147,8734.430116
765.043682,518.144159,1378.971896,9400.615463
765.044011,-444.123565,2145.067394,10066.800811
765.044340,-1184.329507,2987.772442,10510.924376
765.044670,-1406.391290,2604.724693,10881.027347
765.044999,-1776.494261,1302.362347,10140.821405
765.045328,-1628.453072,612.876398,9622.677246
765.045657,-962.267725,229.828649,9104.533087
765.045986,-814.226536,0.000000,8808.450710
765.046316,-666.185348,536.266849,8956.491898
765.046645,-1480.411884,842.705048,9030.512492
765.046974,-2072.576638,1532.190996,9474.636058
765.047303,-2368.659014,1991.848295,9770.718434
765.047632,-2664.741391,1915.238745,9622.677246
765.047962,-2368.659014,1532.190996,9622.677246
765.048291,-2516.700203,383.047749,9474.636058
765.048620,-2294.638420,76.609550,9326.594869
765.048949,-1554.432478,-306.438199,9252.574275
765.049278,-1184.329507,0.000000,9252.574275
765.049608,-444.123565,-153.219100,9548.656652
765.049937,-666.185348,919.314598,10510.924376
765.050266,-962.267725,1532.190996,10732.986159
765.050595,-1480.411884,2068.457845,10584.944971
765.050924,-1554.432478,2221.676944,9918.759623
765.051254,-888.247130,1608.800546,9326.594869
765.051583,296.082377,842.705048,8660.409521
765.051912,814.226536,229.828649,8068.244768
765.052241,1480.411884,0.000000,7476.080014
765.052570,1776.494261,229.828649,7846.182985
765.052900,1110.308913,689.485948,8586.388927
765.053229,740.205942,1685.410096,9400.615463
765.053558,-666.185348,1762.019645,10214.842000
765.053887,-1628.453072,1532.190996,10807.006753
765.054216,-2442.679609,1378.971896,10881.027347
765.054546,-3182.885551,766.095498,10955.047942
765.054875,-3108.864956,0.000000,10362.883188
765.055204,-2516.700203,-536.266849,9622.677246
765.055533,-1702.473667,-919.314598,9252.574275
765.055862,-592.164754,-459.657299,8808.450710
765.056192,444.123565,0.000000,8660.409521
765.056521,1184.329507,459.657299,8808.450710
765.056850,814.226536,1149.143247,9030.512492
765.057179,148.041188,2221.676944,9918.759623
765.057508,-222.061783,2987.772442,10658.965565
765.057838,-888.247130,2834.553343,10881.027347
765.058167,-1258.350101,2298.286494,10658.965565
765.058496,-1406.391290,1762.019645,9622.677246
765.058825,-962.267725,229.828649,9104.533087
765.059154,-888.247130,-383.047749,8882.471304
765.059484,-814.226536,-229.828649,8808.450710
765.059813,-1036.288319,153.219100,8660.409521
765.060142,-1184.329507,1455.581446,8808.450710
765.060471,-1184.329507,1455.581446,9696.697840
765.060800,-1924.535449,2374.896044,9548.656652
765.061130,-2146.597232,2528.115143,9696.697840
765.061459,-2146.597232,1838.629195,9622.677246
765.061788,-2146.597232,1532.190996,9474.636058
765.062117,-2220.617826,1225.752797,9252.574275
765.062446,-1850.514855,76.609550,9326.594869
765.062776,-1776.494261,-306.438199,9252.574275
765.063105,-1628.453072,0.000000,9770.718434
765.063434,-1702.473667,1455.581446,9918.759623
765.063763,-1480.411884,919.314598,10214.842000
765.064092,-1702.473667,1608.800546,9770.718434
765.064422,-1406.391290,1838.629195,9104.533087
765.064751,-222.061783,1455.581446,8808.450710
765.065080,962.267725,842.705048,8438.347739
765.065409,1332.370696,1149.143247,7698.141797
765.065738,1480.411884,153.219100,7698.141797
765.066068,1702.473667,612.876398,8734.430116
765.066397,888.247130,1302.362347,9474.636058
765.066726,0.000000,1608.800546,10362.883188
765.067055,-1110.308913,1762.019645,10807.006753
765.067384,-2294.638420,919.314598,10955.047942
765.067714,-2442.679609,766.095498,11177.109724
765.068043,-2812.782580,76.609550,10807.006753
765.068372,-2812.782580,0.000000,10584.944971
765.068701,-2072.576638,-612.876398,9696.697840
765.069030,-1480.411884,-383.047749,8512.368333
765.069360,-296.082377,-229.828649,8586.388927
765.069689,296.082377,0.000000,8438.347739
765.070018,444.123565,459.657299,8586.388927
765.070347,0.000000,1149.143247,9400.615463
765.070676,-814.226536,1838.629195,10140.821405
765.071006,-1184.329507,2604.724693,10732.986159
765.071335,-1628.453072,1838.629195,10732.986159
765.071664,-1702.473667,1378.971896,10288.862594
765.071993,-1332.370696,612.876398,9622.677246
765.072322,-888.247130,153.219100,9104.533087
765.072652,-296.082377,-153.219100,8290.306550
765.072981,-814.226536,0.000000,9030.512492
765.073310,-1406.391290,919.314598,9178.553681
765.073639,-1924.535449,1378.971896,9548.656652
765.073968,-2146.597232,1149.143247,9400.615463
765.074298,-2664.741391,2145.067394,9400.615463
765.074627,-2812.782580,1302.362347,9474.636058
765.074956,-2368.659014,459.657299,9474.636058
765.075285,-2294.638420,0.000000,9252.574275
765.075614,-2146.597232,-153.219100,9030.512492
765.075944,-1702.473667,0.000000,9400.615463
765.076273,-1628.453072,229.828649,9770.718434
765.076602,-1628.453072,1302.362347,10510.924376
765.076931,-1628.453072,1915.238745,11029.068536
765.077261,-2072.576638,2451.505594,10510.924376
765.077590,-1702.473667,2145.067394,9918.759623
765.077919,-888.247130,1762.019645,9474.636058
765.078248,148.041188,1072.533697,8734.430116
765.078578,962.267725,536.266849,8142.265362
765.078907,1554.432478,612.876398,7624.121203
765.079236,1776.494261,612.876398,7772.162391
765.079565,1776.494261,1302.362347,8808.450710
765.079895,1184.329507,1685.410096,9696.697840
765.080224,0.000000,2221.676944,10436.903782
765.080553,-1332.370696,2298.286494,10807.006753
765.080882,-2294.638420,1762.019645,10881.027347
765.081212,-2886.803174,1072.533697,10510.924376
765.081541,-2812.782580,306.438199,9992.780217
765.081870,-2368.659014,-766.095498,9770.718434
765.082199,-1776.494261,-689.485948,9030.512492
765.082529,-518.144159,-383.047749,8734.430116
765.082858,148.041188,153.219100,8216.285956
765.083187,814.226536,229.828649,8660.409521
765.083516,666.185348,919.314598,9030.512492
765.083846,148.041188,2221.676944,9474.636058
765.084175,-518.144159,2528.115143,10140.821405
765.084504,-740.205942,2451.505594,10807.006753
765.084833,-1554.432478,2145.067394,10288.862594
765.085163,-1258.350101,1149.143247,9622.677246
765.085492,-962.267725,153.219100,9252.574275
765.085821,-592.164754,-536.266849,8882.471304
765.086150,-592.164754,-536.266849,8808.450710
765.086480,-666.185348,0.000000,9104.533087
765.086809,-814.226536,153.219100,9252.574275
765.087138,-1480.411884,1378.971896,9696.697840
765.087467,-1924.535449,1838.629195,10140.821405
765.087797,-2146.597232,1991.848295,9918.759623
765.088126,-2220.617826,1302.362347,9844.739029
765.088455,-2368.659014,766.095498,9918.759623
765.088784,-2516.700203,153.219100,9622.677246
765.089114,-2442.679609,0.000000,9474.636058
765.089443,-2368.659014,-689.485948,9622.677246
765.089772,-2146.597232,-383.047749,9992.780217
765.090101,-2146.597232,612.876398,10362.883188
765.090431,-2294.638420,1072.533697,10510.924376
765.090760,-1850.514855,1991.848295,10214.842000
765.091089,-1406.391290,2451.505594,9474.636058
765.091418,0.000000,1455.581446,8882.471304
765.091748,1036.288319,1532.190996,8216.285956
765.092077,1628.453072,689.485948,7476.080014
765.092406,2072.576638,1072.533697,7476.080014
765.092735,1924.535449,1225.752797,8512.368333
765.093065,962.267725,1455.581446,9252.574275
765.093394,74.020594,2298.286494,10362.883188
765.093723,-1184.329507,1378.971896,10510.924376
765.094052,-2294.638420,1302.362347,10955.047942
765.094382,-2664.741391,919.314598,10881.027347
765.094711,-3330.926739,306.438199,10066.800811
765.095040,-3404.947333,-306.438199,9770.718434
765.095369,-2368.659014,0.000000,9548.656652
765.095699,-1554.432478,-459.657299,9030.512492
765.096028,-666.185348,0.000000,8660.409521
765.096357,0.000000,459.657299,8512.368333
765.096687,222.061783,689.485948,8586.388927
765.097016,222.061783,995.924147,9104.533087
765.097345,-222.061783,2145.067394,9474.636058
765.097674,-666.185348,2451.505594,10362.883188
765.098004,-814.226536,2451.505594,10436.903782
765.098333,-814.226536,1991.848295,10288.862594
765.098662,-888.247130,2068.457845,9770.718434
765.098991,-444.123565,1149.143247,9474.636058
765.099321,0.000000,76.609550,9252.574275
765.099650,-222.061783,229.828649,9326.594869
765.099979,-1332.370696,919.314598,9400.615463
765.100308,-1702.473667,1149.143247,9844.739029
765.100638,-2220.617826,919.314598,9696.697840
765.100967,-2368.659014,1532.190996,9622.677246
765.101296,-2516.700203,1225.752797,9622.677246
765.101625,-2664.741391,153.219100,9548.656652
765.101955,-2368.659014,153.219100,9400.615463
765.102284,-2220.617826,0.000000,9030.512492
765.102613,-1406.391290,-766.095498,9104.533087
765.102942,-1258.350101,229.828649,9696.697840
765.103272,-1554.432478,919.314598,10288.862594
765.103601,-1850.514855,1532.190996,10807.006753
765.103930,-2294.638420,2298.286494,10436.903782
765.104259,-1702.473667,2451.505594,9992.780217
765.104589,-1036.288319,1378.971896,9474.636058
765.104918,0.000000,766.095498,8734.430116
765.105247,1036.288319,383.047749,7920.203579
765.105576,1850.514855,383.047749,7402.059420
765.105906,2072.576638,995.924147,7402.059420
765.106235,2294.638420,919.314598,8734.430116
765.106564,1036.288319,1991.848295,9474.636058
765.106893,0.000000,2451.505594,10140.821405
765.107223,-1628.453072,1991.848295,10881.027347
765.107552,-2664.741391,1762.019645,10658.965565
765.107881,-3108.864956,536.266849,10658.965565
765.108210,-3182.885551,0.000000,10362.883188
765.108540,-2886.803174,-612.876398,9770.718434
765.108869,-1776.494261,-995.924147,9400.615463
765.109198,-1480.411884,-766.095498,8438.347739
765.109527,74.020594,76.609550,8586.388927
765.109857,370.102971,459.657299,8882.471304
765.110186,296.082377,1302.362347,9030.512492
765.110515,370.102971,2068.457845,9770.718434
765.110844,-222.061783,2681.334243,10510.924376
765.111174,-666.185348,2451.505594,10140.821405
765.111503,-1184.329507,2145.067394,10436.903782
765.111832,-1184.329507,995.924147,10066.800811
765.112161,-962.267725,153.219100,9474.636058
765.112491,-666.185348,-229.828649,9252.574275
765.112820,-444.123565,-536.266849,8882.471304
765.113149,-888.247130,536.266849,8808.450710
765.113478,-814.226536,995.924147,9474.636058
765.113808,-1184.329507,1378.971896,9622.677246
765.114137,-1554.432478,1915.238745,9696.697840
765.114466,-2220.617826,2681.334243,9918.759623
765.114795,-1924.535449,1838.629195,9548.656652
765.115125,-2220.617826,995.924147,9696.697840
765.115454,-2368.659014,689.485948,9548.656652
765.115783,-2220.617826,-229.828649,9326.594869
765.116112,-1850.514855,-229.828649,9474.636058
765.116442,-2146.597232,229.828649,9548.656652
765.116771,-2220.617826,1149.143247,10140.821405
765.117100,-2146.597232,1225.752797,10362.883188
765.117429,-2220.617826,1838.629195,9992.780217
765.117759,-1628.453072,1991.848295,9400.615463
765.118088,-222.061783,1532.190996,8438.347739
765.118417,1036.288319,1302.362347,7476.080014
765.118746,1776.494261,689.485948,7402.059420
765.119076,2146.597232,919.314598,7698.141797
765.119405,1850.514855,1378.971896,8512.368333
765.119734,1110.308913,1991.848295,9252.574275
765.120063,296.082377,1991.848295,10732.986159
765.120393,-1406.391290,1991.848295,11177.109724
765.120722,-2368.659014,1608.800546,11251.130318
765.121051,-3034.844362,1072.533697,11029.068536
765.121380,-3330.926739,229.828649,10510.924376
765.121710,-3627.009116,-383.047749,9844.739029
765.122039,-2294.638420,-689.485948,9622.677246
765.122368,-1554.432478,-536.266849,9030.512492
765.122697,-666.185348,0.000000,8956.491898
765.123027,0.000000,76.609550,8660.409521
765.123356,0.000000,919.314598,8882.471304
765.123685,0.000000,1685.410096,9030.512492
765.124014,-592.164754,2068.457845,9918.759623
765.124344,-814.226536,2374.896044,10288.862594
765.124673,-1110.308913,2298.286494,10658.965565
765.125002,-1184.329507,1762.019645,9844.739029
765.125331,-1184.329507,536.266849,9326.594869
765.125661,-518.144159,76.609550,9104.533087
765.125990,0.000000,0.000000,9400.615463
765.126319,-444.123565,76.609550,9400.615463
765.126648,-962.267725,1072.533697,9178.553681
765.126978,-1332.370696,1072.533697,9548.656652
765.127307,-2146.597232,1455.581446,9844.739029
765.127636,-2368.659014,2145.067394,9844.739029
765.127965,-2368.659014,1762.019645,9474.636058
765.128295,-2220.617826,229.828649,9474.636058
765.128624,-2294.638420,-229.828649,8956.491898
765.128953,-1924.535449,0.000000,8808.450710
765.129282,-1332.370696,0.000000,9178.553681
765.129612,-1110.308913,229.828649,9696.697840
765.129941,-1554.432478,919.314598,10288.862594
765.130270,-1554.432478,1532.190996,10436.903782
765.130599,-1998.556043,1915.238745,10584.944971
765.130929,-2072.576638,2221.676944,10066.800811
765.131258,-1258.350101,1991.848295,9548.656652
765.131587,-296.082377,1149.143247,8882.471304
765.131916,888.247130,459.657299,8068.244768
765.132246,1702.473667,76.609550,7105.977043
765.132575,2220.617826,536.266849,7550.100608
765.132904,1924.535449,1149.143247,8660.409521
765.133233,962.267725,1762.019645,9770.718434
765.133563,0.000000,2221.676944,10436.903782
765.133892,-1036.288319,2451.505594,10807.006753
765.134221,-1776.494261,1685.410096,11029.068536
765.134551,-2886.803174,1072.533697,10658.965565
765.134880,-2960.823768,306.438199,10732.986159
765.135209,-2664.741391,-306.438199,10066.800811
765.135538,-2072.576638,-612.876398,9474.636058
765.135868,-740.205942,-995.924147,8882.471304
765.136197,222.061783,-306.438199,8660.409521
765.136526,592.164754,536.266849,8512.368333
765.136855,740.205942,919.314598,8734.430116
765.137185,444.123565,1915.238745,9400.615463
765.137514,-444.123565,3064.381992,9770.718434
765.137843,-962.267725,3064.381992,10362.883188
765.138172,-1332.370696,2068.457845,10140.821405
