#time,accel_x,accel_y,accel_z
1038.340922,-888.247130,766.095498,9548.656652
1038.341252,-666.185348,766.095498,9696.697840
1038.341581,-1258.350101,919.314598,9326.594869
1038.341911,-1110.308913,689.485948,9474.636058
1038.342241,-962.267725,995.924147,9622.677246
1038.342570,-1184.329507,995.924147,9474.636058
1038.342900,-1184.329507,1072.533697,9474.636058
1038.343230,-1036.288319,1072.533697,9474.636058
1038.343559,-888.247130,842.705048,9770.718434
1038.343889,-1184.329507,919.314598,9474.636058
1038.344219,-962.267725,995.924147,9696.697840
1038.344548,-1036.288319,919.314598,9474.636058
1038.344878,-1184.329507,612.876398,9178.553681
1038.345208,-962.267725,1302.362347,9400.615463
1038.345537,-962.267725,1072.533697,9696.697840
1038.345867,-962.267725,919.314598,9474.636058
1038.346197,-962.267725,995.924147,9548.656652
1038.346526,-1036.288319,383.047749,9400.615463
1038.346856,-1036.288319,995.924147,9400.615463
1038.347186,-962.267725,842.705048,9696.697840
1038.347515,-962.267725,1149.143247,9548.656652
1038.347845,-1036.288319,689.485948,9474.636058
1038.348175,-1110.308913,995.924147,9548.656652
1038.348504,-962.267725,1072.533697,9622.677246
1038.348834,-1110.308913,919.314598,9400.615463
1038.349163,-740.205942,919.314598,9696.697840
1038.349493,-1184.329507,919.314598,9400.615463
1038.349823,-1036.288319,842.705048,9474.636058
1038.350152,-814.226536,919.314598,9548.656652
1038.350482,-666.185348,1149.143247,9474.636058
1038.350812,-888.247130,842.705048,9474.636058
1038.351141,-962.267725,842.705048,9548.656652
1038.351471,-1110.308913,995.924147,9696.697840
1038.351801,-962.267725,1608.800546,10140.821405
1038.352130,-1110.308913,1302.362347,9252.574275
1038.352460,-1036.288319,995.924147,9474.636058
1038.352790,-814.226536,842.705048,9622.677246
1038.353119,-1258.350101,536.266849,9622.677246
1038.353449,-1036.288319,995.924147,9622.677246
1038.353779,-962.267725,612.876398,9326.594869
1038.354108,-962.267725,842.705048,9622.677246
1038.354438,-888.247130,919.314598,9696.697840
1038.354768,-814.226536,995.924147,9622.677246
1038.355097,-1110.308913,842.705048,9548.656652
1038.355427,-592.164754,919.314598,8956.491898
1038.355757,-814.226536,919.314598,9474.636058
1038.356086,-1110.308913,995.924147,9474.636058
1038.356416,-1184.329507,1072.533697,9548.656652
1038.356746,-1184.329507,995.924147,9622.677246
1038.357075,-962.267725,919.314598,9548.656652
1038.357405,-814.226536,995.924147,9326.594869
1038.357735,-1036.288319,995.924147,9548.656652
1038.358064,-962.267725,995.924147,9548.656652
1038.358394,-1184.329507,766.095498,9474.636058
1038.358723,-1110.308913,766.095498,9474.636058
1038.359053,-888.247130,1378.971896,9326.594869
1038.359383,-962.267725,842.705048,9622.677246
1038.359712,-1258.350101,919.314598,9474.636058
1038.360042,-962.267725,995.924147,9770.718434
1038.360372,-1110.308913,689.485948,9548.656652
1038.360701,-814.226536,919.314598,9474.636058
1038.361031,-666.185348,919.314598,9400.615463
1038.361361,-1110.308913,919.314598,9326.594869
1038.361690,-1036.288319,766.095498,9474.636058
1038.362020,-888.247130,995.924147,9474.636058
1038.362350,-740.205942,995.924147,9770.718434
1038.362679,-1332.370696,1378.971896,9474.636058
1038.363009,-1036.288319,842.705048,9474.636058
1038.363339,-888.247130,995.924147,9178.553681
1038.363668,0.000000,766.095498,9104.533087
1038.363998,666.185348,842.705048,9252.574275
1038.364328,1406.391290,536.266849,9400.615463
1038.364657,888.247130,612.876398,9326.594869
1038.364987,296.082377,842.705048,9844.739029
1038.365317,-222.061783,995.924147,10066.800811
1038.365646,-666.185348,995.924147,10584.944971
1038.365976,-740.205942,459.657299,10288.862594
1038.366306,-222.061783,76.609550,9844.739029
1038.366635,0.000000,229.828649,9326.594869
1038.366965,962.267725,153.219100,9030.512492
1038.367295,1998.556043,229.828649,8660.409521
1038.367624,3034.844362,919.314598,8586.388927
1038.367954,3256.906145,1685.410096,8660.409521
1038.368283,3404.947333,1762.019645,9252.574275
1038.368613,3404.947333,1915.238745,9474.636058
1038.368943,3108.864956,1455.581446,9770.718434
1038.369272,2590.720797,1149.143247,10214.842000
1038.369602,1850.514855,842.705048,10214.842000
1038.369932,1184.329507,306.438199,10584.944971
1038.370261,1184.329507,-153.219100,10658.965565
1038.370591,1406.391290,-153.219100,10066.800811
1038.370921,1776.494261,-306.438199,9548.656652
1038.371250,2886.803174,-153.219100,8956.491898
1038.371580,3775.050304,229.828649,9104.533087
1038.371910,4367.215058,1378.971896,9400.615463
1038.372239,3923.091493,2298.286494,9548.656652
1038.372569,3330.926739,2757.943793,10140.821405
1038.372899,1628.453072,2681.334243,10066.800811
1038.373228,-296.082377,2451.505594,9770.718434
1038.373558,-1702.473667,1838.629195,9474.636058
1038.373888,-1628.453072,536.266849,8956.491898
1038.374217,-296.082377,-612.876398,7698.141797
1038.374547,962.267725,-1072.533697,6883.915261
1038.374877,2516.700203,-612.876398,6735.874072
1038.375206,3552.988522,-229.828649,6809.894666
1038.375536,3849.070898,1225.752797,8068.244768
1038.375866,2664.741391,3447.429741,9918.759623
1038.376195,1406.391290,4290.134789,11769.274478
1038.376525,592.164754,3447.429741,12657.521608
1038.376855,-370.102971,2681.334243,12731.542202
1038.377184,-1406.391290,229.828649,12361.439231
1038.377514,-1850.514855,-1455.581446,11547.212695
1038.377843,-1480.411884,-2221.676944,10436.903782
1038.378173,-74.020594,-2374.896044,8734.430116
1038.378503,1554.432478,-1991.848295,7698.141797
1038.378832,3404.947333,-1149.143247,7328.038826
1038.379162,5107.421000,306.438199,6957.935855
1038.379492,5329.482782,1685.410096,7179.997637
1038.379821,4885.359217,3600.648841,8142.265362
1038.380151,4589.276840,5132.839837,9770.718434
1038.380481,3701.029710,3983.696590,10584.944971
1038.380810,2590.720797,3447.429741,11177.109724
1038.381140,1554.432478,1838.629195,11251.130318
1038.381470,666.185348,0.000000,10881.027347
1038.381799,0.000000,-1455.581446,10214.842000
1038.382129,-814.226536,-1762.019645,10510.924376
1038.382459,-740.205942,-1608.800546,10807.006753
1038.382788,-518.144159,-1378.971896,10584.944971
1038.383118,148.041188,-383.047749,9696.697840
1038.383448,1258.350101,383.047749,8660.409521
1038.383777,3034.844362,842.705048,7772.162391
1038.384107,4219.173869,766.095498,7772.162391
1038.384437,4959.379811,842.705048,8068.244768
1038.384766,4811.338623,995.924147,8142.265362
1038.385096,4367.215058,689.485948,8882.471304
1038.385426,3701.029710,1302.362347,10288.862594
1038.385755,2072.576638,1532.190996,10658.965565
1038.386085,888.247130,1455.581446,11029.068536
1038.386415,962.267725,1149.143247,11029.068536
1038.386744,962.267725,1225.752797,10955.047942
1038.387074,1036.288319,1378.971896,9918.759623
1038.387403,1554.432478,766.095498,9030.512492
1038.387733,2368.659014,76.609550,7994.224174
1038.388063,2812.782580,0.000000,7772.162391
1038.388392,2664.741391,536.266849,8216.285956
1038.388722,1776.494261,1302.362347,8882.471304
1038.389052,1110.308913,919.314598,9548.656652
1038.389381,0.000000,689.485948,9696.697840
1038.389711,-592.164754,306.438199,10584.944971
1038.390041,-740.205942,459.657299,11695.253884
1038.390370,-1628.453072,995.924147,11547.212695
1038.390700,-1480.411884,536.266849,10732.986159
1038.391030,-592.164754,0.000000,10066.800811
1038.391359,1480.411884,0.000000,9548.656652
1038.391689,3775.050304,842.705048,8734.430116
1038.392019,5551.544565,2068.457845,7402.059420
1038.392348,7994.224174,2604.724693,6809.894666
1038.392678,8882.471304,3294.210641,7550.100608
1038.393008,8364.327145,3983.696590,8956.491898
1038.393337,5699.585753,4903.011187,9992.780217
1038.393667,2220.617826,4366.744339,11325.150913
1038.393997,-518.144159,2374.896044,13471.748144
1038.394326,-3627.009116,1149.143247,14359.995275
1038.394656,-6661.853478,-919.314598,13101.645173
1038.394986,-7550.100608,-2757.943793,11177.109724
1038.395315,-6661.853478,-4136.915689,8438.347739
1038.395645,-2886.803174,-3447.429741,5181.441594
1038.395974,2886.803174,-3677.258390,2664.741391
1038.396304,8290.306550,-2528.115143,2220.617826
1038.396634,10658.965565,995.924147,3330.926739
1038.396963,10436.903782,4519.963438,6291.750507
1038.397293,9104.533087,8120.612279,9844.739029
1038.397623,6809.894666,10342.289223,12213.398043
1038.397952,3330.926739,9729.412825,13915.871710
1038.398282,-592.164754,3907.087040,15988.448347
1038.398612,-3701.029710,-306.438199,17468.860231
1038.398941,-6735.874072,-1762.019645,15544.324782
1038.399271,-7105.977043,-3140.991542,12065.356855
1038.399601,-3923.091493,-5745.716235,9474.636058
1038.399930,814.226536,-6741.640382,6809.894666
1038.400260,5551.544565,-5822.325785,2590.720797
1038.400590,10510.924376,-4060.306139,962.267725
1038.400919,12879.583391,0.000000,3034.844362
1038.401249,11473.192101,5975.544884,7328.038826
1038.401579,6513.812290,9116.536426,12065.356855
1038.401908,740.205942,9039.926876,14137.933492
1038.402238,-3034.844362,8120.612279,14656.077652
1038.402568,-3627.009116,3140.991542,14656.077652
1038.402897,-2516.700203,-1378.971896,14137.933492
1038.403227,-2516.700203,-5975.544884,9918.759623
1038.403557,-1110.308913,-8656.879127,5773.606348
1038.403886,1258.350101,-7584.345430,5107.421000
1038.404216,2664.741391,-4136.915689,7031.956449
1038.404546,3256.906145,919.314598,8068.244768
1038.404875,2812.782580,3370.820191,9178.553681
1038.405205,3404.947333,4903.011187,9918.759623
1038.405534,4441.235652,5745.716235,11251.130318
1038.405864,4589.276840,3753.867940,12065.356855
1038.406194,2960.823768,2068.457845,11621.233289
1038.406523,296.082377,-842.705048,11103.089130
1038.406853,-1776.494261,-2068.457845,12065.356855
1038.407183,-3330.926739,-1762.019645,10436.903782
1038.407512,-2886.803174,-2757.943793,7772.162391
1038.407842,148.041188,-4136.915689,5995.668130
1038.408172,3849.070898,-3064.381992,6069.688724
1038.408501,6957.935855,-153.219100,6661.853478
1038.408831,7624.121203,2987.772442,7105.977043
1038.409161,6365.771101,5056.230287,7994.224174
1038.409490,3330.926739,6511.811733,10881.027347
1038.409820,-148.041188,8273.831378,14508.036463
1038.410150,-3182.885551,7584.345430,14730.098246
1038.410479,-4219.173869,3524.039291,13841.851115
1038.410809,-5551.544565,-2374.896044,11621.233289
1038.411139,-6439.791695,-4903.011187,9992.780217
1038.411468,-5477.523971,-5286.058936,9326.594869
1038.411798,-3404.947333,-5439.278036,8586.388927
1038.412127,-3330.926739,-2528.115143,6957.935855
1038.412457,-2516.700203,383.047749,5033.400406
1038.412787,1406.391290,1455.581446,5921.647536
1038.413116,5921.647536,1991.848295,7550.100608
1038.413446,7624.121203,4979.620737,8956.491898
1038.413776,7105.977043,8427.050478,9548.656652
1038.414105,5181.441594,8197.221829,10362.883188
1038.414435,3256.906145,5439.278036,11991.336260
1038.414764,740.205942,4519.963438,12805.562797
1038.415094,-1554.432478,4366.744339,12731.542202
1038.415424,-2146.597232,2528.115143,11843.295072
1038.415753,-2294.638420,842.705048,9178.553681
1038.416083,-2516.700203,-1302.362347,6587.832884
1038.416412,-2146.597232,-3140.991542,6291.750507
1038.416742,-2664.741391,-2374.896044,7994.224174
1038.417072,-5329.482782,2068.457845,8512.368333
1038.417401,-6069.688724,4673.182538,8142.265362
1038.417731,-2664.741391,2604.724693,7920.203579
1038.418061,592.164754,-459.657299,7624.121203
1038.418390,2368.659014,-612.876398,6439.791695
1038.418720,2590.720797,536.266849,7624.121203
1038.419049,2886.803174,1991.848295,9400.615463
1038.419379,1998.556043,2604.724693,11325.150913
1038.419709,296.082377,3294.210641,11843.295072
1038.420038,444.123565,2298.286494,12065.356855
1038.420368,2146.597232,1302.362347,11695.253884
1038.420698,1924.535449,459.657299,11695.253884
1038.421027,370.102971,-689.485948,11547.212695
1038.421357,-2960.823768,-1838.629195,11991.336260
1038.421686,-6661.853478,-919.314598,11843.295072
1038.422016,-7846.182985,1149.143247,10066.800811
1038.422346,-4441.235652,-536.266849,8808.450710
1038.422675,0.000000,-3677.258390,7920.203579
1038.423005,3478.967927,-3600.648841,5329.482782
1038.423334,4293.194464,-1991.848295,3552.988522
1038.423664,4145.153275,-612.876398,5773.606348
1038.423994,1332.370696,2911.162892,10732.986159
1038.424323,-3182.885551,6435.202183,14285.974681
1038.424653,-6291.750507,6818.249932,15692.365970
1038.424983,-7105.977043,3753.867940,14878.139434
1038.425312,-5847.626942,306.438199,13027.624579
1038.425642,-5255.462188,-3677.258390,11177.109724
1038.425971,-6291.750507,-6818.249932,8438.347739
1038.426301,-7179.997637,-6052.154434,7105.977043
1038.426631,-5329.482782,-4826.401637,7402.059420
1038.426960,-2146.597232,-1455.581446,8734.430116
1038.427290,1554.432478,3064.381992,7254.018232
1038.427619,5477.523971,2911.162892,4737.318029
1038.427949,9178.553681,2145.067394,4071.132681
1038.428279,10066.800811,2681.334243,7772.162391
1038.428608,6587.832884,6205.373534,11991.336260
1038.428938,518.144159,10112.460574,14285.974681
1038.429268,-3923.091493,9499.584175,15026.180623
1038.429597,-4959.379811,5592.497135,13471.748144
1038.429927,-3849.070898,-689.485948,9770.718434
1038.430256,-2516.700203,-5898.935335,6883.915261
1038.430586,-3182.885551,-6435.202183,6439.791695
1038.430916,-5255.462188,-3753.867940,7698.141797
1038.431245,-5921.647536,1149.143247,7624.121203
1038.431575,-4219.173869,2221.676944,6587.832884
1038.431904,0.000000,689.485948,5847.626942
1038.432234,4441.235652,1378.971896,6217.729913
1038.432564,7402.059420,3753.867940,7624.121203
1038.432893,6735.874072,5515.887586,8882.471304
1038.433223,2738.761985,5975.544884,10140.821405
1038.433553,-740.205942,5362.668486,11917.315666
1038.433882,-1998.556043,4136.915689,15026.180623
1038.434212,-2664.741391,1532.190996,15544.324782
1038.434541,-3034.844362,1455.581446,12657.521608
1038.434871,-3478.967927,-1532.190996,9104.533087
1038.435201,-2146.597232,-5362.668486,8438.347739
1038.435530,-1702.473667,-4366.744339,8734.430116
1038.435860,-2220.617826,-536.266849,8142.265362
1038.436189,-962.267725,2757.943793,6957.935855
1038.436519,666.185348,1149.143247,6735.874072
1038.436849,2590.720797,689.485948,7179.997637
1038.437178,4293.194464,1838.629195,8068.244768
1038.437508,4071.132681,2451.505594,9844.739029
1038.437838,1554.432478,3447.429741,11769.274478
1038.438167,-2516.700203,4749.792088,13101.645173
1038.438497,-5477.523971,3677.258390,13619.789333
1038.438826,-6069.688724,766.095498,12435.459826
1038.439156,-5477.523971,-1072.533697,10807.006753
1038.439486,-3627.009116,-2145.067394,9548.656652
1038.439815,-3478.967927,-4136.915689,7920.203579
1038.440145,-4145.153275,-4366.744339,7920.203579
1038.440474,-4515.256246,-1762.019645,7550.100608
1038.440804,-3330.926739,842.705048,7624.121203
1038.441134,-962.267725,1762.019645,8068.244768
1038.441463,1332.370696,1455.581446,8068.244768
1038.441793,2960.823768,536.266849,7772.162391
1038.442123,3775.050304,76.609550,9178.553681
1038.442452,2664.741391,1685.410096,11843.295072
1038.442782,148.041188,4290.134789,13027.624579
1038.443111,-3034.844362,4519.963438,12731.542202
1038.443441,-3849.070898,2604.724693,10658.965565
1038.443771,-2146.597232,0.000000,9030.512492
1038.444100,518.144159,-2604.724693,8364.327145
1038.444430,74.020594,-2451.505594,7994.224174
1038.444760,-2590.720797,-919.314598,7476.080014
1038.445089,-3256.906145,0.000000,7772.162391
1038.445419,-2368.659014,383.047749,8512.368333
1038.445748,-814.226536,1072.533697,8882.471304
1038.446078,666.185348,1991.848295,8882.471304
1038.446408,3108.864956,1378.971896,8364.327145
1038.446737,4367.215058,1072.533697,8660.409521
1038.447067,2664.741391,2068.457845,9918.759623
1038.447396,222.061783,3524.039291,11399.171507
1038.447726,-2220.617826,4290.134789,12213.398043
1038.448056,-2886.803174,3294.210641,12583.501014
1038.448385,-2812.782580,1149.143247,11621.233289
1038.448715,-1702.473667,-766.095498,9918.759623
1038.449045,-1776.494261,-3447.429741,8586.388927
1038.449374,-2812.782580,-2911.162892,8216.285956
1038.449704,-3330.926739,-536.266849,7846.182985
1038.450033,-1628.453072,459.657299,7476.080014
1038.450363,740.205942,536.266849,7254.018232
1038.450693,1628.453072,536.266849,7105.977043
1038.451022,2146.597232,1302.362347,8142.265362
1038.451352,2220.617826,2451.505594,9992.780217
1038.451681,1184.329507,3600.648841,11621.233289
1038.452011,-1702.473667,4903.011187,11991.336260
1038.452341,-3478.967927,5056.230287,12287.418637
1038.452670,-2960.823768,2298.286494,12509.480420
1038.453000,-2294.638420,-1149.143247,12731.542202
1038.453330,-2294.638420,-1225.752797,10732.986159
1038.453659,-4219.173869,-842.705048,8734.430116
1038.453989,-4737.318029,-1685.410096,8734.430116
1038.454318,-4293.194464,-1149.143247,9104.533087
1038.454648,-3108.864956,612.876398,8364.327145
1038.454978,-666.185348,1378.971896,7105.977043
1038.455307,1554.432478,1072.533697,5773.606348
1038.455637,3256.906145,1838.629195,5551.544565
1038.455966,4589.276840,689.485948,7402.059420
1038.456296,3627.009116,1072.533697,10510.924376
1038.456626,222.061783,4903.011187,12287.418637
1038.456955,-2960.823768,6588.421283,12953.603985
1038.457285,-3849.070898,4673.182538,12657.521608
1038.457615,-2812.782580,2221.676944,12139.377449
1038.457944,-1554.432478,-766.095498,9992.780217
1038.458274,-1628.453072,-2681.334243,8290.306550
1038.458603,-2886.803174,-2451.505594,7402.059420
1038.458933,-4367.215058,-1838.629195,7328.038826
1038.459263,-3997.112087,-919.314598,7179.997637
1038.459592,-1924.535449,0.000000,7698.141797
1038.459922,888.247130,689.485948,7772.162391
1038.460251,3034.844362,1532.190996,6587.832884
1038.460581,4441.235652,842.705048,6661.853478
1038.460911,3478.967927,919.314598,9326.594869
1038.461240,518.144159,3600.648841,11843.295072
1038.461570,-2812.782580,5822.325785,13249.686362
1038.461900,-4219.173869,4749.792088,13767.830521
1038.462229,-4367.215058,2604.724693,12731.542202
1038.462559,-2960.823768,-766.095498,10807.006753
1038.462888,-2146.597232,-4213.525239,9178.553681
1038.463218,-2960.823768,-5209.449386,8660.409521
1038.463548,-4589.276840,-2221.676944,7846.182985
1038.463877,-4071.132681,-995.924147,7772.162391
1038.464207,-1628.453072,-1455.581446,8586.388927
1038.464536,1554.432478,-383.047749,8512.368333
1038.464866,3849.070898,1378.971896,7402.059420
1038.465196,5181.441594,1072.533697,7624.121203
1038.465525,4219.173869,1378.971896,10214.842000
1038.465855,740.205942,3370.820191,12879.583391
1038.466185,-2590.720797,4903.011187,14878.139434
1038.466514,-5033.400406,4903.011187,15100.201217
1038.466844,-5477.523971,2681.334243,13397.727550
1038.467173,-3701.029710,-1378.971896,10807.006753
1038.467503,-2368.659014,-4903.011187,8734.430116
1038.467833,-3034.844362,-4443.353888,7994.224174
1038.468162,-4071.132681,-1838.629195,7994.224174
1038.468492,-4441.235652,689.485948,7476.080014
1038.468822,-2220.617826,2145.067394,6587.832884
1038.469151,518.144159,1378.971896,5551.544565
1038.469481,3997.112087,306.438199,5773.606348
1038.469810,4811.338623,2145.067394,7328.038826
1038.470140,3478.967927,3140.991542,9474.636058
1038.470470,0.000000,4826.401637,11843.295072
1038.470799,-3404.947333,5669.106685,13693.809927
1038.471129,-3923.091493,5669.106685,14285.974681
1038.471458,-3849.070898,3294.210641,11991.336260
1038.471788,-2294.638420,-153.219100,8808.450710
1038.472118,-296.082377,-2604.724693,6069.688724
1038.472447,-518.144159,-3753.867940,5995.668130
1038.472777,-1998.556043,-1225.752797,7105.977043
1038.473107,-2368.659014,1608.800546,7994.224174
1038.473436,-1258.350101,3064.381992,7105.977043
1038.473766,1258.350101,1685.410096,6735.874072
1038.474095,3923.091493,536.266849,7402.059420
1038.474425,4959.379811,1608.800546,8586.388927
1038.474755,3552.988522,3524.039291,9844.739029
1038.475084,444.123565,4290.134789,11843.295072
1038.475414,-2738.761985,5822.325785,13767.830521
1038.475743,-4441.235652,5056.230287,13989.892304
1038.476073,-5107.421000,1762.019645,13323.706956
1038.476403,-3923.091493,-229.828649,11325.150913
1038.476732,-2368.659014,-1302.362347,8956.491898
1038.477062,-2738.761985,-3830.477490,8364.327145
1038.477392,-4293.194464,-3524.039291,7624.121203
1038.477721,-5329.482782,-1302.362347,7031.956449
1038.478051,-4145.153275,-383.047749,7254.018232
1038.478380,-666.185348,-383.047749,8364.327145
1038.478710,1110.308913,-229.828649,8142.265362
1038.479040,2664.741391,-306.438199,8216.285956
1038.479369,2442.679609,0.000000,9696.697840
1038.479699,1554.432478,2298.286494,12509.480420
1038.480028,0.000000,4903.011187,13693.809927
1038.480358,-2220.617826,4136.915689,13693.809927
1038.480688,-3034.844362,3217.601092,13175.665768
1038.481017,-2294.638420,919.314598,12287.418637
1038.481347,-1406.391290,-1532.190996,11177.109724
1038.481677,-2220.617826,-1991.848295,8586.388927
1038.482006,-3627.009116,-2681.334243,7772.162391
1038.482336,-4293.194464,-1608.800546,7624.121203
1038.482665,-3478.967927,76.609550,7031.956449
1038.482995,-1258.350101,-459.657299,6587.832884
1038.483325,1110.308913,-1302.362347,6661.853478
1038.483654,2294.638420,306.438199,7402.059420
1038.483984,2072.576638,1915.238745,9474.636058
1038.484313,370.102971,2757.943793,11843.295072
1038.484643,-2146.597232,5209.449386,12731.542202
1038.484973,-3627.009116,6052.154434,11843.295072
1038.485302,-3034.844362,3217.601092,11843.295072
1038.485632,-1998.556043,1455.581446,10881.027347
1038.485962,-1332.370696,0.000000,9178.553681
1038.486291,-1850.514855,-2528.115143,7402.059420
1038.486621,-2812.782580,-1838.629195,7179.997637
1038.486950,-2146.597232,0.000000,7402.059420
1038.487280,0.000000,919.314598,8216.285956
1038.487610,1776.494261,1225.752797,7179.997637
1038.487939,2960.823768,1991.848295,6513.812290
1038.488269,4737.318029,2604.724693,7105.977043
1038.488598,3997.112087,3064.381992,9474.636058
1038.488928,1850.514855,5439.278036,11251.130318
1038.489258,-1184.329507,6435.202183,12287.418637
1038.489587,-3108.864956,5362.668486,12509.480420
1038.489917,-3923.091493,3217.601092,11843.295072
1038.490247,-3849.070898,383.047749,11029.068536
1038.490576,-3701.029710,-2604.724693,9030.512492
1038.490906,-4367.215058,-3370.820191,8216.285956
1038.491235,-5921.647536,-2757.943793,8290.306550
1038.491565,-5477.523971,-1225.752797,8808.450710
1038.491895,-3701.029710,-229.828649,8660.409521
1038.492224,-1258.350101,689.485948,7698.141797
1038.492554,1258.350101,306.438199,6957.935855
1038.492884,3552.988522,689.485948,7476.080014
1038.493213,4367.215058,1762.019645,9622.677246
1038.493543,1850.514855,3294.210641,11843.295072
1038.493872,-1480.411884,5132.839837,12287.418637
1038.494202,-2886.803174,5362.668486,12583.501014
1038.494532,-2590.720797,2298.286494,13027.624579
1038.494861,-2146.597232,-153.219100,12287.418637
1038.495191,-2368.659014,-1455.581446,10584.944971
1038.495520,-3552.988522,-3370.820191,9252.574275
1038.495850,-4367.215058,-3064.381992,8586.388927
1038.496180,-4737.318029,-2068.457845,8290.306550
1038.496509,-3256.906145,0.000000,7846.182985
1038.496839,-666.185348,536.266849,7031.956449
1038.497169,2368.659014,0.000000,5403.503377
1038.497498,4811.338623,-459.657299,6291.750507
1038.497828,4885.359217,306.438199,9326.594869
1038.498157,1628.453072,2604.724693,12731.542202
1038.498487,-3404.947333,5439.278036,14508.036463
1038.498817,-4811.338623,6971.469032,14359.995275
1038.499146,-3701.029710,4290.134789,12731.542202
1038.499476,-1480.411884,-995.924147,10214.842000
1038.499805,-222.061783,-4979.620737,8142.265362
1038.500135,-962.267725,-5056.230287,7772.162391
1038.500465,-3182.885551,-1685.410096,7698.141797
1038.500794,-3701.029710,536.266849,7328.038826
1038.501124,-2146.597232,1455.581446,7105.977043
1038.501454,1184.329507,689.485948,6069.688724
1038.501783,4589.276840,-229.828649,6291.750507
1038.502113,7031.956449,995.924147,7402.059420
1038.502442,5995.668130,4213.525239,8660.409521
1038.502772,2368.659014,5822.325785,10066.800811
1038.503102,-1406.391290,5592.497135,12065.356855
1038.503431,-3404.947333,4826.401637,13841.851115
1038.503761,-3923.091493,3983.696590,14063.912898
1038.504090,-4071.132681,1915.238745,11843.295072
1038.504420,-3552.988522,-766.095498,9030.512492
1038.504750,-3775.050304,-3753.867940,7105.977043
1038.505079,-5033.400406,-4443.353888,7328.038826
1038.505409,-6143.709319,-1685.410096,7550.100608
1038.505739,-5773.606348,1072.533697,7254.018232
1038.506068,-3330.926739,919.314598,7254.018232
1038.506398,-222.061783,0.000000,7031.956449
1038.506727,2812.782580,-153.219100,7698.141797
1038.507057,4071.132681,153.219100,9326.594869
1038.507387,2368.659014,2681.334243,11029.068536
1038.507716,-740.205942,4903.011187,12731.542202
1038.508046,-2738.761985,5286.058936,13397.727550
1038.508375,-2738.761985,4213.525239,14656.077652
1038.508705,-2072.576638,2374.896044,14137.933492
1038.509035,-1628.453072,0.000000,11547.212695
1038.509364,-1924.535449,-1991.848295,8808.450710
1038.509694,-2886.803174,-3064.381992,7994.224174
1038.510024,-3997.112087,-3064.381992,8216.285956
1038.510353,-3182.885551,-1149.143247,7994.224174
1038.510683,-1184.329507,1225.752797,7772.162391
1038.511012,1332.370696,1302.362347,6735.874072
1038.511342,3478.967927,459.657299,6513.812290
1038.511672,4589.276840,229.828649,8068.244768
1038.512001,2442.679609,2528.115143,10955.047942
1038.512331,-1554.432478,4903.011187,13175.665768
1038.512660,-4293.194464,7277.907231,13767.830521
1038.512990,-5477.523971,5056.230287,12583.501014
1038.513320,-4145.153275,459.657299,10807.006753
1038.513649,-1850.514855,-3217.601092,9252.574275
1038.513979,-888.247130,-4290.134789,8142.265362
1038.514309,-2368.659014,-2757.943793,7846.182985
1038.514638,-3478.967927,-1225.752797,6883.915261
1038.514968,-2294.638420,-229.828649,6809.894666
1038.515298,1036.288319,1378.971896,7105.977043
1038.515627,4293.194464,1149.143247,7105.977043
1038.515957,6661.853478,2757.943793,6957.935855
1038.516287,6439.791695,3677.258390,8068.244768
1038.516616,4515.256246,4136.915689,9696.697840
1038.516946,1110.308913,4673.182538,11547.212695
1038.517276,-1110.308913,4903.011187,13101.645173
1038.517605,-2442.679609,4366.744339,12879.583391
1038.517935,-3478.967927,1532.190996,11621.233289
1038.518265,-3330.926739,-1838.629195,9918.759623
1038.518594,-2960.823768,-4060.306139,8956.491898
1038.518924,-4145.153275,-3447.429741,8882.471304
1038.519254,-5773.606348,-1149.143247,7920.203579
1038.519583,-5255.462188,995.924147,7476.080014
1038.519913,-2516.700203,153.219100,7624.121203
1038.520243,296.082377,-229.828649,8068.244768
1038.520572,1480.411884,229.828649,7846.182985
1038.520902,2072.576638,1225.752797,9030.512492
1038.521232,444.123565,2987.772442,11251.130318
1038.521562,-1998.556043,3983.696590,13323.706956
1038.521891,-3849.070898,4749.792088,13841.851115
1038.522221,-4071.132681,3217.601092,12583.501014
1038.522551,-3478.967927,1455.581446,11103.089130
1038.522880,-1998.556043,-1302.362347,9992.780217
1038.523210,-1924.535449,-2681.334243,8512.368333
1038.523540,-3256.906145,-2757.943793,8290.306550
1038.523869,-4663.297435,-1915.238745,8068.244768
1038.524199,-4515.256246,612.876398,7254.018232
1038.524529,-2294.638420,2451.505594,6217.729913
1038.524858,1406.391290,0.000000,7105.977043
1038.525188,3404.947333,-919.314598,7994.224174
1038.525518,2960.823768,995.924147,9992.780217
1038.525847,518.144159,2757.943793,12657.521608
1038.526177,-1554.432478,4443.353888,15100.201217
1038.526507,-4589.276840,6741.640382,14137.933492
1038.526836,-4737.318029,4366.744339,11473.192101
1038.527166,-2886.803174,-1608.800546,10214.842000
1038.527496,148.041188,-3907.087040,9548.656652
1038.527825,-148.041188,-2681.334243,8364.327145
1038.528155,-2368.659014,-2834.553343,7698.141797
1038.528485,-3997.112087,-459.657299,6735.874072
1038.528814,-2960.823768,1302.362347,5107.421000
1038.529144,1480.411884,0.000000,4885.359217
1038.529474,5921.647536,0.000000,5995.668130
1038.529803,7328.038826,1762.019645,7550.100608
1038.530133,5551.544565,4060.306139,8808.450710
1038.530463,2590.720797,4826.401637,10436.903782
1038.530792,222.061783,6818.249932,11917.315666
1038.531122,-666.185348,6435.202183,12435.459826
1038.531452,0.000000,2604.724693,13767.830521
1038.531781,-1036.288319,0.000000,12805.562797
1038.532111,-3182.885551,306.438199,9622.677246
1038.532441,-3923.091493,-1532.190996,6809.894666
1038.532770,-3849.070898,-4366.744339,7105.977043
1038.533100,-4293.194464,-2834.553343,8882.471304
1038.533430,-4737.318029,0.000000,7920.203579
1038.533759,-2738.761985,0.000000,6883.915261
1038.534089,518.144159,-536.266849,6957.935855
1038.534419,3701.029710,1532.190996,7105.977043
1038.534748,4959.379811,459.657299,8290.306550
1038.535078,3849.070898,383.047749,10362.883188
1038.535408,518.144159,4903.011187,13323.706956
1038.535737,-2368.659014,7354.516781,15396.283594
1038.536067,-3256.906145,5515.887586,15470.304188
1038.536397,-4737.318029,1838.629195,13027.624579
1038.536726,-4367.215058,-1302.362347,11029.068536
1038.537056,-3478.967927,-4213.525239,8882.471304
1038.537386,-3256.906145,-4826.401637,8586.388927
1038.537715,-4515.256246,-2528.115143,7772.162391
1038.538045,-5329.482782,-995.924147,6217.729913
1038.538375,-3256.906145,-919.314598,6365.771101
1038.538704,222.061783,-459.657299,7772.162391
1038.539034,2886.803174,2374.896044,7994.224174
1038.539364,3404.947333,3753.867940,7920.203579
1038.539693,2664.741391,2681.334243,9770.718434
1038.540023,222.061783,2987.772442,12287.418637
1038.540353,-2442.679609,4903.011187,13841.851115
1038.540682,-4885.359217,4443.353888,14508.036463
1038.541012,-6069.688724,3140.991542,14211.954086
1038.541342,-5477.523971,2298.286494,11621.233289
1038.541671,-3330.926739,-2681.334243,7105.977043
1038.542001,-1406.391290,-7048.078582,5107.421000
1038.542331,-1258.350101,-5209.449386,6735.874072
1038.542660,-2516.700203,-459.657299,8068.244768
1038.542990,-2516.700203,2528.115143,8438.347739
1038.543320,0.000000,3907.087040,7179.997637
1038.543649,4145.153275,2987.772442,6513.812290
1038.543979,7624.121203,1532.190996,7550.100608
1038.544309,7179.997637,2451.505594,9474.636058
1038.544638,3478.967927,4826.401637,10955.047942
1038.544968,-518.144159,5975.544884,11177.109724
1038.545298,-2442.679609,4596.572988,12287.418637
1038.545627,-2442.679609,2374.896044,13101.645173
1038.545957,-1702.473667,306.438199,12065.356855
1038.546287,-1628.453072,-766.095498,9252.574275
1038.546616,-1702.473667,-1532.190996,6439.791695
1038.546946,-2368.659014,-2528.115143,5847.626942
1038.547276,-2220.617826,-1072.533697,6587.832884
1038.547605,-1110.308913,1915.238745,7624.121203
1038.547935,370.102971,2681.334243,8068.244768
1038.548265,2368.659014,2604.724693,7402.059420
1038.548594,3701.029710,2221.676944,7698.141797
1038.548924,3108.864956,2221.676944,9474.636058
1038.549254,444.123565,2451.505594,11991.336260
1038.549584,-2664.741391,3983.696590,14063.912898
1038.549913,-4071.132681,4290.134789,14211.954086
1038.550243,-4515.256246,1072.533697,13323.706956
1038.550573,-4219.173869,-1608.800546,11177.109724
1038.550902,-2738.761985,-3217.601092,8956.491898
1038.551232,-2294.638420,-3907.087040,7920.203579
1038.551562,-3034.844362,-2911.162892,7328.038826
1038.551891,-2960.823768,-459.657299,7105.977043
1038.552221,-1406.391290,459.657299,6587.832884
1038.552551,1036.288319,153.219100,8438.347739
1038.552880,2812.782580,1532.190996,10362.883188
1038.553210,2590.720797,3064.381992,10732.986159
1038.553540,1406.391290,3217.601092,10658.965565
1038.553869,-370.102971,3370.820191,12287.418637
1038.554199,-2368.659014,3830.477490,13027.624579
1038.554529,-3256.906145,2451.505594,13249.686362
1038.554858,-3701.029710,76.609550,11399.171507
1038.555188,-3627.009116,-1608.800546,9474.636058
1038.555518,-2886.803174,-2757.943793,8142.265362
1038.555847,-3330.926739,-4136.915689,7698.141797
1038.556177,-4293.194464,-3907.087040,8290.306550
1038.556507,-4071.132681,-919.314598,8512.368333
1038.556836,-2368.659014,919.314598,8586.388927
1038.557166,518.144159,1072.533697,7846.182985
1038.557496,2590.720797,612.876398,7031.956449
1038.557825,4219.173869,842.705048,7328.038826
1038.558155,5329.482782,2221.676944,9400.615463
1038.558485,3849.070898,3294.210641,11917.315666
1038.558814,296.082377,5669.106685,13027.624579
1038.559144,-3034.844362,5592.497135,11621.233289
1038.559474,-4219.173869,3294.210641,10436.903782
1038.559803,-1998.556043,766.095498,9770.718434
1038.560133,0.000000,-1991.848295,8660.409521
1038.560463,-370.102971,-2911.162892,7402.059420
1038.560792,-2294.638420,-2604.724693,6439.791695
1038.561122,-2368.659014,-919.314598,6217.729913
1038.561452,0.000000,76.609550,6513.812290
1038.561781,2146.597232,1378.971896,7402.059420
1038.562111,3330.926739,2528.115143,7624.121203
1038.562441,3997.112087,3064.381992,8364.327145
1038.562770,4441.235652,2757.943793,10288.862594
1038.563100,2146.597232,3294.210641,12953.603985
1038.563430,-1554.432478,4826.401637,14730.098246
1038.563759,-4367.215058,4213.525239,14211.954086
1038.564089,-4811.338623,2451.505594,12879.583391
1038.564419,-3552.988522,-766.095498,10732.986159
1038.564748,-2294.638420,-2451.505594,8586.388927
1038.565078,-2368.659014,-3753.867940,6365.771101
1038.565408,-3775.050304,-3524.039291,5773.606348
1038.565737,-3775.050304,-536.266849,6365.771101
1038.566067,-2738.761985,459.657299,8068.244768
1038.566397,-1480.411884,1225.752797,10066.800811
1038.566726,-962.267725,2834.553343,9844.739029
1038.567056,0.000000,2528.115143,8956.491898
1038.567386,1998.556043,1149.143247,9992.780217
1038.567715,1554.432478,1302.362347,11991.336260
1038.568045,-1258.350101,2451.505594,13471.748144
1038.568375,-3627.009116,3447.429741,13101.645173
1038.568704,-4293.194464,2374.896044,11547.212695
1038.569034,-2812.782580,766.095498,10732.986159
1038.569364,-1036.288319,-1532.190996,10362.883188
1038.569693,-1702.473667,-2681.334243,8660.409521
1038.570023,-3552.988522,-1225.752797,7920.203579
1038.570353,-4515.256246,-612.876398,7624.121203
1038.570682,-2738.761985,536.266849,7624.121203
1038.571012,-592.164754,383.047749,8216.285956
1038.571342,1258.350101,-1149.143247,8216.285956
1038.571671,2146.597232,76.609550,7550.100608
1038.572001,3034.844362,1532.190996,7179.997637
1038.572331,2812.782580,1302.362347,9622.677246
1038.572660,592.164754,2451.505594,12435.459826
1038.572990,-2368.659014,5592.497135,13249.686362
1038.573320,-2294.638420,4979.620737,12509.480420
1038.573649,-1036.288319,1685.410096,10732.986159
1038.573979,-296.082377,76.609550,8290.306550
1038.574309,-518.144159,-2528.115143,6957.935855
1038.574638,-1554.432478,-3600.648841,7179.997637
1038.574968,-2516.700203,842.705048,7402.059420
1038.575298,-2072.576638,2221.676944,6291.750507
1038.575627,518.144159,536.266849,5699.585753
1038.575957,2664.741391,-842.705048,6809.894666
1038.576287,3775.050304,536.266849,8216.285956
1038.576617,3923.091493,2068.457845,9030.512492
1038.576946,1850.514855,2528.115143,11547.212695
1038.577276,-1184.329507,4060.306139,14359.995275
1038.577606,-3997.112087,4749.792088,15322.262999
1038.577935,-4959.379811,3217.601092,14211.954086
1038.578265,-3256.906145,76.609550,11991.336260
1038.578595,-1406.391290,-2145.067394,8068.244768
1038.578924,-1258.350101,-3983.696590,6735.874072
1038.579254,-2072.576638,-4136.915689,7031.956449
1038.579584,-2442.679609,-1149.143247,7846.182985
1038.579913,-1702.473667,1532.190996,8142.265362
1038.580243,-814.226536,2298.286494,8808.450710
1038.580573,0.000000,2145.067394,9548.656652
1038.580902,1184.329507,2298.286494,10436.903782
1038.581232,2368.659014,2068.457845,11251.130318
1038.581562,1258.350101,1915.238745,11843.295072
1038.581891,-1184.329507,1991.848295,12731.542202
1038.582221,-3108.864956,1915.238745,13175.665768
1038.582551,-3997.112087,1532.190996,12731.542202
1038.582880,-2960.823768,766.095498,11177.109724
1038.583210,-1776.494261,-995.924147,8956.491898
1038.583540,-888.247130,-2145.067394,7105.977043
1038.583869,-962.267725,-2145.067394,6143.709319
1038.584199,-1776.494261,-1378.971896,6735.874072
1038.584529,-888.247130,995.924147,7550.100608
1038.584858,222.061783,2604.724693,7476.080014
1038.585188,1036.288319,2374.896044,7550.100608
1038.585518,1702.473667,1915.238745,7920.203579
1038.585847,1406.391290,1608.800546,9178.553681
1038.586177,0.000000,2451.505594,10732.986159
1038.586507,-2886.803174,2911.162892,12065.356855
1038.586836,-4737.318029,3447.429741,12805.562797
1038.587166,-5033.400406,1838.629195,12583.501014
1038.587496,-3997.112087,-995.924147,11547.212695
1038.587825,-2442.679609,-1608.800546,8956.491898
1038.588155,-1332.370696,-2451.505594,6513.812290
1038.588485,-1036.288319,-2528.115143,6439.791695
1038.588814,-370.102971,-383.047749,6957.935855
1038.589144,1036.288319,2451.505594,6809.894666
1038.589474,3034.844362,2528.115143,6069.688724
1038.589803,5107.421000,1608.800546,6513.812290
1038.590133,5847.626942,2604.724693,8438.347739
1038.590463,5181.441594,3830.477490,9992.780217
1038.590792,3108.864956,3447.429741,12065.356855
1038.591122,-962.267725,3753.867940,14211.954086
1038.591452,-4219.173869,4443.353888,15174.221811
1038.591781,-6217.729913,2451.505594,14656.077652
1038.592111,-5477.523971,-306.438199,13175.665768
1038.592441,-4737.318029,-1072.533697,9474.636058
1038.592770,-4737.318029,-2987.772442,7105.977043
1038.593100,-5033.400406,-4060.306139,6143.709319
1038.593430,-5181.441594,-2145.067394,6069.688724
1038.593759,-3997.112087,689.485948,6365.771101
1038.594089,-1776.494261,995.924147,7254.018232
1038.594419,0.000000,1378.971896,7994.224174
1038.594748,962.267725,2068.457845,7328.038826
1038.595078,2516.700203,1455.581446,9178.553681
1038.595408,2146.597232,2145.067394,11843.295072
1038.595737,-592.164754,5132.839837,12509.480420
1038.596067,-2368.659014,5975.544884,12805.562797
1038.596397,-2590.720797,2145.067394,12213.398043
1038.596726,-2146.597232,995.924147,12435.459826
1038.597056,-1184.329507,-766.095498,12731.542202
1038.597386,-1998.556043,-2298.286494,10955.047942
1038.597715,-4219.173869,-1685.410096,8660.409521
1038.598045,-4811.338623,-995.924147,7402.059420
1038.598375,-2590.720797,-766.095498,7550.100608
1038.598704,222.061783,306.438199,6439.791695
1038.599034,2220.617826,383.047749,5107.421000
1038.599364,3775.050304,-1225.752797,5403.503377
1038.599693,3404.947333,1072.533697,7476.080014
1038.600023,1628.453072,3600.648841,11177.109724
1038.600353,-1258.350101,4443.353888,13545.768739
1038.600682,-3849.070898,5286.058936,13397.727550
1038.601012,-3997.112087,4443.353888,12805.562797
1038.601342,-2960.823768,-383.047749,12583.501014
1038.601671,-1702.473667,-2068.457845,11695.253884
1038.602001,-1998.556043,-1762.019645,9622.677246
1038.602331,-3627.009116,-2145.067394,7550.100608
1038.602660,-4071.132681,-1991.848295,6809.894666
1038.602990,-2220.617826,842.705048,5921.647536
1038.603320,1406.391290,612.876398,5921.647536
1038.603650,3997.112087,536.266849,6291.750507
1038.603979,5033.400406,2451.505594,6957.935855
1038.604309,5181.441594,3524.039291,7550.100608
1038.604639,3627.009116,2681.334243,8956.491898
1038.604968,740.205942,4290.134789,12509.480420
1038.605298,-2368.659014,5362.668486,14211.954086
1038.605628,-3849.070898,4290.134789,13841.851115
1038.605957,-4219.173869,919.314598,11991.336260
1038.606287,-3775.050304,-1455.581446,9696.697840
1038.606617,-3256.906145,-2145.067394,7698.141797
1038.606946,-4737.318029,-3217.601092,7772.162391
1038.607276,-6217.729913,-919.314598,7698.141797
1038.607606,-6069.688724,1072.533697,7550.100608
1038.607935,-3849.070898,1378.971896,7402.059420
1038.608265,-1480.411884,536.266849,7624.121203
1038.608595,148.041188,689.485948,7994.224174
1038.608924,1480.411884,1532.190996,8956.491898
1038.609254,1628.453072,1608.800546,10362.883188
1038.609584,-666.185348,3600.648841,11695.253884
1038.609913,-2590.720797,4749.792088,12509.480420
1038.610243,-2960.823768,2298.286494,11843.295072
1038.610573,-1628.453072,0.000000,12583.501014
1038.610902,-814.226536,76.609550,12435.459826
1038.611232,-1480.411884,-1072.533697,11029.068536
1038.611562,-2960.823768,-3294.210641,9918.759623
1038.611891,-4145.153275,-2068.457845,9400.615463
1038.612221,-3330.926739,842.705048,9030.512492
1038.612550,518.144159,689.485948,8142.265362
1038.612880,3923.091493,0.000000,7105.977043
1038.613210,4589.276840,1455.581446,5847.626942
1038.613539,3997.112087,1532.190996,5995.668130
1038.613869,2812.782580,1991.848295,8956.491898
1038.614198,0.000000,4749.792088,12583.501014
1038.614528,-3404.947333,5898.935335,14285.974681
1038.614857,-4959.379811,4519.963438,14063.912898
1038.615187,-4737.318029,1149.143247,11991.336260
1038.615516,-2960.823768,-2604.724693,9918.759623
1038.615846,-740.205942,-4903.011187,8068.244768
1038.616175,-1184.329507,-4443.353888,6735.874072
1038.616505,-1998.556043,-1762.019645,6661.853478
1038.616834,-1036.288319,1225.752797,6439.791695
1038.617164,2072.576638,2374.896044,6439.791695
1038.617494,4663.297435,2604.724693,6291.750507
1038.617823,6291.750507,2757.943793,6809.894666
1038.618153,6735.874072,3140.991542,7846.182985
1038.618482,5255.462188,3447.429741,9992.780217
1038.618812,1776.494261,2987.772442,12657.521608
1038.619141,-2368.659014,4366.744339,14508.036463
1038.619471,-4737.318029,3753.867940,14285.974681
1038.619800,-4589.276840,1149.143247,12805.562797
1038.620130,-3404.947333,-689.485948,10436.903782
1038.620459,-2590.720797,-2528.115143,7994.224174
1038.620789,-3108.864956,-4213.525239,7179.997637
1038.621118,-5033.400406,-1455.581446,7328.038826
1038.621448,-5625.565159,1532.190996,7328.038826
1038.621778,-3997.112087,2528.115143,6809.894666
1038.622107,-1776.494261,1225.752797,7624.121203
1038.622437,592.164754,995.924147,8068.244768
1038.622766,1480.411884,1532.190996,9104.533087
1038.623096,1480.411884,1302.362347,9770.718434
1038.623425,-592.164754,2911.162892,10955.047942
1038.623755,-2516.700203,3907.087040,12213.398043
1038.624084,-3034.844362,2757.943793,12731.542202
1038.624414,-3923.091493,2145.067394,12065.356855
1038.624743,-3701.029710,1685.410096,11621.233289
1038.625073,-2812.782580,-459.657299,9918.759623
1038.625402,-3256.906145,-3294.210641,9992.780217
1038.625732,-5255.462188,-2298.286494,9918.759623
1038.626061,-5921.647536,0.000000,9178.553681
1038.626391,-4219.173869,-383.047749,7105.977043
1038.626721,-296.082377,-153.219100,6735.874072
1038.627050,2368.659014,-612.876398,7105.977043
1038.627380,4071.132681,-306.438199,7328.038826
1038.627709,3701.029710,1608.800546,8438.347739
1038.628039,1406.391290,3907.087040,10658.965565
1038.628368,-1110.308913,6052.154434,12509.480420
1038.628698,-2664.741391,4826.401637,13915.871710
1038.629027,-2738.761985,2757.943793,13989.892304
1038.629357,-2886.803174,1378.971896,11547.212695
1038.629686,-2738.761985,-2068.457845,9474.636058
1038.630016,-1776.494261,-3447.429741,8512.368333
1038.630345,-2960.823768,-2681.334243,8586.388927
1038.630675,-2664.741391,-995.924147,7105.977043
1038.631005,-888.247130,842.705048,5181.441594
1038.631334,2368.659014,1225.752797,4589.276840
1038.631664,5107.421000,1762.019645,5847.626942
1038.631993,6143.709319,1762.019645,7179.997637
1038.632323,5033.400406,2911.162892,9400.615463
1038.632652,2368.659014,4290.134789,11621.233289
1038.632982,-666.185348,5669.106685,13027.624579
1038.633311,-2664.741391,5362.668486,13249.686362
1038.633641,-2812.782580,1378.971896,13027.624579
1038.633970,-2368.659014,-1225.752797,11029.068536
1038.634300,-1184.329507,-1532.190996,9252.574275
1038.634629,-518.144159,-3294.210641,8438.347739
1038.634959,-2664.741391,-2528.115143,8734.430116
1038.635288,-5107.421000,995.924147,8290.306550
1038.635618,-3849.070898,2528.115143,7328.038826
1038.635948,-370.102971,1532.190996,6587.832884
1038.636277,1702.473667,2068.457845,6069.688724
1038.636607,2442.679609,1532.190996,7031.956449
1038.636936,2368.659014,0.000000,9474.636058
1038.637266,-592.164754,2451.505594,11843.295072
1038.637595,-4145.153275,5056.230287,13101.645173
1038.637925,-5625.565159,3983.696590,12657.521608
1038.638254,-4293.194464,766.095498,12583.501014
1038.638584,-3404.947333,-1532.190996,11991.336260
1038.638913,-2664.741391,-2911.162892,10658.965565
1038.639243,-3478.967927,-3217.601092,9030.512492
1038.639572,-5255.462188,-1685.410096,8438.347739
1038.639902,-4367.215058,-229.828649,9030.512492
1038.640232,-2812.782580,995.924147,8364.327145
1038.640561,74.020594,1072.533697,6439.791695
1038.640891,2738.761985,-689.485948,5403.503377
1038.641220,3701.029710,-536.266849,6883.915261
1038.641550,2812.782580,2374.896044,9844.739029
1038.641879,148.041188,4060.306139,12805.562797
1038.642209,-2368.659014,4903.011187,14508.036463
1038.642538,-4441.235652,6281.983084,14137.933492
1038.642868,-4515.256246,3907.087040,11769.274478
1038.643197,-2886.803174,-995.924147,9474.636058
1038.643527,-1036.288319,-4519.963438,9178.553681
1038.643856,-2664.741391,-4903.011187,9844.739029
1038.644186,-5551.544565,-2374.896044,10288.862594
1038.644516,-6143.709319,-383.047749,8586.388927
1038.644845,-3849.070898,612.876398,6439.791695
1038.645175,666.185348,229.828649,5033.400406
1038.645504,5699.585753,-612.876398,4589.276840
1038.645834,8882.471304,459.657299,5181.441594
1038.646163,8438.347739,2374.896044,6735.874072
1038.646493,5403.503377,4903.011187,10362.883188
1038.646822,1258.350101,6894.859482,13841.851115
1038.647152,-1258.350101,8503.660028,14434.015869
1038.647481,-2368.659014,5745.716235,13249.686362
1038.647811,-1702.473667,1532.190996,11621.233289
1038.648140,-962.267725,-1838.629195,9992.780217
1038.648470,-1628.453072,-3753.867940,9178.553681
1038.648799,-4293.194464,-4213.525239,8882.471304
1038.649129,-6661.853478,-766.095498,7179.997637
1038.649459,-5995.668130,1302.362347,5625.565159
1038.649788,-1850.514855,229.828649,5847.626942
1038.650118,1480.411884,-536.266849,6513.812290
1038.650447,2886.803174,2068.457845,6439.791695
1038.650777,2960.823768,2068.457845,7920.203579
1038.651106,1776.494261,2911.162892,11325.150913
1038.651436,-1332.370696,5898.935335,14285.974681
1038.651765,-3849.070898,5592.497135,14211.954086
1038.652095,-4145.153275,1608.800546,13175.665768
1038.652424,-3182.885551,153.219100,11769.274478
1038.652754,-1924.535449,-1685.410096,10140.821405
1038.653083,-888.247130,-3677.258390,9400.615463
1038.653413,-2516.700203,-3677.258390,8586.388927
1038.653743,-4367.215058,-689.485948,7476.080014
1038.654072,-3997.112087,1149.143247,7328.038826
1038.654402,-1036.288319,1762.019645,7772.162391
1038.654731,1850.514855,1225.752797,9030.512492
1038.655061,2442.679609,1685.410096,9030.512492
1038.655390,2368.659014,1838.629195,9252.574275
1038.655720,1258.350101,2834.553343,10362.883188
1038.656049,-1480.411884,3677.258390,12361.439231
1038.656379,-4441.235652,4060.306139,12953.603985
1038.656708,-5773.606348,2451.505594,11843.295072
1038.657038,-4959.379811,-153.219100,10658.965565
1038.657367,-3478.967927,-2757.943793,10066.800811
1038.657697,-3108.864956,-4443.353888,10066.800811
1038.658027,-4589.276840,-2987.772442,9548.656652
1038.658356,-5625.565159,-1302.362347,8216.285956
1038.658686,-3627.009116,229.828649,7105.977043
1038.659015,444.123565,2068.457845,6661.853478
1038.659345,4589.276840,1378.971896,6957.935855
1038.659674,6661.853478,1685.410096,7031.956449
1038.660004,6809.894666,2834.553343,6957.935855
1038.660333,5107.421000,2911.162892,8512.368333
1038.660663,2220.617826,4596.572988,11547.212695
1038.660992,-444.123565,5669.106685,13397.727550
1038.661322,-2442.679609,5515.887586,13175.665768
1038.661651,-2886.803174,1532.190996,11769.274478
1038.661981,-2294.638420,-1838.629195,9918.759623
1038.662310,-1776.494261,-2911.162892,9030.512492
1038.662640,-2738.761985,-3830.477490,8956.491898
1038.662970,-5403.503377,-1378.971896,8216.285956
1038.663299,-5033.400406,2374.896044,6069.688724
1038.663629,-1850.514855,1532.190996,4959.379811
1038.663958,1998.556043,-229.828649,5773.606348
1038.664288,3627.009116,1149.143247,7031.956449
1038.664617,3182.885551,2911.162892,7846.182985
1038.664947,1406.391290,2911.162892,10140.821405
1038.665276,-1924.535449,3524.039291,12879.583391
1038.665606,-4293.194464,4979.620737,14285.974681
1038.665935,-4959.379811,2451.505594,13915.871710
1038.666265,-4145.153275,-459.657299,12731.542202
1038.666594,-2812.782580,-1302.362347,11547.212695
1038.666924,-1480.411884,-3217.601092,10066.800811
1038.667254,-1406.391290,-4366.744339,9104.533087
1038.667583,-2368.659014,-1225.752797,8216.285956
1038.667913,-2368.659014,2987.772442,5551.544565
1038.668242,814.226536,3140.991542,4737.318029
1038.668572,3849.070898,-306.438199,6587.832884
1038.668901,4441.235652,1072.533697,9252.574275
1038.669231,2368.659014,3140.991542,10066.800811
1038.669560,0.000000,2834.553343,11473.192101
1038.669890,-2072.576638,3907.087040,13027.624579
1038.670219,-3701.029710,3907.087040,13175.665768
1038.670549,-4071.132681,-383.047749,12657.521608
1038.670878,-3775.050304,-2911.162892,12583.501014
1038.671208,-3330.926739,-689.485948,12361.439231
1038.671537,-3552.988522,-612.876398,11251.130318
1038.671867,-4367.215058,-2604.724693,9252.574275
1038.672197,-4663.297435,-1149.143247,7624.121203
1038.672526,-2516.700203,-153.219100,5847.626942
1038.672856,1258.350101,459.657299,4589.276840
1038.673185,4293.194464,1378.971896,4589.276840
1038.673515,5329.482782,1762.019645,6217.729913
1038.673844,4959.379811,1762.019645,7328.038826
1038.674174,3478.967927,2987.772442,9474.636058
1038.674503,1554.432478,5669.106685,11917.315666
1038.674833,-1258.350101,6358.592633,12583.501014
1038.675162,-2368.659014,4903.011187,11473.192101
1038.675492,-2220.617826,536.266849,11547.212695
1038.675821,-1258.350101,-2681.334243,11843.295072
1038.676151,-2368.659014,-1838.629195,10510.924376
1038.676481,-4515.256246,-1378.971896,8586.388927
1038.676810,-5403.503377,-2298.286494,7772.162391
1038.677140,-4219.173869,-536.266849,7031.956449
1038.677469,-1258.350101,-153.219100,5699.585753
1038.677799,2072.576638,-383.047749,4737.318029
1038.678128,4071.132681,689.485948,5403.503377
1038.678458,3701.029710,2451.505594,7550.100608
1038.678787,2664.741391,2757.943793,10658.965565
1038.679117,-148.041188,4290.134789,13249.686362
1038.679446,-3034.844362,6052.154434,14211.954086
1038.679776,-4219.173869,4826.401637,14582.057057
1038.680105,-3997.112087,1915.238745,13915.871710
1038.680435,-2664.741391,-1149.143247,12065.356855
1038.680765,-2294.638420,-4290.134789,9918.759623
1038.681094,-3552.988522,-4213.525239,8068.244768
1038.681424,-5255.462188,-2681.334243,7550.100608
1038.681753,-4811.338623,-919.314598,7550.100608
1038.682083,-1628.453072,383.047749,6587.832884
1038.682412,1036.288319,0.000000,6439.791695
1038.682742,3478.967927,383.047749,6439.791695
1038.683071,4737.318029,1608.800546,8142.265362
1038.683401,3997.112087,2528.115143,10362.883188
1038.683730,370.102971,5056.230287,12879.583391
1038.684060,-2516.700203,5898.935335,13915.871710
1038.684389,-3256.906145,3677.258390,14582.057057
1038.684719,-3182.885551,536.266849,13915.871710
1038.685048,-3404.947333,-919.314598,12435.459826
1038.685378,-3034.844362,-2528.115143,10066.800811
1038.685708,-3478.967927,-4673.182538,9178.553681
1038.686037,-4737.318029,-2604.724693,7402.059420
1038.686367,-4663.297435,-306.438199,6143.709319
1038.686696,-1480.411884,612.876398,5551.544565
1038.687026,1776.494261,612.876398,4885.359217
1038.687355,3701.029710,1991.848295,5329.482782
1038.687685,5403.503377,2911.162892,6883.915261
1038.688014,4959.379811,3370.820191,8586.388927
1038.688344,2146.597232,5132.839837,11251.130318
1038.688673,-1480.411884,7354.516781,12805.562797
1038.689003,-2812.782580,4903.011187,13545.768739
1038.689332,-2960.823768,1072.533697,13767.830521
1038.689662,-3256.906145,-1072.533697,12805.562797
1038.689992,-2812.782580,-1608.800546,10214.842000
1038.690321,-2960.823768,-2987.772442,8660.409521
1038.690651,-2516.700203,-2681.334243,7254.018232
1038.690980,-2738.761985,-383.047749,5181.441594
1038.691310,666.185348,1378.971896,3849.070898
1038.691639,4293.194464,1455.581446,4219.173869
1038.691969,5995.668130,3370.820191,5699.585753
1038.692298,5551.544565,4443.353888,7772.162391
1038.692628,3478.967927,4136.915689,10214.842000
1038.692957,0.000000,4749.792088,13249.686362
1038.693287,-3701.029710,5898.935335,15470.304188
1038.693616,-6291.750507,4366.744339,16284.530724
1038.693946,-6439.791695,459.657299,14804.118840
1038.694276,-5477.523971,-2451.505594,11251.130318
1038.694605,-4145.153275,-3907.087040,7476.080014
1038.694935,-3849.070898,-4979.620737,5847.626942
1038.695264,-4589.276840,-3983.696590,5847.626942
1038.695594,-4663.297435,-536.266849,6069.688724
1038.695923,-2960.823768,1608.800546,5921.647536
1038.696253,814.226536,1608.800546,7772.162391
1038.696582,3256.906145,1991.848295,9104.533087
1038.696912,4145.153275,2451.505594,9252.574275
1038.697241,2812.782580,1762.019645,9844.739029
1038.697571,1406.391290,2681.334243,11917.315666
1038.697900,-1184.329507,3907.087040,15396.283594
1038.698230,-2812.782580,2528.115143,16284.530724
1038.698559,-4737.318029,995.924147,14211.954086
1038.698889,-4811.338623,-919.314598,11695.253884
1038.699219,-2146.597232,-2987.772442,9992.780217
1038.699548,-1258.350101,-4290.134789,8660.409521
1038.699878,-2294.638420,-3064.381992,7994.224174
1038.700207,-3108.864956,-766.095498,5847.626942
1038.700537,-1332.370696,1302.362347,5255.462188
1038.700866,1702.473667,1455.581446,6661.853478
1038.701196,3701.029710,1838.629195,7179.997637
1038.701525,3849.070898,2068.457845,7105.977043
1038.701855,2664.741391,2604.724693,8068.244768
1038.702184,814.226536,2911.162892,11473.192101
1038.702514,-2294.638420,3907.087040,14211.954086
1038.702843,-4515.256246,4136.915689,14582.057057
1038.703173,-4737.318029,1991.848295,12731.542202
1038.703503,-3701.029710,0.000000,10436.903782
1038.703832,-962.267725,-2298.286494,8956.491898
1038.704162,74.020594,-4060.306139,7846.182985
1038.704491,-962.267725,-2911.162892,7254.018232
1038.704821,-1998.556043,612.876398,5921.647536
1038.705150,444.123565,3600.648841,5033.400406
1038.705480,3849.070898,3294.210641,5107.421000
1038.705809,5995.668130,2374.896044,5773.606348
1038.706139,5995.668130,2757.943793,6735.874072
1038.706468,4811.338623,2834.553343,9326.594869
1038.706798,1776.494261,3830.477490,12213.398043
1038.707127,-2590.720797,5745.716235,14730.098246
1038.707457,-5403.503377,4596.572988,14730.098246
1038.707786,-6217.729913,1149.143247,13915.871710
1038.708116,-5255.462188,-1225.752797,11843.295072
1038.708446,-3256.906145,-1685.410096,8438.347739
1038.708775,-2738.761985,-2987.772442,7254.018232
1038.709105,-3627.009116,-3370.820191,7105.977043
1038.709434,-4589.276840,0.000000,7179.997637
1038.709764,-3478.967927,1608.800546,6587.832884
1038.710093,-814.226536,1608.800546,5847.626942
1038.710423,1406.391290,1072.533697,7772.162391
1038.710752,1776.494261,1762.019645,9474.636058
1038.711082,1184.329507,2221.676944,10732.986159
1038.711411,-148.041188,2374.896044,11843.295072
1038.711741,-1924.535449,2757.943793,13101.645173
1038.712070,-2664.741391,2681.334243,14211.954086
1038.712400,-3256.906145,1072.533697,14285.974681
1038.712730,-3256.906145,-766.095498,12805.562797
1038.713059,-2368.659014,-612.876398,10436.903782
1038.713389,-1036.288319,-1532.190996,8660.409521
1038.713718,-1480.411884,-2451.505594,8068.244768
1038.714048,-2146.597232,-766.095498,7846.182985
1038.714377,-1850.514855,1455.581446,6587.832884
1038.714707,592.164754,1608.800546,5773.606348
1038.715037,2886.803174,842.705048,6587.832884
1038.715366,3627.009116,1378.971896,7846.182985
1038.715696,2664.741391,2221.676944,8586.388927
1038.716026,888.247130,1225.752797,11029.068536
1038.716356,-1406.391290,2604.724693,14063.912898
1038.716685,-4293.194464,4673.182538,14952.160028
1038.717015,-5699.585753,3064.381992,13693.809927
1038.717345,-4737.318029,-229.828649,11843.295072
1038.717674,-1850.514855,-2145.067394,9696.697840
1038.718004,-148.041188,-3447.429741,7476.080014
1038.718334,-518.144159,-3064.381992,6217.729913
1038.718664,-1258.350101,1072.533697,4515.256246
1038.718993,444.123565,2451.505594,3256.906145
1038.719323,3552.988522,1685.410096,4293.194464
1038.719653,5921.647536,2145.067394,5699.585753
1038.719982,6069.688724,3140.991542,7031.956449
1038.720312,5403.503377,2451.505594,9622.677246
1038.720642,3478.967927,3064.381992,13397.727550
1038.720972,-222.061783,4519.963438,16136.489536
1038.721301,-3627.009116,5056.230287,16210.510130
1038.721631,-5107.421000,2528.115143,13693.809927
1038.721961,-4811.338623,995.924147,10807.006753
1038.722291,-3627.009116,-1532.190996,8512.368333
1038.722620,-2516.700203,-5132.839837,7476.080014
1038.722950,-4737.318029,-4519.963438,6957.935855
1038.723280,-6883.915261,-919.314598,7254.018232
1038.723609,-5329.482782,2068.457845,7328.038826
1038.723939,-1480.411884,1915.238745,6883.915261
1038.724269,1258.350101,-229.828649,5847.626942
1038.724599,2516.700203,-766.095498,6809.894666
1038.724928,2738.761985,1532.190996,10140.821405
1038.725258,1406.391290,4979.620737,13989.892304
1038.725588,-1702.473667,6052.154434,15914.427753
1038.725917,-4737.318029,4060.306139,14285.974681
1038.726247,-5107.421000,1455.581446,12953.603985
1038.726577,-2960.823768,-1915.238745,13471.748144
1038.726907,-1554.432478,-1532.190996,12361.439231
1038.727236,-2442.679609,-1302.362347,9474.636058
1038.727566,-3256.906145,-3447.429741,5847.626942
1038.727896,-3034.844362,-2374.896044,4959.379811
1038.728226,-814.226536,0.000000,5921.647536
1038.728555,1998.556043,1532.190996,6217.729913
1038.728885,2368.659014,1608.800546,6809.894666
1038.729215,1924.535449,4060.306139,6957.935855
1038.729544,2146.597232,4673.182538,7846.182985
1038.729874,1480.411884,2451.505594,11177.109724
1038.730204,-1036.288319,4596.572988,13101.645173
1038.730534,-4589.276840,3907.087040,13619.789333
1038.730863,-6365.771101,76.609550,12731.542202
1038.731193,-6069.688724,-995.924147,11991.336260
1038.731523,-4737.318029,-2451.505594,11547.212695
1038.731852,-2960.823768,-2911.162892,9992.780217
1038.732182,-3330.926739,-2681.334243,7476.080014
1038.732512,-2368.659014,-1608.800546,5181.441594
1038.732842,1554.432478,766.095498,3552.988522
1038.733171,5181.441594,919.314598,4071.132681
1038.733501,7254.018232,3370.820191,6069.688724
1038.733831,6735.874072,5209.449386,7254.018232
1038.734161,6069.688724,4443.353888,8290.306550
1038.734490,5255.462188,3600.648841,11029.068536
1038.734820,1998.556043,3064.381992,14952.160028
1038.735150,-2294.638420,4826.401637,16506.592507
1038.735479,-5255.462188,3064.381992,14508.036463
1038.735809,-4811.338623,-919.314598,12509.480420
1038.736139,-2960.823768,-2298.286494,10658.965565
1038.736469,-2516.700203,-3753.867940,8216.285956
1038.736798,-3849.070898,-4443.353888,7772.162391
1038.737128,-4885.359217,-1149.143247,6883.915261
1038.737458,-4441.235652,2604.724693,5551.544565
1038.737787,-1406.391290,1915.238745,5551.544565
1038.738117,814.226536,153.219100,7031.956449
1038.738447,1036.288319,1378.971896,8290.306550
1038.738777,444.123565,2681.334243,9400.615463
1038.739106,-592.164754,3217.601092,10881.027347
1038.739436,-2072.576638,3983.696590,12583.501014
1038.739766,-4293.194464,2068.457845,13693.809927
1038.740096,-4515.256246,459.657299,13619.789333
1038.740425,-4737.318029,0.000000,12879.583391
1038.740755,-3627.009116,-689.485948,10658.965565
1038.741085,-2220.617826,-1302.362347,8808.450710
1038.741414,-2220.617826,-2911.162892,8364.327145
1038.741744,-2516.700203,-1838.629195,8438.347739
1038.742074,-1850.514855,919.314598,6587.832884
1038.742404,148.041188,2221.676944,6291.750507
1038.742733,2368.659014,2298.286494,7105.977043
1038.743063,2590.720797,1302.362347,8290.306550
1038.743393,2220.617826,2068.457845,9104.533087
1038.743722,0.000000,2911.162892,10732.986159
1038.744052,-2442.679609,4366.744339,12435.459826
1038.744382,-4515.256246,4903.011187,12583.501014
1038.744712,-5107.421000,459.657299,13249.686362
1038.745041,-5033.400406,-2298.286494,12953.603985
1038.745371,-5033.400406,-1072.533697,11547.212695
1038.745701,-4293.194464,-1838.629195,8364.327145
1038.746031,-3182.885551,-2604.724693,6661.853478
1038.746360,-2812.782580,-1915.238745,5847.626942
1038.746690,-666.185348,-306.438199,5699.585753
1038.747020,3627.009116,383.047749,5403.503377
1038.747349,5403.503377,2451.505594,6143.709319
1038.747679,5625.565159,4366.744339,6809.894666
1038.748009,6217.729913,2681.334243,9252.574275
1038.748339,5921.647536,1762.019645,11843.295072
1038.748668,2664.741391,4443.353888,13767.830521
1038.748998,-1184.329507,6281.983084,13249.686362
1038.749328,-2886.803174,4443.353888,11695.253884
1038.749657,-2516.700203,0.000000,11177.109724
1038.749987,-1924.535449,-3217.601092,10732.986159
1038.750317,-1702.473667,-2298.286494,8956.491898
1038.750647,-3034.844362,-1991.848295,7254.018232
1038.750976,-4885.359217,-1302.362347,7624.121203
1038.751306,-4737.318029,229.828649,7179.997637
1038.751636,-2368.659014,842.705048,6883.915261
1038.751966,1258.350101,0.000000,6809.894666
1038.752295,2590.720797,1762.019645,7994.224174
1038.752625,2072.576638,3064.381992,8882.471304
1038.752955,740.205942,1762.019645,11251.130318
1038.753284,-1702.473667,1378.971896,13989.892304
1038.753614,-3923.091493,4366.744339,15174.221811
1038.753944,-4811.338623,4060.306139,14211.954086
1038.754274,-4145.153275,612.876398,12435.459826
1038.754603,-2590.720797,-1762.019645,10881.027347
1038.754933,-1628.453072,-3064.381992,9030.512492
1038.755263,-1554.432478,-3370.820191,7550.100608
1038.755592,-2072.576638,-766.095498,6809.894666
1038.755922,-2368.659014,2068.457845,6957.935855
1038.756252,-1406.391290,1532.190996,7402.059420
1038.756582,370.102971,842.705048,8438.347739
1038.756911,2368.659014,1762.019645,8808.450710
1038.757241,3330.926739,2757.943793,9918.759623
1038.757571,1110.308913,3600.648841,10288.862594
1038.757901,-1850.514855,3677.258390,11473.192101
1038.758230,-3997.112087,2604.724693,11695.253884
1038.758560,-4293.194464,1991.848295,12213.398043
1038.758890,-4367.215058,919.314598,12583.501014
1038.759219,-4219.173869,-153.219100,11843.295072
1038.759549,-4737.318029,-2374.896044,9030.512492
1038.759879,-4959.379811,-3830.477490,7772.162391
1038.760209,-4737.318029,-2221.676944,7105.977043
1038.760538,-2886.803174,919.314598,6661.853478
1038.760868,518.144159,1838.629195,5181.441594
1038.761198,3256.906145,1608.800546,4293.194464
1038.761527,5403.503377,1838.629195,5107.421000
1038.761857,6661.853478,1762.019645,7254.018232
1038.762187,6217.729913,3064.381992,9918.759623
1038.762517,2738.761985,5286.058936,12879.583391
1038.762846,-666.185348,6971.469032,13619.789333
1038.763176,-2368.659014,4136.915689,13323.706956
1038.763506,-2368.659014,995.924147,12435.459826
1038.763836,-1628.453072,-1149.143247,11399.171507
1038.764165,-1406.391290,-2374.896044,9844.739029
1038.764495,-2590.720797,-2681.334243,7846.182985
1038.764825,-4663.297435,-2451.505594,7772.162391
1038.765154,-5107.421000,-536.266849,7698.141797
1038.765484,-3182.885551,1762.019645,7105.977043
1038.765814,-296.082377,1072.533697,6661.853478
1038.766144,2146.597232,995.924147,6587.832884
1038.766473,2590.720797,1225.752797,7698.141797
1038.766803,2146.597232,1378.971896,10584.944971
1038.767133,-518.144159,2604.724693,13619.789333
1038.767462,-3923.091493,4673.182538,14952.160028
1038.767792,-4885.359217,4519.963438,13767.830521
1038.768122,-4367.215058,1072.533697,11843.295072
1038.768452,-2220.617826,-1991.848295,11177.109724
1038.768781,-962.267725,-3294.210641,9474.636058
1038.769111,-1924.535449,-3217.601092,8438.347739
1038.769441,-3404.947333,-536.266849,7920.203579
1038.769771,-3552.988522,1685.410096,7254.018232
1038.770100,-1110.308913,2374.896044,6957.935855
1038.770430,1480.411884,842.705048,7254.018232
1038.770760,2886.803174,689.485948,8068.244768
1038.771089,2886.803174,2911.162892,8660.409521
1038.771419,1702.473667,2987.772442,9178.553681
1038.771749,-740.205942,2757.943793,11843.295072
1038.772079,-3330.926739,2374.896044,13915.871710
1038.772408,-5625.565159,2298.286494,13545.768739
1038.772738,-5625.565159,1225.752797,11843.295072
1038.773068,-4219.173869,0.000000,9918.759623
1038.773397,-2812.782580,-1532.190996,8290.306550
1038.773727,-2072.576638,-3677.258390,6735.874072
1038.774057,-2516.700203,-3753.867940,6883.915261
1038.774387,-2590.720797,306.438199,6957.935855
1038.774716,-1332.370696,3370.820191,6809.894666
1038.775046,1332.370696,2681.334243,6513.812290
1038.775376,3478.967927,1302.362347,7476.080014
1038.775706,5033.400406,1991.848295,8364.327145
1038.776035,5181.441594,2374.896044,9770.718434
1038.776365,2812.782580,3217.601092,11473.192101
1038.776695,-1480.411884,4979.620737,12139.377449
1038.777024,-3478.967927,3524.039291,12509.480420
1038.777354,-3404.947333,689.485948,12435.459826
1038.777684,-2664.741391,-536.266849,12139.377449
1038.778014,-1554.432478,-1072.533697,9770.718434
1038.778343,-1110.308913,-2451.505594,8068.244768
1038.778673,-2072.576638,-4673.182538,6365.771101
1038.779003,-2516.700203,-1608.800546,6809.894666
1038.779332,-962.267725,1685.410096,6735.874072
1038.779662,1776.494261,2911.162892,6883.915261
1038.779992,3552.988522,2145.067394,6957.935855
1038.780322,4219.173869,1225.752797,8290.306550
1038.780651,3256.906145,919.314598,9992.780217
1038.780981,1036.288319,1991.848295,14359.995275
1038.781311,-2812.782580,4060.306139,16284.530724
1038.781641,-6069.688724,5439.278036,15174.221811
1038.781970,-6365.771101,2298.286494,12731.542202
1038.782300,-3330.926739,-2451.505594,10584.944971
1038.782630,-1332.370696,-3294.210641,8956.491898
1038.782959,-888.247130,-2757.943793,6439.791695
1038.783289,-2220.617826,-2757.943793,5625.565159
1038.783619,-3552.988522,-383.047749,5995.668130
1038.783949,-3182.885551,1991.848295,6883.915261
1038.784278,-1036.288319,1762.019645,8290.306550
1038.784608,1406.391290,1302.362347,8660.409521
1038.784938,1776.494261,2604.724693,8290.306550
1038.785267,2220.617826,1838.629195,9474.636058
1038.785597,1184.329507,612.876398,11991.336260
1038.785927,-1554.432478,2145.067394,14878.139434
1038.786257,-4589.276840,4213.525239,14878.139434
1038.786586,-5773.606348,2604.724693,12805.562797
1038.786916,-4885.359217,306.438199,11177.109724
1038.787246,-1924.535449,-2298.286494,9696.697840
1038.787576,-740.205942,-3217.601092,8734.430116
1038.787905,-1628.453072,-2451.505594,6809.894666
1038.788235,-2886.803174,0.000000,5699.585753
1038.788565,-1554.432478,1378.971896,5329.482782
1038.788894,888.247130,1225.752797,6735.874072
1038.789224,2072.576638,1225.752797,7994.224174
1038.789554,2812.782580,2757.943793,8068.244768
1038.789884,3034.844362,3830.477490,7920.203579
1038.790213,2368.659014,2451.505594,11103.089130
1038.790543,0.000000,3140.991542,14582.057057
1038.790873,-3330.926739,5056.230287,14656.077652
1038.791202,-5625.565159,3447.429741,12065.356855
1038.791532,-4589.276840,919.314598,10510.924376
1038.791862,-2220.617826,-612.876398,9178.553681
1038.792192,-518.144159,-3294.210641,8142.265362
1038.792521,-1332.370696,-4903.011187,7179.997637
1038.792851,-2442.679609,-766.095498,5847.626942
1038.793181,-1554.432478,2681.334243,4737.318029
1038.793511,1850.514855,1532.190996,4959.379811
1038.793840,3923.091493,919.314598,6587.832884
1038.794170,4219.173869,2757.943793,8512.368333
1038.794500,3923.091493,2911.162892,9770.718434
1038.794829,2294.638420,3294.210641,12509.480420
1038.795159,-1480.411884,5132.839837,14878.139434
1038.795489,-4441.235652,4673.182538,15100.201217
1038.795819,-5551.544565,1915.238745,13545.768739
1038.796148,-4737.318029,-1149.143247,11399.171507
1038.796478,-3923.091493,-1532.190996,9030.512492
1038.796808,-3775.050304,-3447.429741,7254.018232
1038.797137,-4367.215058,-4136.915689,7105.977043
1038.797467,-5773.606348,-1838.629195,7994.224174
1038.797797,-5403.503377,1532.190996,7550.100608
1038.798127,-3552.988522,1991.848295,7179.997637
1038.798456,-592.164754,536.266849,7846.182985
1038.798786,888.247130,1072.533697,8808.450710
1038.799116,2220.617826,2451.505594,9918.759623
1038.799446,2886.803174,2374.896044,11325.150913
1038.799775,1554.432478,3677.258390,12139.377449
1038.800105,-2590.720797,4979.620737,12509.480420
1038.800435,-5477.523971,2987.772442,12731.542202
1038.800764,-5995.668130,-536.266849,14359.995275
1038.801094,-6069.688724,0.000000,13989.892304
1038.801424,-6513.812290,-842.705048,10881.027347
1038.801754,-6587.832884,-3830.477490,8956.491898
1038.802083,-6661.853478,-3830.477490,7328.038826
1038.802413,-5255.462188,-1608.800546,5329.482782
1038.802743,-1776.494261,-612.876398,3997.112087
1038.803072,1554.432478,-383.047749,4293.194464
1038.803402,2294.638420,1685.410096,6365.771101
1038.803732,1924.535449,3983.696590,7476.080014
1038.804062,1406.391290,4366.744339,8808.450710
1038.804391,0.000000,5056.230287,10658.965565
1038.804721,-3034.844362,6511.811733,12509.480420
1038.805051,-6809.894666,5592.497135,11991.336260
1038.805381,-8068.244768,1915.238745,12139.377449
1038.805710,-7772.162391,-1532.190996,11325.150913
1038.806040,-7550.100608,-2451.505594,9548.656652
1038.806370,-6661.853478,-3064.381992,7698.141797
1038.806699,-5699.585753,-4136.915689,7105.977043
1038.807029,-4515.256246,-2451.505594,7994.224174
1038.807359,-3923.091493,612.876398,7254.018232
1038.807689,-2738.761985,2221.676944,6809.894666
1038.808018,-1110.308913,2757.943793,7772.162391
1038.808348,370.102971,3524.039291,9252.574275
1038.808678,814.226536,3830.477490,9992.780217
1038.809007,592.164754,3140.991542,9844.739029
1038.809337,-1036.288319,1762.019645,10288.862594
1038.809667,-3701.029710,919.314598,11843.295072
1038.809997,-6587.832884,1685.410096,13767.830521
1038.810326,-8364.327145,536.266849,13175.665768
1038.810656,-8216.285956,0.000000,12287.418637
1038.810986,-7920.203579,-766.095498,10436.903782
1038.811316,-6735.874072,-689.485948,9474.636058
1038.811645,-4367.215058,-1149.143247,8216.285956
1038.811975,-2590.720797,0.000000,7254.018232
1038.812305,-2146.597232,919.314598,7846.182985
1038.812634,-2738.761985,2757.943793,9178.553681
1038.812964,-4589.276840,2528.115143,9992.780217
1038.813294,-6439.791695,2298.286494,10288.862594
1038.813624,-7550.100608,1608.800546,9918.759623
1038.813953,-6735.874072,1072.533697,10510.924376
1038.814283,-5403.503377,0.000000,10214.842000
1038.814612,-4219.173869,-1149.143247,8882.471304
1038.814942,-2886.803174,-1302.362347,7179.997637
1038.815272,-962.267725,-153.219100,7031.956449
1038.815601,740.205942,1149.143247,8290.306550
1038.815931,296.082377,2451.505594,9178.553681
1038.816261,-1998.556043,3753.867940,9696.697840
1038.816590,-4145.153275,3830.477490,10288.862594
1038.816920,-5329.482782,2757.943793,10807.006753
1038.817249,-5699.585753,2145.067394,11547.212695
1038.817579,-6291.750507,0.000000,10436.903782
1038.817909,-5625.565159,-2681.334243,8660.409521
1038.818238,-3849.070898,-3447.429741,7624.121203
1038.818568,-2072.576638,-2451.505594,7105.977043
1038.818898,0.000000,-1225.752797,7624.121203
1038.819227,1036.288319,919.314598,8512.368333
1038.819557,-518.144159,2911.162892,8882.471304
1038.819887,-2738.761985,4060.306139,10066.800811
1038.820216,-4885.359217,4519.963438,11621.233289
1038.820546,-7105.977043,4136.915689,12213.398043
1038.820875,-8068.244768,2987.772442,11325.150913
1038.821205,-7846.182985,0.000000,9844.739029
1038.821535,-5181.441594,-2451.505594,8586.388927
1038.821864,-2590.720797,-4673.182538,7624.121203
1038.822194,-1258.350101,-3753.867940,6587.832884
1038.822524,0.000000,-536.266849,6809.894666
1038.822853,888.247130,1149.143247,8216.285956
1038.823183,814.226536,3907.087040,10658.965565
1038.823513,-1332.370696,6894.859482,12213.398043
1038.823842,-4071.132681,6665.030833,12953.603985
1038.824172,-6587.832884,4749.792088,13323.706956
1038.824501,-8364.327145,2374.896044,13545.768739
1038.824831,-8882.471304,0.000000,13323.706956
1038.825161,-9104.533087,-2298.286494,10510.924376
1038.825490,-7772.162391,-4519.963438,7031.956449
1038.825820,-4219.173869,-5209.449386,5033.400406
1038.826150,222.061783,-3830.477490,4737.318029
1038.826479,3108.864956,-612.876398,5403.503377
1038.826809,3627.009116,3140.991542,6809.894666
1038.827138,1702.473667,6511.811733,8660.409521
1038.827468,-296.082377,10342.289223,10732.986159
1038.827798,-2590.720797,8656.879127,12731.542202
1038.828127,-5625.565159,5822.325785,13989.892304
1038.828457,-8512.368333,1838.629195,14137.933492
1038.828787,-10807.006753,-1302.362347,13101.645173
1038.829116,-11769.274478,-4060.306139,11029.068536
1038.829446,-10807.006753,-5898.935335,8142.265362
1038.829776,-8660.409521,-6052.154434,5847.626942
1038.830105,-4589.276840,-4596.572988,4737.318029
1038.830435,-370.102971,-1762.019645,4293.194464
1038.830764,2368.659014,1455.581446,5181.441594
1038.831094,2590.720797,5132.839837,6809.894666
1038.831424,1110.308913,8350.440928,7994.224174
1038.831753,-888.247130,8656.879127,10955.047942
1038.832083,-3256.906145,7354.516781,12731.542202
1038.832413,-5403.503377,3983.696590,13101.645173
1038.832742,-7846.182985,-383.047749,11991.336260
1038.833072,-9030.512492,-4213.525239,10732.986159
1038.833402,-8882.471304,-6052.154434,10584.944971
1038.833731,-7179.997637,-6128.763984,9770.718434
1038.834061,-5477.523971,-4290.134789,8364.327145
1038.834390,-3108.864956,-2068.457845,7105.977043
1038.834720,-370.102971,-229.828649,7846.182985
1038.835050,1184.329507,2681.334243,9104.533087
1038.835379,1332.370696,5898.935335,10362.883188
1038.835709,-370.102971,6741.640382,11177.109724
1038.836039,-2590.720797,4749.792088,12065.356855
1038.836368,-4885.359217,2604.724693,12583.501014
1038.836698,-6143.709319,919.314598,12435.459826
1038.837027,-7254.018232,-1685.410096,10214.842000
1038.837357,-7105.977043,-4366.744339,7476.080014
1038.837687,-5107.421000,-5439.278036,6513.812290
1038.838016,-3034.844362,-3447.429741,7254.018232
1038.838346,-2368.659014,-1072.533697,7254.018232
1038.838676,-1850.514855,2068.457845,7624.121203
1038.839005,-1702.473667,4749.792088,8882.471304
1038.839335,-1850.514855,7201.297681,10066.800811
1038.839665,-2146.597232,7048.078582,11251.130318
1038.839994,-2960.823768,4519.963438,11769.274478
1038.840324,-4293.194464,2451.505594,12287.418637
1038.840653,-5107.421000,1608.800546,11843.295072
1038.840983,-6365.771101,76.609550,10881.027347
1038.841313,-6513.812290,-1378.971896,9622.677246
1038.841642,-5329.482782,-1991.848295,8586.388927
1038.841972,-3034.844362,76.609550,7476.080014
1038.842302,-1184.329507,2068.457845,7254.018232
1038.842631,-148.041188,3064.381992,7920.203579
1038.842961,-444.123565,4903.011187,8068.244768
1038.843291,-1628.453072,6435.202183,8808.450710
1038.843620,-2368.659014,6511.811733,10288.862594
1038.843950,-2812.782580,4903.011187,10436.903782
1038.844279,-3849.070898,3524.039291,10066.800811
1038.844609,-3849.070898,1685.410096,9178.553681
1038.844939,-3182.885551,0.000000,8660.409521
1038.845268,-2442.679609,-766.095498,8142.265362
1038.845598,-2220.617826,1149.143247,8512.368333
1038.845928,-2146.597232,2681.334243,9104.533087
1038.846257,-2368.659014,4749.792088,9770.718434
1038.846587,-2368.659014,5439.278036,10214.842000
1038.846916,-2220.617826,5822.325785,10214.842000
1038.847246,-1776.494261,5286.058936,10140.821405
1038.847576,-1554.432478,4903.011187,9918.759623
1038.847905,-1258.350101,3294.210641,9696.697840
1038.848235,-1184.329507,2145.067394,9326.594869
1038.848565,-740.205942,2145.067394,8956.491898
1038.848894,-1480.411884,2145.067394,8882.471304
1038.849224,-1184.329507,2911.162892,9696.697840
1038.849554,-1036.288319,3907.087040,10436.903782
1038.849883,-1258.350101,5439.278036,10807.006753
1038.850213,-2368.659014,6665.030833,11177.109724
1038.850542,-3478.967927,6741.640382,10584.944971
1038.850872,-3256.906145,6128.763984,9770.718434
1038.851202,-3330.926739,4979.620737,8438.347739
1038.851531,-2368.659014,3294.210641,7105.977043
1038.851861,-962.267725,1302.362347,5847.626942
1038.852191,-148.041188,383.047749,5625.565159
1038.852520,0.000000,919.314598,6735.874072
1038.852850,-1406.391290,2068.457845,7550.100608
1038.853180,-1924.535449,4290.134789,9252.574275
1038.853509,-2294.638420,5592.497135,10584.944971
1038.853839,-2368.659014,6205.373534,11547.212695
1038.854168,-1628.453072,6205.373534,11399.171507
1038.854498,-1332.370696,5669.106685,10732.986159
1038.854828,-296.082377,4903.011187,10584.944971
1038.855157,-222.061783,3753.867940,10436.903782
1038.855487,-518.144159,3447.429741,9770.718434
1038.855817,-296.082377,2451.505594,9030.512492
1038.856146,-518.144159,2834.553343,8586.388927
1038.856476,148.041188,2834.553343,8586.388927
1038.856805,444.123565,2911.162892,9178.553681
1038.857135,148.041188,2451.505594,9770.718434
1038.857465,-1110.308913,3294.210641,10510.924376
1038.857794,-2294.638420,5056.230287,11177.109724
1038.858124,-2738.761985,4903.011187,11695.253884
1038.858454,-2368.659014,4519.963438,11843.295072
1038.858783,-2146.597232,4290.134789,11325.150913
1038.859113,-1924.535449,4443.353888,10362.883188
1038.859443,-1036.288319,4826.401637,9400.615463
1038.859772,-444.123565,5056.230287,9474.636058
1038.860102,148.041188,5592.497135,8734.430116
1038.860431,814.226536,5132.839837,7328.038826
1038.860761,1036.288319,3677.258390,5995.668130
1038.861091,1036.288319,2528.115143,5773.606348
1038.861420,222.061783,1762.019645,6957.935855
1038.861750,-962.267725,2145.067394,8660.409521
1038.862080,-2738.761985,2987.772442,9696.697840
1038.862409,-3775.050304,3370.820191,10288.862594
1038.862739,-3404.947333,4213.525239,11103.089130
1038.863069,-2220.617826,4826.401637,11843.295072
1038.863398,-1332.370696,5669.106685,11177.109724
1038.863728,-518.144159,6205.373534,9918.759623
1038.864057,370.102971,6205.373534,9622.677246
1038.864387,666.185348,6435.202183,9252.574275
1038.864717,0.000000,6665.030833,8660.409521
1038.865046,-1110.308913,5745.716235,7698.141797
1038.865376,-1480.411884,3447.429741,6439.791695
1038.865706,-1480.411884,1378.971896,6439.791695
1038.866035,-1998.556043,0.000000,6883.915261
1038.866365,-2516.700203,-612.876398,7476.080014
1038.866694,-3330.926739,-229.828649,9178.553681
1038.867024,-2812.782580,1455.581446,10436.903782
1038.867354,-1924.535449,2911.162892,11843.295072
1038.867683,-740.205942,4290.134789,13101.645173
1038.868013,-296.082377,5822.325785,13101.645173
1038.868343,0.000000,6971.469032,12435.459826
1038.868672,370.102971,7048.078582,11399.171507
1038.869002,1036.288319,5362.668486,10362.883188
1038.869332,888.247130,4519.963438,10288.862594
1038.869661,0.000000,4136.915689,9326.594869
1038.869991,-1480.411884,3753.867940,8290.306550
1038.870320,-2146.597232,2911.162892,7624.121203
1038.870650,-1702.473667,1225.752797,7698.141797
1038.870980,-1332.370696,919.314598,8438.347739
1038.871309,-1110.308913,2911.162892,9104.533087
1038.871639,-592.164754,2681.334243,8734.430116
1038.871969,-962.267725,2681.334243,9104.533087
1038.872298,-1184.329507,4060.306139,10658.965565
1038.872628,-2294.638420,6588.421283,11621.233289
1038.872958,-2220.617826,7431.126331,12287.418637
1038.873287,-1702.473667,7277.907231,11769.274478
1038.873617,-2368.659014,6205.373534,10807.006753
1038.873946,-3108.864956,5669.106685,8734.430116
1038.874276,-2368.659014,4673.182538,6365.771101
1038.874606,0.000000,2911.162892,4441.235652
1038.874935,1924.535449,2374.896044,3923.091493
1038.875265,3627.009116,2221.676944,4589.276840
1038.875595,2368.659014,2451.505594,6365.771101
1038.875924,0.000000,3677.258390,8290.306550
1038.876254,-2368.659014,5745.716235,10658.965565
1038.876583,-3849.070898,6665.030833,13101.645173
1038.876913,-4145.153275,6205.373534,14285.974681
1038.877243,-4737.318029,5209.449386,14211.954086
1038.877572,-4959.379811,4213.525239,13027.624579
1038.877902,-3997.112087,3677.258390,10881.027347
1038.878232,-1628.453072,2757.943793,8660.409521
1038.878561,1406.391290,2451.505594,6513.812290
1038.878891,3330.926739,2221.676944,6069.688724
1038.879221,4293.194464,3447.429741,5921.647536
1038.879550,3701.029710,5132.839837,7105.977043
1038.879880,1258.350101,5515.887586,9326.594869
1038.880209,-2664.741391,7431.126331,11177.109724
1038.880539,-4885.359217,8963.317327,13989.892304
1038.880869,-5255.462188,6818.249932,14211.954086
1038.881198,-4293.194464,3983.696590,12805.562797
1038.881528,-3034.844362,1072.533697,9696.697840
1038.881858,-1628.453072,-229.828649,7031.956449
1038.882187,-222.061783,-229.828649,5921.647536
1038.882517,296.082377,1685.410096,7105.977043
1038.882847,148.041188,4443.353888,7994.224174
1038.883176,-592.164754,5439.278036,7476.080014
1038.883506,-444.123565,4749.792088,6661.853478
1038.883835,148.041188,2911.162892,7105.977043
1038.884165,0.000000,1838.629195,9474.636058
1038.884495,-1258.350101,3064.381992,12213.398043
1038.884824,-2812.782580,4826.401637,13175.665768
1038.885154,-3404.947333,4979.620737,13249.686362
1038.885484,-2960.823768,4366.744339,12657.521608
1038.885813,-2072.576638,3753.867940,10288.862594
1038.886143,-370.102971,2604.724693,7920.203579
1038.886472,1406.391290,76.609550,4885.359217
1038.886802,2442.679609,-1838.629195,4071.132681
1038.887132,1850.514855,-1608.800546,5255.462188
1038.887461,888.247130,229.828649,6883.915261
1038.887791,-814.226536,1685.410096,10140.821405
1038.888121,-2664.741391,3064.381992,13175.665768
1038.888450,-4515.256246,4749.792088,14211.954086
1038.888780,-4515.256246,3983.696590,14063.912898
1038.889110,-2368.659014,1991.848295,13397.727550
1038.889439,-740.205942,1302.362347,12879.583391
1038.889769,-814.226536,2757.943793,11547.212695
1038.890098,-518.144159,3600.648841,9474.636058
1038.890428,-222.061783,3983.696590,8586.388927
1038.890758,74.020594,4673.182538,7772.162391
1038.891087,444.123565,4749.792088,6291.750507
1038.891417,1850.514855,995.924147,4293.194464
1038.891747,1998.556043,-2298.286494,3923.091493
1038.892076,222.061783,-2757.943793,6143.709319
1038.892406,-2220.617826,-612.876398,9844.739029
1038.892736,-3775.050304,306.438199,13693.809927
1038.893065,-5625.565159,2987.772442,16210.510130
1038.893395,-6365.771101,7124.688131,15914.427753
1038.893724,-4219.173869,6435.202183,13693.809927
1038.894054,-222.061783,2298.286494,11547.212695
1038.894384,1480.411884,1762.019645,8290.306550
1038.894713,1332.370696,3677.258390,5403.503377
1038.895043,1406.391290,3524.039291,4737.318029
1038.895373,1258.350101,3140.991542,6069.688724
1038.895702,-296.082377,4213.525239,6217.729913
1038.896032,-1110.308913,2987.772442,4959.379811
1038.896361,-222.061783,76.609550,5181.441594
1038.896691,296.082377,-1762.019645,6883.915261
1038.897021,-740.205942,-1838.629195,9252.574275
1038.897350,-2516.700203,-766.095498,11843.295072
1038.897680,-4367.215058,1378.971896,14137.933492
1038.898010,-4219.173869,3830.477490,14285.974681
1038.898339,-3330.926739,4673.182538,13693.809927
1038.898669,-814.226536,2604.724693,11769.274478
1038.898999,1184.329507,919.314598,9252.574275
1038.899328,1554.432478,0.000000,6365.771101
1038.899658,1628.453072,612.876398,5107.421000
1038.899987,962.267725,995.924147,6513.812290
1038.900317,-296.082377,1225.752797,7254.018232
1038.900647,-1702.473667,995.924147,7254.018232
1038.900976,-1258.350101,-919.314598,8142.265362
1038.901306,74.020594,-1991.848295,9770.718434
1038.901636,-148.041188,-1762.019645,11103.089130
1038.901965,-1480.411884,-2298.286494,12361.439231
1038.902295,-3108.864956,-1762.019645,13767.830521
1038.902625,-4219.173869,919.314598,14730.098246
1038.902954,-3108.864956,2374.896044,15174.221811
1038.903284,-2072.576638,1378.971896,13915.871710
1038.903613,-1258.350101,153.219100,11251.130318
1038.903943,-296.082377,-1378.971896,8290.306550
1038.904273,296.082377,-2221.676944,7031.956449
1038.904602,296.082377,-1225.752797,7402.059420
1038.904932,222.061783,1225.752797,7254.018232
1038.905262,-296.082377,842.705048,7624.121203
1038.905591,222.061783,-153.219100,8364.327145
1038.905921,518.144159,0.000000,9696.697840
1038.906250,518.144159,383.047749,10658.965565
1038.906580,-592.164754,612.876398,11029.068536
1038.906910,-2146.597232,1302.362347,11103.089130
1038.907239,-2664.741391,2068.457845,12139.377449
1038.907569,-2146.597232,1838.629195,11325.150913
1038.907899,-2072.576638,459.657299,9400.615463
1038.908228,-1850.514855,-383.047749,8142.265362
1038.908558,-1850.514855,1378.971896,7624.121203
1038.908888,-962.267725,1685.410096,7105.977043
1038.909217,-814.226536,2068.457845,6957.935855
1038.909547,-1332.370696,3294.210641,6217.729913
1038.909876,-1036.288319,2757.943793,5699.585753
1038.910206,518.144159,1608.800546,6809.894666
1038.910536,962.267725,842.705048,7920.203579
1038.910865,148.041188,1608.800546,9400.615463
1038.911195,-1332.370696,1685.410096,10955.047942
1038.911525,-2886.803174,2757.943793,12435.459826
1038.911854,-4071.132681,3983.696590,12583.501014
1038.912184,-3701.029710,2604.724693,11991.336260
1038.912514,-2220.617826,1225.752797,10140.821405
1038.912843,-1184.329507,0.000000,9326.594869
1038.913173,-740.205942,229.828649,8660.409521
1038.913502,-444.123565,1149.143247,8216.285956
1038.913832,-444.123565,1608.800546,8216.285956
1038.914162,-1406.391290,2451.505594,8290.306550
1038.914491,-1332.370696,2911.162892,8068.244768
1038.914821,370.102971,1455.581446,7698.141797
1038.915151,2294.638420,-306.438199,8364.327145
1038.915480,2738.761985,-536.266849,9030.512492
1038.915810,1850.514855,383.047749,11029.068536
1038.916140,-370.102971,1225.752797,13249.686362
1038.916469,-3108.864956,3064.381992,14656.077652
1038.916799,-4515.256246,4060.306139,14211.954086
1038.917129,-3849.070898,1991.848295,12879.583391
1038.917458,-2072.576638,-536.266849,11547.212695
1038.917788,-1406.391290,-1685.410096,9178.553681
1038.918118,-666.185348,-2528.115143,6439.791695
1038.918447,0.000000,-2681.334243,5403.503377
1038.918777,0.000000,-612.876398,5329.482782
1038.919107,-222.061783,612.876398,6513.812290
1038.919436,370.102971,612.876398,7476.080014
1038.919766,1332.370696,689.485948,8290.306550
1038.920096,1406.391290,0.000000,8660.409521
1038.920425,296.082377,-1455.581446,9844.739029
1038.920755,-666.185348,-536.266849,12361.439231
1038.921085,-2738.761985,1608.800546,14359.995275
1038.921414,-3997.112087,3064.381992,13915.871710
1038.921744,-3627.009116,1532.190996,11843.295072
1038.922074,-2442.679609,-1455.581446,10732.986159
1038.922403,-1110.308913,-2298.286494,9252.574275
1038.922733,-666.185348,-536.266849,8216.285956
1038.923063,-296.082377,383.047749,6439.791695
1038.923392,148.041188,612.876398,5699.585753
1038.923722,444.123565,919.314598,6069.688724
1038.924052,666.185348,842.705048,6809.894666
1038.924381,888.247130,383.047749,8364.327145
1038.924711,444.123565,383.047749,9622.677246
1038.925041,-1258.350101,1225.752797,11029.068536
1038.925370,-2886.803174,842.705048,12805.562797
1038.925700,-3849.070898,1072.533697,13693.809927
1038.926030,-3997.112087,1149.143247,13101.645173
1038.926359,-3108.864956,842.705048,11547.212695
1038.926689,-1850.514855,76.609550,10214.842000
1038.927019,-1628.453072,0.000000,8586.388927
1038.927348,-1406.391290,0.000000,7179.997637
1038.927678,-888.247130,0.000000,6513.812290
1038.928008,-518.144159,1455.581446,6883.915261
1038.928337,-740.205942,3907.087040,7179.997637
1038.928667,-148.041188,2145.067394,6143.709319
1038.928997,1480.411884,-153.219100,6957.935855
1038.929326,2812.782580,-536.266849,8808.450710
1038.929656,1924.535449,842.705048,10807.006753
1038.929986,0.000000,1608.800546,12213.398043
1038.930315,-2368.659014,1991.848295,13249.686362
1038.930645,-3775.050304,3217.601092,13767.830521
1038.930975,-3552.988522,2528.115143,12731.542202
1038.931304,-1554.432478,536.266849,11029.068536
1038.931634,-740.205942,-536.266849,9400.615463
1038.931964,-444.123565,-766.095498,7402.059420
1038.932293,0.000000,-766.095498,6735.874072
1038.932623,444.123565,153.219100,6513.812290
1038.932953,666.185348,1378.971896,6513.812290
1038.933282,740.205942,2145.067394,7105.977043
1038.933612,1776.494261,1072.533697,8438.347739
1038.933942,1776.494261,536.266849,10066.800811
1038.934271,666.185348,229.828649,12213.398043
1038.934601,-1628.453072,1991.848295,13767.830521
1038.934931,-4293.194464,3600.648841,14137.933492
1038.935260,-4811.338623,2528.115143,13471.748144
1038.935590,-3627.009116,459.657299,11695.253884
1038.935920,-2072.576638,-1378.971896,9844.739029
1038.936249,-1776.494261,-1378.971896,7920.203579
1038.936579,-1406.391290,-459.657299,6587.832884
1038.936909,-592.164754,1072.533697,6291.750507
1038.937238,444.123565,1455.581446,6217.729913
1038.937568,1184.329507,2298.286494,5847.626942
1038.937898,1480.411884,1838.629195,5847.626942
1038.938227,2368.659014,1302.362347,6883.915261
1038.938557,1850.514855,612.876398,8216.285956
1038.938887,222.061783,459.657299,10732.986159
1038.939216,-2294.638420,1225.752797,13027.624579
1038.939546,-4441.235652,1378.971896,13693.809927
1038.939876,-4737.318029,1149.143247,12731.542202
1038.940205,-3478.967927,-383.047749,10436.903782
1038.940535,-2220.617826,-2451.505594,9400.615463
1038.940865,-1554.432478,-1608.800546,8660.409521
1038.941194,-1702.473667,0.000000,8142.265362
1038.941524,-888.247130,1072.533697,7994.224174
1038.941854,-592.164754,1608.800546,7846.182985
1038.942183,-888.247130,2145.067394,7476.080014
1038.942513,-518.144159,306.438199,6735.874072
1038.942843,444.123565,-1302.362347,7624.121203
1038.943172,1332.370696,-842.705048,9918.759623
1038.943502,666.185348,0.000000,11769.274478
1038.943832,-740.205942,-306.438199,12361.439231
1038.944161,-2590.720797,-153.219100,13175.665768
1038.944491,-3182.885551,383.047749,13619.789333
1038.944821,-2516.700203,1072.533697,12879.583391
1038.945150,-1258.350101,612.876398,11991.336260
1038.945480,-296.082377,-229.828649,10362.883188
1038.945810,0.000000,-842.705048,8660.409521
1038.946139,222.061783,-612.876398,7550.100608
1038.946469,518.144159,153.219100,7328.038826
1038.946799,74.020594,1149.143247,7179.997637
1038.947128,74.020594,1685.410096,6883.915261
1038.947458,1110.308913,842.705048,7550.100608
1038.947788,1924.535449,0.000000,9474.636058
1038.948117,1776.494261,229.828649,10732.986159
1038.948447,-592.164754,766.095498,11843.295072
1038.948777,-3330.926739,2604.724693,12509.480420
1038.949106,-4219.173869,4060.306139,13249.686362
1038.949436,-3997.112087,2987.772442,12287.418637
1038.949766,-2886.803174,1225.752797,10140.821405
1038.950095,-2442.679609,-536.266849,8364.327145
1038.950425,-2442.679609,-689.485948,7254.018232
1038.950755,-2146.597232,919.314598,5995.668130
1038.951084,-1850.514855,1915.238745,5625.565159
1038.951414,-666.185348,1762.019645,5477.523971
1038.951744,148.041188,1455.581446,5625.565159
1038.952073,962.267725,1302.362347,6513.812290
1038.952403,2146.597232,1225.752797,7550.100608
1038.952733,1110.308913,1532.190996,9178.553681
1038.953062,0.000000,2145.067394,11473.192101
1038.953392,-1480.411884,2987.772442,13841.851115
1038.953722,-2812.782580,3907.087040,14359.995275
1038.954051,-3108.864956,3294.210641,12509.480420
1038.954381,-1554.432478,1378.971896,10807.006753
1038.954711,-666.185348,-612.876398,8882.471304
1038.955040,-444.123565,-612.876398,8142.265362
1038.955370,-370.102971,76.609550,7772.162391
1038.955700,-740.205942,1685.410096,7624.121203
1038.956029,-2368.659014,1838.629195,6365.771101
1038.956359,-1850.514855,1225.752797,6439.791695
1038.956689,0.000000,153.219100,7846.182985
1038.957018,740.205942,536.266849,8956.491898
1038.957348,1184.329507,459.657299,9696.697840
1038.957678,1036.288319,-153.219100,11029.068536
1038.958007,-666.185348,612.876398,13397.727550
1038.958337,-3182.885551,2834.553343,14285.974681
1038.958667,-4145.153275,3140.991542,13323.706956
1038.958996,-2886.803174,919.314598,11917.315666
1038.959326,-1184.329507,-1532.190996,10362.883188
1038.959656,-444.123565,-1762.019645,8956.491898
1038.959985,-592.164754,-1915.238745,6957.935855
1038.960315,518.144159,-1685.410096,5921.647536
1038.960645,1258.350101,-229.828649,6291.750507
1038.960974,1628.453072,1225.752797,7179.997637
1038.961304,1702.473667,1608.800546,8142.265362
1038.961634,2442.679609,0.000000,9104.533087
1038.961963,1998.556043,76.609550,10584.944971
1038.962293,296.082377,919.314598,12731.542202
1038.962623,-2220.617826,1838.629195,14730.098246
1038.962952,-4219.173869,2604.724693,15174.221811
1038.963282,-4885.359217,2145.067394,13323.706956
1038.963612,-4293.194464,-229.828649,10807.006753
1038.963941,-2812.782580,-2451.505594,9252.574275
1038.964271,-2072.576638,-2451.505594,8290.306550
1038.964601,-2146.597232,-1302.362347,6513.812290
1038.964930,-1702.473667,536.266849,5847.626942
1038.965260,-518.144159,1149.143247,5995.668130
1038.965590,1036.288319,1302.362347,6143.709319
1038.965920,1628.453072,1302.362347,6883.915261
1038.966249,1702.473667,995.924147,7920.203579
1038.966579,888.247130,2145.067394,9918.759623
1038.966909,74.020594,2757.943793,12065.356855
1038.967238,-1776.494261,3064.381992,13693.809927
1038.967568,-3034.844362,3677.258390,13767.830521
1038.967898,-2960.823768,2374.896044,12287.418637
1038.968227,-2220.617826,612.876398,9918.759623
1038.968557,-1702.473667,-229.828649,8512.368333
1038.968887,-1628.453072,766.095498,7624.121203
1038.969216,-1554.432478,1532.190996,6661.853478
1038.969546,-1184.329507,1608.800546,6735.874072
1038.969876,-1036.288319,2834.553343,5995.668130
1038.970205,-888.247130,3140.991542,5033.400406
1038.970535,592.164754,842.705048,5921.647536
1038.970865,1184.329507,-306.438199,7994.224174
1038.971194,74.020594,995.924147,10881.027347
1038.971524,-962.267725,2451.505594,12435.459826
1038.971854,-3108.864956,2604.724693,13397.727550
1038.972183,-3923.091493,2834.553343,13619.789333
1038.972513,-3182.885551,2604.724693,12805.562797
1038.972843,-1406.391290,919.314598,11843.295072
1038.973172,74.020594,-229.828649,10140.821405
1038.973502,0.000000,842.705048,8438.347739
1038.973832,-148.041188,842.705048,7031.956449
1038.974161,444.123565,612.876398,7105.977043
1038.974491,888.247130,842.705048,7698.141797
1038.974821,1036.288319,2451.505594,8068.244768
1038.975150,1258.350101,1762.019645,7328.038826
1038.975480,1258.350101,-842.705048,8734.430116
1038.975810,814.226536,-689.485948,10955.047942
1038.976139,-962.267725,766.095498,13101.645173
1038.976469,-3256.906145,2451.505594,14211.954086
1038.976799,-4293.194464,3294.210641,14063.912898
1038.977128,-3923.091493,3447.429741,12361.439231
1038.977458,-2738.761985,1455.581446,10436.903782
1038.977788,-1628.453072,-995.924147,8364.327145
1038.978117,-1110.308913,-1762.019645,7105.977043
1038.978447,-1332.370696,153.219100,7031.956449
1038.978777,-1554.432478,1838.629195,6587.832884
1038.979106,-1406.391290,2068.457845,6143.709319
1038.979436,-444.123565,689.485948,5921.647536
1038.979766,888.247130,0.000000,7105.977043
1038.980095,1110.308913,0.000000,9030.512492
1038.980425,148.041188,1378.971896,10066.800811
1038.980755,-1924.535449,2145.067394,10510.924376
1038.981084,-2516.700203,1532.190996,12139.377449
1038.981414,-3034.844362,2221.676944,13249.686362
1038.981744,-2812.782580,2911.162892,13175.665768
1038.982073,-2442.679609,1685.410096,10807.006753
1038.982403,-1776.494261,-842.705048,8882.471304
1038.982733,-1332.370696,-1378.971896,7624.121203
1038.983062,-592.164754,-459.657299,7772.162391
1038.983392,-296.082377,689.485948,7994.224174
1038.983722,-740.205942,2221.676944,7254.018232
1038.984051,-444.123565,1608.800546,6513.812290
1038.984381,666.185348,459.657299,7254.018232
1038.984711,2220.617826,-689.485948,9770.718434
1038.985040,1184.329507,229.828649,11547.212695
1038.985370,-814.226536,1685.410096,11991.336260
1038.985700,-2368.659014,1838.629195,13249.686362
1038.986029,-2664.741391,1455.581446,13323.706956
1038.986359,-2812.782580,1378.971896,13027.624579
1038.986689,-1702.473667,689.485948,11695.253884
1038.987018,-888.247130,0.000000,9844.739029
1038.987348,-518.144159,76.609550,7772.162391
1038.987678,-666.185348,766.095498,7105.977043
1038.988007,-666.185348,1302.362347,7031.956449
1038.988337,-296.082377,2221.676944,6661.853478
1038.988667,370.102971,2451.505594,7031.956449
1038.988996,888.247130,1378.971896,7476.080014
1038.989326,592.164754,306.438199,9178.553681
1038.989656,-296.082377,0.000000,10214.842000
1038.989985,-1628.453072,1455.581446,11547.212695
1038.990315,-2442.679609,1838.629195,13175.665768
1038.990645,-3034.844362,2987.772442,13471.748144
1038.990974,-3108.864956,3064.381992,12435.459826
1038.991304,-2220.617826,919.314598,10732.986159
1038.991634,-1554.432478,459.657299,9400.615463
1038.991963,-1332.370696,1225.752797,8586.388927
1038.992293,-1480.411884,2068.457845,7550.100608
1038.992623,-1110.308913,1838.629195,7624.121203
1038.992952,-1258.350101,2298.286494,6957.935855
1038.993282,-888.247130,2451.505594,6513.812290
1038.993612,518.144159,383.047749,6735.874072
1038.993941,1184.329507,229.828649,8142.265362
1038.994271,296.082377,612.876398,9844.739029
1038.994601,-1406.391290,1378.971896,11103.089130
1038.994930,-2146.597232,2757.943793,11991.336260
1038.995260,-2664.741391,3447.429741,13027.624579
1038.995590,-2664.741391,3677.258390,11917.315666
1038.995919,-2146.597232,1838.629195,10658.965565
1038.996249,-1258.350101,0.000000,9326.594869
1038.996579,-962.267725,229.828649,8586.388927
1038.996908,-888.247130,1608.800546,7624.121203
1038.997238,-888.247130,1378.971896,6587.832884
1038.997568,-370.102971,229.828649,6439.791695
1038.997897,-296.082377,1685.410096,6513.812290
1038.998227,592.164754,2681.334243,7105.977043
1038.998557,1480.411884,1149.143247,7402.059420
1038.998886,1184.329507,459.657299,8586.388927
1038.999216,0.000000,306.438199,10436.903782
1038.999546,-1924.535449,-76.609550,12805.562797
1038.999875,-3108.864956,1532.190996,13545.768739
1039.000205,-4367.215058,2068.457845,12879.583391
1039.000535,-3701.029710,766.095498,11769.274478
1039.000864,-2368.659014,-842.705048,10881.027347
1039.001194,-1554.432478,-1532.190996,9918.759623
1039.001524,-1332.370696,-383.047749,9104.533087
1039.001853,-1554.432478,306.438199,7105.977043
1039.002183,-814.226536,689.485948,7105.977043
1039.002513,74.020594,229.828649,7105.977043
1039.002842,1332.370696,-383.047749,7846.182985
1039.003172,1924.535449,-766.095498,9252.574275
1039.003502,740.205942,-842.705048,10510.924376
1039.003831,-592.164754,536.266849,12139.377449
1039.004161,-1850.514855,612.876398,14063.912898
1039.004491,-2516.700203,306.438199,14730.098246
1039.004820,-3034.844362,1838.629195,13989.892304
1039.005150,-2664.741391,1455.581446,11177.109724
1039.005480,-1554.432478,-919.314598,10066.800811
1039.005809,-1184.329507,-1608.800546,9252.574275
1039.006139,-1554.432478,612.876398,8512.368333
1039.006469,-1776.494261,842.705048,6883.915261
1039.006798,-1554.432478,1072.533697,6069.688724
1039.007128,-814.226536,766.095498,6365.771101
1039.007458,-148.041188,995.924147,5995.668130
1039.007787,296.082377,-383.047749,7105.977043
1039.008117,74.020594,0.000000,8660.409521
1039.008447,-1110.308913,1532.190996,10732.986159
1039.008776,-3108.864956,2374.896044,12287.418637
1039.009106,-4441.235652,2911.162892,12879.583391
1039.009436,-4145.153275,2451.505594,11843.295072
1039.009765,-2368.659014,1225.752797,10658.965565
1039.010095,-1332.370696,766.095498,9326.594869
1039.010425,-518.144159,1149.143247,8290.306550
1039.010754,-296.082377,1685.410096,7105.977043
1039.011084,0.000000,1455.581446,6069.688724
1039.011414,74.020594,2068.457845,6439.791695
1039.011743,222.061783,3140.991542,7105.977043
1039.012073,518.144159,1532.190996,7179.997637
1039.012403,814.226536,842.705048,7624.121203
1039.012732,666.185348,-229.828649,9030.512492
1039.013062,-222.061783,459.657299,11621.233289
1039.013392,-2072.576638,1915.238745,13545.768739
1039.013721,-4145.153275,3217.601092,13619.789333
1039.014051,-4441.235652,3447.429741,12953.603985
1039.014381,-2516.700203,1302.362347,11473.192101
1039.014710,-592.164754,153.219100,10066.800811
1039.015040,0.000000,-153.219100,8364.327145
1039.015370,-222.061783,229.828649,6883.915261
1039.015699,74.020594,1149.143247,7550.100608
1039.016029,-370.102971,2221.676944,8290.306550
1039.016359,-1036.288319,2604.724693,7994.224174
1039.016688,-444.123565,689.485948,7402.059420
1039.017018,814.226536,-1838.629195,7920.203579
1039.017348,814.226536,-1378.971896,9918.759623
1039.017677,-666.185348,383.047749,11843.295072
1039.018007,-2442.679609,1378.971896,12583.501014
1039.018337,-3330.926739,1378.971896,12805.562797
1039.018666,-3182.885551,1991.848295,12657.521608
1039.018996,-1850.514855,2374.896044,11843.295072
1039.019326,-1036.288319,306.438199,9474.636058
1039.019655,-296.082377,-995.924147,7328.038826
1039.019985,-592.164754,-612.876398,6587.832884
1039.020315,-888.247130,0.000000,7624.121203
1039.020644,-740.205942,842.705048,9104.533087
1039.020974,-1850.514855,1762.019645,8586.388927
1039.021304,-1332.370696,229.828649,7179.997637
1039.021633,296.082377,-2528.115143,8438.347739
1039.021963,592.164754,-2757.943793,10214.842000
1039.022293,-666.185348,-459.657299,11917.315666
1039.022622,-2368.659014,1685.410096,13175.665768
1039.022952,-2812.782580,2834.553343,13101.645173
1039.023282,-2960.823768,3217.601092,12509.480420
1039.023611,-1850.514855,1685.410096,11547.212695
1039.023941,-888.247130,76.609550,9474.636058
1039.024271,-740.205942,-612.876398,7698.141797
1039.024600,-296.082377,-153.219100,6957.935855
1039.024930,-296.082377,0.000000,6439.791695
1039.025260,-740.205942,-306.438199,7179.997637
1039.025589,-1258.350101,919.314598,7698.141797
1039.025919,-1332.370696,1378.971896,7476.080014
1039.026249,148.041188,153.219100,7772.162391
1039.026578,814.226536,-689.485948,9252.574275
1039.026908,-222.061783,153.219100,10362.883188
1039.027238,-1480.411884,1149.143247,11695.253884
1039.027567,-2146.597232,2068.457845,12657.521608
1039.027897,-2738.761985,2834.553343,11991.336260
1039.028227,-2738.761985,2987.772442,10732.986159
1039.028556,-1628.453072,229.828649,9548.656652
1039.028886,-370.102971,-842.705048,9252.574275
1039.029216,-296.082377,153.219100,8660.409521
1039.029545,-814.226536,766.095498,7624.121203
1039.029875,-1332.370696,766.095498,6883.915261
1039.030205,-1110.308913,612.876398,7402.059420
1039.030534,-222.061783,306.438199,8438.347739
1039.030864,592.164754,-153.219100,9844.739029
1039.031194,296.082377,536.266849,10362.883188
1039.031523,-444.123565,1072.533697,10288.862594
1039.031853,-1628.453072,383.047749,11621.233289
1039.032183,-1702.473667,766.095498,12805.562797
1039.032512,-2146.597232,2374.896044,13027.624579
1039.032842,-2294.638420,2604.724693,11547.212695
1039.033172,-1628.453072,1225.752797,9696.697840
1039.033501,-1036.288319,-306.438199,9326.594869
1039.033831,-518.144159,536.266849,9400.615463
1039.034161,-962.267725,1838.629195,8290.306550
1039.034490,-1258.350101,2068.457845,7179.997637
1039.034820,-1332.370696,1455.581446,6513.812290
1039.035150,-222.061783,766.095498,7105.977043
1039.035479,592.164754,-153.219100,8808.450710
1039.035809,-222.061783,153.219100,9622.677246
1039.036139,-1850.514855,1149.143247,9548.656652
1039.036468,-2072.576638,459.657299,10510.924376
1039.036798,-2590.720797,1608.800546,12361.439231
1039.037128,-2590.720797,3064.381992,12361.439231
1039.037457,-2590.720797,3064.381992,10584.944971
1039.037787,-888.247130,766.095498,9104.533087
1039.038117,0.000000,383.047749,9030.512492
1039.038446,-370.102971,1455.581446,8808.450710
1039.038776,-1406.391290,1685.410096,7402.059420
1039.039106,-962.267725,1685.410096,6735.874072
1039.039435,-370.102971,2298.286494,6735.874072
1039.039765,74.020594,2298.286494,6661.853478
1039.040095,1184.329507,-536.266849,6587.832884
1039.040424,1702.473667,-1915.238745,7698.141797
1039.040754,-148.041188,-153.219100,9622.677246
1039.041084,-1924.535449,1149.143247,11695.253884
1039.041413,-3330.926739,1532.190996,13101.645173
1039.041743,-4145.153275,2298.286494,13841.851115
1039.042073,-3478.967927,2604.724693,12731.542202
1039.042402,-2738.761985,842.705048,11029.068536
1039.042732,-1332.370696,-842.705048,9474.636058
1039.043062,-814.226536,-995.924147,8808.450710
1039.043391,-888.247130,-536.266849,8068.244768
1039.043721,-1110.308913,1149.143247,7698.141797
1039.044051,-592.164754,1225.752797,7179.997637
1039.044380,444.123565,229.828649,7402.059420
1039.044710,1110.308913,-612.876398,7920.203579
1039.045040,1406.391290,-1378.971896,10362.883188
1039.045369,518.144159,-306.438199,11769.274478
1039.045699,-1036.288319,919.314598,12731.542202
1039.046029,-2960.823768,1225.752797,13101.645173
1039.046358,-3627.009116,1302.362347,13175.665768
1039.046688,-2738.761985,536.266849,12731.542202
1039.047018,-1702.473667,229.828649,10584.944971
1039.047347,-888.247130,-766.095498,8068.244768
1039.047677,-1036.288319,-1072.533697,7179.997637
1039.048007,-814.226536,-229.828649,6587.832884
1039.048336,-666.185348,153.219100,7402.059420
1039.048666,-592.164754,1532.190996,7328.038826
1039.048996,-296.082377,1225.752797,5921.647536
1039.049325,814.226536,-689.485948,7254.018232
1039.049655,740.205942,-1915.238745,9400.615463
1039.049985,-296.082377,153.219100,12139.377449
1039.050314,-2294.638420,2221.676944,13027.624579
1039.050644,-3182.885551,2298.286494,12805.562797
1039.050974,-3404.947333,3064.381992,12583.501014
1039.051303,-2368.659014,2757.943793,11917.315666
1039.051633,-592.164754,995.924147,10140.821405
1039.051963,74.020594,766.095498,8586.388927
1039.052292,-518.144159,2298.286494,6735.874072
1039.052622,-592.164754,2221.676944,5995.668130
1039.052952,-148.041188,1225.752797,6661.853478
1039.053281,0.000000,1762.019645,7550.100608
1039.053611,-444.123565,3370.820191,6883.915261
1039.053941,74.020594,1838.629195,6661.853478
1039.054270,1332.370696,-76.609550,8142.265362
1039.054600,148.041188,612.876398,10807.006753
1039.054930,-1776.494261,2298.286494,12509.480420
1039.055259,-3034.844362,3600.648841,13175.665768
1039.055589,-3701.029710,4213.525239,13027.624579
1039.055919,-3108.864956,3753.867940,12065.356855
1039.056248,-2590.720797,2298.286494,10288.862594
1039.056578,-1184.329507,76.609550,8660.409521
1039.056908,-444.123565,306.438199,7254.018232
1039.057237,-740.205942,1532.190996,5995.668130
1039.057567,-148.041188,1532.190996,6661.853478
1039.057897,-740.205942,1225.752797,7476.080014
1039.058226,-740.205942,2451.505594,7550.100608
1039.058556,148.041188,1455.581446,7105.977043
1039.058886,1998.556043,-689.485948,8364.327145
1039.059215,1850.514855,-842.705048,9696.697840
1039.059545,-148.041188,0.000000,11325.150913
1039.059875,-1924.535449,1532.190996,12657.521608
1039.060204,-3108.864956,2757.943793,12657.521608
1039.060534,-2886.803174,2451.505594,11991.336260
1039.060864,-1554.432478,842.705048,11177.109724
1039.061193,-222.061783,-2145.067394,9992.780217
1039.061523,-296.082377,-1915.238745,8290.306550
1039.061853,-222.061783,-383.047749,7698.141797
1039.062182,-592.164754,459.657299,8068.244768
1039.062512,-1036.288319,612.876398,8808.450710
1039.062842,-740.205942,1072.533697,9918.759623
1039.063171,222.061783,1072.533697,9992.780217
1039.063501,814.226536,-1225.752797,9474.636058
1039.063831,222.061783,-2145.067394,10214.842000
1039.064160,-518.144159,-1149.143247,12065.356855
1039.064490,-1924.535449,842.705048,13693.809927
1039.064820,-2886.803174,2528.115143,13841.851115
1039.065149,-3404.947333,3753.867940,12213.398043
1039.065479,-1776.494261,1302.362347,9992.780217
1039.065809,-296.082377,-1378.971896,9178.553681
1039.066138,0.000000,-1072.533697,8734.430116
1039.066468,-666.185348,919.314598,7105.977043
1039.066798,-1776.494261,1225.752797,5625.565159
1039.067127,-1184.329507,1225.752797,6143.709319
1039.067457,-370.102971,1762.019645,7179.997637
1039.067787,370.102971,1225.752797,8216.285956
1039.068116,1110.308913,459.657299,7920.203579
1039.068446,370.102971,995.924147,8068.244768
1039.068776,-666.185348,1455.581446,9696.697840
1039.069105,-1850.514855,2374.896044,12361.439231
1039.069435,-2812.782580,3753.867940,13175.665768
1039.069765,-3182.885551,4673.182538,11769.274478
1039.070094,-2664.741391,2604.724693,9178.553681
1039.070424,-1702.473667,1302.362347,8364.327145
1039.070754,-666.185348,0.000000,7994.224174
1039.071083,-518.144159,76.609550,7105.977043
1039.071413,-592.164754,1685.410096,6291.750507
1039.071743,-518.144159,2145.067394,6217.729913
1039.072072,-370.102971,2145.067394,7031.956449
1039.072402,222.061783,1225.752797,7994.224174
1039.072732,962.267725,1149.143247,9252.574275
1039.073061,1110.308913,1915.238745,10436.903782
1039.073391,0.000000,1991.848295,11473.192101
1039.073721,-1036.288319,2298.286494,12509.480420
1039.074050,-2220.617826,1378.971896,13619.789333
1039.074380,-2664.741391,2221.676944,13323.706956
1039.074710,-2146.597232,1762.019645,11917.315666
1039.075039,-1332.370696,306.438199,10362.883188
1039.075369,-1036.288319,-536.266849,9474.636058
1039.075699,-1332.370696,-229.828649,8734.430116
1039.076028,-740.205942,536.266849,8290.306550
1039.076358,-222.061783,1685.410096,7402.059420
1039.076688,148.041188,2068.457845,7105.977043
1039.077017,962.267725,1378.971896,7550.100608
1039.077347,814.226536,-1532.190996,8956.491898
1039.077677,518.144159,-766.095498,10584.944971
1039.078006,-740.205942,536.266849,11473.192101
1039.078336,-1776.494261,766.095498,12287.418637
1039.078666,-2590.720797,1915.238745,12287.418637
1039.078995,-2442.679609,1838.629195,12065.356855
1039.079325,-2072.576638,995.924147,10362.883188
1039.079655,-888.247130,76.609550,8956.491898
1039.079984,-814.226536,0.000000,8216.285956
1039.080314,-888.247130,306.438199,8142.265362
1039.080644,-1480.411884,766.095498,7920.203579
1039.080973,-1850.514855,1378.971896,6809.894666
1039.081303,-1332.370696,1378.971896,5995.668130
1039.081633,370.102971,306.438199,6439.791695
1039.081962,1184.329507,-612.876398,8290.306550
1039.082292,518.144159,0.000000,9474.636058
1039.082622,-740.205942,842.705048,10584.944971
1039.082951,-1554.432478,1838.629195,11991.336260
1039.083281,-2442.679609,2681.334243,13101.645173
1039.083611,-2960.823768,3524.039291,13175.665768
1039.083940,-2294.638420,2221.676944,11843.295072
1039.084270,-1628.453072,612.876398,10436.903782
1039.084600,-1406.391290,919.314598,8660.409521
1039.084929,-1554.432478,995.924147,7624.121203
1039.085259,-518.144159,0.000000,7550.100608
1039.085589,0.000000,612.876398,7402.059420
1039.085918,-1258.350101,2757.943793,6143.709319
1039.086248,-296.082377,1225.752797,5995.668130
1039.086578,962.267725,-383.047749,8068.244768
1039.086907,1258.350101,153.219100,10288.862594
1039.087237,-222.061783,1838.629195,11325.150913
1039.087567,-1554.432478,1225.752797,11769.274478
1039.087896,-2072.576638,2221.676944,13101.645173
1039.088226,-2664.741391,3447.429741,13027.624579
1039.088556,-2516.700203,2451.505594,11769.274478
1039.088885,-1258.350101,153.219100,10214.842000
1039.089215,-222.061783,536.266849,9252.574275
1039.089545,-222.061783,1072.533697,7846.182985
1039.089874,-740.205942,919.314598,7105.977043
1039.090204,-296.082377,612.876398,7031.956449
1039.090534,0.000000,995.924147,7105.977043
1039.090863,222.061783,2068.457845,7402.059420
1039.091193,296.082377,689.485948,7846.182985
1039.091523,592.164754,-306.438199,9770.718434
1039.091852,-222.061783,306.438199,11103.089130
1039.092182,-1924.535449,1225.752797,12361.439231
1039.092512,-2738.761985,2451.505594,13693.809927
1039.092841,-2960.823768,3524.039291,12805.562797
1039.093171,-2368.659014,2451.505594,10881.027347
1039.093501,-1702.473667,459.657299,9474.636058
1039.093830,-666.185348,-383.047749,8808.450710
1039.094160,-296.082377,689.485948,8290.306550
1039.094490,-740.205942,1225.752797,7105.977043
1039.094819,-1332.370696,1302.362347,6587.832884
1039.095149,-1036.288319,1072.533697,6439.791695
1039.095479,222.061783,459.657299,7254.018232
1039.095808,888.247130,0.000000,8216.285956
1039.096138,592.164754,0.000000,9104.533087
1039.096468,-592.164754,229.828649,9918.759623
1039.096797,-1332.370696,536.266849,12287.418637
1039.097127,-2442.679609,2604.724693,13915.871710
1039.097457,-3108.864956,3217.601092,12435.459826
1039.097786,-2294.638420,1991.848295,10807.006753
1039.098116,-962.267725,76.609550,9326.594869
1039.098446,-962.267725,-383.047749,8586.388927
1039.098775,-1258.350101,76.609550,7550.100608
1039.099105,-962.267725,0.000000,6809.894666
1039.099435,-1110.308913,306.438199,6735.874072
1039.099764,-1702.473667,1532.190996,7328.038826
1039.100094,-444.123565,766.095498,7328.038826
1039.100424,370.102971,-1915.238745,7476.080014
1039.100753,888.247130,-1838.629195,8734.430116
1039.101083,74.020594,0.000000,11177.109724
1039.101413,-1480.411884,2068.457845,13767.830521
1039.101742,-2738.761985,2298.286494,14137.933492
1039.102072,-3404.947333,2528.115143,13545.768739
1039.102402,-2220.617826,1532.190996,12213.398043
1039.102731,-592.164754,0.000000,11325.150913
1039.103061,148.041188,-1302.362347,10066.800811
1039.103391,-296.082377,-612.876398,7994.224174
1039.103720,-740.205942,0.000000,7031.956449
1039.104050,-296.082377,153.219100,7624.121203
1039.104380,-296.082377,1532.190996,8216.285956
1039.104709,-296.082377,766.095498,7772.162391
1039.105039,592.164754,-842.705048,7846.182985
1039.105369,370.102971,-1378.971896,8882.471304
1039.105698,0.000000,-766.095498,10732.986159
1039.106028,-1406.391290,153.219100,12361.439231
1039.106358,-2664.741391,1225.752797,13915.871710
1039.106687,-3478.967927,2987.772442,13545.768739
1039.107017,-3256.906145,2911.162892,11399.171507
1039.107347,-1776.494261,842.705048,9844.739029
1039.107676,-296.082377,0.000000,8586.388927
1039.108006,0.000000,306.438199,7624.121203
1039.108336,-666.185348,1378.971896,6661.853478
1039.108665,-740.205942,1838.629195,6143.709319
1039.108995,-592.164754,1608.800546,6291.750507
1039.109325,-296.082377,1072.533697,6513.812290
1039.109654,592.164754,536.266849,7254.018232
1039.109984,1184.329507,-766.095498,9030.512492
1039.110314,0.000000,995.924147,10584.944971
1039.110643,-1924.535449,2681.334243,11325.150913
1039.110973,-2960.823768,2987.772442,12657.521608
1039.111303,-3108.864956,2681.334243,13249.686362
1039.111632,-3256.906145,3524.039291,11695.253884
1039.111962,-2072.576638,2298.286494,10066.800811
1039.112292,-1184.329507,459.657299,8512.368333
1039.112621,-1184.329507,76.609550,7179.997637
1039.112951,-1332.370696,766.095498,6661.853478
1039.113281,-518.144159,306.438199,7105.977043
1039.113610,-592.164754,1838.629195,7179.997637
1039.113940,-1332.370696,2298.286494,5921.647536
1039.114269,74.020594,306.438199,6957.935855
1039.114599,1184.329507,-1149.143247,9252.574275
1039.114929,962.267725,459.657299,11769.274478
1039.115258,-962.267725,2374.896044,12583.501014
1039.115588,-2368.659014,1838.629195,12879.583391
1039.115918,-2960.823768,1532.190996,13101.645173
1039.116247,-2590.720797,2221.676944,13323.706956
1039.116577,-1776.494261,919.314598,11473.192101
1039.116908,-370.102971,-919.314598,9252.574275
1039.117238,222.061783,-1302.362347,7402.059420
1039.117567,-222.061783,-689.485948,6291.750507
1039.117897,-518.144159,306.438199,7254.018232
1039.118227,-666.185348,1149.143247,7846.182985
1039.118556,-1036.288319,1455.581446,7402.059420
1039.118886,-814.226536,536.266849,7846.182985
1039.119216,296.082377,-1991.848295,8956.491898
1039.119545,296.082377,-1991.848295,10807.006753
1039.119875,-666.185348,-1455.581446,12065.356855
1039.120204,-2516.700203,-229.828649,13249.686362
1039.120534,-4589.276840,1762.019645,14137.933492
1039.120864,-3997.112087,2374.896044,14211.954086
1039.121193,-2738.761985,766.095498,11991.336260
1039.121523,-814.226536,-919.314598,9696.697840
1039.121853,148.041188,-1072.533697,7994.224174
1039.122182,370.102971,-306.438199,6587.832884
1039.122512,-148.041188,689.485948,7105.977043
1039.122841,0.000000,1149.143247,7328.038826
1039.123171,-222.061783,2221.676944,7402.059420
1039.123501,592.164754,919.314598,8290.306550
1039.123830,1184.329507,-766.095498,9326.594869
1039.124160,0.000000,-383.047749,9992.780217
1039.124490,-1554.432478,-153.219100,10881.027347
1039.124819,-2590.720797,995.924147,12213.398043
1039.125149,-3330.926739,2221.676944,12731.542202
1039.125478,-3627.009116,2987.772442,12213.398043
1039.125808,-2738.761985,1608.800546,10140.821405
1039.126138,-1554.432478,-306.438199,8586.388927
1039.126467,-1406.391290,153.219100,7105.977043
1039.126797,-666.185348,1225.752797,6735.874072
1039.127127,-148.041188,1762.019645,7031.956449
1039.127456,-296.082377,2451.505594,6809.894666
1039.127786,-296.082377,2451.505594,5995.668130
1039.128115,296.082377,1302.362347,6291.750507
1039.128445,1258.350101,-229.828649,8586.388927
1039.128775,888.247130,306.438199,10066.800811
1039.129104,-444.123565,1072.533697,11251.130318
1039.129434,-1702.473667,1608.800546,12805.562797
1039.129763,-2886.803174,2911.162892,12879.583391
1039.130093,-3256.906145,3600.648841,12361.439231
1039.130423,-1998.556043,1838.629195,11399.171507
1039.130752,-740.205942,0.000000,9918.759623
1039.131082,-888.247130,306.438199,7994.224174
1039.131412,-370.102971,0.000000,7254.018232
1039.131741,-444.123565,153.219100,7105.977043
1039.132071,-444.123565,1225.752797,7772.162391
1039.132400,-1258.350101,2451.505594,8438.347739
1039.132730,-1406.391290,1225.752797,8216.285956
1039.133060,-814.226536,-1072.533697,8882.471304
1039.133389,740.205942,-1685.410096,10510.924376
1039.133719,-592.164754,-383.047749,11991.336260
1039.134049,-2072.576638,459.657299,12657.521608
1039.134378,-3182.885551,1685.410096,13175.665768
1039.134708,-3330.926739,2604.724693,12435.459826
1039.135037,-2442.679609,1685.410096,11103.089130
1039.135367,-962.267725,0.000000,10881.027347
1039.135697,222.061783,229.828649,9696.697840
1039.136026,0.000000,459.657299,7254.018232
1039.136356,0.000000,0.000000,6365.771101
1039.136686,444.123565,229.828649,6735.874072
1039.137015,0.000000,2145.067394,7698.141797
1039.137345,-444.123565,1991.848295,7698.141797
1039.137674,74.020594,0.000000,8512.368333
1039.138004,-370.102971,-536.266849,9252.574275
1039.138334,-1628.453072,0.000000,10658.965565
1039.138663,-2220.617826,306.438199,11917.315666
1039.138993,-3108.864956,1532.190996,11917.315666
1039.139323,-3552.988522,2528.115143,11325.150913
1039.139652,-3108.864956,2145.067394,10584.944971
1039.139982,-2220.617826,1225.752797,9770.718434
1039.140311,-1924.535449,766.095498,9252.574275
1039.140641,-1184.329507,1149.143247,7105.977043
1039.140971,-148.041188,459.657299,6957.935855
1039.141300,0.000000,689.485948,7624.121203
1039.141630,-740.205942,2068.457845,7698.141797
1039.141959,-370.102971,1225.752797,7031.956449
1039.142289,222.061783,-153.219100,8216.285956
1039.142619,592.164754,-383.047749,10214.842000
1039.142948,-592.164754,1608.800546,11621.233289
1039.143278,-1554.432478,1455.581446,12731.542202
1039.143608,-2146.597232,1378.971896,12435.459826
1039.143937,-2738.761985,2681.334243,11473.192101
1039.144267,-1776.494261,1991.848295,10658.965565
1039.144596,-962.267725,153.219100,9918.759623
1039.144926,-888.247130,-306.438199,9178.553681
1039.145256,-1110.308913,842.705048,7698.141797
1039.145585,-962.267725,153.219100,7105.977043
1039.145915,-518.144159,-306.438199,7476.080014
1039.146245,-888.247130,1072.533697,7994.224174
1039.146574,-1036.288319,1302.362347,8216.285956
1039.146904,-518.144159,153.219100,8734.430116
1039.147233,-296.082377,-153.219100,9622.677246
1039.147563,-222.061783,0.000000,11695.253884
1039.147893,-1258.350101,536.266849,13249.686362
1039.148222,-2368.659014,1991.848295,13619.789333
1039.148552,-3034.844362,3217.601092,12139.377449
1039.148882,-2368.659014,2451.505594,10214.842000
1039.149211,-814.226536,-306.438199,10140.821405
1039.149541,-370.102971,-153.219100,9844.739029
1039.149870,-814.226536,995.924147,8290.306550
1039.150200,-1036.288319,1072.533697,6735.874072
1039.150530,-740.205942,1378.971896,6735.874072
1039.150859,-148.041188,1838.629195,7328.038826
1039.151189,518.144159,1378.971896,7846.182985
1039.151519,1036.288319,0.000000,8364.327145
1039.151848,1036.288319,153.219100,9622.677246
1039.152178,-222.061783,2068.457845,11029.068536
1039.152507,-2442.679609,2451.505594,11917.315666
1039.152837,-2960.823768,2911.162892,12805.562797
1039.153167,-3034.844362,3677.258390,11843.295072
1039.153496,-2442.679609,2681.334243,10510.924376
1039.153826,-1998.556043,612.876398,9474.636058
