#time,accel_x,accel_y,accel_z
988.726981,-1110.308913,919.314598,9548.656652
988.727310,-814.226536,919.314598,9474.636058
988.727640,-1258.350101,995.924147,9252.574275
988.727970,-1480.411884,1072.533697,9622.677246
988.728299,-1332.370696,919.314598,9696.697840
988.728629,-962.267725,689.485948,9622.677246
988.728958,-888.247130,995.924147,9622.677246
988.729288,-740.205942,1149.143247,9622.677246
988.729618,-1036.288319,842.705048,9622.677246
988.729947,-1036.288319,842.705048,9844.739029
988.730277,-1110.308913,995.924147,9770.718434
988.730607,-1110.308913,919.314598,9770.718434
988.730936,-1036.288319,1455.581446,9844.739029
988.731266,-888.247130,766.095498,9548.656652
988.731595,-1036.288319,1072.533697,9770.718434
988.731925,-962.267725,842.705048,9548.656652
988.732255,-962.267725,842.705048,9548.656652
988.732584,-814.226536,1149.143247,9770.718434
988.732914,-962.267725,1302.362347,9252.574275
988.733243,-962.267725,1072.533697,9622.677246
988.733573,-1036.288319,919.314598,9548.656652
988.733903,-962.267725,536.266849,9474.636058
988.734232,-1184.329507,995.924147,9400.615463
988.734562,-1110.308913,1225.752797,9400.615463
988.734892,-962.267725,766.095498,9474.636058
988.735221,-1036.288319,842.705048,9474.636058
988.735551,-1036.288319,1072.533697,9474.636058
988.735880,-814.226536,1072.533697,9474.636058
988.736210,-1184.329507,612.876398,9252.574275
988.736540,-1036.288319,919.314598,9400.615463
988.736869,-1258.350101,1072.533697,9474.636058
988.737199,-1184.329507,919.314598,9474.636058
988.737529,-1110.308913,1072.533697,9326.594869
988.737858,-1406.391290,689.485948,9104.533087
988.738188,-888.247130,766.095498,9400.615463
988.738517,-1036.288319,1072.533697,9474.636058
988.738847,-962.267725,919.314598,9474.636058
988.739177,-962.267725,919.314598,9622.677246
988.739506,-814.226536,1072.533697,9474.636058
988.739836,-1332.370696,1072.533697,9474.636058
988.740165,-1036.288319,766.095498,9548.656652
988.740495,-1110.308913,919.314598,9548.656652
988.740825,-1184.329507,842.705048,9548.656652
988.741154,-1110.308913,1072.533697,9548.656652
988.741484,-1110.308913,1149.143247,9474.636058
988.741814,-888.247130,842.705048,9696.697840
988.742143,-1036.288319,689.485948,9696.697840
988.742473,-1036.288319,1149.143247,9622.677246
988.742802,-1110.308913,842.705048,9770.718434
988.743132,-888.247130,459.657299,9622.677246
988.743462,-814.226536,689.485948,9622.677246
988.743791,-888.247130,842.705048,9696.697840
988.744121,-1110.308913,919.314598,9548.656652
988.744450,-1184.329507,1072.533697,9400.615463
988.744780,-1036.288319,919.314598,9548.656652
988.745110,-962.267725,1149.143247,9326.594869
988.745439,-1036.288319,689.485948,9474.636058
988.745769,-1110.308913,919.314598,9400.615463
988.746099,-962.267725,919.314598,9474.636058
988.746428,-1036.288319,919.314598,9474.636058
988.746758,-814.226536,1608.800546,9548.656652
988.747087,-1332.370696,842.705048,9252.574275
988.747417,-1110.308913,919.314598,9326.594869
988.747747,-962.267725,995.924147,9400.615463
988.748076,-1332.370696,919.314598,9474.636058
988.748406,-666.185348,1072.533697,9622.677246
988.748736,-1036.288319,1302.362347,9474.636058
988.749065,-888.247130,995.924147,9400.615463
988.749395,-1184.329507,1072.533697,9548.656652
988.749724,-1184.329507,1072.533697,9770.718434
988.750054,-888.247130,1149.143247,9474.636058
988.750384,-888.247130,1149.143247,9474.636058
988.750713,-962.267725,459.657299,9770.718434
988.751043,-1184.329507,995.924147,9622.677246
988.751372,-1184.329507,842.705048,9622.677246
988.751702,-740.205942,1149.143247,9696.697840
988.752032,-740.205942,689.485948,9474.636058
988.752361,0.000000,842.705048,9178.553681
988.752691,592.164754,383.047749,9474.636058
988.753021,962.267725,536.266849,9474.636058
988.753350,740.205942,689.485948,9474.636058
988.753680,740.205942,1149.143247,10066.800811
988.754009,0.000000,1072.533697,10140.821405
988.754339,-740.205942,919.314598,10584.944971
988.754669,-592.164754,536.266849,10510.924376
988.754998,-518.144159,459.657299,10140.821405
988.755328,296.082377,0.000000,9474.636058
988.755657,1184.329507,0.000000,9178.553681
988.755987,1776.494261,0.000000,8956.491898
988.756317,2886.803174,612.876398,8808.450710
988.756646,3108.864956,1072.533697,8808.450710
988.756976,3404.947333,1838.629195,9030.512492
988.757306,3404.947333,1762.019645,9252.574275
988.757635,3108.864956,1608.800546,9696.697840
988.757965,2368.659014,842.705048,10214.842000
988.758294,1554.432478,689.485948,10584.944971
988.758624,1184.329507,459.657299,10658.965565
988.758954,1036.288319,76.609550,10436.903782
988.759283,1406.391290,-536.266849,9400.615463
988.759613,2442.679609,-459.657299,9400.615463
988.759942,3478.967927,-306.438199,8956.491898
988.760272,4441.235652,536.266849,9030.512492
988.760602,4885.359217,1608.800546,8956.491898
988.760931,4589.276840,3217.601092,9992.780217
988.761261,3108.864956,2911.162892,10362.883188
988.761591,1332.370696,3370.820191,10658.965565
988.761920,-592.164754,2681.334243,10362.883188
988.762250,-2072.576638,2068.457845,9622.677246
988.762579,-1850.514855,459.657299,8734.430116
988.762909,-444.123565,-1149.143247,7846.182985
988.763239,1036.288319,-1762.019645,6957.935855
988.763568,2368.659014,-1072.533697,6809.894666
988.763898,3330.926739,-153.219100,6883.915261
988.764228,3775.050304,1378.971896,7994.224174
988.764557,3256.906145,3064.381992,9770.718434
988.764887,2294.638420,4519.963438,11695.253884
988.765216,1258.350101,4136.915689,12509.480420
988.765546,0.000000,2757.943793,12805.562797
988.765876,-518.144159,689.485948,12657.521608
988.766205,-1036.288319,-689.485948,11769.274478
988.766535,-1406.391290,-1991.848295,10436.903782
988.766864,-370.102971,-2451.505594,9178.553681
988.767194,1184.329507,-1991.848295,7994.224174
988.767524,3182.885551,-1302.362347,7328.038826
988.767853,4737.318029,-536.266849,6587.832884
988.768183,4885.359217,1685.410096,7328.038826
988.768513,4441.235652,3217.601092,7846.182985
988.768842,3849.070898,3983.696590,9474.636058
988.769172,2960.823768,3983.696590,10510.924376
988.769501,2368.659014,3294.210641,11399.171507
988.769831,666.185348,1685.410096,11103.089130
988.770161,148.041188,0.000000,11029.068536
988.770490,-740.205942,-1225.752797,10436.903782
988.770820,-888.247130,-2068.457845,10584.944971
988.771149,-592.164754,-1762.019645,10732.986159
988.771479,74.020594,-766.095498,10362.883188
988.771809,814.226536,-306.438199,9474.636058
988.772138,1776.494261,153.219100,8734.430116
988.772468,3182.885551,612.876398,8068.244768
988.772798,4441.235652,842.705048,8142.265362
988.773127,5181.441594,995.924147,8438.347739
988.773457,5107.421000,1532.190996,8734.430116
988.773786,3997.112087,1455.581446,9252.574275
988.774116,3108.864956,919.314598,10140.821405
988.774446,1850.514855,1149.143247,10288.862594
988.774775,1258.350101,1302.362347,10658.965565
988.775105,814.226536,1149.143247,10584.944971
988.775435,1110.308913,1838.629195,10436.903782
988.775764,1036.288319,1455.581446,9548.656652
988.776094,1702.473667,995.924147,8734.430116
988.776423,2442.679609,919.314598,7624.121203
988.776753,3034.844362,1072.533697,7698.141797
988.777083,2368.659014,995.924147,8586.388927
988.777412,1702.473667,1302.362347,9252.574275
988.777742,740.205942,842.705048,10066.800811
988.778071,-148.041188,459.657299,10584.944971
988.778401,-814.226536,842.705048,11177.109724
988.778731,-1036.288319,306.438199,11695.253884
988.779060,-962.267725,76.609550,11769.274478
988.779390,-814.226536,0.000000,11029.068536
988.779720,0.000000,0.000000,9696.697840
988.780049,1480.411884,919.314598,8882.471304
988.780379,3404.947333,689.485948,8068.244768
988.780708,5699.585753,2145.067394,7550.100608
988.781038,7846.182985,2604.724693,7402.059420
988.781368,8808.450710,3140.991542,8068.244768
988.781697,7994.224174,4290.134789,8438.347739
988.782027,5625.565159,5669.106685,9474.636058
988.782356,3849.070898,4673.182538,11103.089130
988.782686,1258.350101,3140.991542,12805.562797
988.783016,-2146.597232,1455.581446,13693.809927
988.783345,-5921.647536,-306.438199,12953.603985
988.783675,-7994.224174,-1838.629195,11769.274478
988.784005,-8068.244768,-2834.553343,9696.697840
988.784334,-4959.379811,-2451.505594,6735.874072
988.784664,296.082377,-4136.915689,3627.009116
988.784993,6587.832884,-4443.353888,1702.473667
988.785323,9400.615463,-766.095498,2442.679609
988.785653,9474.636058,2681.334243,5107.421000
988.785982,8068.244768,7048.078582,8956.491898
988.786312,5995.668130,9193.145976,12213.398043
988.786642,2812.782580,10112.460574,14730.098246
988.786971,-592.164754,6971.469032,16136.489536
988.787301,-4219.173869,2145.067394,16062.468941
988.787630,-6809.894666,-1532.190996,14730.098246
988.787960,-7994.224174,-4136.915689,12879.583391
988.788290,-5995.668130,-5439.278036,10732.986159
988.788619,-2368.659014,-6971.469032,7402.059420
988.788949,2220.617826,-6205.373534,3478.967927
988.789278,7105.977043,-4060.306139,1924.535449
988.789608,11177.109724,-1149.143247,3330.926739
988.789938,11399.171507,3294.210641,6661.853478
988.790267,7179.997637,7584.345430,10955.047942
988.790597,962.267725,9959.241474,13323.706956
988.790927,-3775.050304,9193.145976,15100.201217
988.791256,-5699.585753,4213.525239,15618.345376
988.791586,-6069.688724,-383.047749,14211.954086
988.791915,-5995.668130,-4213.525239,10807.006753
988.792245,-4441.235652,-7660.954980,6957.935855
988.792575,-1332.370696,-8350.440928,4737.318029
988.792904,1924.535449,-6511.811733,5329.482782
988.793234,3552.988522,-2451.505594,7105.977043
988.793563,2294.638420,1838.629195,8512.368333
988.793893,-370.102971,5669.106685,9918.759623
988.794223,-1406.391290,8503.660028,11547.212695
988.794552,-1406.391290,7354.516781,13471.748144
988.794882,-1924.535449,3983.696590,13175.665768
988.795212,-2664.741391,76.609550,11251.130318
988.795541,-2590.720797,-2681.334243,9178.553681
988.795871,-1628.453072,-4366.744339,7550.100608
988.796200,-444.123565,-5669.106685,7402.059420
988.796530,-666.185348,-4366.744339,7624.121203
988.796860,-666.185348,-995.924147,7550.100608
988.797189,-370.102971,2374.896044,8216.285956
988.797519,962.267725,4826.401637,9400.615463
988.797849,1184.329507,4979.620737,10140.821405
988.798178,222.061783,5132.839837,11399.171507
988.798508,-1332.370696,4596.572988,11769.274478
988.798837,-2072.576638,3370.820191,12361.439231
988.799167,-2294.638420,1455.581446,12435.459826
988.799497,-3701.029710,-153.219100,11843.295072
988.799826,-5625.565159,-2451.505594,8956.491898
988.800156,-5551.544565,-3830.477490,7402.059420
988.800485,-2738.761985,-2604.724693,7476.080014
988.800815,0.000000,-459.657299,7772.162391
988.801144,1702.473667,1302.362347,7031.956449
988.801474,1702.473667,2681.334243,6809.894666
988.801803,2738.761985,3907.087040,7254.018232
988.802133,3701.029710,4979.620737,9474.636058
988.802462,2368.659014,5056.230287,11695.253884
988.802792,-1332.370696,5056.230287,11399.171507
988.803121,-4367.215058,3370.820191,10584.944971
988.803451,-4219.173869,459.657299,10955.047942
988.803780,-2590.720797,-536.266849,10288.862594
988.804110,-888.247130,-1455.581446,8882.471304
988.804439,0.000000,-1991.848295,7254.018232
988.804769,592.164754,0.000000,7031.956449
988.805098,2220.617826,2528.115143,8068.244768
988.805428,2220.617826,4366.744339,9474.636058
988.805757,444.123565,5209.449386,9918.759623
988.806087,-2072.576638,5822.325785,9474.636058
988.806416,-3182.885551,4903.011187,9918.759623
988.806746,-3404.947333,2528.115143,10362.883188
988.807075,-3108.864956,383.047749,9326.594869
988.807405,-3330.926739,-2451.505594,7624.121203
988.807734,-2516.700203,-3753.867940,7624.121203
988.808064,-1332.370696,-3294.210641,8586.388927
988.808393,0.000000,-1838.629195,9622.677246
988.808722,-444.123565,0.000000,9474.636058
988.809052,-1332.370696,2068.457845,9844.739029
988.809381,-814.226536,3753.867940,10955.047942
988.809711,1554.432478,4213.525239,11769.274478
988.810040,3108.864956,4366.744339,10881.027347
988.810370,3330.926739,2298.286494,9474.636058
988.810699,2738.761985,76.609550,8438.347739
988.811029,2812.782580,-306.438199,9030.512492
988.811358,1406.391290,-995.924147,9844.739029
988.811688,-1332.370696,-459.657299,10510.924376
988.812017,-4367.215058,-383.047749,10066.800811
988.812347,-5477.523971,-612.876398,10214.842000
988.812676,-4219.173869,-1378.971896,10584.944971
988.813006,-2590.720797,-1149.143247,10140.821405
988.813335,-1480.411884,-842.705048,8364.327145
988.813665,-1110.308913,-842.705048,7624.121203
988.813994,-814.226536,-1072.533697,8290.306550
988.814324,-666.185348,76.609550,9548.656652
988.814653,-1628.453072,689.485948,10732.986159
988.814983,-3552.988522,995.924147,10510.924376
988.815312,-4589.276840,1608.800546,9770.718434
988.815642,-2738.761985,689.485948,10658.965565
988.815971,0.000000,-612.876398,9622.677246
988.816301,888.247130,-842.705048,8216.285956
988.816630,1258.350101,-689.485948,7624.121203
988.816959,1480.411884,459.657299,8882.471304
988.817289,1480.411884,1991.848295,11325.150913
988.817618,-296.082377,3217.601092,12805.562797
988.817948,-2738.761985,3217.601092,11843.295072
988.818277,-3997.112087,2374.896044,10288.862594
988.818607,-3182.885551,1532.190996,9474.636058
988.818936,-962.267725,-1302.362347,9104.533087
988.819266,-148.041188,-1608.800546,8068.244768
988.819595,-666.185348,-919.314598,7105.977043
988.819925,-444.123565,-306.438199,7920.203579
988.820254,-222.061783,1838.629195,9474.636058
988.820584,-1332.370696,2911.162892,10658.965565
988.820913,-2368.659014,3370.820191,9992.780217
988.821243,-3034.844362,3677.258390,9474.636058
988.821572,-2146.597232,3907.087040,9622.677246
988.821902,-666.185348,3524.039291,9548.656652
988.822231,148.041188,1838.629195,7994.224174
988.822561,74.020594,1149.143247,6661.853478
988.822890,518.144159,1225.752797,6957.935855
988.823220,1406.391290,1991.848295,8808.450710
988.823549,1184.329507,2298.286494,10807.006753
988.823879,-1110.308913,3370.820191,10362.883188
988.824208,-2812.782580,4290.134789,8734.430116
988.824538,-2220.617826,3524.039291,9030.512492
988.824867,148.041188,1915.238745,9918.759623
988.825196,1480.411884,1072.533697,9252.574275
988.825526,962.267725,383.047749,7772.162391
988.825855,666.185348,-459.657299,7550.100608
988.826185,1554.432478,842.705048,9326.594869
988.826514,1480.411884,1072.533697,10732.986159
988.826844,148.041188,1149.143247,10881.027347
988.827173,-2294.638420,1608.800546,9770.718434
988.827503,-2220.617826,1838.629195,9918.759623
988.827832,-518.144159,1532.190996,11251.130318
988.828162,296.082377,842.705048,10584.944971
988.828491,0.000000,-383.047749,8216.285956
988.828821,0.000000,-766.095498,7772.162391
988.829150,1110.308913,0.000000,9474.636058
988.829480,296.082377,229.828649,10288.862594
988.829809,-1036.288319,0.000000,11029.068536
988.830139,-3701.029710,689.485948,9918.759623
988.830468,-4589.276840,1225.752797,10140.821405
988.830798,-2960.823768,459.657299,10807.006753
988.831127,-962.267725,-919.314598,9918.759623
988.831457,-814.226536,-2451.505594,7920.203579
988.831786,-1406.391290,-2451.505594,7031.956449
988.832116,-518.144159,-1991.848295,8586.388927
988.832445,-370.102971,-919.314598,11473.192101
988.832775,-2146.597232,689.485948,11991.336260
988.833104,-5699.585753,1149.143247,11325.150913
988.833433,-5403.503377,689.485948,11251.130318
988.833763,-3330.926739,0.000000,11695.253884
988.834092,-1110.308913,-766.095498,10510.924376
988.834422,-444.123565,-842.705048,7846.182985
988.834751,222.061783,-1378.971896,6291.750507
988.835081,1850.514855,-919.314598,7105.977043
988.835410,2368.659014,689.485948,9622.677246
988.835740,444.123565,1685.410096,10732.986159
988.836069,-2960.823768,2911.162892,10362.883188
988.836399,-4589.276840,3370.820191,10584.944971
988.836728,-3701.029710,2145.067394,11621.233289
988.837058,-2220.617826,766.095498,11103.089130
988.837387,-1924.535449,-995.924147,8882.471304
988.837717,-2146.597232,-1225.752797,7476.080014
988.838046,-1332.370696,-766.095498,7846.182985
988.838376,-296.082377,766.095498,9400.615463
988.838705,-592.164754,1149.143247,10362.883188
988.839035,-2368.659014,2604.724693,9844.739029
988.839364,-3182.885551,3983.696590,8882.471304
988.839694,-1406.391290,3600.648841,9326.594869
988.840023,1184.329507,2987.772442,9844.739029
988.840353,1998.556043,2834.553343,8586.388927
988.840682,1776.494261,2068.457845,6957.935855
988.841012,1998.556043,1685.410096,7402.059420
988.841341,2220.617826,2451.505594,9326.594869
988.841671,814.226536,3217.601092,10288.862594
988.842000,-2220.617826,3447.429741,10066.800811
988.842329,-3923.091493,2681.334243,9474.636058
988.842659,-3256.906145,2757.943793,10288.862594
988.842988,-1184.329507,1991.848295,11325.150913
988.843318,370.102971,842.705048,9992.780217
988.843647,518.144159,-919.314598,7994.224174
988.843977,888.247130,-383.047749,7476.080014
988.844306,2442.679609,842.705048,9400.615463
988.844636,2442.679609,1685.410096,10510.924376
988.844965,296.082377,2757.943793,9844.739029
988.845295,-1776.494261,4136.915689,8734.430116
988.845624,-1258.350101,2834.553343,9400.615463
988.845954,740.205942,1838.629195,10362.883188
988.846283,1332.370696,689.485948,9474.636058
988.846613,222.061783,-306.438199,8586.388927
988.846942,-666.185348,153.219100,8290.306550
988.847272,-518.144159,919.314598,10066.800811
988.847601,-518.144159,919.314598,10658.965565
988.847931,-1998.556043,153.219100,9918.759623
988.848260,-3627.009116,-306.438199,9474.636058
988.848590,-4071.132681,-459.657299,10362.883188
988.848919,-3627.009116,766.095498,11029.068536
988.849249,-3478.967927,0.000000,9770.718434
988.849578,-2886.803174,-1225.752797,7846.182985
988.849908,-2146.597232,-2451.505594,7402.059420
988.850237,-444.123565,-2145.067394,9104.533087
988.850566,0.000000,-1378.971896,10362.883188
988.850896,-1702.473667,-383.047749,10436.903782
988.851225,-4145.153275,153.219100,10288.862594
988.851555,-5033.400406,842.705048,11103.089130
988.851884,-3478.967927,1149.143247,11917.315666
988.852214,-1184.329507,0.000000,11473.192101
988.852543,-148.041188,-1072.533697,9030.512492
988.852873,0.000000,-919.314598,7105.977043
988.853202,814.226536,-1302.362347,8216.285956
988.853532,1406.391290,-1072.533697,10732.986159
988.853861,-1110.308913,1149.143247,11621.233289
988.854191,-4589.276840,2681.334243,11029.068536
988.854520,-5773.606348,2374.896044,10955.047942
988.854850,-4219.173869,1072.533697,11029.068536
988.855179,-1850.514855,0.000000,10066.800811
988.855509,-740.205942,-1915.238745,8068.244768
988.855838,-740.205942,-995.924147,6661.853478
988.856168,-222.061783,459.657299,7105.977043
988.856497,518.144159,766.095498,9326.594869
988.856827,-370.102971,1991.848295,10362.883188
988.857156,-2368.659014,3983.696590,9474.636058
988.857486,-3478.967927,4060.306139,9030.512492
988.857815,-1850.514855,2987.772442,9918.759623
988.858145,0.000000,2911.162892,10066.800811
988.858474,888.247130,1838.629195,8290.306550
988.858803,1258.350101,459.657299,6809.894666
988.859133,1998.556043,1685.410096,7105.977043
988.859462,2886.803174,2681.334243,9400.615463
988.859792,1998.556043,3600.648841,10288.862594
988.860121,0.000000,4366.744339,9622.677246
988.860451,-1554.432478,4366.744339,9030.512492
988.860780,-1110.308913,4290.134789,9844.739029
988.861110,0.000000,2528.115143,10362.883188
988.861439,370.102971,1455.581446,9474.636058
988.861769,-518.144159,153.219100,7920.203579
988.862098,-740.205942,-536.266849,8216.285956
988.862428,-148.041188,536.266849,9992.780217
988.862757,-518.144159,536.266849,10807.006753
988.863087,-1850.514855,919.314598,10214.842000
988.863416,-3182.885551,2145.067394,9252.574275
988.863746,-2220.617826,2528.115143,9104.533087
988.864075,592.164754,1838.629195,9474.636058
988.864405,1554.432478,689.485948,8512.368333
988.864734,1332.370696,229.828649,7698.141797
988.865064,1110.308913,306.438199,8660.409521
988.865393,888.247130,1378.971896,10362.883188
988.865723,0.000000,2145.067394,11325.150913
988.866052,-1776.494261,1378.971896,10807.006753
988.866382,-4071.132681,842.705048,9770.718434
988.866711,-5033.400406,-229.828649,9474.636058
988.867040,-3775.050304,-995.924147,10362.883188
988.867370,-2664.741391,-1225.752797,9918.759623
988.867699,-2368.659014,-1149.143247,8438.347739
988.868029,-2886.803174,-2528.115143,7698.141797
988.868358,-2442.679609,-1991.848295,9400.615463
988.868688,-2072.576638,-1302.362347,11473.192101
988.869017,-3256.906145,306.438199,11917.315666
988.869347,-5181.441594,-153.219100,10807.006753
988.869676,-5181.441594,-153.219100,10288.862594
988.870006,-2812.782580,-1149.143247,10584.944971
988.870335,-518.144159,-2298.286494,9548.656652
988.870665,0.000000,-1915.238745,7328.038826
988.870994,370.102971,-612.876398,6587.832884
988.871324,1924.535449,306.438199,7994.224174
988.871653,2368.659014,0.000000,10436.903782
988.871983,370.102971,1762.019645,11843.295072
988.872312,-2886.803174,3370.820191,11325.150913
988.872642,-4737.318029,2604.724693,11843.295072
988.872971,-3997.112087,2451.505594,12879.583391
988.873301,-2960.823768,766.095498,11621.233289
988.873630,-2368.659014,-1762.019645,8660.409521
988.873960,-1776.494261,-2604.724693,6365.771101
988.874289,-296.082377,-1608.800546,7254.018232
988.874619,222.061783,-76.609550,8734.430116
988.874948,-148.041188,1991.848295,9030.512492
988.875278,-1776.494261,2604.724693,8586.388927
988.875607,-2220.617826,3830.477490,9104.533087
988.875936,-1258.350101,3983.696590,10140.821405
988.876266,0.000000,3830.477490,9992.780217
988.876595,518.144159,2757.943793,8364.327145
988.876925,296.082377,1455.581446,7105.977043
988.877254,888.247130,1072.533697,7698.141797
988.877584,2072.576638,1915.238745,10140.821405
988.877913,1036.288319,2451.505594,11177.109724
988.878243,-814.226536,2757.943793,10436.903782
988.878572,-2072.576638,2911.162892,9918.759623
988.878902,-370.102971,3140.991542,10955.047942
988.879231,1184.329507,2757.943793,11177.109724
988.879561,1110.308913,2987.772442,9252.574275
988.879890,1036.288319,2757.943793,6809.894666
988.880220,2072.576638,2221.676944,6217.729913
988.880549,2664.741391,306.438199,7328.038826
988.880879,1554.432478,1072.533697,8808.450710
988.881208,-1628.453072,2221.676944,9252.574275
988.881538,-3923.091493,2528.115143,9696.697840
988.881867,-4367.215058,1685.410096,10584.944971
988.882197,-2516.700203,2451.505594,11029.068536
988.882526,-1850.514855,919.314598,9696.697840
988.882856,-1110.308913,-842.705048,8142.265362
988.883185,-444.123565,-229.828649,8512.368333
988.883515,74.020594,689.485948,9400.615463
988.883844,0.000000,1532.190996,11251.130318
988.884173,-2368.659014,2221.676944,10436.903782
988.884503,-4367.215058,1915.238745,9252.574275
988.884832,-3775.050304,306.438199,10362.883188
988.885162,-2294.638420,-612.876398,12287.418637
988.885491,-1776.494261,-153.219100,10881.027347
988.885821,-2368.659014,-1072.533697,8290.306550
988.886150,-2072.576638,-2221.676944,7772.162391
988.886480,-518.144159,-1608.800546,8956.491898
988.886809,-296.082377,-1532.190996,10214.842000
988.887139,-1480.411884,-689.485948,10436.903782
988.887468,-3552.988522,459.657299,9844.739029
988.887798,-4293.194464,842.705048,10288.862594
988.888127,-2590.720797,-536.266849,10807.006753
988.888457,-1702.473667,-1149.143247,9622.677246
988.888786,-1110.308913,-1608.800546,7402.059420
988.889116,0.000000,-2451.505594,6735.874072
988.889445,592.164754,-1378.971896,8734.430116
988.889775,370.102971,76.609550,10658.965565
988.890104,-1924.535449,0.000000,11843.295072
988.890434,-4737.318029,1149.143247,11547.212695
988.890763,-5403.503377,2451.505594,11177.109724
988.891093,-3997.112087,919.314598,11621.233289
988.891422,-2146.597232,-459.657299,10955.047942
988.891752,-1480.411884,-1455.581446,8364.327145
988.892081,-740.205942,-2068.457845,7105.977043
988.892410,444.123565,-1149.143247,7772.162391
988.892740,888.247130,995.924147,9104.533087
988.893069,-370.102971,2068.457845,9696.697840
988.893399,-2072.576638,2068.457845,9548.656652
988.893728,-2294.638420,2987.772442,9548.656652
988.894058,-666.185348,3217.601092,10436.903782
988.894387,1036.288319,2298.286494,10584.944971
988.894717,1184.329507,2528.115143,9178.553681
988.895046,666.185348,1915.238745,7328.038826
988.895376,1924.535449,1302.362347,8068.244768
988.895705,2960.823768,2451.505594,9770.718434
988.896035,1776.494261,3907.087040,10510.924376
988.896364,-1258.350101,4060.306139,9696.697840
988.896694,-3108.864956,3983.696590,9400.615463
988.897023,-2664.741391,4213.525239,10140.821405
988.897353,-1850.514855,3064.381992,10214.842000
988.897682,-1184.329507,2451.505594,8586.388927
988.898012,-1036.288319,536.266849,6513.812290
988.898341,-148.041188,-459.657299,6883.915261
988.898671,518.144159,536.266849,8660.409521
988.899000,-222.061783,2068.457845,9770.718434
988.899330,-1850.514855,2604.724693,9400.615463
988.899659,-3701.029710,3830.477490,8660.409521
988.899989,-2368.659014,3524.039291,9474.636058
988.900318,518.144159,2068.457845,10066.800811
988.900648,1924.535449,1532.190996,8734.430116
988.900977,1554.432478,842.705048,7402.059420
988.901307,1332.370696,919.314598,7698.141797
988.901636,1702.473667,1991.848295,9770.718434
988.901966,1184.329507,2451.505594,11325.150913
988.902295,-1036.288319,2451.505594,10658.965565
988.902625,-3034.844362,1991.848295,10066.800811
988.902954,-3330.926739,919.314598,10288.862594
988.903284,-2590.720797,383.047749,10955.047942
988.903614,-2738.761985,-536.266849,10955.047942
988.903943,-3478.967927,-689.485948,9474.636058
988.904273,-3182.885551,-1608.800546,8586.388927
988.904602,-2146.597232,-2451.505594,9252.574275
988.904932,-1480.411884,-1915.238745,9992.780217
988.905261,-2664.741391,-1762.019645,9918.759623
988.905591,-4219.173869,-1532.190996,9474.636058
988.905920,-4293.194464,-459.657299,9770.718434
988.906250,-2664.741391,306.438199,10288.862594
988.906579,-592.164754,-612.876398,9400.615463
988.906909,222.061783,-1302.362347,8438.347739
988.907238,444.123565,-842.705048,7920.203579
988.907568,1406.391290,0.000000,9622.677246
988.907897,1702.473667,0.000000,11843.295072
988.908227,-296.082377,919.314598,12435.459826
988.908557,-3923.091493,995.924147,11251.130318
988.908886,-4737.318029,76.609550,11103.089130
988.909216,-3182.885551,-383.047749,11769.274478
988.909545,-1406.391290,-842.705048,10658.965565
988.909875,-444.123565,-1225.752797,8068.244768
988.910204,444.123565,-2221.676944,6809.894666
988.910534,1480.411884,-1378.971896,7550.100608
988.910863,1110.308913,0.000000,8956.491898
988.911193,-1702.473667,2145.067394,9400.615463
988.911522,-4663.297435,3677.258390,9030.512492
988.911852,-5181.441594,2221.676944,9104.533087
988.912181,-3552.988522,1072.533697,10807.006753
988.912511,-1702.473667,995.924147,11103.089130
988.912840,-666.185348,0.000000,8586.388927
988.913170,0.000000,-995.924147,6957.935855
988.913500,1628.453072,0.000000,7402.059420
988.913829,3923.091493,1838.629195,10066.800811
988.914159,3034.844362,3830.477490,11695.253884
988.914488,444.123565,5515.887586,10881.027347
988.914818,-1110.308913,6818.249932,9844.739029
988.915147,0.000000,5592.497135,10214.842000
988.915477,1480.411884,3064.381992,10140.821405
988.915806,1554.432478,1378.971896,8660.409521
988.916136,296.082377,76.609550,6661.853478
988.916465,444.123565,0.000000,7031.956449
988.916795,1036.288319,766.095498,8882.471304
988.917124,-222.061783,919.314598,9696.697840
988.917454,-2516.700203,1991.848295,9104.533087
988.917783,-3701.029710,3217.601092,8882.471304
988.918113,-2220.617826,4136.915689,9918.759623
988.918443,-370.102971,3447.429741,10436.903782
988.918772,148.041188,2221.676944,8808.450710
988.919102,0.000000,1455.581446,7550.100608
988.919431,222.061783,1302.362347,7698.141797
988.919761,962.267725,2221.676944,9770.718434
988.920090,444.123565,2834.553343,11103.089130
988.920420,-1702.473667,2145.067394,10140.821405
988.920749,-3552.988522,2068.457845,9548.656652
988.921079,-3256.906145,1455.581446,10066.800811
988.921408,-1776.494261,689.485948,10807.006753
988.921738,-1332.370696,306.438199,10362.883188
988.922067,-1998.556043,-536.266849,8438.347739
988.922397,-1924.535449,-383.047749,7772.162391
988.922726,-296.082377,-1608.800546,9030.512492
988.923056,148.041188,-1608.800546,10732.986159
988.923386,-1998.556043,-536.266849,10658.965565
988.923715,-4441.235652,-229.828649,9770.718434
988.924045,-4145.153275,-919.314598,9992.780217
988.924374,-2442.679609,-612.876398,11325.150913
988.924704,-1110.308913,-919.314598,10881.027347
988.925033,-888.247130,-459.657299,8216.285956
988.925363,-370.102971,-766.095498,7476.080014
988.925692,1480.411884,383.047749,8364.327145
988.926022,1406.391290,-612.876398,10066.800811
988.926351,-962.267725,-459.657299,10732.986159
988.926681,-4293.194464,1225.752797,10807.006753
988.927010,-5625.565159,995.924147,11251.130318
988.927340,-4515.256246,153.219100,12435.459826
988.927670,-2738.761985,-1378.971896,11251.130318
988.927999,-2146.597232,-3064.381992,8808.450710
988.928329,-1332.370696,-3830.477490,7254.018232
988.928658,0.000000,-2298.286494,8216.285956
988.928988,888.247130,-229.828649,9622.677246
988.929317,148.041188,306.438199,10288.862594
988.929647,-1480.411884,1225.752797,9474.636058
988.929976,-1850.514855,2451.505594,9622.677246
988.930306,0.000000,2068.457845,11251.130318
988.930635,1184.329507,2298.286494,11473.192101
988.930965,740.205942,1991.848295,8882.471304
988.931294,1036.288319,459.657299,7254.018232
988.931624,2146.597232,459.657299,8512.368333
988.931953,2590.720797,1915.238745,10584.944971
988.932283,1036.288319,3294.210641,11177.109724
988.932613,-2368.659014,3447.429741,9918.759623
988.932942,-3478.967927,3524.039291,9252.574275
988.933272,-1998.556043,3294.210641,10362.883188
988.933601,-148.041188,2451.505594,10658.965565
988.933931,0.000000,1302.362347,8660.409521
988.934260,-444.123565,0.000000,6513.812290
988.934590,444.123565,612.876398,6735.874072
988.934919,1332.370696,1378.971896,8956.491898
988.935249,740.205942,2068.457845,10362.883188
988.935578,-1628.453072,3600.648841,9252.574275
988.935908,-2664.741391,3677.258390,8808.450710
988.936237,-1554.432478,3524.039291,9252.574275
988.936567,962.267725,2451.505594,9622.677246
988.936896,1110.308913,2451.505594,8734.430116
988.937226,740.205942,2068.457845,6809.894666
988.937556,1258.350101,2374.896044,7031.956449
988.937885,1776.494261,2145.067394,9548.656652
988.938215,1702.473667,2221.676944,11325.150913
988.938544,-1628.453072,3447.429741,11177.109724
988.938874,-4219.173869,3677.258390,10214.842000
988.939203,-3997.112087,2451.505594,10881.027347
988.939533,-2590.720797,1455.581446,11399.171507
988.939862,-2146.597232,0.000000,9178.553681
988.940192,-1850.514855,-2987.772442,7179.997637
988.940521,-1110.308913,-2681.334243,7550.100608
988.940851,-518.144159,-995.924147,9548.656652
988.941180,-814.226536,-766.095498,10658.965565
988.941510,-2146.597232,-229.828649,10066.800811
988.941839,-3330.926739,919.314598,9548.656652
988.942169,-2516.700203,919.314598,10066.800811
988.942499,-370.102971,-229.828649,10732.986159
988.942828,518.144159,-383.047749,9918.759623
988.943158,0.000000,-1072.533697,8438.347739
988.943487,0.000000,-1608.800546,8734.430116
988.943817,370.102971,-229.828649,10362.883188
988.944146,0.000000,76.609550,11917.315666
988.944476,-2072.576638,229.828649,11399.171507
988.944805,-4219.173869,995.924147,9770.718434
988.945135,-3997.112087,383.047749,9622.677246
988.945464,-1850.514855,-1378.971896,10658.965565
988.945794,-1850.514855,-1149.143247,9844.739029
988.946123,-2812.782580,-1072.533697,7550.100608
988.946453,-3256.906145,-2451.505594,6735.874072
988.946782,-2368.659014,-1991.848295,8142.265362
988.947112,-1332.370696,-1149.143247,10362.883188
988.947442,-2368.659014,-1072.533697,11029.068536
988.947771,-3701.029710,-383.047749,10658.965565
988.948101,-3552.988522,612.876398,10140.821405
988.948430,-1776.494261,229.828649,10732.986159
988.948760,1110.308913,153.219100,10066.800811
988.949089,1628.453072,689.485948,9474.636058
988.949419,1850.514855,1225.752797,8956.491898
988.949748,3108.864956,2451.505594,10288.862594
988.950078,3552.988522,3753.867940,11251.130318
988.950407,1998.556043,3600.648841,10658.965565
988.950737,0.000000,2834.553343,8882.471304
988.951066,-1998.556043,2604.724693,8956.491898
988.951396,-1554.432478,2451.505594,10510.924376
988.951726,-962.267725,995.924147,10732.986159
988.952055,-1628.453072,1072.533697,8734.430116
988.952385,-2368.659014,76.609550,6883.915261
988.952714,-1110.308913,459.657299,7476.080014
988.953044,592.164754,1685.410096,9104.533087
988.953373,296.082377,2451.505594,9474.636058
988.953703,-1702.473667,3447.429741,8438.347739
988.954032,-2812.782580,3907.087040,8068.244768
988.954362,-1702.473667,4749.792088,8586.388927
988.954691,518.144159,4290.134789,9178.553681
988.955021,1258.350101,3294.210641,7698.141797
988.955350,1850.514855,1685.410096,6439.791695
988.955680,2368.659014,1762.019645,7328.038826
988.956009,2738.761985,2681.334243,9844.739029
988.956339,1332.370696,3830.477490,11917.315666
988.956669,-2294.638420,4596.572988,10807.006753
988.956998,-4293.194464,4443.353888,9696.697840
988.957328,-2738.761985,2681.334243,10362.883188
988.957657,-370.102971,0.000000,11325.150913
988.957987,0.000000,-995.924147,10214.842000
988.958316,-1406.391290,-1532.190996,7772.162391
988.958646,-1258.350101,-1685.410096,7476.080014
988.958975,0.000000,-766.095498,9770.718434
988.959305,814.226536,0.000000,10732.986159
988.959634,-1184.329507,306.438199,10510.924376
988.959964,-2664.741391,1149.143247,9400.615463
988.960293,-2294.638420,1455.581446,9844.739029
988.960623,-370.102971,1378.971896,11029.068536
988.960952,148.041188,-306.438199,9992.780217
988.961282,-666.185348,-1455.581446,9178.553681
988.961612,-962.267725,-1302.362347,9326.594869
988.961941,-1110.308913,229.828649,10066.800811
988.962271,-1036.288319,306.438199,10955.047942
988.962600,-2368.659014,-995.924147,10288.862594
988.962930,-3849.070898,-766.095498,9474.636058
988.963259,-4885.359217,-229.828649,9326.594869
988.963589,-3923.091493,-1915.238745,10510.924376
988.963918,-2812.782580,-2298.286494,11029.068536
988.964248,-3256.906145,-2145.067394,8512.368333
988.964577,-2146.597232,-2987.772442,7550.100608
988.964907,-370.102971,-2528.115143,8808.450710
988.965236,518.144159,-536.266849,10140.821405
988.965566,-518.144159,-229.828649,10140.821405
988.965895,-2442.679609,612.876398,9548.656652
988.966225,-3034.844362,1608.800546,9918.759623
988.966555,-962.267725,1378.971896,11399.171507
988.966884,74.020594,766.095498,11399.171507
988.967214,0.000000,1225.752797,9178.553681
988.967543,370.102971,612.876398,7550.100608
988.967873,1628.453072,0.000000,8364.327145
988.968202,2146.597232,1608.800546,10436.903782
988.968532,0.000000,2757.943793,11103.089130
988.968861,-3034.844362,2528.115143,10436.903782
988.969191,-5033.400406,3524.039291,9770.718434
988.969520,-4293.194464,2834.553343,9844.739029
988.969850,-1850.514855,1608.800546,9770.718434
988.970179,-518.144159,229.828649,7994.224174
988.970509,-370.102971,229.828649,6365.771101
988.970838,74.020594,842.705048,6957.935855
988.971168,1036.288319,1302.362347,9030.512492
988.971498,592.164754,2681.334243,9696.697840
988.971827,-1554.432478,3983.696590,10140.821405
988.972157,-2220.617826,4366.744339,9992.780217
988.972486,-518.144159,4366.744339,10140.821405
988.972816,1850.514855,3524.039291,10066.800811
988.973145,2368.659014,3140.991542,7772.162391
988.973475,1850.514855,2451.505594,6513.812290
988.973804,2664.741391,2221.676944,7179.997637
988.974134,3108.864956,3447.429741,9548.656652
988.974463,1184.329507,3753.867940,11325.150913
988.974793,-1554.432478,3907.087040,11177.109724
988.975122,-3775.050304,3983.696590,9474.636058
988.975452,-3478.967927,2451.505594,10214.842000
988.975781,-2368.659014,1532.190996,10658.965565
988.976111,-1554.432478,76.609550,9178.553681
988.976441,-962.267725,-995.924147,6439.791695
988.976770,0.000000,-1608.800546,5847.626942
988.977100,1110.308913,-459.657299,7994.224174
988.977429,888.247130,459.657299,9696.697840
988.977759,-1332.370696,1455.581446,9992.780217
988.978088,-3404.947333,2374.896044,9992.780217
988.978418,-2590.720797,2528.115143,10955.047942
988.978747,-296.082377,1302.362347,11843.295072
988.979077,222.061783,306.438199,11103.089130
988.979406,-518.144159,-919.314598,9178.553681
988.979736,-296.082377,-995.924147,8734.430116
988.980065,1480.411884,-229.828649,10214.842000
988.980395,1628.453072,-995.924147,11547.212695
988.980725,-1406.391290,-689.485948,11325.150913
988.981054,-5107.421000,76.609550,10288.862594
988.981384,-6587.832884,153.219100,9844.739029
988.981713,-5551.544565,-1072.533697,10658.965565
988.982043,-4219.173869,-2528.115143,10436.903782
988.982372,-2960.823768,-2834.553343,8882.471304
988.982702,-2146.597232,-4366.744339,7698.141797
988.983031,-1184.329507,-4290.134789,8068.244768
988.983361,-592.164754,-2068.457845,9252.574275
988.983690,-1702.473667,-766.095498,9696.697840
988.984020,-2294.638420,1072.533697,10807.006753
988.984349,-2590.720797,1991.848295,11399.171507
988.984679,-1036.288319,2298.286494,12139.377449
988.985008,370.102971,1455.581446,11029.068536
988.985338,444.123565,229.828649,8808.450710
988.985668,814.226536,0.000000,7698.141797
988.985997,1332.370696,306.438199,8660.409521
988.986327,1332.370696,383.047749,9696.697840
988.986656,-148.041188,919.314598,10066.800811
988.986986,-2886.803174,1455.581446,9252.574275
988.987315,-4589.276840,2451.505594,9252.574275
988.987645,-4071.132681,2374.896044,10066.800811
988.987974,-2294.638420,2145.067394,10066.800811
988.988304,-1554.432478,1149.143247,8438.347739
988.988633,-1480.411884,0.000000,7031.956449
988.988963,-1036.288319,-766.095498,7994.224174
988.989292,148.041188,689.485948,10584.944971
988.989622,-888.247130,2528.115143,11251.130318
988.989951,-2812.782580,4060.306139,10362.883188
988.990281,-3108.864956,4136.915689,9548.656652
988.990611,-444.123565,3677.258390,9252.574275
988.990940,1998.556043,2834.553343,8660.409521
988.991270,3182.885551,2834.553343,7476.080014
988.991599,3330.926739,2911.162892,6587.832884
988.991929,2886.803174,3907.087040,7624.121203
988.992258,2886.803174,4673.182538,9400.615463
988.992588,2146.597232,4903.011187,10807.006753
988.992917,-962.267725,4596.572988,9844.739029
988.993247,-2886.803174,3753.867940,9326.594869
988.993576,-2960.823768,2068.457845,10140.821405
988.993906,-1924.535449,689.485948,10881.027347
988.994235,-1406.391290,306.438199,9622.677246
988.994565,-1184.329507,153.219100,7550.100608
988.994894,-666.185348,-153.219100,6587.832884
988.995224,888.247130,-153.219100,8142.265362
988.995554,1258.350101,1455.581446,9030.512492
988.995883,-518.144159,2145.067394,8882.471304
988.996213,-1924.535449,2911.162892,9178.553681
988.996542,-1776.494261,3370.820191,10140.821405
988.996872,-666.185348,2145.067394,10362.883188
988.997201,-222.061783,229.828649,9696.697840
988.997531,-296.082377,-1302.362347,8882.471304
988.997860,0.000000,-1838.629195,9178.553681
988.998190,-148.041188,-536.266849,10140.821405
988.998518,-814.226536,-229.828649,11029.068536
988.998848,-2738.761985,-766.095498,10732.986159
988.999177,-4293.194464,-1455.581446,10584.944971
988.999507,-4367.215058,-919.314598,11399.171507
988.999836,-4145.153275,-229.828649,12065.356855
989.000166,-3182.885551,-1378.971896,11325.150913
989.000495,-2368.659014,-1991.848295,9252.574275
989.000825,-1850.514855,-2987.772442,7179.997637
989.001154,-370.102971,-4060.306139,7846.182985
989.001484,148.041188,-2987.772442,9326.594869
989.001813,-2220.617826,-1072.533697,10362.883188
989.002143,-4293.194464,459.657299,10955.047942
989.002472,-4885.359217,0.000000,11769.274478
989.002802,-3330.926739,229.828649,11843.295072
989.003131,-2146.597232,383.047749,11251.130318
989.003461,-592.164754,-766.095498,8364.327145
989.003790,0.000000,-536.266849,6439.791695
989.004120,1332.370696,-306.438199,7550.100608
989.004449,1406.391290,229.828649,9696.697840
989.004779,-962.267725,1378.971896,10881.027347
989.005108,-3997.112087,2681.334243,11029.068536
989.005438,-5403.503377,3140.991542,10436.903782
989.005767,-4145.153275,1762.019645,10807.006753
989.006097,-1850.514855,383.047749,10214.842000
989.006426,-1258.350101,0.000000,7328.038826
989.006756,0.000000,-1378.971896,5995.668130
989.007085,518.144159,-536.266849,7105.977043
989.007415,888.247130,1072.533697,9844.739029
989.007744,-222.061783,1838.629195,11251.130318
989.008074,-2442.679609,3140.991542,11399.171507
989.008403,-3256.906145,4903.011187,10436.903782
989.008733,-962.267725,4519.963438,9918.759623
989.009062,1776.494261,2911.162892,9474.636058
989.009392,2886.803174,1915.238745,7550.100608
989.009721,2812.782580,2145.067394,5551.544565
989.010051,3256.906145,2145.067394,6587.832884
989.010380,2960.823768,3677.258390,10066.800811
989.010710,444.123565,5056.230287,12287.418637
989.011039,-2516.700203,5132.839837,11843.295072
989.011369,-4145.153275,4673.182538,10362.883188
989.011698,-2664.741391,3677.258390,10140.821405
989.012028,-518.144159,1685.410096,9252.574275
989.012357,444.123565,0.000000,7698.141797
989.012687,0.000000,-842.705048,5329.482782
989.013016,148.041188,229.828649,6143.709319
989.013346,1036.288319,1532.190996,8290.306550
989.013675,518.144159,2987.772442,9548.656652
989.014005,-1184.329507,2834.553343,10066.800811
989.014334,-2590.720797,2757.943793,9918.759623
989.014664,-1924.535449,2911.162892,10510.924376
989.014993,148.041188,2374.896044,11325.150913
989.015323,592.164754,1915.238745,9844.739029
989.015652,-518.144159,229.828649,7105.977043
989.015982,-1036.288319,-1072.533697,7105.977043
989.016311,0.000000,-995.924147,9622.677246
989.016641,-740.205942,0.000000,11695.253884
989.016970,-3256.906145,459.657299,11991.336260
989.017300,-5995.668130,0.000000,10732.986159
989.017629,-6069.688724,-689.485948,11177.109724
989.017959,-3775.050304,-2374.896044,11473.192101
989.018288,-2368.659014,-3294.210641,10066.800811
989.018618,-1554.432478,-3064.381992,7698.141797
989.018947,-1258.350101,-1991.848295,7402.059420
989.019277,74.020594,-1685.410096,9326.594869
989.019606,222.061783,-995.924147,10362.883188
989.019936,-1406.391290,-229.828649,10362.883188
989.020265,-3108.864956,229.828649,9992.780217
989.020595,-3182.885551,919.314598,11325.150913
989.020924,-1924.535449,-153.219100,12065.356855
989.021254,-1332.370696,-1149.143247,10955.047942
989.021583,-1332.370696,-1915.238745,8660.409521
989.021913,-666.185348,-1991.848295,7698.141797
989.022242,814.226536,-919.314598,9030.512492
989.022572,888.247130,229.828649,10584.944971
989.022901,-370.102971,1149.143247,10436.903782
989.023231,-3182.885551,1685.410096,9178.553681
989.023560,-3775.050304,1455.581446,9474.636058
989.023890,-2516.700203,76.609550,11029.068536
989.024219,-1480.411884,-153.219100,11399.171507
989.024549,-1998.556043,-229.828649,9844.739029
989.024878,-2220.617826,-766.095498,8216.285956
989.025208,-148.041188,-842.705048,8290.306550
989.025537,1258.350101,-229.828649,9548.656652
989.025867,370.102971,995.924147,9474.636058
989.026196,-814.226536,2374.896044,9104.533087
989.026526,-1628.453072,4213.525239,8438.347739
989.026855,0.000000,5132.839837,9104.533087
989.027185,1776.494261,3907.087040,9474.636058
989.027514,2072.576638,2987.772442,8068.244768
989.027844,1554.432478,2911.162892,6957.935855
989.028173,1554.432478,2681.334243,8068.244768
989.028503,1924.535449,2987.772442,10288.862594
989.028832,0.000000,3370.820191,11769.274478
989.029162,-2664.741391,2757.943793,11399.171507
989.029491,-4219.173869,3524.039291,10288.862594
989.029821,-3182.885551,3677.258390,10510.924376
989.030150,-814.226536,2451.505594,9622.677246
989.030480,518.144159,1225.752797,7994.224174
989.030809,1110.308913,995.924147,5699.585753
989.031139,2072.576638,1838.629195,5847.626942
989.031468,2738.761985,2451.505594,7476.080014
989.031798,1628.453072,4290.134789,9326.594869
989.032127,-1110.308913,4596.572988,9030.512492
989.032457,-2960.823768,3753.867940,9326.594869
989.032786,-2590.720797,3370.820191,10436.903782
989.033116,-1628.453072,1838.629195,11251.130318
989.033445,-1776.494261,1378.971896,10066.800811
989.033775,-2368.659014,229.828649,8290.306550
989.034104,-1702.473667,-995.924147,8068.244768
989.034434,-444.123565,0.000000,9696.697840
989.034763,-740.205942,689.485948,10436.903782
989.035093,-2960.823768,1072.533697,10955.047942
989.035422,-4589.276840,919.314598,10881.027347
989.035752,-4589.276840,1378.971896,11177.109724
989.036081,-2960.823768,306.438199,11325.150913
989.036411,-1924.535449,-1149.143247,9178.553681
989.036740,-1850.514855,-2528.115143,7031.956449
989.037070,-296.082377,-3140.991542,7328.038826
989.037399,740.205942,-2221.676944,9474.636058
989.037729,0.000000,-766.095498,10658.965565
989.038058,-1850.514855,-153.219100,10584.944971
989.038388,-4219.173869,536.266849,10436.903782
989.038717,-4737.318029,766.095498,10881.027347
989.039047,-2590.720797,-689.485948,11547.212695
989.039376,-1184.329507,-1532.190996,10658.965565
989.039706,-888.247130,-1991.848295,8660.409521
989.040035,-1258.350101,-1838.629195,7550.100608
989.040365,0.000000,-1838.629195,9178.553681
989.040694,222.061783,-536.266849,10732.986159
989.041024,-1332.370696,536.266849,10436.903782
989.041353,-3404.947333,1072.533697,9400.615463
989.041683,-3404.947333,1072.533697,8808.450710
989.042012,-1480.411884,-459.657299,10732.986159
989.042342,-518.144159,-1302.362347,11103.089130
989.042671,-592.164754,-995.924147,9844.739029
989.043001,-592.164754,-1149.143247,8290.306550
989.043330,370.102971,-612.876398,9104.533087
989.043660,1406.391290,-459.657299,10807.006753
989.043989,814.226536,919.314598,11103.089130
989.044319,-1184.329507,1072.533697,9696.697840
989.044648,-1702.473667,2451.505594,9178.553681
989.044978,-296.082377,2911.162892,9548.656652
989.045307,1036.288319,2681.334243,9474.636058
989.045637,1480.411884,2068.457845,7994.224174
989.045966,962.267725,1991.848295,6735.874072
989.046296,1776.494261,2528.115143,8216.285956
989.046625,2146.597232,3064.381992,10584.944971
989.046955,-296.082377,4060.306139,11769.274478
989.047284,-3404.947333,4136.915689,10510.924376
989.047614,-4885.359217,3447.429741,9400.615463
989.047943,-2738.761985,2681.334243,9918.759623
989.048273,-592.164754,2221.676944,9770.718434
989.048602,-296.082377,1225.752797,7105.977043
989.048932,296.082377,612.876398,5403.503377
989.049261,1628.453072,1302.362347,6143.709319
989.049591,2738.761985,2451.505594,8660.409521
989.049920,1850.514855,3983.696590,9918.759623
989.050250,-666.185348,4749.792088,9844.739029
989.050579,-2738.761985,5362.668486,9474.636058
989.050909,-2664.741391,4903.011187,9992.780217
989.051238,-1554.432478,4290.134789,10140.821405
989.051568,-1036.288319,2298.286494,8142.265362
989.051897,-1850.514855,-1149.143247,6809.894666
989.052227,-2072.576638,-153.219100,7920.203579
989.052556,-2072.576638,1225.752797,10584.944971
989.052886,-2664.741391,1685.410096,11399.171507
989.053215,-4293.194464,1225.752797,10510.924376
989.053545,-5255.462188,76.609550,10140.821405
989.053874,-3849.070898,-766.095498,11399.171507
989.054204,-2368.659014,-306.438199,12139.377449
989.054533,-1702.473667,536.266849,10436.903782
989.054863,-1776.494261,76.609550,8142.265362
989.055192,-814.226536,-1532.190996,7254.018232
989.055522,1628.453072,-1915.238745,8438.347739
989.055851,2294.638420,-1302.362347,10214.842000
989.056181,-370.102971,76.609550,9770.718434
989.056510,-3404.947333,995.924147,9770.718434
989.056840,-3997.112087,383.047749,11029.068536
989.057169,-2664.741391,0.000000,11991.336260
989.057499,-1924.535449,-536.266849,10510.924376
989.057828,-1628.453072,-1685.410096,8586.388927
989.058158,-888.247130,-2221.676944,7698.141797
989.058487,0.000000,-1915.238745,8882.471304
989.058817,222.061783,-766.095498,9918.759623
989.059146,-666.185348,-1149.143247,9548.656652
989.059476,-3478.967927,-919.314598,10140.821405
989.059805,-4515.256246,0.000000,11769.274478
989.060135,-3108.864956,0.000000,13175.665768
989.060464,-1480.411884,-536.266849,11843.295072
989.060794,0.000000,-1455.581446,8438.347739
989.061123,1332.370696,-2451.505594,6587.832884
989.061453,3404.947333,-2451.505594,7402.059420
989.061782,3997.112087,-689.485948,9400.615463
989.062112,1776.494261,1762.019645,10732.986159
989.062441,-1332.370696,3447.429741,10362.883188
989.062771,-1702.473667,3600.648841,10658.965565
989.063100,-518.144159,3217.601092,11029.068536
989.063430,1406.391290,1532.190996,10807.006753
989.063759,1480.411884,306.438199,8586.388927
989.064089,814.226536,229.828649,6809.894666
989.064418,1184.329507,0.000000,7994.224174
989.064748,592.164754,919.314598,10955.047942
989.065077,-814.226536,2451.505594,11843.295072
989.065407,-2886.803174,3064.381992,10214.842000
989.065736,-3034.844362,3294.210641,9252.574275
989.066066,-888.247130,2834.553343,9252.574275
989.066395,888.247130,2068.457845,9326.594869
989.066724,1184.329507,1762.019645,7624.121203
989.067054,962.267725,2145.067394,5921.647536
989.067383,1406.391290,2528.115143,6439.791695
989.067713,2368.659014,3294.210641,9030.512492
989.068042,814.226536,3370.820191,9770.718434
989.068372,-2146.597232,3600.648841,9030.512492
989.068701,-4145.153275,3064.381992,9178.553681
989.069031,-3552.988522,3600.648841,10436.903782
989.069360,-2590.720797,3140.991542,11251.130318
989.069690,-2220.617826,2451.505594,9400.615463
989.070019,-1998.556043,1225.752797,6957.935855
989.070349,-740.205942,383.047749,6217.729913
989.070678,444.123565,612.876398,8216.285956
989.071008,148.041188,1685.410096,10362.883188
989.071337,-2368.659014,2451.505594,10436.903782
989.071667,-4219.173869,2987.772442,9474.636058
989.071996,-3997.112087,1991.848295,10807.006753
989.072326,-2146.597232,1302.362347,11399.171507
989.072655,-1036.288319,0.000000,10362.883188
989.072985,-444.123565,-995.924147,8512.368333
989.073314,222.061783,-766.095498,8068.244768
989.073644,1406.391290,-842.705048,9622.677246
989.073973,814.226536,0.000000,10807.006753
989.074303,-1480.411884,1302.362347,10807.006753
989.074632,-3627.009116,1608.800546,10584.944971
989.074962,-3552.988522,1072.533697,10807.006753
989.075291,-2738.761985,919.314598,11399.171507
989.075621,-1702.473667,-689.485948,9992.780217
989.075950,-1184.329507,-2451.505594,7846.182985
989.076280,-1110.308913,-2681.334243,6883.915261
989.076609,-518.144159,-1608.800546,8142.265362
989.076939,-296.082377,-1072.533697,9548.656652
989.077268,-1776.494261,-612.876398,10066.800811
989.077598,-3478.967927,-383.047749,10362.883188
989.077927,-3775.050304,0.000000,11399.171507
989.078257,-2294.638420,76.609550,12287.418637
989.078586,-962.267725,-995.924147,11103.089130
989.078916,-222.061783,-1455.581446,9104.533087
989.079245,444.123565,-1455.581446,7698.141797
989.079575,2220.617826,-2298.286494,8882.471304
989.079904,3330.926739,-1378.971896,10732.986159
989.080234,1406.391290,919.314598,11029.068536
989.080563,-1480.411884,2451.505594,10066.800811
989.080893,-2294.638420,1838.629195,9696.697840
989.081222,-1258.350101,1608.800546,10881.027347
989.081552,0.000000,1455.581446,10881.027347
989.081881,74.020594,229.828649,9030.512492
989.082211,148.041188,-612.876398,7550.100608
989.082540,148.041188,153.219100,8216.285956
989.082870,740.205942,689.485948,10140.821405
989.083199,-370.102971,995.924147,10807.006753
989.083529,-2146.597232,2451.505594,9992.780217
989.083858,-3404.947333,3447.429741,8882.471304
989.084188,-2516.700203,2681.334243,9696.697840
989.084517,-148.041188,2145.067394,10140.821405
989.084847,740.205942,1455.581446,8438.347739
989.085176,1258.350101,919.314598,6513.812290
989.085506,1776.494261,1838.629195,7105.977043
989.085835,2960.823768,2068.457845,9622.677246
989.086165,1406.391290,3140.991542,11399.171507
989.086494,-1776.494261,4903.011187,9992.780217
989.086824,-3775.050304,5515.887586,8290.306550
989.087153,-2886.803174,4596.572988,7920.203579
989.087483,-444.123565,2298.286494,8808.450710
989.087812,-888.247130,1225.752797,8142.265362
989.088142,-1850.514855,1072.533697,7105.977043
989.088471,-1776.494261,1532.190996,7179.997637
989.088801,-1184.329507,2451.505594,8956.491898
989.089130,-1554.432478,1072.533697,10881.027347
989.089460,-2812.782580,1915.238745,11029.068536
989.089789,-3627.009116,2068.457845,10066.800811
989.090119,-2516.700203,1685.410096,10362.883188
989.090448,-1036.288319,1915.238745,11399.171507
989.090778,148.041188,1302.362347,10140.821405
989.091107,-148.041188,-306.438199,8068.244768
989.091437,814.226536,-459.657299,7328.038826
989.091766,1998.556043,306.438199,9030.512492
989.092096,1998.556043,995.924147,10732.986159
989.092425,-518.144159,1455.581446,11029.068536
989.092755,-2960.823768,2221.676944,9844.739029
989.093084,-4071.132681,2145.067394,10436.903782
989.093414,-2590.720797,919.314598,10881.027347
989.093743,-1776.494261,0.000000,10066.800811
989.094073,-2072.576638,-1608.800546,7920.203579
989.094402,-1702.473667,-2681.334243,7179.997637
989.094732,-814.226536,-2374.896044,8882.471304
989.095061,-666.185348,-1608.800546,11177.109724
989.095391,-3108.864956,-306.438199,11029.068536
989.095720,-5551.544565,153.219100,10807.006753
989.096050,-4885.359217,229.828649,11325.150913
989.096379,-2368.659014,-383.047749,11399.171507
989.096709,-444.123565,-1378.971896,10288.862594
989.097038,740.205942,-1532.190996,7846.182985
989.097368,1110.308913,-2451.505594,6587.832884
989.097697,2368.659014,-1762.019645,7624.121203
989.098027,2664.741391,612.876398,10584.944971
989.098356,1036.288319,1608.800546,10955.047942
989.098686,-1850.514855,2068.457845,10807.006753
989.099015,-2960.823768,1991.848295,10658.965565
989.099345,-1850.514855,995.924147,11473.192101
989.099674,-666.185348,0.000000,10807.006753
989.100004,-962.267725,-1378.971896,9104.533087
989.100333,-962.267725,-1302.362347,7624.121203
989.100663,0.000000,-689.485948,8586.388927
989.100993,962.267725,76.609550,10436.903782
989.101322,0.000000,995.924147,10807.006753
989.101652,-2146.597232,2221.676944,9844.739029
989.101982,-3256.906145,3217.601092,9252.574275
989.102311,-1850.514855,2451.505594,10140.821405
989.102641,592.164754,2145.067394,10584.944971
989.102971,814.226536,1685.410096,8290.306550
989.103300,370.102971,1072.533697,6439.791695
989.103630,1036.288319,1455.581446,6809.894666
989.103959,2368.659014,1762.019645,9548.656652
989.104289,814.226536,2451.505594,11103.089130
989.104619,-2368.659014,4060.306139,10510.924376
989.104948,-4441.235652,4749.792088,9696.697840
989.105278,-3256.906145,3830.477490,10066.800811
989.105608,-1036.288319,3524.039291,9992.780217
989.105937,74.020594,2451.505594,7254.018232
989.106267,740.205942,76.609550,5255.462188
989.106597,1332.370696,919.314598,5477.523971
989.106926,1702.473667,2451.505594,7772.162391
989.107256,592.164754,2451.505594,10510.924376
989.107585,-2146.597232,3907.087040,10732.986159
989.107915,-4145.153275,4519.963438,10584.944971
989.108245,-3404.947333,3217.601092,10881.027347
989.108574,-1406.391290,689.485948,11621.233289
989.108904,-592.164754,612.876398,10658.965565
989.109234,-740.205942,-459.657299,8216.285956
989.109563,-888.247130,-459.657299,7550.100608
989.109893,666.185348,536.266849,9104.533087
989.110223,370.102971,689.485948,10214.842000
989.110552,-1850.514855,1072.533697,10362.883188
989.110882,-3997.112087,2451.505594,9844.739029
989.111211,-3552.988522,2298.286494,10658.965565
989.111541,-2146.597232,1378.971896,11251.130318
989.111871,-1184.329507,995.924147,9696.697840
989.112200,-1480.411884,-842.705048,7105.977043
989.112530,-1036.288319,-2298.286494,6587.832884
989.112860,370.102971,-1532.190996,8956.491898
989.113189,0.000000,-459.657299,11251.130318
989.113519,-2072.576638,-536.266849,11029.068536
989.113849,-4293.194464,0.000000,10732.986159
989.114178,-4515.256246,383.047749,10881.027347
989.114508,-2590.720797,-536.266849,11695.253884
989.114837,-888.247130,-1455.581446,10807.006753
989.115167,0.000000,-1455.581446,7624.121203
989.115497,0.000000,-1991.848295,6439.791695
989.115826,1406.391290,-1991.848295,8068.244768
989.116156,1702.473667,-766.095498,10436.903782
989.116486,-592.164754,612.876398,11103.089130
989.116815,-3775.050304,1762.019645,10214.842000
989.117145,-4737.318029,1302.362347,10658.965565
989.117475,-2590.720797,536.266849,11991.336260
989.117804,-1036.288319,76.609550,11399.171507
989.118134,-740.205942,-766.095498,8438.347739
989.118463,-222.061783,-1302.362347,6365.771101
989.118793,1258.350101,-919.314598,7105.977043
989.119123,2368.659014,-612.876398,9696.697840
989.119452,592.164754,995.924147,11177.109724
989.119782,-2368.659014,2374.896044,11177.109724
989.120112,-3923.091493,3140.991542,10881.027347
989.120441,-2368.659014,2374.896044,11547.212695
989.120771,-148.041188,1455.581446,11103.089130
989.121101,444.123565,383.047749,9252.574275
989.121430,962.267725,-536.266849,7031.956449
989.121760,2368.659014,76.609550,8216.285956
989.122089,2664.741391,2221.676944,9918.759623
989.122419,1184.329507,3983.696590,10362.883188
989.122749,-2146.597232,4903.011187,8290.306550
989.123078,-3627.009116,4903.011187,6957.935855
989.123408,-2146.597232,3907.087040,8512.368333
989.123738,-888.247130,2451.505594,9844.739029
989.124067,-1628.453072,2451.505594,8734.430116
989.124397,-2590.720797,919.314598,7179.997637
989.124727,-1850.514855,76.609550,7476.080014
989.125056,-222.061783,612.876398,9474.636058
989.125386,-148.041188,919.314598,10658.965565
989.125715,-1480.411884,1302.362347,9770.718434
989.126045,-3330.926739,3524.039291,9622.677246
989.126375,-2368.659014,4826.401637,10510.924376
989.126704,0.000000,3140.991542,11029.068536
989.127034,1036.288319,2221.676944,9252.574275
989.127364,1036.288319,1532.190996,6365.771101
989.127693,1776.494261,0.000000,6217.729913
989.128023,2516.700203,383.047749,8364.327145
989.128353,1110.308913,1685.410096,10436.903782
989.128682,-2516.700203,2068.457845,10288.862594
989.129012,-5403.503377,2145.067394,10214.842000
989.129341,-5181.441594,2221.676944,11103.089130
989.129671,-3404.947333,766.095498,12213.398043
989.130001,-2886.803174,-383.047749,10658.965565
989.130330,-2960.823768,-1302.362347,8438.347739
989.130660,-2368.659014,-1225.752797,7698.141797
989.130990,-1184.329507,-689.485948,9400.615463
989.131319,-1406.391290,-383.047749,10807.006753
989.131649,-3108.864956,76.609550,10510.924376
989.131979,-4293.194464,0.000000,9918.759623
989.132308,-3701.029710,-229.828649,9622.677246
989.132638,-1702.473667,-919.314598,10436.903782
989.132967,74.020594,-612.876398,10066.800811
989.133297,296.082377,-1532.190996,8438.347739
989.133627,592.164754,-1302.362347,7772.162391
989.133956,1776.494261,-383.047749,9252.574275
989.134286,2368.659014,153.219100,11325.150913
989.134616,518.144159,306.438199,11695.253884
989.134945,-2738.761985,1378.971896,10658.965565
989.135275,-4071.132681,766.095498,10436.903782
989.135605,-2368.659014,-229.828649,11843.295072
989.135934,-1110.308913,-919.314598,11251.130318
989.136264,-1332.370696,-842.705048,8438.347739
989.136593,-518.144159,-1225.752797,6587.832884
989.136923,740.205942,-1608.800546,7846.182985
989.137253,1998.556043,0.000000,9474.636058
989.137582,370.102971,1149.143247,10140.821405
989.137912,-2220.617826,2604.724693,9622.677246
989.138242,-3182.885551,3753.867940,10140.821405
989.138571,-2072.576638,2298.286494,10881.027347
989.138901,-814.226536,1455.581446,10732.986159
989.139231,-222.061783,229.828649,9030.512492
989.139560,222.061783,-383.047749,7624.121203
989.139890,1776.494261,-229.828649,8586.388927
989.140219,2146.597232,995.924147,10510.924376
989.140549,370.102971,2221.676944,10807.006753
989.140879,-2072.576638,3600.648841,9622.677246
989.141208,-3108.864956,4749.792088,9030.512492
989.141538,-1184.329507,4519.963438,9474.636058
989.141868,888.247130,3064.381992,9474.636058
989.142197,1036.288319,2604.724693,7846.182985
989.142527,222.061783,1378.971896,5847.626942
989.142857,666.185348,995.924147,6661.853478
989.143186,666.185348,1991.848295,9326.594869
989.143516,-962.267725,2451.505594,11029.068536
989.143846,-3701.029710,2451.505594,10807.006753
989.144175,-5329.482782,2987.772442,9992.780217
989.144505,-4367.215058,2221.676944,10510.924376
989.144834,-1924.535449,1608.800546,11177.109724
989.145164,-666.185348,1455.581446,9104.533087
989.145494,0.000000,383.047749,7105.977043
989.145823,370.102971,76.609550,6957.935855
989.146153,1628.453072,1685.410096,8882.471304
989.146483,740.205942,2681.334243,10732.986159
989.146812,-1628.453072,3294.210641,10510.924376
989.147142,-3256.906145,2681.334243,9770.718434
989.147472,-3404.947333,2374.896044,9622.677246
989.147801,-2072.576638,842.705048,10807.006753
989.148131,-1332.370696,-459.657299,10140.821405
989.148460,-2146.597232,-1149.143247,8142.265362
989.148790,-1924.535449,-1072.533697,7328.038826
989.149120,-592.164754,-919.314598,9326.594869
989.149449,222.061783,-229.828649,10807.006753
989.149779,-888.247130,76.609550,10584.944971
989.150109,-3256.906145,306.438199,9770.718434
989.150438,-3256.906145,1915.238745,10362.883188
989.150768,-1924.535449,536.266849,11177.109724
989.151098,-1332.370696,0.000000,10584.944971
989.151427,-666.185348,-919.314598,8586.388927
989.151757,74.020594,-2374.896044,7254.018232
989.152086,666.185348,-3217.601092,8586.388927
989.152416,518.144159,-1685.410096,10732.986159
989.152746,-2146.597232,-153.219100,11769.274478
989.153075,-4589.276840,1072.533697,11177.109724
989.153405,-4515.256246,1225.752797,10955.047942
989.153735,-2516.700203,689.485948,10584.944971
989.154064,-296.082377,-229.828649,8808.450710
989.154394,740.205942,-2221.676944,6735.874072
989.154724,1036.288319,-2145.067394,6365.771101
989.155053,1406.391290,76.609550,8438.347739
989.155383,1332.370696,995.924147,10955.047942
989.155712,0.000000,1225.752797,11621.233289
989.156042,-3256.906145,1532.190996,10881.027347
989.156372,-3627.009116,995.924147,11473.192101
989.156701,-1998.556043,459.657299,12657.521608
989.157031,-444.123565,306.438199,12213.398043
989.157361,-74.020594,919.314598,9400.615463
989.157690,-148.041188,766.095498,6291.750507
989.158020,1628.453072,459.657299,6291.750507
989.158350,2368.659014,536.266849,8216.285956
989.158679,888.247130,2145.067394,9992.780217
989.159009,-2368.659014,4673.182538,10066.800811
989.159338,-3997.112087,4519.963438,9252.574275
989.159668,-2368.659014,2681.334243,10732.986159
989.159998,-1258.350101,1838.629195,10288.862594
989.160327,-666.185348,842.705048,7846.182985
989.160657,74.020594,-536.266849,6069.688724
989.160987,888.247130,459.657299,7105.977043
989.161316,1332.370696,2681.334243,9844.739029
989.161646,444.123565,3217.601092,11695.253884
989.161976,-1776.494261,3983.696590,10881.027347
989.162305,-3404.947333,5362.668486,9178.553681
989.162635,-2146.597232,4136.915689,9326.594869
989.162964,222.061783,2298.286494,9622.677246
989.163294,666.185348,1532.190996,8142.265362
989.163624,-222.061783,229.828649,6143.709319
989.163953,0.000000,153.219100,6439.791695
989.164283,740.205942,1762.019645,8660.409521
989.164613,-592.164754,1608.800546,10584.944971
989.164942,-2960.823768,2068.457845,10362.883188
989.165272,-4885.359217,2987.772442,10140.821405
989.165602,-4515.256246,2987.772442,11029.068536
989.165931,-2442.679609,1685.410096,11991.336260
989.166261,-1998.556043,1225.752797,10288.862594
989.166590,-1924.535449,76.609550,7105.977043
989.166920,-592.164754,-1991.848295,6587.832884
989.167250,1110.308913,-612.876398,8512.368333
989.167579,518.144159,306.438199,10362.883188
989.167909,-1332.370696,919.314598,10881.027347
989.168239,-3701.029710,1072.533697,9992.780217
989.168568,-3552.988522,1455.581446,10881.027347
989.168898,-1480.411884,153.219100,11843.295072
989.169228,-666.185348,-459.657299,11029.068536
989.169557,-666.185348,-1455.581446,9252.574275
989.169887,-592.164754,-2145.067394,7698.141797
989.170216,296.082377,-1915.238745,9696.697840
989.170546,370.102971,-1302.362347,11547.212695
989.170876,-1924.535449,-383.047749,11103.089130
989.171205,-4071.132681,229.828649,9992.780217
989.171535,-3849.070898,0.000000,9622.677246
989.171865,-1850.514855,-536.266849,10362.883188
989.172194,74.020594,-689.485948,9474.636058
989.172524,0.000000,-1072.533697,7476.080014
989.172854,148.041188,-995.924147,6661.853478
989.173183,962.267725,-766.095498,7772.162391
989.173513,1628.453072,229.828649,10362.883188
989.173842,-666.185348,536.266849,11473.192101
989.174172,-3849.070898,1762.019645,11029.068536
989.174502,-4959.379811,1072.533697,11399.171507
989.174831,-3108.864956,459.657299,11991.336260
989.175161,-1184.329507,76.609550,11547.212695
989.175491,0.000000,-919.314598,8438.347739
989.175820,592.164754,-1225.752797,6735.874072
989.176150,2146.597232,0.000000,7476.080014
989.176480,3034.844362,1378.971896,9474.636058
989.176809,1110.308913,2451.505594,10807.006753
989.177139,-2220.617826,4213.525239,10362.883188
989.177468,-3552.988522,4673.182538,10214.842000
989.177798,-2368.659014,3447.429741,10288.862594
989.178128,-666.185348,2298.286494,9400.615463
989.178457,518.144159,229.828649,7550.100608
989.178787,962.267725,-1072.533697,5551.544565
989.179117,1184.329507,229.828649,7550.100608
989.179446,1480.411884,1915.238745,9992.780217
989.179776,-222.061783,3140.991542,11473.192101
989.180106,-3108.864956,4443.353888,10732.986159
989.180435,-4219.173869,5056.230287,10584.944971
989.180765,-2516.700203,3907.087040,10955.047942
989.181094,-444.123565,2221.676944,10140.821405
989.181424,444.123565,1302.362347,7846.182985
989.181754,296.082377,229.828649,5699.585753
989.182083,518.144159,0.000000,6291.750507
989.182413,1184.329507,1378.971896,8660.409521
989.182743,0.000000,2451.505594,10066.800811
989.183072,-2664.741391,3217.601092,10066.800811
989.183402,-4515.256246,3294.210641,9992.780217
989.183732,-3330.926739,3217.601092,10436.903782
989.184061,-1110.308913,1532.190996,10362.883188
989.184391,0.000000,689.485948,8364.327145
989.184720,0.000000,-689.485948,6587.832884
989.185050,0.000000,-1072.533697,6957.935855
989.185380,592.164754,-306.438199,9474.636058
989.185709,222.061783,995.924147,11695.253884
989.186039,-2368.659014,2068.457845,11843.295072
989.186369,-3849.070898,1838.629195,11251.130318
989.186698,-3108.864956,766.095498,11177.109724
989.187028,-1332.370696,76.609550,11769.274478
989.187358,-592.164754,-306.438199,10584.944971
989.187687,-962.267725,-1149.143247,8586.388927
989.188017,-740.205942,-1378.971896,8586.388927
989.188346,-518.144159,-1225.752797,9844.739029
989.188676,-666.185348,-689.485948,10732.986159
989.189006,-2516.700203,-383.047749,9918.759623
989.189335,-3997.112087,0.000000,9030.512492
989.189665,-3775.050304,-536.266849,9844.739029
989.189995,-2368.659014,-689.485948,10807.006753
989.190324,-1554.432478,-459.657299,9770.718434
989.190654,-962.267725,-1225.752797,7476.080014
989.190984,0.000000,-1225.752797,7105.977043
989.191313,2368.659014,-842.705048,9178.553681
989.191643,3034.844362,-306.438199,11325.150913
989.191972,1258.350101,689.485948,11621.233289
989.192302,-2294.638420,2757.943793,10510.924376
989.192632,-3701.029710,2757.943793,9918.759623
989.192961,-2220.617826,1302.362347,10510.924376
989.193291,-1110.308913,-536.266849,10658.965565
989.193621,-1110.308913,-1455.581446,9326.594869
989.193950,-1406.391290,-1302.362347,7476.080014
989.194280,222.061783,-919.314598,8512.368333
989.194610,666.185348,-229.828649,10584.944971
989.194939,-962.267725,919.314598,10732.986159
989.195269,-2738.761985,2451.505594,9696.697840
989.195598,-2886.803174,3064.381992,9474.636058
989.195928,-1480.411884,3677.258390,10288.862594
989.196258,0.000000,3217.601092,9696.697840
989.196587,666.185348,1762.019645,7476.080014
989.196917,1628.453072,0.000000,5773.606348
989.197247,2442.679609,995.924147,7105.977043
989.197576,2368.659014,2298.286494,9770.718434
989.197906,370.102971,2681.334243,10881.027347
989.198236,-2294.638420,3370.820191,10658.965565
989.198565,-3627.009116,3677.258390,10732.986159
989.198895,-2368.659014,3677.258390,11325.150913
989.199225,-1110.308913,2757.943793,10881.027347
989.199554,0.000000,1685.410096,9104.533087
989.199884,-222.061783,919.314598,5995.668130
989.200213,666.185348,612.876398,6661.853478
989.200543,1850.514855,1455.581446,9030.512492
989.200873,296.082377,2374.896044,10288.862594
989.201202,-2812.782580,3140.991542,9252.574275
989.201532,-4737.318029,3830.477490,8586.388927
989.201862,-3256.906145,2757.943793,9474.636058
989.202191,-962.267725,1915.238745,10140.821405
989.202521,-518.144159,536.266849,8438.347739
989.202851,-370.102971,0.000000,6365.771101
989.203180,666.185348,76.609550,7328.038826
989.203510,1702.473667,536.266849,9474.636058
989.203839,1036.288319,1455.581446,11029.068536
989.204169,-962.267725,2298.286494,11325.150913
989.204499,-2664.741391,2298.286494,10881.027347
989.204828,-2368.659014,1532.190996,11325.150913
989.205158,-1554.432478,76.609550,12361.439231
989.205488,-1110.308913,-536.266849,11251.130318
989.205817,-1406.391290,-1302.362347,9104.533087
989.206147,-1332.370696,-1532.190996,7920.203579
989.206477,296.082377,-1838.629195,8956.491898
989.206806,592.164754,-1608.800546,10214.842000
989.207136,-1850.514855,-306.438199,9770.718434
989.207465,-3923.091493,383.047749,9252.574275
989.207795,-4219.173869,1072.533697,10066.800811
989.208125,-2812.782580,766.095498,10807.006753
989.208454,-1776.494261,-536.266849,9474.636058
989.208784,-1924.535449,-1455.581446,7476.080014
989.209114,-1184.329507,-2145.067394,7105.977043
989.209443,296.082377,-1378.971896,9104.533087
989.209773,518.144159,-766.095498,11473.192101
989.210103,-1036.288319,76.609550,11695.253884
989.210432,-3849.070898,459.657299,10881.027347
989.210762,-4145.153275,306.438199,10807.006753
989.211091,-1924.535449,0.000000,11547.212695
989.211421,296.082377,76.609550,10732.986159
989.211751,1554.432478,-1225.752797,8586.388927
989.212080,1406.391290,-1149.143247,6513.812290
989.212410,1850.514855,229.828649,8364.327145
989.212740,1998.556043,1225.752797,9918.759623
989.213069,148.041188,1991.848295,10510.924376
989.213399,-2590.720797,2681.334243,9992.780217
989.213729,-3552.988522,2451.505594,9400.615463
989.214058,-2738.761985,1302.362347,9992.780217
989.214388,-1332.370696,1072.533697,9992.780217
989.214717,-814.226536,1072.533697,8586.388927
989.215047,-1036.288319,-229.828649,6587.832884
989.215377,370.102971,153.219100,7402.059420
989.215706,1332.370696,2068.457845,10288.862594
989.216036,222.061783,2681.334243,10955.047942
989.216366,-2368.659014,3830.477490,10140.821405
989.216695,-3404.947333,4673.182538,10140.821405
989.217025,-1258.350101,3753.867940,10732.986159
989.217355,74.020594,2451.505594,10732.986159
989.217684,518.144159,1762.019645,8586.388927
989.218014,592.164754,1072.533697,6291.750507
989.218343,1406.391290,306.438199,6661.853478
989.218673,2368.659014,995.924147,9326.594869
989.219003,1332.370696,3294.210641,10362.883188
989.219332,-1554.432478,3600.648841,9548.656652
989.219662,-3034.844362,4060.306139,9030.512492
989.219992,-2590.720797,3830.477490,9622.677246
989.220321,-1332.370696,2911.162892,10066.800811
989.220651,-1036.288319,1838.629195,8364.327145
989.220981,-888.247130,536.266849,6513.812290
989.221310,-592.164754,536.266849,6957.935855
989.221640,296.082377,306.438199,8586.388927
989.221970,-296.082377,459.657299,10436.903782
989.222299,-2516.700203,1149.143247,10658.965565
989.222629,-4367.215058,1762.019645,10140.821405
989.222958,-3997.112087,1838.629195,11177.109724
989.223288,-2072.576638,842.705048,11917.315666
989.223618,-1258.350101,-153.219100,10732.986159
989.223947,-1036.288319,-766.095498,8216.285956
989.224277,74.020594,-2451.505594,7476.080014
989.224607,1332.370696,-842.705048,9622.677246
989.224936,296.082377,-153.219100,11325.150913
989.225266,-1702.473667,536.266849,10955.047942
989.225596,-3256.906145,383.047749,9992.780217
989.225925,-2738.761985,153.219100,10214.842000
989.226255,-1480.411884,536.266849,10807.006753
989.226584,-222.061783,-229.828649,10362.883188
989.226914,0.000000,-1149.143247,7994.224174
989.227244,-444.123565,-1149.143247,6217.729913
989.227573,0.000000,-689.485948,7624.121203
989.227903,592.164754,-229.828649,9844.739029
989.228233,-2072.576638,-459.657299,11399.171507
989.228562,-5033.400406,306.438199,11843.295072
989.228892,-6513.812290,229.828649,11991.336260
989.229222,-4663.297435,-995.924147,12879.583391
989.229551,-2442.679609,-1225.752797,11251.130318
989.229881,-1184.329507,-2221.676944,8956.491898
989.230210,740.205942,-2604.724693,7031.956449
989.230540,2812.782580,-1149.143247,7772.162391
989.230870,3182.885551,1378.971896,9548.656652
989.231199,1406.391290,2757.943793,9918.759623
989.231529,-1998.556043,3600.648841,9696.697840
989.231859,-2220.617826,3907.087040,9622.677246
989.232188,-1110.308913,2451.505594,10807.006753
989.232518,-222.061783,1532.190996,9918.759623
989.232848,-148.041188,0.000000,7550.100608
989.233177,-370.102971,-612.876398,6587.832884
989.233507,0.000000,-306.438199,8512.368333
989.233836,370.102971,1608.800546,10658.965565
989.234166,-888.247130,2528.115143,11621.233289
989.234496,-3256.906145,3217.601092,10510.924376
989.234825,-3923.091493,4673.182538,9104.533087
989.235155,-2368.659014,3217.601092,9992.780217
989.235485,148.041188,1991.848295,10362.883188
989.235814,518.144159,1762.019645,8142.265362
989.236144,444.123565,1378.971896,5773.606348
989.236474,1036.288319,689.485948,5995.668130
989.236803,2220.617826,1455.581446,8956.491898
989.237133,1036.288319,2911.162892,10510.924376
989.237462,-1628.453072,3907.087040,10436.903782
989.237792,-3034.844362,4443.353888,10214.842000
989.238122,-1998.556043,4213.525239,10510.924376
989.238451,-296.082377,2987.772442,9992.780217
989.238781,444.123565,1838.629195,8216.285956
989.239111,740.205942,612.876398,5995.668130
989.239440,1036.288319,383.047749,6365.771101
989.239770,1554.432478,1072.533697,8734.430116
989.240100,-148.041188,1455.581446,10658.965565
989.240429,-2516.700203,1608.800546,11103.089130
989.240759,-4515.256246,2145.067394,11029.068536
989.241089,-4145.153275,1685.410096,11547.212695
989.241418,-2220.617826,76.609550,11843.295072
989.241748,-1110.308913,-842.705048,10140.821405
989.242077,-814.226536,-1072.533697,8364.327145
989.242407,0.000000,-1302.362347,8142.265362
989.242737,1480.411884,-383.047749,9474.636058
989.243066,888.247130,689.485948,10807.006753
989.243396,-1776.494261,2068.457845,10066.800811
989.243726,-3330.926739,1378.971896,9178.553681
989.244055,-3256.906145,459.657299,9696.697840
989.244385,-1776.494261,0.000000,10807.006753
989.244715,-1480.411884,-689.485948,9918.759623
989.245044,-1924.535449,-1762.019645,7920.203579
989.245374,-1554.432478,-1838.629195,7476.080014
989.245703,0.000000,-1991.848295,9326.594869
989.246033,296.082377,-766.095498,11177.109724
989.246363,-1480.411884,-306.438199,11177.109724
989.246692,-3775.050304,459.657299,10436.903782
989.247022,-4515.256246,995.924147,10362.883188
989.247352,-2664.741391,76.609550,11843.295072
989.247681,-1184.329507,-612.876398,11473.192101
989.248011,-814.226536,-1072.533697,8882.471304
989.248341,-296.082377,-2068.457845,6661.853478
989.248670,1406.391290,-2298.286494,7698.141797
989.249000,1184.329507,-842.705048,10288.862594
989.249329,-518.144159,995.924147,11103.089130
989.249659,-3256.906145,2757.943793,10214.842000
989.249989,-3923.091493,3294.210641,10288.862594
989.250318,-2072.576638,2068.457845,10658.965565
989.250648,-740.205942,1302.362347,10140.821405
989.250978,-296.082377,766.095498,8142.265362
989.251307,-222.061783,383.047749,6365.771101
989.251637,888.247130,689.485948,7698.141797
989.251967,1258.350101,1378.971896,10362.883188
989.252296,-370.102971,1532.190996,10881.027347
989.252626,-3256.906145,2451.505594,9992.780217
989.252955,-4071.132681,3524.039291,9474.636058
989.253285,-1998.556043,2911.162892,10066.800811
989.253615,74.020594,1915.238745,10510.924376
989.253944,740.205942,1072.533697,8438.347739
989.254274,1184.329507,1072.533697,5995.668130
989.254604,2368.659014,1915.238745,6809.894666
989.254933,3330.926739,3064.381992,9622.677246
989.255263,1776.494261,3677.258390,10955.047942
989.255593,-1554.432478,4903.011187,9474.636058
989.255922,-3552.988522,4673.182538,8660.409521
989.256252,-2368.659014,3294.210641,9770.718434
989.256581,-962.267725,2834.553343,10510.924376
989.256911,-740.205942,1762.019645,8438.347739
989.257241,-666.185348,0.000000,5995.668130
989.257570,0.000000,229.828649,6365.771101
989.257900,518.144159,919.314598,8808.450710
989.258230,0.000000,1532.190996,11103.089130
989.258559,-2442.679609,2451.505594,11399.171507
989.258889,-4441.235652,3294.210641,10955.047942
989.259219,-4071.132681,2451.505594,11103.089130
989.259548,-1998.556043,842.705048,11621.233289
989.259878,-370.102971,0.000000,10288.862594
989.260207,-222.061783,-1608.800546,7846.182985
989.260537,444.123565,-1762.019645,7328.038826
989.260867,1406.391290,-919.314598,9252.574275
989.261196,1924.535449,76.609550,10881.027347
989.261526,-1258.350101,1072.533697,10436.903782
989.261856,-3478.967927,2221.676944,9770.718434
989.262185,-2886.803174,1225.752797,11251.130318
989.262515,-1332.370696,919.314598,11843.295072
989.262845,-1406.391290,766.095498,9400.615463
989.263174,-1850.514855,-995.924147,6291.750507
989.263504,-1258.350101,-2604.724693,5773.606348
989.263834,-740.205942,-2145.067394,8512.368333
989.264163,-1406.391290,-383.047749,11547.212695
989.264493,-3775.050304,0.000000,11103.089130
989.264822,-6069.688724,306.438199,10362.883188
989.265152,-6217.729913,-306.438199,10732.986159
989.265482,-3404.947333,-1532.190996,11991.336260
989.265811,-1332.370696,-1608.800546,10584.944971
989.266141,-740.205942,-1915.238745,8142.265362
989.266471,0.000000,-1149.143247,7402.059420
989.266800,1406.391290,0.000000,9104.533087
989.267130,2294.638420,153.219100,11029.068536
989.267460,740.205942,1378.971896,10732.986159
989.267789,-1776.494261,2451.505594,9474.636058
989.268119,-2220.617826,3140.991542,9474.636058
989.268448,-666.185348,1225.752797,10732.986159
989.268778,-222.061783,919.314598,10732.986159
989.269108,-518.144159,612.876398,8734.430116
989.269437,-222.061783,-383.047749,6957.935855
989.269767,962.267725,536.266849,8438.347739
989.270097,1406.391290,689.485948,10807.006753
989.270426,-666.185348,1378.971896,11251.130318
989.270756,-3330.926739,2834.553343,10584.944971
989.271086,-4737.318029,3524.039291,9992.780217
989.271415,-3404.947333,2757.943793,10658.965565
989.271745,-962.267725,1915.238745,10584.944971
989.272074,296.082377,995.924147,8438.347739
989.272404,1036.288319,0.000000,6291.750507
989.272734,1924.535449,459.657299,7105.977043
989.273063,2368.659014,2145.067394,9548.656652
989.273393,962.267725,3600.648841,11251.130318
989.273723,-2146.597232,4749.792088,10140.821405
989.274052,-3330.926739,4749.792088,9030.512492
989.274382,-1332.370696,3447.429741,9474.636058
989.274712,814.226536,2221.676944,9326.594869
989.275041,740.205942,1149.143247,7772.162391
989.275371,148.041188,842.705048,6661.853478
989.275700,222.061783,1838.629195,7031.956449
989.276030,962.267725,2145.067394,9252.574275
989.276360,370.102971,2374.896044,10881.027347
989.276689,-1850.514855,2987.772442,10658.965565
989.277019,-3849.070898,2604.724693,9696.697840
989.277349,-3701.029710,1915.238745,10955.047942
989.277678,-2442.679609,1378.971896,11695.253884
989.278008,-1776.494261,1072.533697,10140.821405
989.278338,-1258.350101,-919.314598,7920.203579
989.278667,0.000000,-1455.581446,7328.038826
989.278997,814.226536,-689.485948,8734.430116
989.279326,740.205942,-383.047749,9992.780217
989.279656,-1258.350101,689.485948,10288.862594
989.279986,-3182.885551,2298.286494,10066.800811
989.280315,-3330.926739,1685.410096,10214.842000
989.280645,-1332.370696,536.266849,11399.171507
989.280975,-1036.288319,-76.609550,9992.780217
989.281304,-1036.288319,-919.314598,7994.224174
989.281634,-296.082377,-1915.238745,7624.121203
989.281964,740.205942,-1302.362347,9696.697840
989.282293,148.041188,-1378.971896,11177.109724
989.282623,-2220.617826,-383.047749,11399.171507
989.282953,-4737.318029,459.657299,10288.862594
989.283282,-4737.318029,459.657299,10584.944971
989.283612,-2368.659014,0.000000,11177.109724
989.283941,-370.102971,-612.876398,9992.780217
989.284271,74.020594,-2145.067394,7476.080014
989.284601,740.205942,-2528.115143,6365.771101
989.284930,1184.329507,-1149.143247,8216.285956
989.285260,592.164754,0.000000,10732.986159
989.285590,-1776.494261,1838.629195,11843.295072
989.285919,-4515.256246,2145.067394,10955.047942
989.286249,-4663.297435,2374.896044,10510.924376
989.286579,-2516.700203,689.485948,11103.089130
989.286908,-444.123565,0.000000,10436.903782
989.287238,-296.082377,-459.657299,7105.977043
989.287567,0.000000,-689.485948,6069.688724
989.287897,1110.308913,459.657299,7920.203579
989.288227,1554.432478,1762.019645,10732.986159
989.288556,0.000000,2068.457845,11843.295072
989.288886,-3034.844362,3064.381992,11029.068536
989.289216,-4293.194464,4290.134789,9622.677246
989.289545,-1998.556043,2451.505594,10510.924376
989.289875,74.020594,919.314598,10732.986159
989.290205,666.185348,383.047749,8586.388927
989.290534,518.144159,689.485948,6069.688724
989.290864,1628.453072,76.609550,6735.874072
989.291193,1702.473667,1455.581446,9400.615463
989.291523,-222.061783,3140.991542,11103.089130
989.291853,-3034.844362,4673.182538,10362.883188
989.292182,-3775.050304,4519.963438,9474.636058
989.292512,-1924.535449,3600.648841,9548.656652
989.292842,-518.144159,1991.848295,9696.697840
989.293171,-666.185348,1378.971896,8512.368333
989.293501,-1406.391290,766.095498,6291.750507
989.293831,-518.144159,1149.143247,7031.956449
989.294160,814.226536,2145.067394,9770.718434
989.294490,814.226536,1991.848295,10955.047942
989.294819,-1702.473667,1991.848295,10362.883188
989.295149,-3552.988522,2987.772442,9400.615463
989.295479,-2442.679609,2911.162892,9992.780217
989.295808,0.000000,1991.848295,11325.150913
989.296138,1628.453072,536.266849,9844.739029
989.296468,370.102971,0.000000,7105.977043
989.296797,888.247130,-536.266849,6069.688724
989.297127,2590.720797,-459.657299,8364.327145
989.297457,2146.597232,536.266849,10510.924376
989.297786,-1110.308913,1685.410096,10807.006753
989.298116,-3923.091493,1991.848295,10214.842000
989.298445,-3775.050304,1685.410096,11029.068536
989.298775,-2220.617826,842.705048,11917.315666
989.299105,-1480.411884,-383.047749,10658.965565
989.299434,-1332.370696,-1838.629195,7994.224174
989.299764,-518.144159,-2451.505594,7031.956449
989.300094,222.061783,-1532.190996,9178.553681
989.300423,-444.123565,-306.438199,10288.862594
989.300753,-2590.720797,689.485948,9474.636058
989.301083,-4885.359217,459.657299,9030.512492
989.301412,-4811.338623,-229.828649,10066.800811
989.301742,-3330.926739,76.609550,12361.439231
989.302072,-2146.597232,0.000000,12435.459826
989.302401,-1776.494261,-1532.190996,9252.574275
989.302731,-1184.329507,-2681.334243,7254.018232
989.303060,1036.288319,-2911.162892,9030.512492
989.303390,2072.576638,-2068.457845,11103.089130
989.303720,-296.082377,459.657299,11695.253884
989.304049,-3478.967927,2834.553343,10288.862594
989.304379,-3701.029710,2681.334243,9992.780217
989.304709,-1036.288319,459.657299,10362.883188
989.305038,1110.308913,0.000000,9252.574275
989.305368,592.164754,0.000000,6883.915261
989.305698,296.082377,0.000000,5625.565159
989.306027,1184.329507,-229.828649,7698.141797
989.306357,1036.288319,842.705048,10881.027347
989.306687,-1332.370696,2451.505594,11843.295072
989.307016,-4885.359217,2451.505594,10732.986159
989.307346,-6143.709319,2757.943793,9844.739029
989.307676,-3849.070898,1225.752797,11251.130318
989.308005,-1628.453072,459.657299,11251.130318
989.308335,-148.041188,0.000000,8808.450710
989.308664,-370.102971,-153.219100,6365.771101
989.308994,740.205942,766.095498,6883.915261
989.309324,1850.514855,1608.800546,9104.533087
989.309653,1480.411884,2528.115143,10362.883188
989.309983,-740.205942,3600.648841,9030.512492
989.310313,-1850.514855,4519.963438,8290.306550
989.310642,-666.185348,4213.525239,9622.677246
989.310972,962.267725,2757.943793,10288.862594
989.311302,740.205942,1455.581446,8660.409521
989.311631,74.020594,995.924147,7105.977043
989.311961,888.247130,1838.629195,7994.224174
989.312291,1850.514855,1762.019645,10288.862594
989.312620,740.205942,1532.190996,11029.068536
989.312950,-1998.556043,1838.629195,10436.903782
989.313280,-3923.091493,2451.505594,10066.800811
989.313609,-3034.844362,2681.334243,11029.068536
989.313939,-740.205942,2757.943793,11695.253884
989.314268,-518.144159,1072.533697,9252.574275
989.314598,-370.102971,-689.485948,6735.874072
989.314928,444.123565,-1149.143247,6439.791695
989.315257,1702.473667,459.657299,8142.265362
989.315587,1184.329507,1685.410096,10066.800811
989.315917,-1480.411884,2757.943793,9770.718434
989.316246,-3923.091493,2451.505594,9400.615463
989.316576,-3849.070898,1685.410096,10510.924376
989.316906,-2442.679609,1072.533697,11695.253884
989.317235,-1702.473667,1149.143247,10362.883188
989.317565,-3034.844362,-383.047749,7994.224174
989.317895,-3256.906145,-1685.410096,7402.059420
989.318224,-2516.700203,-2145.067394,9252.574275
989.318554,-2442.679609,-766.095498,10881.027347
989.318884,-4737.318029,689.485948,9992.780217
989.319213,-6735.874072,383.047749,8808.450710
989.319543,-6291.750507,153.219100,9474.636058
989.319872,-4219.173869,-459.657299,10807.006753
989.320202,-2368.659014,-995.924147,10288.862594
989.320532,-2590.720797,-1302.362347,8068.244768
989.320861,-2072.576638,-842.705048,7179.997637
989.321191,-1332.370696,-842.705048,9178.553681
989.321521,-888.247130,-383.047749,11769.274478
989.321850,-2368.659014,689.485948,12213.398043
989.322180,-5551.544565,1685.410096,11325.150913
989.322510,-7105.977043,1378.971896,11103.089130
989.322839,-6365.771101,153.219100,11695.253884
989.323169,-5329.482782,-306.438199,11399.171507
989.323499,-4737.318029,-1608.800546,9252.574275
989.323828,-4071.132681,-1532.190996,7254.018232
989.324158,-2368.659014,-919.314598,6439.791695
989.324488,0.000000,0.000000,7920.203579
989.324817,518.144159,612.876398,8512.368333
989.325147,-592.164754,1915.238745,8586.388927
989.325476,-3108.864956,3370.820191,9178.553681
989.325806,-4885.359217,3600.648841,10510.924376
989.326136,-5625.565159,3447.429741,11991.336260
989.326465,-6439.791695,1838.629195,11843.295072
989.326795,-6069.688724,383.047749,10362.883188
989.327125,-4589.276840,-1072.533697,9178.553681
989.327454,-2664.741391,-1149.143247,8216.285956
989.327784,-370.102971,-383.047749,7624.121203
989.328114,666.185348,995.924147,7402.059420
989.328443,1332.370696,2221.676944,8142.265362
989.328773,296.082377,4136.915689,8882.471304
989.329103,-1924.535449,4903.011187,10732.986159
989.329432,-4737.318029,4749.792088,12139.377449
989.329762,-7772.162391,4749.792088,11991.336260
989.330092,-8956.491898,3983.696590,11251.130318
989.330421,-7476.080014,1225.752797,9030.512492
989.330751,-4589.276840,-1685.410096,6365.771101
989.331080,-1998.556043,-3524.039291,4589.276840
989.331410,-666.185348,-2834.553343,4515.256246
989.331740,296.082377,153.219100,6069.688724
989.332069,148.041188,3830.477490,7994.224174
989.332399,-592.164754,6894.859482,10658.965565
989.332729,-2072.576638,7584.345430,11917.315666
989.333058,-4441.235652,6358.592633,12287.418637
989.333388,-6217.729913,3907.087040,12583.501014
989.333718,-8290.306550,766.095498,13545.768739
989.334047,-9844.739029,-229.828649,13027.624579
989.334377,-10584.944971,-1762.019645,10658.965565
989.334707,-8216.285956,-4136.915689,7550.100608
989.335036,-4293.194464,-5209.449386,5107.421000
989.335366,0.000000,-4290.134789,4663.297435
989.335696,2738.761985,-1072.533697,5255.462188
989.336025,3256.906145,2757.943793,6809.894666
989.336355,1480.411884,6665.030833,9474.636058
989.336684,-1110.308913,8197.221829,11991.336260
989.337014,-3627.009116,6971.469032,13915.871710
989.337344,-6735.874072,4749.792088,13693.809927
989.337673,-9400.615463,0.000000,12879.583391
989.338003,-9992.780217,-3830.477490,12065.356855
989.338333,-10436.903782,-6818.249932,10510.924376
989.338662,-9696.697840,-7354.516781,8586.388927
989.338992,-7179.997637,-6741.640382,6809.894666
989.339322,-3701.029710,-4213.525239,5403.503377
989.339651,148.041188,-1378.971896,5625.565159
989.339981,2368.659014,1608.800546,6735.874072
989.340311,2812.782580,5362.668486,8586.388927
989.340640,1406.391290,8120.612279,9770.718434
989.340970,-1406.391290,8120.612279,11843.295072
989.341300,-4737.318029,5592.497135,12953.603985
989.341629,-7550.100608,919.314598,13323.706956
989.341959,-10436.903782,-2068.457845,12583.501014
989.342288,-11325.150913,-4903.011187,11547.212695
989.342618,-9770.718434,-6818.249932,9992.780217
989.342948,-6735.874072,-6741.640382,8068.244768
989.343277,-3182.885551,-4519.963438,5921.647536
989.343607,518.144159,-1915.238745,5033.400406
989.343937,3256.906145,383.047749,6291.750507
989.344266,3775.050304,5745.716235,9104.533087
989.344596,2072.576638,9806.022374,11177.109724
989.344926,-444.123565,7967.393179,13323.706956
989.345255,-3478.967927,5745.716235,14582.057057
989.345585,-6439.791695,4519.963438,14878.139434
989.345915,-8290.306550,919.314598,13101.645173
989.346244,-8882.471304,-2528.115143,9178.553681
989.346574,-6957.935855,-5286.058936,6143.709319
989.346904,-3627.009116,-5898.935335,4737.318029
989.347233,-1110.308913,-3370.820191,4515.256246
989.347563,296.082377,612.876398,5255.462188
989.347892,814.226536,4596.572988,6365.771101
989.348222,444.123565,7967.393179,8290.306550
989.348552,-666.185348,10342.289223,9844.739029
989.348881,-2072.576638,8197.221829,12139.377449
989.349211,-4737.318029,5898.935335,13693.809927
989.349541,-7550.100608,3983.696590,13915.871710
989.349870,-9326.594869,1455.581446,13027.624579
989.350200,-9696.697840,-2145.067394,11177.109724
989.350530,-7920.203579,-3830.477490,8586.388927
989.350859,-5551.544565,-3447.429741,7031.956449
989.351189,-2442.679609,-995.924147,5551.544565
989.351519,518.144159,1149.143247,5255.462188
989.351848,1850.514855,4060.306139,6365.771101
989.352178,1998.556043,7048.078582,7846.182985
989.352508,0.000000,8503.660028,9844.739029
989.352837,-1406.391290,8350.440928,11399.171507
989.353167,-3034.844362,6052.154434,12361.439231
989.353496,-4589.276840,3677.258390,11917.315666
989.353826,-4811.338623,766.095498,11103.089130
989.354156,-4811.338623,-2451.505594,9696.697840
989.354485,-3849.070898,-3447.429741,8512.368333
989.354815,-3330.926739,-1915.238745,7994.224174
989.355145,-2442.679609,383.047749,7846.182985
989.355474,-1998.556043,2145.067394,8364.327145
989.355804,-1258.350101,4060.306139,9178.553681
989.356134,-962.267725,6205.373534,10584.944971
989.356463,-1036.288319,6741.640382,11325.150913
989.356793,-1776.494261,5745.716235,11103.089130
989.357123,-1924.535449,3677.258390,11325.150913
989.357452,-1554.432478,2911.162892,10881.027347
989.357782,-1184.329507,1455.581446,9770.718434
989.358112,-1480.411884,766.095498,9252.574275
989.358441,-1184.329507,612.876398,9178.553681
989.358771,-222.061783,2068.457845,9696.697840
989.359100,-296.082377,4979.620737,10066.800811
989.359430,-1036.288319,6128.763984,10214.842000
989.359760,-1850.514855,6971.469032,9918.759623
989.360089,-2220.617826,6741.640382,9696.697840
989.360419,-2590.720797,6281.983084,9104.533087
989.360749,-2442.679609,4366.744339,7846.182985
989.361078,-1554.432478,2221.676944,5995.668130
989.361408,-592.164754,995.924147,5329.482782
989.361738,-296.082377,306.438199,5921.647536
989.362067,-740.205942,1225.752797,7031.956449
989.362397,-1406.391290,2987.772442,8068.244768
989.362727,-1998.556043,4826.401637,9474.636058
989.363056,-2146.597232,7354.516781,11473.192101
989.363386,-2368.659014,8120.612279,11621.233289
989.363716,-1628.453072,7431.126331,11399.171507
989.364045,-518.144159,6052.154434,10510.924376
989.364375,-370.102971,4826.401637,10214.842000
989.364704,-518.144159,3983.696590,9474.636058
989.365034,-814.226536,2757.943793,9252.574275
989.365364,-888.247130,2451.505594,8660.409521
989.365693,-666.185348,2681.334243,8956.491898
989.366023,-148.041188,2681.334243,9104.533087
989.366353,0.000000,2757.943793,9548.656652
989.366682,-1258.350101,4060.306139,9770.718434
989.367012,-1998.556043,5439.278036,10807.006753
989.367342,-1998.556043,6128.763984,11695.253884
989.367671,-1406.391290,6205.373534,11695.253884
989.368001,-1184.329507,5362.668486,10881.027347
989.368331,-1110.308913,4519.963438,9918.759623
989.368660,-370.102971,4136.915689,9474.636058
989.368990,222.061783,4443.353888,9400.615463
989.369320,296.082377,5056.230287,8956.491898
989.369649,222.061783,4826.401637,7550.100608
989.369979,148.041188,3140.991542,6883.915261
989.370308,74.020594,2681.334243,6883.915261
989.370638,-592.164754,2681.334243,7624.121203
989.370968,-1924.535449,2757.943793,8142.265362
989.371297,-2960.823768,2681.334243,8956.491898
989.371627,-3552.988522,2911.162892,9622.677246
989.371957,-2812.782580,3064.381992,10881.027347
989.372286,-2294.638420,3830.477490,10658.965565
989.372616,-1554.432478,4673.182538,9844.739029
989.372946,-740.205942,4443.353888,9252.574275
989.373275,222.061783,4519.963438,9178.553681
989.373605,592.164754,4903.011187,9918.759623
989.373935,444.123565,5515.887586,10066.800811
989.374264,-370.102971,5439.278036,9104.533087
989.374594,-1036.288319,4213.525239,8290.306550
989.374924,-1554.432478,2221.676944,7402.059420
989.375253,-1924.535449,459.657299,7846.182985
989.375583,-2368.659014,0.000000,8142.265362
989.375912,-2368.659014,-229.828649,8808.450710
989.376242,-2368.659014,229.828649,9474.636058
989.376572,-1480.411884,1378.971896,10510.924376
989.376901,-888.247130,2604.724693,11473.192101
989.377231,-222.061783,4519.963438,12213.398043
989.377561,0.000000,6205.373534,12805.562797
989.377890,-222.061783,7584.345430,12731.542202
989.378220,-222.061783,6588.421283,11473.192101
989.378550,-296.082377,4673.182538,10362.883188
989.378879,-444.123565,3370.820191,9548.656652
989.379209,-962.267725,2681.334243,9104.533087
989.379539,-1776.494261,2528.115143,8438.347739
989.379868,-1924.535449,2451.505594,7994.224174
989.380198,-1406.391290,1685.410096,7624.121203
989.380528,-296.082377,1608.800546,7846.182985
989.380857,74.020594,2604.724693,8290.306550
989.381187,148.041188,3677.258390,9104.533087
989.381516,-370.102971,5209.449386,9918.759623
989.381846,-1184.329507,7124.688131,10732.986159
989.382176,-1258.350101,7660.954980,11325.150913
989.382505,-1110.308913,6971.469032,12065.356855
989.382835,-2294.638420,6971.469032,11325.150913
989.383165,-3478.967927,6435.202183,8808.450710
989.383494,-2738.761985,4673.182538,5847.626942
989.383824,74.020594,1838.629195,3404.947333
989.384154,2294.638420,0.000000,3701.029710
989.384483,3034.844362,-229.828649,4737.318029
989.384813,1406.391290,1149.143247,6143.709319
989.385143,-1332.370696,3294.210641,8142.265362
989.385472,-3923.091493,5669.106685,10288.862594
989.385802,-4293.194464,6511.811733,13545.768739
989.386132,-4737.318029,5592.497135,15248.242405
989.386461,-4589.276840,4903.011187,14582.057057
989.386791,-4441.235652,3983.696590,12731.542202
989.387120,-3034.844362,2604.724693,10288.862594
989.387450,-962.267725,1991.848295,7772.162391
989.387780,1554.432478,995.924147,6365.771101
989.388109,4071.132681,229.828649,5921.647536
989.388439,4367.215058,1302.362347,6513.812290
989.388769,2590.720797,2681.334243,7105.977043
989.389098,0.000000,2451.505594,8660.409521
989.389428,-2590.720797,3524.039291,12139.377449
989.389758,-4737.318029,5209.449386,15248.242405
989.390087,-5551.544565,4826.401637,15248.242405
989.390417,-4737.318029,2604.724693,12583.501014
989.390747,-2442.679609,-459.657299,9474.636058
989.391076,-148.041188,-3524.039291,7254.018232
989.391406,1480.411884,-3140.991542,7105.977043
989.391736,1184.329507,229.828649,7179.997637
989.392065,370.102971,2681.334243,7179.997637
989.392395,296.082377,2145.067394,7920.203579
989.392724,-740.205942,1378.971896,8586.388927
989.393054,-2368.659014,459.657299,9992.780217
989.393384,-3923.091493,459.657299,10881.027347
989.393713,-4515.256246,919.314598,11251.130318
989.394043,-3552.988522,-842.705048,10955.047942
989.394373,-1628.453072,-2987.772442,10732.986159
989.394702,-370.102971,-2528.115143,10510.924376
989.395032,518.144159,0.000000,9548.656652
989.395362,1184.329507,1149.143247,8882.471304
989.395691,1332.370696,1991.848295,8882.471304
989.396021,740.205942,2221.676944,8512.368333
989.396351,222.061783,919.314598,8216.285956
989.396680,370.102971,153.219100,8290.306550
989.397010,0.000000,-919.314598,8586.388927
989.397340,-1036.288319,-2451.505594,9696.697840
989.397669,-2368.659014,-2221.676944,11621.233289
989.397999,-4145.153275,229.828649,13027.624579
989.398328,-3923.091493,2298.286494,14063.912898
989.398658,-2886.803174,3217.601092,13619.789333
989.398988,-2368.659014,2987.772442,11547.212695
989.399317,-1702.473667,2221.676944,8586.388927
989.399647,0.000000,1072.533697,6957.935855
989.399977,1184.329507,919.314598,6587.832884
989.400306,1480.411884,1225.752797,7179.997637
989.400636,148.041188,1455.581446,7105.977043
989.400966,-1628.453072,689.485948,7772.162391
989.401295,-2146.597232,76.609550,9918.759623
989.401625,-2368.659014,3064.381992,11621.233289
989.401955,-2886.803174,3600.648841,11695.253884
989.402284,-2812.782580,3753.867940,10214.842000
989.402614,-1776.494261,2834.553343,8734.430116
989.402944,592.164754,1455.581446,8142.265362
989.403273,2368.659014,2298.286494,7994.224174
989.403603,1998.556043,3140.991542,6809.894666
989.403933,888.247130,3217.601092,6143.709319
989.404262,222.061783,2451.505594,7624.121203
989.404592,-814.226536,2757.943793,9622.677246
989.404922,-2664.741391,3983.696590,9918.759623
989.405251,-4367.215058,2451.505594,9474.636058
989.405581,-4737.318029,1149.143247,9178.553681
989.405911,-3627.009116,153.219100,9918.759623
989.406240,-2442.679609,0.000000,10658.965565
989.406570,-1332.370696,766.095498,9992.780217
989.406900,-666.185348,1378.971896,9548.656652
989.407229,0.000000,2451.505594,9770.718434
989.407559,518.144159,2528.115143,10732.986159
989.407889,444.123565,2528.115143,10584.944971
989.408218,0.000000,2451.505594,9252.574275
989.408548,-518.144159,1608.800546,8586.388927
989.408878,0.000000,229.828649,8882.471304
989.409207,148.041188,-1685.410096,9400.615463
989.409537,0.000000,-2451.505594,9622.677246
989.409867,-1406.391290,-1072.533697,10140.821405
989.410196,-2220.617826,229.828649,10436.903782
989.410526,-2220.617826,919.314598,12509.480420
989.410856,-2146.597232,1838.629195,12583.501014
989.411185,-2516.700203,2145.067394,10955.047942
989.411515,-2220.617826,689.485948,8586.388927
989.411845,-444.123565,-1608.800546,7476.080014
989.412174,296.082377,-2451.505594,8438.347739
989.412504,0.000000,-1072.533697,8290.306550
989.412834,-962.267725,-766.095498,7994.224174
989.413163,-1036.288319,-153.219100,8808.450710
989.413493,-592.164754,-459.657299,10436.903782
989.413823,-1332.370696,612.876398,11177.109724
989.414152,-2590.720797,842.705048,10732.986159
989.414482,-2442.679609,689.485948,10140.821405
989.414812,-1258.350101,-383.047749,9178.553681
989.415141,0.000000,-1225.752797,9178.553681
989.415471,592.164754,-1455.581446,9252.574275
989.415801,222.061783,-1072.533697,8438.347739
989.416130,0.000000,0.000000,8142.265362
989.416460,74.020594,383.047749,9474.636058
989.416790,-296.082377,536.266849,11547.212695
989.417119,-1776.494261,1225.752797,11325.150913
989.417449,-3256.906145,1838.629195,9844.739029
989.417779,-2886.803174,306.438199,9474.636058
989.418108,-1406.391290,-995.924147,10066.800811
989.418438,-814.226536,-536.266849,10658.965565
989.418768,-1332.370696,153.219100,10066.800811
989.419097,-1480.411884,842.705048,9696.697840
989.419427,-962.267725,1991.848295,10510.924376
989.419757,-296.082377,2374.896044,11103.089130
989.420086,-666.185348,2528.115143,10362.883188
989.420416,-1258.350101,2298.286494,8808.450710
989.420746,-148.041188,1915.238745,7846.182985
989.421075,518.144159,1225.752797,7994.224174
989.421405,592.164754,766.095498,9252.574275
989.421735,0.000000,1762.019645,9770.718434
989.422064,-1258.350101,3064.381992,9474.636058
989.422394,-1628.453072,2757.943793,9770.718434
989.422724,-1036.288319,3447.429741,10732.986159
989.423053,-1924.535449,3294.210641,10214.842000
989.423383,-2812.782580,3217.601092,8956.491898
989.423713,-2368.659014,2757.943793,7772.162391
989.424042,-1184.329507,1991.848295,7476.080014
989.424372,74.020594,1532.190996,7105.977043
989.424702,-666.185348,1608.800546,7550.100608
989.425031,-1554.432478,2528.115143,8216.285956
989.425361,-1628.453072,3524.039291,8586.388927
989.425691,-1110.308913,2834.553343,9326.594869
989.426020,-1332.370696,2987.772442,9030.512492
989.426350,-2220.617826,2451.505594,9104.533087
989.426680,-2220.617826,2451.505594,8586.388927
989.427009,-814.226536,919.314598,7920.203579
989.427339,740.205942,0.000000,7772.162391
989.427669,962.267725,229.828649,8364.327145
989.427998,222.061783,919.314598,8364.327145
989.428328,296.082377,536.266849,9474.636058
989.428658,518.144159,536.266849,11029.068536
989.428987,-888.247130,1378.971896,11917.315666
989.429317,-2516.700203,2221.676944,12065.356855
989.429647,-2442.679609,536.266849,11399.171507
989.429976,-2072.576638,-1378.971896,10658.965565
989.430306,-888.247130,-2068.457845,10214.842000
989.430636,-740.205942,-2604.724693,10214.842000
989.430965,-1258.350101,-2221.676944,10288.862594
989.431295,-1554.432478,-1149.143247,10362.883188
989.431625,-1628.453072,-1225.752797,11029.068536
989.431954,-1406.391290,-383.047749,11917.315666
989.432284,-1998.556043,459.657299,11251.130318
989.432614,-2072.576638,-536.266849,9252.574275
989.432943,-740.205942,-2298.286494,7920.203579
989.433273,592.164754,-3140.991542,7994.224174
989.433603,1110.308913,-2528.115143,9474.636058
989.433932,148.041188,-1608.800546,9474.636058
989.434262,-666.185348,-919.314598,9844.739029
989.434592,-814.226536,0.000000,10732.986159
989.434921,-1184.329507,536.266849,11473.192101
989.435251,-1628.453072,306.438199,10658.965565
989.435581,-2294.638420,0.000000,8512.368333
989.435910,-962.267725,-1378.971896,7624.121203
989.436240,444.123565,-2221.676944,8068.244768
989.436570,296.082377,-1149.143247,8660.409521
989.436899,-444.123565,76.609550,8808.450710
989.437229,-1332.370696,1149.143247,8956.491898
989.437559,-1110.308913,1455.581446,10436.903782
989.437888,-888.247130,2451.505594,11029.068536
989.438218,-1554.432478,2374.896044,10214.842000
989.438548,-1628.453072,2757.943793,9474.636058
989.438877,-1628.453072,1762.019645,8290.306550
989.439207,-814.226536,842.705048,8290.306550
989.439537,-148.041188,459.657299,8734.430116
989.439866,0.000000,536.266849,9030.512492
989.440196,-370.102971,1838.629195,9400.615463
989.440526,-1406.391290,2911.162892,9400.615463
989.440855,-1184.329507,2681.334243,10584.944971
989.441185,-1776.494261,3294.210641,10658.965565
989.441515,-2516.700203,4290.134789,9844.739029
989.441844,-1924.535449,3983.696590,9030.512492
989.442174,-740.205942,1915.238745,8660.409521
989.442504,370.102971,1225.752797,8660.409521
989.442833,74.020594,1838.629195,8882.471304
989.443163,-888.247130,2528.115143,8956.491898
989.443493,-1480.411884,3447.429741,9918.759623
989.443822,-1110.308913,4213.525239,10732.986159
989.444152,-1924.535449,3753.867940,10436.903782
989.444482,-2368.659014,2528.115143,9104.533087
989.444811,-1628.453072,842.705048,8216.285956
989.445141,0.000000,-229.828649,7402.059420
989.445471,518.144159,-536.266849,7920.203579
989.445800,296.082377,536.266849,8068.244768
989.446130,0.000000,766.095498,8734.430116
989.446460,-444.123565,1685.410096,9770.718434
989.446789,-740.205942,2451.505594,11103.089130
989.447119,-1406.391290,3217.601092,10807.006753
989.447449,-1850.514855,2451.505594,9622.677246
989.447779,-1776.494261,842.705048,8734.430116
989.448108,-1110.308913,-995.924147,8512.368333
989.448438,-296.082377,-2068.457845,8734.430116
989.448768,-740.205942,-2145.067394,8734.430116
989.449097,-1702.473667,-1455.581446,9474.636058
989.449427,-2146.597232,0.000000,10510.924376
989.449757,-2146.597232,612.876398,11695.253884
989.450086,-2072.576638,76.609550,11325.150913
989.450416,-2368.659014,76.609550,9918.759623
989.450746,-2368.659014,-612.876398,8660.409521
989.451075,-814.226536,-1838.629195,8808.450710
989.451405,444.123565,-2681.334243,9400.615463
989.451735,592.164754,-1915.238745,9844.739029
989.452064,-222.061783,-689.485948,9178.553681
989.452394,74.020594,-1149.143247,8734.430116
989.452724,1110.308913,-536.266849,10955.047942
989.453053,740.205942,153.219100,12065.356855
989.453383,-1184.329507,1378.971896,11029.068536
989.453713,-2442.679609,842.705048,9918.759623
989.454042,-1702.473667,-689.485948,9252.574275
989.454372,-296.082377,-2068.457845,9770.718434
989.454702,0.000000,-2221.676944,9622.677246
989.455031,-666.185348,-1838.629195,9104.533087
989.455361,-1850.514855,-612.876398,8956.491898
989.455691,-1924.535449,459.657299,10214.842000
989.456020,-1850.514855,1762.019645,12065.356855
989.456350,-2442.679609,2604.724693,11843.295072
989.456680,-3034.844362,2298.286494,9474.636058
989.457009,-1702.473667,1149.143247,7846.182985
989.457339,0.000000,-459.657299,7846.182985
989.457669,1184.329507,-153.219100,8586.388927
989.457998,592.164754,1225.752797,8808.450710
989.458328,-296.082377,2221.676944,8956.491898
989.458658,-740.205942,2834.553343,10066.800811
989.458987,-740.205942,3294.210641,11399.171507
989.459317,-1554.432478,4136.915689,11103.089130
989.459647,-2294.638420,3217.601092,9252.574275
989.459976,-1406.391290,2681.334243,8142.265362
989.460306,222.061783,2068.457845,7698.141797
989.460636,888.247130,995.924147,7402.059420
989.460965,814.226536,1072.533697,7254.018232
989.461295,-370.102971,2451.505594,7772.162391
989.461625,-666.185348,3983.696590,9104.533087
989.461954,-1258.350101,4903.011187,10436.903782
989.462284,-2220.617826,5056.230287,10584.944971
989.462614,-2960.823768,3830.477490,9178.553681
989.462943,-2664.741391,1762.019645,7698.141797
989.463273,-1406.391290,536.266849,7846.182985
989.463603,0.000000,153.219100,9178.553681
989.463932,-444.123565,1302.362347,9104.533087
989.464262,-1332.370696,1685.410096,8808.450710
989.464592,-1628.453072,2528.115143,8882.471304
989.464921,-962.267725,1915.238745,10881.027347
989.465251,-1036.288319,2757.943793,11473.192101
989.465581,-1850.514855,3447.429741,10362.883188
989.465910,-1702.473667,1838.629195,8586.388927
989.466240,-74.020594,-229.828649,7994.224174
989.466570,1036.288319,-1685.410096,8512.368333
989.466899,814.226536,-842.705048,9104.533087
989.467229,-296.082377,0.000000,9178.553681
989.467559,-888.247130,612.876398,10288.862594
989.467888,-888.247130,919.314598,12139.377449
989.468218,-740.205942,1149.143247,12509.480420
989.468548,-2294.638420,536.266849,10584.944971
989.468877,-2368.659014,-766.095498,9326.594869
989.469207,-1554.432478,-2298.286494,8882.471304
989.469537,-740.205942,-2681.334243,9326.594869
989.469866,-592.164754,-1991.848295,9696.697840
989.470196,-1258.350101,-2298.286494,8808.450710
989.470526,-1036.288319,-1608.800546,9178.553681
989.470855,-518.144159,-766.095498,11177.109724
989.471185,-666.185348,153.219100,12361.439231
989.471515,-1850.514855,153.219100,11029.068536
989.471844,-3330.926739,-153.219100,9400.615463
989.472174,-1776.494261,-842.705048,9474.636058
989.472504,-148.041188,-1838.629195,9918.759623
989.472833,740.205942,-1838.629195,9474.636058
989.473163,222.061783,-1685.410096,8734.430116
989.473493,370.102971,-766.095498,8808.450710
989.473822,0.000000,766.095498,10288.862594
989.474152,-370.102971,1532.190996,11399.171507
989.474482,-1258.350101,2374.896044,10881.027347
989.474811,-1776.494261,2451.505594,9474.636058
989.475141,-1184.329507,1302.362347,8512.368333
989.475471,444.123565,76.609550,8956.491898
989.475800,444.123565,383.047749,9326.594869
989.476130,-296.082377,1149.143247,8956.491898
989.476460,-1110.308913,1991.848295,8956.491898
989.476789,-1776.494261,2911.162892,10584.944971
989.477119,-1184.329507,4136.915689,11029.068536
989.477449,-2590.720797,3753.867940,10140.821405
989.477778,-3034.844362,3830.477490,8512.368333
989.478108,-2368.659014,2911.162892,7624.121203
989.478438,-814.226536,2834.553343,7328.038826
989.478767,148.041188,2834.553343,7179.997637
989.479097,222.061783,2374.896044,6883.915261
989.479427,-222.061783,2987.772442,7254.018232
989.479756,-592.164754,4136.915689,8882.471304
989.480086,-814.226536,4673.182538,10362.883188
989.480416,-1702.473667,4596.572988,10510.924376
989.480745,-2664.741391,4749.792088,9400.615463
989.481075,-1998.556043,3447.429741,8882.471304
989.481405,-592.164754,1302.362347,9030.512492
989.481734,74.020594,842.705048,9474.636058
989.482064,0.000000,1608.800546,9178.553681
989.482394,-1110.308913,1991.848295,9178.553681
989.482723,-1184.329507,2604.724693,9918.759623
989.483053,-1036.288319,2834.553343,10807.006753
989.483383,-1554.432478,2451.505594,11251.130318
989.483712,-2368.659014,2528.115143,10140.821405
989.484042,-2294.638420,1915.238745,8808.450710
989.484372,-962.267725,842.705048,8290.306550
989.484701,444.123565,-1149.143247,8882.471304
989.485031,444.123565,-1455.581446,9030.512492
989.485361,-296.082377,76.609550,9474.636058
989.485690,-1036.288319,383.047749,9992.780217
989.486020,-592.164754,536.266849,10955.047942
989.486350,-1332.370696,919.314598,11695.253884
989.486679,-2220.617826,612.876398,10584.944971
989.487009,-2294.638420,-995.924147,9326.594869
989.487339,-2146.597232,-1915.238745,8808.450710
989.487668,-518.144159,-1149.143247,9252.574275
989.487998,-518.144159,-1838.629195,9104.533087
989.488328,-1036.288319,-1532.190996,8734.430116
989.488657,-740.205942,-689.485948,9252.574275
989.488987,74.020594,-229.828649,10955.047942
989.489317,0.000000,0.000000,11917.315666
989.489646,-2072.576638,689.485948,10436.903782
989.489976,-2886.803174,-306.438199,9178.553681
989.490306,-2072.576638,-1838.629195,9104.533087
989.490635,-666.185348,-1838.629195,9992.780217
989.490965,148.041188,-1532.190996,9770.718434
989.491295,-888.247130,-1455.581446,8290.306550
989.491624,-740.205942,-1302.362347,8438.347739
989.491954,-370.102971,-153.219100,10066.800811
989.492284,0.000000,1149.143247,11399.171507
989.492613,-444.123565,2068.457845,10732.986159
989.492943,-1406.391290,1225.752797,8956.491898
989.493273,-370.102971,383.047749,8586.388927
989.493603,740.205942,-306.438199,9326.594869
989.493932,592.164754,-229.828649,9992.780217
989.494262,-444.123565,842.705048,9696.697840
989.494592,-1776.494261,1072.533697,9622.677246
989.494921,-2072.576638,1455.581446,11473.192101
989.495251,-2294.638420,2221.676944,12509.480420
989.495581,-3182.885551,2987.772442,11695.253884
989.495910,-3849.070898,3140.991542,9400.615463
989.496240,-2738.761985,2757.943793,8364.327145
989.496570,-222.061783,1915.238745,8290.306550
989.496899,814.226536,1532.190996,8216.285956
989.497229,814.226536,2681.334243,7920.203579
989.497559,-222.061783,4213.525239,7476.080014
989.497888,-74.020594,4596.572988,8512.368333
989.498218,0.000000,4366.744339,10066.800811
989.498548,-1258.350101,4826.401637,10584.944971
989.498877,-2368.659014,5439.278036,9770.718434
989.499207,-2368.659014,3983.696590,8142.265362
989.499537,-888.247130,2068.457845,7402.059420
989.499866,222.061783,459.657299,7772.162391
989.500196,0.000000,1149.143247,8364.327145
989.500526,-962.267725,3294.210641,8438.347739
989.500855,-1406.391290,4290.134789,8586.388927
989.501185,-1480.411884,3753.867940,9622.677246
989.501515,-1850.514855,3907.087040,9844.739029
989.501844,-2516.700203,3677.258390,9770.718434
989.502174,-2294.638420,2757.943793,8438.347739
989.502504,-1036.288319,1455.581446,7402.059420
989.502833,222.061783,0.000000,7994.224174
989.503163,222.061783,-383.047749,7994.224174
989.503492,-444.123565,995.924147,8808.450710
989.503822,-962.267725,1225.752797,9696.697840
989.504152,-740.205942,1302.362347,11399.171507
989.504481,-1036.288319,1225.752797,11547.212695
989.504811,-1776.494261,383.047749,10658.965565
989.505140,-1702.473667,-1608.800546,10066.800811
989.505470,-1184.329507,-2374.896044,9400.615463
989.505800,-518.144159,-1838.629195,9992.780217
989.506129,-444.123565,-1838.629195,10436.903782
989.506459,-1258.350101,-1991.848295,10214.842000
989.506788,-1702.473667,-1838.629195,10807.006753
989.507118,-1258.350101,-1072.533697,12139.377449
989.507447,-1554.432478,-229.828649,12509.480420
989.507777,-2812.782580,76.609550,10955.047942
989.508107,-3108.864956,-1455.581446,9400.615463
989.508436,-1924.535449,-3140.991542,9400.615463
989.508766,-518.144159,-3294.210641,9770.718434
989.509095,0.000000,-2221.676944,10066.800811
989.509425,-1110.308913,-1685.410096,9252.574275
989.509755,-1184.329507,-1455.581446,9326.594869
989.510084,-518.144159,-689.485948,10732.986159
989.510414,222.061783,459.657299,11843.295072
989.510743,-1036.288319,1149.143247,10214.842000
989.511073,-1924.535449,689.485948,8438.347739
989.511403,-814.226536,-612.876398,8142.265362
989.511732,296.082377,-1915.238745,8586.388927
989.512062,740.205942,-842.705048,8734.430116
989.512391,-370.102971,-153.219100,8438.347739
989.512721,-1628.453072,1378.971896,8882.471304
989.513051,-1702.473667,1685.410096,10436.903782
989.513380,-1850.514855,1915.238745,11843.295072
989.513710,-2516.700203,2987.772442,11399.171507
989.514039,-3182.885551,3370.820191,9252.574275
989.514369,-2442.679609,1838.629195,8290.306550
989.514699,-888.247130,995.924147,8142.265362
989.515028,0.000000,995.924147,7994.224174
989.515358,0.000000,1532.190996,7846.182985
989.515687,-296.082377,3217.601092,8290.306550
989.516017,-370.102971,4366.744339,9622.677246
989.516347,-296.082377,4673.182538,10658.965565
989.516676,-1258.350101,4519.963438,10066.800811
989.517006,-1924.535449,4290.134789,8660.409521
989.517335,-1036.288319,3217.601092,7994.224174
989.517665,296.082377,2451.505594,8290.306550
989.517995,814.226536,1838.629195,8808.450710
989.518324,0.000000,2451.505594,8808.450710
989.518654,-1110.308913,3217.601092,8660.409521
989.518983,-1628.453072,3294.210641,9400.615463
989.519313,-1184.329507,3907.087040,11103.089130
989.519643,-2294.638420,4136.915689,11325.150913
989.519972,-3182.885551,3217.601092,9622.677246
989.520302,-3108.864956,1455.581446,8216.285956
989.520631,-1702.473667,0.000000,8068.244768
989.520961,-592.164754,0.000000,8734.430116
989.521290,-296.082377,0.000000,9178.553681
989.521620,-1036.288319,306.438199,8808.450710
989.521950,-962.267725,1455.581446,9844.739029
989.522279,-666.185348,2145.067394,11103.089130
989.522609,-888.247130,1991.848295,10881.027347
989.522938,-1480.411884,1532.190996,9918.759623
989.523268,-1332.370696,-153.219100,8586.388927
989.523598,-296.082377,-1302.362347,8512.368333
989.523927,222.061783,-2068.457845,9104.533087
989.524257,0.000000,-1991.848295,8882.471304
989.524586,-1036.288319,-842.705048,8808.450710
989.524916,-1924.535449,-1149.143247,9548.656652
989.525246,-1480.411884,-842.705048,11547.212695
989.525575,-1776.494261,-229.828649,12139.377449
989.525905,-2664.741391,0.000000,10955.047942
989.526234,-2516.700203,-1225.752797,8734.430116
989.526564,-1258.350101,-2528.115143,8660.409521
989.526894,222.061783,-3064.381992,9326.594869
989.527223,666.185348,-2757.943793,9918.759623
989.527553,-296.082377,-1532.190996,9770.718434
989.527882,-1110.308913,0.000000,10362.883188
989.528212,-666.185348,-229.828649,11325.150913
989.528542,-1258.350101,-383.047749,11843.295072
989.528871,-1628.453072,-306.438199,11695.253884
989.529201,-1628.453072,-536.266849,10362.883188
989.529530,-888.247130,-1225.752797,9178.553681
989.529860,-148.041188,-2221.676944,8438.347739
989.530190,370.102971,-2681.334243,9030.512492
989.530519,-296.082377,-1225.752797,9992.780217
989.530849,-1628.453072,1072.533697,9918.759623
989.531178,-1406.391290,1838.629195,10732.986159
989.531508,-1480.411884,919.314598,11177.109724
989.531838,-1998.556043,2145.067394,11103.089130
989.532167,-2886.803174,2834.553343,9622.677246
989.532497,-2368.659014,1225.752797,8290.306550
989.532826,-1036.288319,0.000000,7846.182985
989.533156,-518.144159,459.657299,8068.244768
989.533485,-888.247130,1838.629195,8660.409521
989.533815,-1332.370696,2451.505594,9178.553681
989.534145,-962.267725,3294.210641,9326.594869
989.534474,-962.267725,4136.915689,9548.656652
989.534804,-1480.411884,4213.525239,9400.615463
989.535133,-1998.556043,4519.963438,8438.347739
989.535463,-1258.350101,2987.772442,7402.059420
989.535793,0.000000,2298.286494,7328.038826
989.536122,518.144159,2145.067394,7624.121203
989.536452,0.000000,2528.115143,8142.265362
989.536781,-888.247130,3370.820191,8438.347739
989.537111,-962.267725,3753.867940,9400.615463
989.537441,-1332.370696,4136.915689,10362.883188
989.537770,-1776.494261,4290.134789,10658.965565
989.538100,-2220.617826,3753.867940,9844.739029
989.538429,-2368.659014,2757.943793,8290.306550
989.538759,-1184.329507,1685.410096,7772.162391
989.539089,222.061783,842.705048,8734.430116
989.539418,74.020594,1072.533697,9474.636058
989.539748,-962.267725,2374.896044,9178.553681
989.540077,-1480.411884,3370.820191,9474.636058
989.540407,-666.185348,2298.286494,10288.862594
989.540737,-1184.329507,1991.848295,10510.924376
989.541066,-1998.556043,2528.115143,9622.677246
989.541396,-2146.597232,1302.362347,8216.285956
989.541725,-888.247130,-995.924147,8068.244768
989.542055,370.102971,-1685.410096,8364.327145
989.542385,0.000000,-1685.410096,9326.594869
989.542714,-1480.411884,-1072.533697,9400.615463
989.543044,-1702.473667,-536.266849,10066.800811
989.543373,-1480.411884,-383.047749,11695.253884
989.543703,-1850.514855,229.828649,11843.295072
989.544033,-2368.659014,612.876398,11695.253884
989.544362,-2664.741391,-842.705048,10288.862594
989.544692,-1628.453072,-2374.896044,9548.656652
989.545021,-444.123565,-3447.429741,9178.553681
989.545351,148.041188,-4213.525239,8956.491898
989.545680,74.020594,-3217.601092,10436.903782
989.546010,-666.185348,-1225.752797,11251.130318
989.546340,-1258.350101,0.000000,11769.274478
989.546669,-1332.370696,-306.438199,11621.233289
989.546999,-1258.350101,-612.876398,11029.068536
989.547328,-1184.329507,-536.266849,9474.636058
989.547658,-444.123565,-1608.800546,8660.409521
989.547988,666.185348,-3064.381992,8586.388927
989.548317,1036.288319,-3294.210641,8956.491898
989.548647,-296.082377,-1838.629195,9178.553681
989.548976,-1628.453072,0.000000,9696.697840
989.549306,-1628.453072,0.000000,10955.047942
989.549636,-1850.514855,1302.362347,11843.295072
989.549965,-2738.761985,1915.238745,10807.006753
989.550295,-3108.864956,1532.190996,8882.471304
989.550624,-2072.576638,229.828649,7698.141797
989.550954,-370.102971,-383.047749,7846.182985
989.551284,0.000000,536.266849,8512.368333
989.551613,-370.102971,1838.629195,8586.388927
989.551943,-814.226536,2757.943793,9104.533087
989.552272,-740.205942,3140.991542,9696.697840
989.552602,-1036.288319,4213.525239,10510.924376
989.552932,-1036.288319,3983.696590,10140.821405
989.553261,-1406.391290,3830.477490,8956.491898
989.553591,-962.267725,2528.115143,8142.265362
989.553920,0.000000,1838.629195,7994.224174
989.554250,444.123565,2145.067394,8142.265362
989.554580,222.061783,2604.724693,8438.347739
989.554909,-296.082377,3830.477490,8660.409521
989.555239,-740.205942,4136.915689,9474.636058
989.555568,-592.164754,4136.915689,10732.986159
989.555898,-1332.370696,4290.134789,10732.986159
989.556228,-2590.720797,5362.668486,9696.697840
989.556557,-2368.659014,4136.915689,8290.306550
989.556887,-1184.329507,2068.457845,8290.306550
989.557216,-222.061783,1149.143247,8882.471304
989.557546,-518.144159,1991.848295,8956.491898
989.557876,-1184.329507,3217.601092,9030.512492
989.558205,-1406.391290,3370.820191,9400.615463
989.558535,-1628.453072,2604.724693,10288.862594
989.558864,-1850.514855,2451.505594,10807.006753
989.559194,-2146.597232,2221.676944,9622.677246
989.559523,-1998.556043,1532.190996,8068.244768
989.559853,-592.164754,0.000000,7698.141797
989.560183,296.082377,-919.314598,8068.244768
