#time,accel_x,accel_y,accel_z
739.409752,962.267725,6435.202183,11991.336260
739.410081,0.000000,3753.867940,11769.274478
739.410410,-444.123565,995.924147,10436.903782
739.410739,0.000000,-919.314598,9474.636058
739.411068,370.102971,-2604.724693,8290.306550
739.411397,296.082377,-2911.162892,8068.244768
739.411726,592.164754,-2221.676944,8512.368333
739.412055,1036.288319,229.828649,9178.553681
739.412384,1554.432478,3064.381992,9770.718434
739.412713,2294.638420,4749.792088,10362.883188
739.413042,2516.700203,4979.620737,10807.006753
739.413371,2812.782580,4290.134789,10732.986159
739.413700,2368.659014,3140.991542,10362.883188
739.414029,1850.514855,1838.629195,10140.821405
739.414358,1332.370696,383.047749,9548.656652
739.414687,1036.288319,-1149.143247,9104.533087
739.415016,1258.350101,-1685.410096,8512.368333
739.415345,1332.370696,-1225.752797,8290.306550
739.415674,1776.494261,-766.095498,8216.285956
739.416003,2220.617826,459.657299,8438.347739
739.416332,1776.494261,2145.067394,9104.533087
739.416661,1258.350101,2987.772442,10510.924376
739.416990,888.247130,3370.820191,11251.130318
739.417319,296.082377,2681.334243,11547.212695
739.417648,0.000000,1455.581446,11177.109724
739.417977,222.061783,229.828649,10658.965565
739.418306,592.164754,-1378.971896,9622.677246
739.418635,1184.329507,-2451.505594,8660.409521
739.418964,1628.453072,-2451.505594,8142.265362
739.419293,1924.535449,-1225.752797,8586.388927
739.419622,1998.556043,229.828649,9400.615463
739.419951,1184.329507,2528.115143,10288.862594
739.420280,222.061783,3907.087040,11029.068536
739.420609,-444.123565,4903.011187,11251.130318
739.420938,-592.164754,4290.134789,10436.903782
739.421267,-518.144159,3294.210641,9252.574275
739.421596,-592.164754,1072.533697,7772.162391
739.421925,-518.144159,-689.485948,7031.956449
739.422254,-370.102971,-1762.019645,6069.688724
739.422583,-740.205942,-2298.286494,6513.812290
739.422913,-1332.370696,-1608.800546,8216.285956
739.423242,-2146.597232,0.000000,10288.862594
739.423571,-3108.864956,2221.676944,11843.295072
739.423900,-4071.132681,3140.991542,12065.356855
739.424229,-3849.070898,2911.162892,12065.356855
739.424558,-3108.864956,2145.067394,11695.253884
739.424887,-2368.659014,995.924147,10955.047942
739.425216,-2072.576638,153.219100,9918.759623
739.425545,-444.123565,-229.828649,8734.430116
739.425874,1184.329507,-1225.752797,7772.162391
739.426203,2516.700203,-1532.190996,7328.038826
739.426532,3256.906145,-842.705048,7254.018232
739.426861,3552.988522,-306.438199,8068.244768
739.427190,2886.803174,842.705048,9178.553681
739.427519,1110.308913,3140.991542,11177.109724
739.427848,-962.267725,4366.744339,12509.480420
739.428177,-2664.741391,4213.525239,13249.686362
739.428506,-3923.091493,3600.648841,12287.418637
739.428835,-4293.194464,2374.896044,11177.109724
739.429164,-3182.885551,-229.828649,9474.636058
739.429493,-2072.576638,-2221.676944,7920.203579
739.429822,-1110.308913,-2451.505594,6735.874072
739.430151,-740.205942,-1149.143247,5995.668130
739.430480,-666.185348,-689.485948,6291.750507
739.430809,-814.226536,842.705048,7476.080014
739.431138,-1776.494261,2145.067394,9104.533087
739.431467,-2664.741391,3370.820191,10510.924376
739.431796,-3404.947333,3217.601092,11473.192101
739.432125,-3997.112087,2451.505594,11769.274478
739.432454,-3701.029710,1532.190996,11325.150913
739.432783,-3182.885551,383.047749,10732.986159
739.433112,-1480.411884,-612.876398,9622.677246
739.433441,740.205942,-1302.362347,8216.285956
739.433770,2516.700203,-612.876398,8142.265362
739.434099,3775.050304,229.828649,7920.203579
739.434428,4737.318029,612.876398,8216.285956
739.434757,4441.235652,1915.238745,8956.491898
739.435086,3182.885551,2757.943793,10362.883188
739.435415,1628.453072,3830.477490,11399.171507
739.435744,-814.226536,3370.820191,12583.501014
739.436073,-3108.864956,2681.334243,12731.542202
739.436402,-4663.297435,1685.410096,11917.315666
739.436731,-4959.379811,229.828649,10362.883188
739.437060,-4071.132681,-1762.019645,8216.285956
739.437389,-2294.638420,-3217.601092,6661.853478
739.437718,-666.185348,-2681.334243,6217.729913
739.438047,740.205942,-1225.752797,6069.688724
739.438376,1184.329507,1302.362347,5403.503377
739.438705,1850.514855,2451.505594,6513.812290
739.439034,2146.597232,3140.991542,8290.306550
739.439363,74.020594,4060.306139,11473.192101
739.439692,-1998.556043,4519.963438,13175.665768
739.440021,-4663.297435,3524.039291,13989.892304
739.440350,-6143.709319,2374.896044,13619.789333
739.440679,-6069.688724,153.219100,11843.295072
739.441008,-4071.132681,-3064.381992,10288.862594
739.441337,-1480.411884,-3983.696590,9030.512492
739.441666,592.164754,-2757.943793,7624.121203
739.441995,2368.659014,-1685.410096,6883.915261
739.442324,3478.967927,-229.828649,6365.771101
739.442653,4071.132681,1608.800546,6439.791695
739.442982,4515.256246,2374.896044,8216.285956
739.443311,3478.967927,3294.210641,9770.718434
739.443640,1036.288319,4749.792088,11769.274478
739.443969,-1998.556043,5056.230287,12657.521608
739.444298,-4293.194464,2681.334243,13027.624579
739.444627,-5995.668130,1378.971896,12657.521608
739.444957,-6069.688724,-306.438199,11029.068536
739.445286,-5107.421000,-1991.848295,8512.368333
739.445615,-3627.009116,-2451.505594,6365.771101
739.445944,-1554.432478,-2757.943793,5181.441594
739.446273,-444.123565,-2298.286494,5477.523971
739.446602,-444.123565,0.000000,6809.894666
739.446931,-1850.514855,2604.724693,9104.533087
739.447260,-3404.947333,4596.572988,11251.130318
739.447589,-4737.318029,4213.525239,12287.418637
739.447918,-4367.215058,2145.067394,12657.521608
739.448247,-4515.256246,1072.533697,11991.336260
739.448576,-3330.926739,-229.828649,11177.109724
739.448905,-1480.411884,-1532.190996,10066.800811
739.449234,592.164754,-2298.286494,8882.471304
739.449563,2516.700203,-1302.362347,7920.203579
739.449892,4293.194464,-536.266849,7550.100608
739.450221,5625.565159,689.485948,7550.100608
739.450550,6143.709319,2681.334243,7994.224174
739.450879,5033.400406,3370.820191,8882.471304
739.451208,3701.029710,3524.039291,10584.944971
739.451537,814.226536,3753.867940,12139.377449
739.451866,-2368.659014,4060.306139,13175.665768
739.452195,-5033.400406,2604.724693,13619.789333
739.452524,-6957.935855,689.485948,12361.439231
739.452853,-6883.915261,-842.705048,10362.883188
739.453182,-5033.400406,-2911.162892,7624.121203
739.453511,-2960.823768,-3983.696590,5995.668130
739.453840,-518.144159,-3064.381992,5551.544565
739.454169,592.164754,-995.924147,4959.379811
739.454498,1258.350101,1302.362347,4959.379811
739.454827,1998.556043,2834.553343,6439.791695
739.455156,1850.514855,3983.696590,9252.574275
739.455485,518.144159,4596.572988,11843.295072
739.455814,-1850.514855,4443.353888,14063.912898
739.456143,-3997.112087,3677.258390,14063.912898
739.456472,-4885.359217,2757.943793,13323.706956
739.456801,-3849.070898,-842.705048,12435.459826
739.457130,-2220.617826,-2987.772442,11177.109724
739.457459,0.000000,-2298.286494,8808.450710
739.457788,2220.617826,-2068.457845,7105.977043
739.458117,4219.173869,-689.485948,6291.750507
739.458446,5255.462188,0.000000,5921.647536
739.458775,5033.400406,1378.971896,6587.832884
739.459104,3404.947333,2681.334243,8734.430116
739.459433,740.205942,5132.839837,11029.068536
739.459762,-1924.535449,5362.668486,12953.603985
739.460091,-4663.297435,3677.258390,13175.665768
739.460420,-6957.935855,1991.848295,12953.603985
739.460749,-7328.038826,0.000000,11473.192101
739.461078,-6439.791695,-2681.334243,10214.842000
739.461407,-5033.400406,-2987.772442,7994.224174
739.461736,-3923.091493,-1225.752797,5255.462188
739.462065,-1702.473667,-1915.238745,4663.297435
739.462394,444.123565,-1455.581446,5477.523971
739.462723,1036.288319,1149.143247,7254.018232
739.463052,-370.102971,3600.648841,9548.656652
739.463381,-1998.556043,4290.134789,11917.315666
739.463710,-4071.132681,4673.182538,12879.583391
739.464039,-4293.194464,3064.381992,13915.871710
739.464368,-3997.112087,919.314598,13175.665768
739.464697,-3182.885551,-306.438199,11473.192101
739.465026,-1480.411884,-2145.067394,9178.553681
739.465355,962.267725,-3064.381992,7254.018232
739.465684,2738.761985,-2298.286494,7105.977043
739.466013,3997.112087,-459.657299,7031.956449
739.466342,4367.215058,1149.143247,7105.977043
739.466671,4071.132681,2681.334243,7624.121203
739.467001,3256.906145,3447.429741,8956.491898
739.467330,1998.556043,3140.991542,10362.883188
739.467659,-740.205942,3447.429741,12657.521608
739.467988,-4071.132681,3677.258390,13397.727550
739.468317,-6365.771101,2298.286494,13397.727550
739.468646,-7105.977043,459.657299,11769.274478
739.468975,-6661.853478,-1149.143247,9252.574275
739.469304,-4293.194464,-3294.210641,7031.956449
739.469633,-1554.432478,-3907.087040,5551.544565
739.469962,888.247130,-2451.505594,4811.338623
739.470291,2146.597232,229.828649,4441.235652
739.470620,2442.679609,2068.457845,5329.482782
739.470949,2368.659014,3217.601092,7698.141797
739.471278,1480.411884,4596.572988,10807.006753
739.471607,-370.102971,5132.839837,13397.727550
739.471936,-2664.741391,4749.792088,14137.933492
739.472265,-4145.153275,3217.601092,13767.830521
739.472594,-4293.194464,0.000000,13101.645173
739.472923,-3182.885551,-2451.505594,12287.418637
739.473252,-1850.514855,-2298.286494,10288.862594
739.473581,-222.061783,-1991.848295,7846.182985
739.473910,1776.494261,-1838.629195,6809.894666
739.474239,3923.091493,-229.828649,5921.647536
739.474568,4589.276840,459.657299,6143.709319
739.474897,4145.153275,1378.971896,7624.121203
739.475226,1998.556043,4213.525239,9400.615463
739.475555,-740.205942,5592.497135,11695.253884
739.475884,-3404.947333,4443.353888,13619.789333
739.476213,-5921.647536,3753.867940,13767.830521
739.476542,-7179.997637,1838.629195,12731.542202
739.476871,-6809.894666,-459.657299,11103.089130
739.477200,-5699.585753,-2451.505594,8364.327145
739.477529,-4441.235652,-2911.162892,5477.523971
739.477858,-2516.700203,-3140.991542,4367.215058
739.478187,-888.247130,-2221.676944,4885.359217
739.478516,0.000000,383.047749,6587.832884
739.478845,-740.205942,2528.115143,8586.388927
739.479174,-2368.659014,4673.182538,10510.924376
739.479503,-3330.926739,4903.011187,12139.377449
739.479832,-3552.988522,3064.381992,13027.624579
739.480161,-3775.050304,2298.286494,13101.645173
739.480490,-3627.009116,1072.533697,11917.315666
739.480819,-2516.700203,-1149.143247,10436.903782
739.481148,-518.144159,-1991.848295,9030.512492
739.481477,1480.411884,-2221.676944,7179.997637
739.481806,3330.926739,-995.924147,7105.977043
739.482135,4515.256246,76.609550,7105.977043
739.482464,4737.318029,1455.581446,6957.935855
739.482793,3849.070898,2451.505594,7920.203579
739.483122,2368.659014,2987.772442,9992.780217
739.483451,222.061783,4366.744339,11843.295072
739.483780,-2368.659014,4366.744339,13101.645173
739.484109,-4885.359217,2757.943793,13619.789333
739.484438,-6735.874072,1149.143247,13101.645173
739.484767,-6587.832884,-919.314598,11325.150913
739.485096,-5551.544565,-2374.896044,8808.450710
739.485425,-3478.967927,-2757.943793,6513.812290
739.485754,-592.164754,-3370.820191,5329.482782
739.486083,1850.514855,-2681.334243,5033.400406
739.486412,2960.823768,229.828649,5625.565159
739.486741,2960.823768,2681.334243,6587.832884
739.487070,2368.659014,4519.963438,8808.450710
739.487399,1628.453072,5209.449386,11547.212695
739.487728,0.000000,5669.106685,12879.583391
739.488057,-1554.432478,4596.572988,13397.727550
739.488387,-3108.864956,1685.410096,13027.624579
739.488716,-3330.926739,383.047749,12583.501014
739.489045,-2738.761985,-1302.362347,11473.192101
739.489374,-1924.535449,-2068.457845,9770.718434
739.489703,148.041188,-2068.457845,7624.121203
739.490032,1924.535449,-1915.238745,5995.668130
739.490361,3256.906145,-766.095498,5699.585753
739.490690,3775.050304,842.705048,6365.771101
739.491020,2442.679609,2451.505594,7994.224174
739.491349,0.000000,4136.915689,9918.759623
739.491678,-2146.597232,5439.278036,11769.274478
739.492007,-4293.194464,4903.011187,13101.645173
739.492336,-5921.647536,3217.601092,13027.624579
739.492665,-6587.832884,919.314598,11843.295072
739.492994,-5699.585753,-1455.581446,10362.883188
739.493323,-4367.215058,-2681.334243,8216.285956
739.493653,-2960.823768,-1915.238745,6143.709319
739.493982,-1480.411884,-1149.143247,4293.194464
739.494311,666.185348,-1072.533697,4885.359217
739.494640,1406.391290,842.705048,6661.853478
739.494969,296.082377,2911.162892,8882.471304
739.495298,-1850.514855,4443.353888,11177.109724
739.495627,-3701.029710,5132.839837,13323.706956
739.495956,-4589.276840,4213.525239,14211.954086
739.496286,-4811.338623,1685.410096,13619.789333
739.496615,-4293.194464,-229.828649,11695.253884
739.496944,-2664.741391,-1455.581446,9326.594869
739.497273,-370.102971,-3524.039291,8290.306550
739.497602,962.267725,-2528.115143,7402.059420
739.497931,2368.659014,-1225.752797,6809.894666
739.498260,3330.926739,76.609550,7105.977043
739.498590,3775.050304,1149.143247,7105.977043
739.498919,3108.864956,3830.477490,8512.368333
739.499248,1998.556043,3830.477490,10066.800811
739.499577,370.102971,3753.867940,12065.356855
739.499906,-2368.659014,4290.134789,13323.706956
739.500235,-4811.338623,3447.429741,13471.748144
739.500564,-5921.647536,1838.629195,12953.603985
739.500893,-5847.626942,-536.266849,10955.047942
739.501223,-4589.276840,-2451.505594,7920.203579
739.501552,-1998.556043,-3830.477490,6143.709319
739.501881,592.164754,-3140.991542,5699.585753
739.502210,2220.617826,-1455.581446,4737.318029
739.502539,2590.720797,919.314598,5255.462188
739.502868,2516.700203,3524.039291,6513.812290
739.503197,2072.576638,4213.525239,9104.533087
739.503526,1036.288319,4596.572988,11843.295072
739.503856,-814.226536,4903.011187,13175.665768
739.504185,-2368.659014,4060.306139,13175.665768
739.504514,-3923.091493,1378.971896,13027.624579
739.504843,-3849.070898,-766.095498,12361.439231
739.505172,-2738.761985,-2145.067394,10807.006753
739.505501,-1036.288319,-2451.505594,9030.512492
739.505830,592.164754,-1838.629195,7624.121203
739.506159,2146.597232,-1685.410096,6365.771101
739.506489,3552.988522,0.000000,6513.812290
739.506818,3627.009116,1149.143247,7031.956449
739.507147,2590.720797,2834.553343,8586.388927
739.507476,888.247130,4903.011187,10732.986159
739.507805,-1998.556043,4979.620737,12583.501014
739.508134,-4367.215058,4213.525239,13397.727550
739.508463,-5847.626942,2451.505594,12953.603985
739.508792,-5921.647536,0.000000,11843.295072
739.509122,-4737.318029,-919.314598,9474.636058
739.509451,-3182.885551,-2451.505594,6809.894666
739.509780,-2368.659014,-2451.505594,4737.318029
739.510109,-1184.329507,-2221.676944,4589.276840
739.510438,0.000000,-229.828649,5921.647536
739.510767,0.000000,1915.238745,8068.244768
739.511096,-1998.556043,3753.867940,10288.862594
739.511425,-3627.009116,4826.401637,11991.336260
739.511755,-4441.235652,3907.087040,13323.706956
739.512084,-4589.276840,2145.067394,13841.851115
739.512413,-4589.276840,1225.752797,12361.439231
739.512742,-3849.070898,-229.828649,10732.986159
739.513071,-1924.535449,-2068.457845,8882.471304
739.513400,444.123565,-2757.943793,7698.141797
739.513729,2220.617826,-1762.019645,6661.853478
739.514058,3775.050304,-383.047749,6513.812290
739.514388,5033.400406,995.924147,6809.894666
739.514717,4293.194464,2681.334243,7920.203579
739.515046,2812.782580,3830.477490,9326.594869
739.515375,1184.329507,3677.258390,11547.212695
739.515704,-1110.308913,3907.087040,13249.686362
739.516033,-3849.070898,3524.039291,13471.748144
739.516362,-5477.523971,2528.115143,13693.809927
739.516691,-6735.874072,383.047749,12213.398043
739.517021,-5699.585753,-1991.848295,9548.656652
739.517350,-3256.906145,-3447.429741,7254.018232
739.517679,-740.205942,-3524.039291,5995.668130
739.518008,1924.535449,-2451.505594,5181.441594
739.518337,2886.803174,-229.828649,4959.379811
739.518666,2738.761985,2298.286494,5625.565159
739.518995,2664.741391,3753.867940,8142.265362
739.519324,1702.473667,4903.011187,10881.027347
739.519654,-296.082377,5286.058936,12287.418637
739.519983,-2220.617826,4290.134789,13101.645173
739.520312,-3627.009116,2145.067394,13545.768739
739.520641,-3849.070898,76.609550,12657.521608
739.520970,-2738.761985,-1991.848295,11769.274478
739.521299,-1480.411884,-2604.724693,9400.615463
739.521628,222.061783,-1838.629195,7994.224174
739.521957,2146.597232,-1455.581446,6587.832884
739.522287,4071.132681,-536.266849,6291.750507
739.522616,4737.318029,612.876398,6291.750507
739.522945,3997.112087,2604.724693,7476.080014
739.523274,2294.638420,4673.182538,9992.780217
739.523603,-740.205942,5286.058936,12139.377449
739.523932,-3330.926739,5209.449386,13101.645173
739.524261,-5403.503377,3370.820191,13397.727550
739.524591,-6217.729913,842.705048,12435.459826
739.524920,-6069.688724,-766.095498,10658.965565
739.525249,-4293.194464,-2987.772442,8438.347739
739.525578,-3108.864956,-3524.039291,6883.915261
739.525907,-2072.576638,-1762.019645,5255.462188
739.526236,-444.123565,0.000000,4737.318029
739.526565,962.267725,612.876398,5551.544565
739.526894,814.226536,2298.286494,7920.203579
739.527224,-740.205942,4290.134789,9992.780217
739.527553,-2664.741391,4443.353888,12287.418637
739.527882,-4367.215058,4443.353888,13619.789333
739.528211,-5107.421000,3294.210641,13693.809927
739.528540,-4663.297435,306.438199,12731.542202
739.528869,-3182.885551,-1608.800546,10955.047942
739.529198,-1554.432478,-2145.067394,8512.368333
739.529527,962.267725,-2757.943793,7179.997637
739.529857,2738.761985,-1838.629195,6661.853478
739.530186,3478.967927,0.000000,6587.832884
739.530515,3997.112087,1455.581446,6587.832884
739.530844,3330.926739,2221.676944,8364.327145
739.531173,2220.617826,3524.039291,9918.759623
739.531502,444.123565,4290.134789,11843.295072
739.531831,-1776.494261,4060.306139,13175.665768
739.532160,-3997.112087,2604.724693,13989.892304
739.532490,-5847.626942,2221.676944,13249.686362
739.532819,-5477.523971,0.000000,11473.192101
739.533148,-4219.173869,-2068.457845,8512.368333
739.533477,-1776.494261,-3370.820191,6217.729913
739.533806,518.144159,-3217.601092,5255.462188
739.534135,2664.741391,-2374.896044,5329.482782
739.534464,2960.823768,383.047749,5625.565159
739.534793,2738.761985,3370.820191,6587.832884
739.535123,1998.556043,4366.744339,9104.533087
739.535452,1036.288319,4366.744339,11695.253884
739.535781,-888.247130,5056.230287,12583.501014
739.536110,-3108.864956,3217.601092,12731.542202
739.536439,-3775.050304,842.705048,13101.645173
739.536768,-3701.029710,-1225.752797,12953.603985
739.537097,-3034.844362,-2528.115143,11399.171507
739.537426,-1628.453072,-2604.724693,9252.574275
739.537756,148.041188,-1991.848295,7328.038826
739.538085,2220.617826,-1532.190996,6143.709319
739.538414,4441.235652,-842.705048,5995.668130
739.538743,4737.318029,536.266849,6587.832884
739.539072,4071.132681,3140.991542,8216.285956
739.539401,1480.411884,4673.182538,10584.944971
739.539730,-1406.391290,5286.058936,12731.542202
739.540059,-3775.050304,4903.011187,13693.809927
739.540389,-5477.523971,3064.381992,13693.809927
739.540718,-5921.647536,995.924147,11917.315666
739.541047,-5033.400406,-919.314598,9992.780217
739.541376,-3701.029710,-2834.553343,7846.182985
739.541705,-2738.761985,-2374.896044,5033.400406
739.542034,-1776.494261,-1991.848295,4071.132681
739.542363,0.000000,-919.314598,4589.276840
739.542692,296.082377,1302.362347,6809.894666
739.543022,-1184.329507,3217.601092,9104.533087
739.543351,-2960.823768,4903.011187,11769.274478
739.543680,-4515.256246,4596.572988,13323.706956
739.544009,-5255.462188,3447.429741,13693.809927
739.544338,-5107.421000,1685.410096,13027.624579
739.544667,-3775.050304,-612.876398,11473.192101
739.544996,-2220.617826,-1838.629195,9474.636058
739.545325,74.020594,-2681.334243,7994.224174
739.545655,2368.659014,-2221.676944,7031.956449
739.545984,3997.112087,-689.485948,6587.832884
739.546313,4663.297435,536.266849,6587.832884
739.546642,4589.276840,2068.457845,7846.182985
739.546971,3256.906145,3524.039291,9178.553681
739.547300,1628.453072,3753.867940,11103.089130
739.547629,-222.061783,3753.867940,12805.562797
739.547958,-2812.782580,2987.772442,13767.830521
739.548288,-4737.318029,2451.505594,13693.809927
739.548617,-5625.565159,459.657299,12509.480420
739.548946,-5107.421000,-1532.190996,9696.697840
739.549275,-3404.947333,-2911.162892,7179.997637
739.549604,-1036.288319,-4596.572988,5181.441594
739.549933,1406.391290,-2834.553343,5033.400406
739.550262,2960.823768,-1225.752797,5477.523971
739.550592,2886.803174,1302.362347,6513.812290
739.550921,2368.659014,3830.477490,7624.121203
739.551250,1184.329507,4749.792088,10214.842000
739.551579,-222.061783,5209.449386,11843.295072
739.551908,-1998.556043,4213.525239,13101.645173
739.552237,-3478.967927,2374.896044,13175.665768
739.552566,-3849.070898,76.609550,12879.583391
739.552895,-3182.885551,-1378.971896,11473.192101
739.553225,-2146.597232,-2221.676944,9622.677246
739.553554,0.000000,-2528.115143,8142.265362
739.553883,1924.535449,-1685.410096,7105.977043
739.554212,3849.070898,-919.314598,5995.668130
739.554541,5107.421000,0.000000,6217.729913
739.554870,4589.276840,1838.629195,7698.141797
739.555199,1998.556043,3447.429741,9548.656652
739.555528,0.000000,4826.401637,11917.315666
739.555858,-2516.700203,5056.230287,13397.727550
739.556187,-4737.318029,3907.087040,13471.748144
739.556516,-5921.647536,1838.629195,12583.501014
739.556845,-5773.606348,-459.657299,10881.027347
739.557174,-4071.132681,-2681.334243,9030.512492
739.557503,-2960.823768,-3370.820191,7402.059420
739.557832,-2368.659014,-2221.676944,5403.503377
739.558161,-1406.391290,-229.828649,4737.318029
739.558491,74.020594,76.609550,5033.400406
739.558820,74.020594,1608.800546,7105.977043
739.559149,-888.247130,3753.867940,9548.656652
739.559478,-2664.741391,4213.525239,11991.336260
739.559807,-4515.256246,4290.134789,13249.686362
739.560136,-5329.482782,3600.648841,13693.809927
739.560465,-5181.441594,1378.971896,13101.645173
739.560794,-3701.029710,-1302.362347,11769.274478
739.561124,-1480.411884,-2221.676944,9326.594869
739.561453,666.185348,-2374.896044,7254.018232
739.561782,3108.864956,-2145.067394,6661.853478
739.562111,4441.235652,-459.657299,6883.915261
739.562440,4367.215058,842.705048,7031.956449
739.562769,3478.967927,2374.896044,8142.265362
739.563098,2294.638420,3370.820191,9770.718434
739.563427,1110.308913,3983.696590,11843.295072
739.563757,-1036.288319,3830.477490,13545.768739
739.564086,-3552.988522,2834.553343,13915.871710
739.564415,-4959.379811,1838.629195,13175.665768
739.564744,-5329.482782,0.000000,11177.109724
739.565073,-4071.132681,-1915.238745,8882.471304
739.565402,-2146.597232,-2987.772442,6291.750507
739.565731,0.000000,-3370.820191,5181.441594
739.566060,2146.597232,-2451.505594,5403.503377
739.566390,3034.844362,153.219100,5773.606348
739.566719,2664.741391,2374.896044,6439.791695
739.567048,1776.494261,4290.134789,8142.265362
739.567377,740.205942,4903.011187,11325.150913
739.567706,-1036.288319,5515.887586,12657.521608
739.568035,-2738.761985,4443.353888,12879.583391
739.568364,-3256.906145,1685.410096,12879.583391
739.568693,-3108.864956,-536.266849,12731.542202
739.569023,-2516.700203,-1991.848295,11547.212695
739.569352,-2146.597232,-2451.505594,9770.718434
739.569681,-296.082377,-2068.457845,7994.224174
739.570010,1628.453072,-1455.581446,6661.853478
739.570339,3701.029710,-766.095498,6291.750507
739.570668,4515.256246,229.828649,6291.750507
739.570997,4071.132681,1608.800546,7846.182985
739.571326,1924.535449,4136.915689,10066.800811
739.571656,-740.205942,5515.887586,12509.480420
739.571985,-3330.926739,5209.449386,13767.830521
739.572314,-5255.462188,3447.429741,13767.830521
739.572643,-5847.626942,1915.238745,12287.418637
739.572972,-4959.379811,-995.924147,10510.924376
739.573301,-3552.988522,-3064.381992,8438.347739
739.573630,-2442.679609,-3524.039291,7179.997637
739.573959,-2072.576638,-1302.362347,5403.503377
739.574289,-1480.411884,536.266849,4367.215058
739.574618,0.000000,1072.533697,4959.379811
739.574947,-296.082377,2451.505594,7254.018232
739.575276,-1480.411884,4136.915689,9918.759623
739.575605,-3478.967927,4290.134789,12213.398043
739.575934,-4885.359217,3753.867940,13397.727550
739.576263,-5995.668130,3447.429741,13545.768739
739.576593,-5773.606348,1072.533697,12583.501014
739.576922,-3701.029710,-1915.238745,10881.027347
739.577251,-962.267725,-2451.505594,8660.409521
739.577580,1628.453072,-1838.629195,6439.791695
739.577909,3923.091493,-1838.629195,5847.626942
739.578238,4737.318029,-153.219100,6439.791695
739.578567,4441.235652,1838.629195,7328.038826
739.578896,2960.823768,3217.601092,8808.450710
739.579226,1924.535449,3830.477490,10584.944971
739.579555,814.226536,4749.792088,13101.645173
739.579884,-1924.535449,3983.696590,14063.912898
739.580213,-4219.173869,2374.896044,14137.933492
739.580542,-5181.441594,919.314598,12879.583391
739.580871,-4737.318029,-766.095498,10584.944971
739.581200,-3701.029710,-2604.724693,7476.080014
739.581529,-1702.473667,-3524.039291,5551.544565
739.581859,888.247130,-3140.991542,5107.421000
739.582188,2812.782580,-1915.238745,5477.523971
739.582517,3182.885551,612.876398,6217.729913
739.582846,2368.659014,3447.429741,7476.080014
739.583175,1110.308913,5592.497135,9918.759623
739.583504,-444.123565,5439.278036,11843.295072
739.583833,-1924.535449,4903.011187,12805.562797
739.584162,-3330.926739,3064.381992,12879.583391
739.584492,-3849.070898,536.266849,12583.501014
739.584821,-3627.009116,-1838.629195,11843.295072
739.585150,-3182.885551,-2604.724693,10436.903782
739.585479,-1332.370696,-2145.067394,8512.368333
739.585808,888.247130,-1991.848295,7179.997637
739.586137,3182.885551,-1685.410096,6365.771101
739.586466,4515.256246,0.000000,6661.853478
739.586795,4515.256246,1762.019645,7254.018232
739.587125,3701.029710,2834.553343,9252.574275
739.587454,888.247130,4979.620737,11473.192101
739.587783,-1850.514855,6052.154434,13249.686362
739.588112,-4293.194464,4596.572988,13841.851115
739.588441,-5551.544565,2604.724693,13101.645173
739.588770,-5477.523971,459.657299,11177.109724
739.589099,-4145.153275,-2068.457845,9178.553681
739.589428,-2664.741391,-3677.258390,7698.141797
739.589757,-2072.576638,-2911.162892,6735.874072
739.590087,-1628.453072,-229.828649,4959.379811
739.590416,-888.247130,995.924147,4441.235652
739.590745,0.000000,1455.581446,6143.709319
739.591074,-740.205942,3447.429741,8660.409521
739.591403,-2442.679609,3983.696590,11103.089130
739.591732,-4367.215058,4443.353888,12879.583391
739.592061,-5995.668130,3830.477490,13693.809927
739.592390,-6217.729913,2451.505594,13175.665768
739.592720,-5033.400406,-536.266849,11917.315666
739.593049,-2664.741391,-2374.896044,10140.821405
739.593378,148.041188,-2528.115143,7402.059420
739.593707,2516.700203,-1915.238745,6291.750507
739.594036,3923.091493,-1149.143247,6217.729913
739.594365,4515.256246,536.266849,6735.874072
739.594694,4071.132681,2528.115143,7846.182985
739.595023,2590.720797,3753.867940,9252.574275
739.595353,1332.370696,4903.011187,11029.068536
739.595682,-518.144159,4213.525239,13175.665768
739.596011,-3108.864956,2911.162892,14285.974681
739.596340,-5181.441594,2374.896044,14063.912898
739.596669,-5847.626942,689.485948,12361.439231
739.596998,-4737.318029,-1378.971896,9844.739029
739.597327,-3256.906145,-3064.381992,6957.935855
739.597656,-1184.329507,-3753.867940,5329.482782
739.597985,1184.329507,-3294.210641,5033.400406
739.598315,2886.803174,-919.314598,5699.585753
739.598644,2812.782580,2221.676944,6661.853478
739.598973,1332.370696,4596.572988,8438.347739
739.599302,666.185348,5056.230287,10362.883188
739.599631,-666.185348,5286.058936,11843.295072
739.599960,-2294.638420,4290.134789,12583.501014
739.600289,-3552.988522,2681.334243,12731.542202
739.600618,-4219.173869,536.266849,12361.439231
739.600948,-3330.926739,-1685.410096,11547.212695
739.601277,-2294.638420,-2451.505594,9918.759623
739.601606,-740.205942,-1838.629195,8290.306550
739.601935,1184.329507,-1838.629195,6587.832884
739.602264,3108.864956,-1149.143247,6291.750507
739.602593,4145.153275,383.047749,6587.832884
739.602922,3923.091493,1762.019645,7846.182985
739.603251,2368.659014,2911.162892,9622.677246
739.603580,-148.041188,4673.182538,11843.295072
739.603910,-2368.659014,5439.278036,13619.789333
739.604239,-4811.338623,3907.087040,13841.851115
739.604568,-5773.606348,2068.457845,12731.542202
739.604897,-5181.441594,0.000000,10658.965565
739.605226,-3701.029710,-2834.553343,8734.430116
739.605555,-2368.659014,-3217.601092,7476.080014
739.605884,-1776.494261,-1532.190996,5699.585753
739.606213,-1480.411884,229.828649,4515.256246
739.606543,-296.082377,689.485948,4737.318029
739.606872,-222.061783,1991.848295,7105.977043
739.607201,-1406.391290,3753.867940,9696.697840
739.607530,-3552.988522,4366.744339,12139.377449
739.607859,-5477.523971,4136.915689,13693.809927
739.608188,-6809.894666,3370.820191,13693.809927
739.608517,-6439.791695,1225.752797,13027.624579
739.608846,-4589.276840,-1685.410096,11399.171507
739.609175,-1850.514855,-2528.115143,9030.512492
739.609505,666.185348,-2374.896044,6587.832884
739.609834,3034.844362,-2298.286494,5921.647536
739.610163,4367.215058,-842.705048,6217.729913
739.610492,4663.297435,1532.190996,6883.915261
739.610821,3330.926739,2757.943793,8142.265362
739.611150,2146.597232,4290.134789,9844.739029
739.611479,666.185348,4903.011187,11769.274478
739.611808,-1554.432478,4290.134789,13249.686362
739.612138,-3627.009116,2834.553343,14211.954086
739.612467,-5329.482782,1378.971896,13915.871710
739.612796,-5551.544565,383.047749,11769.274478
739.613125,-4737.318029,-2068.457845,8808.450710
739.613454,-2516.700203,-3294.210641,6439.791695
739.613783,0.000000,-3677.258390,5107.421000
739.614112,2368.659014,-2528.115143,5033.400406
739.614441,3182.885551,383.047749,5255.462188
739.614770,2368.659014,3447.429741,6809.894666
739.615100,1110.308913,4979.620737,9030.512492
739.615429,-296.082377,5362.668486,11325.150913
739.615758,-1702.473667,4749.792088,12953.603985
739.616087,-3108.864956,3370.820191,13471.748144
739.616416,-4515.256246,1608.800546,13027.624579
739.616745,-4145.153275,-612.876398,11843.295072
739.617074,-3108.864956,-2604.724693,10510.924376
739.617403,-1480.411884,-2681.334243,8660.409521
739.617733,814.226536,-2221.676944,7105.977043
739.618062,2738.761985,-1532.190996,6217.729913
739.618391,4293.194464,306.438199,6439.791695
739.618720,4367.215058,1455.581446,7179.997637
739.619049,3256.906145,2451.505594,9326.594869
739.619378,1332.370696,4443.353888,11473.192101
739.619707,-1184.329507,5132.839837,13027.624579
739.620036,-3701.029710,4749.792088,14137.933492
739.620366,-5773.606348,2604.724693,13249.686362
739.620695,-5847.626942,766.095498,11621.233289
739.621024,-4737.318029,-1915.238745,9326.594869
739.621353,-2886.803174,-3447.429741,7328.038826
739.621682,-1554.432478,-3140.991542,6217.729913
739.622011,-1258.350101,-1991.848295,5995.668130
739.622340,-666.185348,-153.219100,5921.647536
739.622669,-740.205942,2298.286494,6291.750507
739.622998,-888.247130,3370.820191,7920.203579
739.623328,-1332.370696,3677.258390,10066.800811
739.623657,-2590.720797,3140.991542,12139.377449
739.623986,-4293.194464,2681.334243,13101.645173
739.624315,-5403.503377,2451.505594,13027.624579
739.624644,-5181.441594,842.705048,12139.377449
739.624973,-3404.947333,-1378.971896,10362.883188
739.625302,-1036.288319,-2221.676944,8068.244768
739.625631,1406.391290,-2451.505594,6957.935855
739.625961,2960.823768,-1378.971896,6291.750507
739.626290,4071.132681,0.000000,6735.874072
739.626619,3478.967927,1762.019645,7550.100608
739.626948,1998.556043,2987.772442,9104.533087
739.627277,592.164754,3600.648841,11325.150913
739.627606,-1184.329507,4136.915689,12657.521608
739.627935,-2960.823768,3140.991542,13323.706956
739.628264,-4885.359217,1838.629195,13471.748144
739.628593,-5477.523971,919.314598,12657.521608
739.628923,-5477.523971,-766.095498,10510.924376
739.629252,-3627.009116,-2068.457845,7994.224174
739.629581,-1332.370696,-2834.553343,6069.688724
739.629910,814.226536,-2834.553343,5477.523971
739.630239,2220.617826,-1225.752797,5699.585753
739.630568,3182.885551,1378.971896,6513.812290
739.630897,2220.617826,3217.601092,7846.182985
739.631226,962.267725,4673.182538,9992.780217
739.631556,-740.205942,4903.011187,11843.295072
739.631885,-2442.679609,3983.696590,13101.645173
739.632214,-3997.112087,2374.896044,13471.748144
739.632543,-4145.153275,995.924147,13027.624579
739.632872,-3997.112087,-766.095498,11621.233289
739.633201,-2220.617826,-2451.505594,9548.656652
739.633530,0.000000,-2221.676944,7698.141797
739.633859,1702.473667,-1762.019645,5625.565159
739.634188,3627.009116,-689.485948,5329.482782
739.634518,4293.194464,536.266849,5699.585753
739.634847,3997.112087,1991.848295,7254.018232
739.635176,2590.720797,3064.381992,9548.656652
739.635505,296.082377,4826.401637,11621.233289
739.635834,-2590.720797,5669.106685,12583.501014
739.636163,-4293.194464,4060.306139,13767.830521
739.636492,-5847.626942,2298.286494,13175.665768
739.636821,-5403.503377,153.219100,11547.212695
739.637151,-3849.070898,-1685.410096,9104.533087
739.637480,-2368.659014,-3600.648841,6957.935855
739.637809,-1258.350101,-3217.601092,6291.750507
739.638138,-592.164754,-1302.362347,6365.771101
739.638467,-444.123565,1072.533697,5699.585753
739.638796,-814.226536,2911.162892,6217.729913
739.639125,-1184.329507,3294.210641,8290.306550
739.639454,-1998.556043,3140.991542,11103.089130
739.639784,-3775.050304,3140.991542,13027.624579
739.640113,-5551.544565,2911.162892,13693.809927
739.640442,-6513.812290,1991.848295,13101.645173
739.640771,-5033.400406,0.000000,11399.171507
739.641100,-2590.720797,-2451.505594,9770.718434
739.641429,0.000000,-2834.553343,7994.224174
739.641758,2220.617826,-2068.457845,6735.874072
739.642087,3701.029710,-919.314598,6513.812290
739.642416,4071.132681,689.485948,6735.874072
739.642746,2812.782580,2145.067394,7402.059420
739.643075,1554.432478,3064.381992,9474.636058
739.643404,148.041188,3370.820191,11843.295072
739.643733,-1628.453072,3217.601092,13545.768739
739.644062,-3923.091493,2911.162892,13989.892304
739.644391,-5403.503377,1225.752797,13175.665768
739.644720,-5625.565159,-459.657299,11621.233289
739.645049,-4219.173869,-1762.019645,9030.512492
739.645379,-1998.556043,-2757.943793,6217.729913
739.645708,518.144159,-3447.429741,4737.318029
739.646037,2368.659014,-2451.505594,4811.338623
739.646366,3182.885551,153.219100,5773.606348
739.646695,2368.659014,2604.724693,7179.997637
739.647024,1702.473667,4673.182538,9178.553681
739.647353,0.000000,5362.668486,11103.089130
739.647682,-1480.411884,4596.572988,12509.480420
739.648011,-2664.741391,2987.772442,13693.809927
739.648341,-3849.070898,1225.752797,13619.789333
739.648670,-4441.235652,-383.047749,12657.521608
739.648999,-3775.050304,-1915.238745,10881.027347
739.649328,-1776.494261,-2604.724693,9104.533087
739.649657,1036.288319,-2374.896044,7031.956449
739.649986,3404.947333,-1915.238745,5921.647536
739.650315,4737.318029,-842.705048,5329.482782
739.650644,5255.462188,1225.752797,6365.771101
739.650974,3997.112087,3370.820191,8438.347739
739.651303,1628.453072,4596.572988,11029.068536
739.651632,-592.164754,5515.887586,13027.624579
739.651961,-3330.926739,5286.058936,13989.892304
739.652290,-5033.400406,3370.820191,13841.851115
739.652619,-5773.606348,995.924147,12509.480420
739.652948,-5033.400406,-689.485948,10362.883188
739.653277,-3627.009116,-3064.381992,7920.203579
739.653606,-1998.556043,-3217.601092,6513.812290
739.653936,-962.267725,-2221.676944,6143.709319
739.654265,-444.123565,-306.438199,6143.709319
739.654594,-370.102971,2068.457845,5995.668130
739.654923,-666.185348,3370.820191,6661.853478
739.655252,-1184.329507,3907.087040,9400.615463
739.655581,-2146.597232,3753.867940,11547.212695
739.655910,-3701.029710,3217.601092,12731.542202
739.656239,-5329.482782,2528.115143,12879.583391
739.656569,-5773.606348,1762.019645,11843.295072
739.656898,-3775.050304,-612.876398,10584.944971
739.657227,-1332.370696,-2681.334243,9030.512492
739.657556,740.205942,-2451.505594,7254.018232
739.657885,2442.679609,-995.924147,6513.812290
739.658214,3775.050304,-612.876398,6439.791695
739.658543,3849.070898,1838.629195,6661.853478
739.658872,2294.638420,3064.381992,8142.265362
739.659202,962.267725,2911.162892,10732.986159
739.659531,-296.082377,2987.772442,12805.562797
739.659860,-2368.659014,3677.258390,13989.892304
739.660189,-4293.194464,2451.505594,13915.871710
739.660518,-5477.523971,459.657299,13027.624579
739.660847,-4885.359217,-1302.362347,10732.986159
739.661176,-2960.823768,-2221.676944,8216.285956
739.661505,-814.226536,-3447.429741,6069.688724
739.661834,1406.391290,-2681.334243,5403.503377
739.662164,2812.782580,-1225.752797,5477.523971
739.662493,3182.885551,612.876398,6661.853478
739.662822,2368.659014,3064.381992,8068.244768
739.663151,1110.308913,4749.792088,9918.759623
739.663480,-444.123565,5439.278036,11621.233289
739.663809,-2072.576638,4366.744339,12805.562797
739.664138,-3404.947333,2681.334243,13175.665768
739.664467,-4145.153275,76.609550,13101.645173
739.664797,-4367.215058,-1302.362347,12065.356855
739.665126,-3330.926739,-2221.676944,10436.903782
739.665455,-1258.350101,-2681.334243,8068.244768
739.665784,1258.350101,-2068.457845,6883.915261
739.666113,3330.926739,-1378.971896,5699.585753
739.666442,4515.256246,-306.438199,5551.544565
739.666771,4367.215058,1532.190996,6809.894666
739.667100,3478.967927,3600.648841,8956.491898
739.667429,1036.288319,4903.011187,11251.130318
739.667759,-1332.370696,4826.401637,13175.665768
739.668088,-3701.029710,4749.792088,13767.830521
739.668417,-5403.503377,2987.772442,13175.665768
739.668746,-5255.462188,612.876398,11695.253884
739.669075,-3404.947333,-1149.143247,9400.615463
739.669404,-2072.576638,-3064.381992,7254.018232
739.669733,-1184.329507,-3064.381992,6513.812290
739.670062,-962.267725,-1072.533697,6365.771101
739.670392,-740.205942,919.314598,6069.688724
739.670721,-962.267725,2374.896044,6513.812290
739.671050,-1332.370696,3447.429741,7920.203579
739.671379,-2146.597232,3753.867940,10288.862594
739.671708,-3256.906145,3294.210641,12065.356855
739.672037,-4811.338623,2757.943793,12805.562797
739.672366,-5995.668130,2374.896044,12139.377449
739.672695,-5403.503377,1072.533697,11473.192101
739.673024,-2886.803174,-1608.800546,10362.883188
739.673354,-444.123565,-2451.505594,8216.285956
739.673683,2072.576638,-1915.238745,7105.977043
739.674012,3330.926739,-459.657299,6661.853478
739.674341,4293.194464,1072.533697,6883.915261
739.674670,3404.947333,2757.943793,7994.224174
739.674999,2072.576638,3600.648841,9104.533087
739.675328,740.205942,3524.039291,11177.109724
739.675657,-666.185348,3600.648841,13027.624579
739.675987,-2664.741391,2834.553343,14137.933492
739.676316,-4885.359217,1608.800546,13471.748144
739.676645,-5477.523971,0.000000,11917.315666
739.676974,-4515.256246,-1608.800546,9548.656652
739.677303,-2664.741391,-2604.724693,7031.956449
739.677632,-148.041188,-3140.991542,5329.482782
739.677961,2294.638420,-2834.553343,5107.421000
739.678290,3404.947333,-536.266849,5477.523971
739.678619,3256.906145,2145.067394,6735.874072
739.678949,2072.576638,4136.915689,8660.409521
739.679278,370.102971,4903.011187,10881.027347
739.679607,-1110.308913,5209.449386,12583.501014
739.679936,-2442.679609,3830.477490,13027.624579
739.680265,-3330.926739,1532.190996,13323.706956
739.680594,-3701.029710,-383.047749,12509.480420
739.680923,-3330.926739,-2145.067394,11251.130318
739.681252,-1998.556043,-2834.553343,9400.615463
739.681582,0.000000,-2374.896044,7476.080014
739.681911,2590.720797,-1762.019645,6365.771101
739.682240,4441.235652,-383.047749,5995.668130
739.682569,5107.421000,995.924147,6661.853478
739.682898,4515.256246,3140.991542,7994.224174
739.683227,2664.741391,2987.772442,9770.718434
739.683556,296.082377,4749.792088,12361.439231
739.683885,-2442.679609,4903.011187,13767.830521
739.684215,-4737.318029,3600.648841,14211.954086
739.684544,-5699.585753,1915.238745,12879.583391
739.684873,-5255.462188,-229.828649,10510.924376
739.685202,-3627.009116,-2911.162892,8142.265362
739.685531,-2146.597232,-3753.867940,6883.915261
739.685860,-814.226536,-2681.334243,6809.894666
739.686189,-592.164754,-306.438199,6587.832884
739.686518,-370.102971,1991.848295,6291.750507
739.686847,-148.041188,4213.525239,7179.997637
739.687177,-888.247130,4136.915689,8660.409521
739.687506,-1406.391290,3677.258390,10732.986159
739.687835,-2442.679609,2987.772442,12361.439231
739.688164,-4441.235652,2374.896044,12213.398043
739.688493,-5477.523971,1915.238745,11769.274478
739.688822,-5033.400406,306.438199,11325.150913
739.689151,-2738.761985,-1685.410096,9696.697840
739.689480,-370.102971,-2451.505594,7846.182985
739.689809,1850.514855,-1762.019645,6661.853478
739.690139,3256.906145,-229.828649,6513.812290
739.690468,3701.029710,995.924147,7105.977043
739.690797,2590.720797,2834.553343,7920.203579
739.691126,1406.391290,3907.087040,9696.697840
739.691455,296.082377,4060.306139,11399.171507
739.691784,-1332.370696,4060.306139,13101.645173
739.692113,-3552.988522,2987.772442,13545.768739
739.692442,-4737.318029,1149.143247,13249.686362
739.692771,-4885.359217,-612.876398,11769.274478
739.693100,-3997.112087,-1915.238745,9104.533087
739.693429,-2368.659014,-3064.381992,6957.935855
739.693759,74.020594,-2987.772442,5921.647536
739.694088,2072.576638,-1991.848295,5921.647536
739.694417,3182.885551,0.000000,5995.668130
739.694746,3478.967927,2451.505594,7402.059420
739.695075,2368.659014,4366.744339,9252.574275
739.695404,888.247130,5286.058936,11251.130318
739.695733,-1110.308913,5362.668486,12805.562797
739.696062,-2886.803174,3753.867940,13027.624579
739.696391,-3775.050304,1838.629195,12657.521608
739.696720,-3849.070898,-306.438199,11991.336260
739.697049,-3182.885551,-2221.676944,10584.944971
739.697379,-2072.576638,-2834.553343,8660.409521
739.697708,-222.061783,-2451.505594,7254.018232
739.698037,1998.556043,-1838.629195,6513.812290
739.698366,3404.947333,-689.485948,6439.791695
739.698695,3701.029710,1149.143247,7031.956449
739.699024,3256.906145,2374.896044,8068.244768
739.699353,2220.617826,3447.429741,10362.883188
739.699682,-222.061783,4596.572988,12065.356855
739.700011,-2664.741391,4443.353888,13471.748144
739.700340,-4737.318029,3140.991542,13249.686362
739.700669,-5181.441594,919.314598,12287.418637
739.700999,-4441.235652,-1378.971896,10140.821405
739.701328,-2812.782580,-3064.381992,8364.327145
739.701657,-1332.370696,-3600.648841,7254.018232
739.701986,-962.267725,-1685.410096,6291.750507
739.702315,-148.041188,919.314598,5403.503377
739.702644,518.144159,1838.629195,5625.565159
739.702973,148.041188,2834.553343,7402.059420
739.703302,-1184.329507,3983.696590,10140.821405
739.703631,-2960.823768,3907.087040,12361.439231
739.703960,-5033.400406,3983.696590,13619.789333
739.704289,-6809.894666,2911.162892,13323.706956
739.704619,-6587.832884,229.828649,12287.418637
739.704948,-4367.215058,-2528.115143,10436.903782
739.705277,-1998.556043,-3524.039291,8512.368333
739.705606,666.185348,-2374.896044,6661.853478
739.705935,2812.782580,-1991.848295,6439.791695
739.706264,4145.153275,153.219100,6735.874072
739.706593,3997.112087,2374.896044,7550.100608
739.706922,3256.906145,3447.429741,8660.409521
739.707251,2146.597232,4673.182538,10436.903782
739.707580,148.041188,5056.230287,11843.295072
739.707909,-2146.597232,3753.867940,12953.603985
739.708239,-4367.215058,1838.629195,13693.809927
739.708568,-5181.441594,306.438199,13249.686362
739.708897,-5255.462188,-766.095498,11177.109724
739.709226,-4071.132681,-2681.334243,8142.265362
739.709555,-1924.535449,-3907.087040,5921.647536
739.709884,518.144159,-3447.429741,5329.482782
739.710213,2664.741391,-1685.410096,5403.503377
739.710542,3627.009116,1225.752797,6143.709319
739.710871,2664.741391,3983.696590,7624.121203
739.711200,1332.370696,5515.887586,9400.615463
739.711529,-370.102971,5515.887586,11547.212695
739.711859,-1998.556043,4443.353888,12583.501014
739.712188,-2960.823768,2528.115143,13323.706956
739.712517,-3923.091493,766.095498,12953.603985
739.712846,-4145.153275,-536.266849,11103.089130
739.713175,-2516.700203,-2681.334243,9918.759623
739.713504,-592.164754,-3064.381992,8142.265362
739.713833,1702.473667,-1685.410096,7031.956449
739.714162,3552.988522,-536.266849,6217.729913
739.714491,4885.359217,919.314598,5921.647536
739.714820,4737.318029,2221.676944,7624.121203
739.715149,3330.926739,3447.429741,9400.615463
739.715479,1184.329507,4443.353888,11843.295072
739.715808,-1702.473667,4673.182538,13101.645173
739.716137,-4219.173869,3524.039291,13693.809927
739.716466,-5477.523971,1685.410096,13101.645173
739.716795,-5921.647536,-459.657299,11473.192101
739.717124,-4515.256246,-2451.505594,9104.533087
739.717453,-3182.885551,-3524.039291,7328.038826
739.717782,-1776.494261,-3140.991542,6587.832884
739.718111,-962.267725,-1762.019645,6439.791695
739.718440,-444.123565,1532.190996,5921.647536
739.718769,-666.185348,3753.867940,5921.647536
739.719099,-518.144159,3830.477490,7920.203579
739.719428,-814.226536,3907.087040,10658.965565
739.719757,-2368.659014,3447.429741,12583.501014
739.720086,-5107.421000,2911.162892,13027.624579
739.720415,-6513.812290,1991.848295,13027.624579
739.720744,-6143.709319,459.657299,11843.295072
739.721073,-3701.029710,-2145.067394,10436.903782
739.721402,-1332.370696,-2834.553343,8512.368333
739.721731,1554.432478,-1915.238745,6883.915261
739.722060,3330.926739,-842.705048,6291.750507
739.722390,4441.235652,536.266849,6365.771101
739.722719,3701.029710,2451.505594,7031.956449
739.723048,2590.720797,3140.991542,8734.430116
739.723377,1110.308913,3830.477490,11103.089130
739.723706,-740.205942,4136.915689,13249.686362
739.724035,-3182.885551,3370.820191,14137.933492
739.724364,-5033.400406,1532.190996,13693.809927
739.724693,-5551.544565,-612.876398,12065.356855
739.725022,-4885.359217,-1608.800546,9844.739029
739.725351,-2590.720797,-2681.334243,6957.935855
739.725680,-592.164754,-3370.820191,5329.482782
739.726010,1628.453072,-2451.505594,5255.462188
739.726339,2886.803174,-536.266849,5847.626942
739.726668,2960.823768,2374.896044,6809.894666
739.726997,2516.700203,3907.087040,8364.327145
739.727326,1110.308913,5056.230287,10732.986159
739.727655,-1036.288319,5286.058936,11843.295072
739.727984,-2812.782580,3677.258390,12731.542202
739.728313,-3775.050304,1378.971896,13101.645173
739.728642,-4663.297435,-612.876398,12287.418637
739.728971,-3775.050304,-1838.629195,11843.295072
739.729300,-2664.741391,-2834.553343,9918.759623
739.729630,-814.226536,-2528.115143,8142.265362
739.729959,1628.453072,-1378.971896,6513.812290
739.730288,3775.050304,-459.657299,5773.606348
739.730617,4737.318029,306.438199,6217.729913
739.730946,4367.215058,2604.724693,7772.162391
739.731275,2590.720797,4290.134789,9918.759623
739.731604,296.082377,5056.230287,12287.418637
739.731933,-2738.761985,4903.011187,13323.706956
739.732262,-4959.379811,3677.258390,13397.727550
739.732591,-5921.647536,1149.143247,12731.542202
739.732920,-5699.585753,-1072.533697,11251.130318
739.733250,-4663.297435,-2681.334243,8956.491898
739.733579,-3256.906145,-3983.696590,7105.977043
739.733908,-2368.659014,-2911.162892,5921.647536
739.734237,-962.267725,229.828649,5255.462188
739.734566,0.000000,1532.190996,4737.318029
739.734895,222.061783,2451.505594,6587.832884
739.735224,-592.164754,3524.039291,8956.491898
739.735553,-1998.556043,4673.182538,11473.192101
739.735882,-3849.070898,3753.867940,13175.665768
739.736211,-5699.585753,2911.162892,13767.830521
739.736540,-6069.688724,1608.800546,13027.624579
739.736870,-4737.318029,-1455.581446,11473.192101
739.737199,-1998.556043,-3370.820191,9252.574275
739.737528,370.102971,-2451.505594,7846.182985
739.737857,2294.638420,-1455.581446,6587.832884
739.738186,3701.029710,-383.047749,6587.832884
739.738515,3997.112087,1455.581446,6809.894666
739.738844,3256.906145,2987.772442,7772.162391
739.739173,2220.617826,3907.087040,9474.636058
739.739502,444.123565,4290.134789,11399.171507
739.739831,-1924.535449,3983.696590,13027.624579
739.740160,-4367.215058,2068.457845,13619.789333
739.740490,-6069.688724,842.705048,13249.686362
739.740819,-6143.709319,-1149.143247,11251.130318
739.741148,-5329.482782,-2528.115143,8734.430116
739.741477,-3108.864956,-3294.210641,6661.853478
739.741806,-148.041188,-3370.820191,5403.503377
739.742135,2516.700203,-2298.286494,5403.503377
739.742464,3552.988522,153.219100,5921.647536
739.742793,3627.009116,3677.258390,7402.059420
739.743122,2294.638420,5362.668486,9474.636058
739.743451,740.205942,5822.325785,11399.171507
739.743780,-1110.308913,5439.278036,12583.501014
739.744110,-2664.741391,3600.648841,12583.501014
739.744439,-3701.029710,766.095498,12213.398043
739.744768,-3849.070898,-1378.971896,12139.377449
739.745097,-3701.029710,-2374.896044,10807.006753
739.745426,-2294.638420,-2528.115143,8882.471304
739.745755,0.000000,-2221.676944,7105.977043
739.746084,2368.659014,-1225.752797,5699.585753
739.746413,3923.091493,-229.828649,5773.606348
739.746742,4737.318029,1225.752797,6957.935855
739.747071,3775.050304,3140.991542,8512.368333
739.747400,1554.432478,4443.353888,10881.027347
739.747730,-1184.329507,5592.497135,12361.439231
739.748059,-3849.070898,4290.134789,14137.933492
739.748388,-5921.647536,2451.505594,13767.830521
739.748717,-6291.750507,76.609550,11991.336260
739.749046,-5403.503377,-1991.848295,10140.821405
739.749375,-3775.050304,-3524.039291,7994.224174
739.749704,-2146.597232,-3677.258390,7105.977043
739.750033,-962.267725,-1532.190996,6735.874072
739.750362,-296.082377,1608.800546,5403.503377
739.750691,296.082377,3217.601092,5329.482782
739.751020,666.185348,3524.039291,7105.977043
739.751350,0.000000,3524.039291,9770.718434
739.751679,-1776.494261,4596.572988,11991.336260
739.752008,-4367.215058,3294.210641,13249.686362
739.752337,-6365.771101,2604.724693,13323.706956
739.752666,-6735.874072,995.924147,12583.501014
739.752995,-4737.318029,-1991.848295,11029.068536
739.753324,-2146.597232,-2834.553343,9178.553681
739.753653,222.061783,-2374.896044,7105.977043
739.753982,2664.741391,-1225.752797,6217.729913
739.754311,3997.112087,0.000000,6365.771101
739.754640,3627.009116,2374.896044,7031.956449
739.754970,2516.700203,4290.134789,8142.265362
739.755299,1406.391290,4366.744339,9918.759623
739.755628,-296.082377,4596.572988,11843.295072
739.755957,-2368.659014,3217.601092,13175.665768
739.756286,-4737.318029,1455.581446,13841.851115
739.756615,-5699.585753,153.219100,12953.603985
739.756944,-5477.523971,-842.705048,11029.068536
739.757273,-4367.215058,-2451.505594,8216.285956
739.757602,-1850.514855,-3447.429741,6587.832884
739.757931,962.267725,-2757.943793,5699.585753
739.758260,3034.844362,-919.314598,5699.585753
739.758590,3775.050304,1302.362347,6143.709319
739.758919,3256.906145,4290.134789,8216.285956
739.759248,1702.473667,5362.668486,10214.842000
739.759577,-444.123565,5515.887586,11991.336260
739.759906,-2442.679609,4443.353888,12509.480420
739.760235,-3404.947333,1608.800546,12657.521608
739.760564,-3775.050304,-383.047749,12657.521608
739.760893,-4071.132681,-1991.848295,11769.274478
739.761222,-3404.947333,-2911.162892,9696.697840
739.761551,-1480.411884,-2757.943793,7772.162391
739.761880,1480.411884,-1762.019645,6587.832884
739.762210,3404.947333,-612.876398,6513.812290
739.762539,4441.235652,842.705048,6587.832884
739.762868,4145.153275,2298.286494,7698.141797
739.763197,2738.761985,3524.039291,9178.553681
739.763526,740.205942,4443.353888,11621.233289
739.763855,-2146.597232,4826.401637,13323.706956
739.764184,-4959.379811,3907.087040,13767.830521
739.764513,-6587.832884,1455.581446,12953.603985
739.764842,-6661.853478,-995.924147,11103.089130
739.765171,-4663.297435,-2451.505594,9252.574275
739.765500,-2664.741391,-3677.258390,7254.018232
739.765830,-1480.411884,-2681.334243,6661.853478
739.766159,-518.144159,229.828649,5033.400406
739.766488,296.082377,1915.238745,4515.256246
739.766817,888.247130,2451.505594,6069.688724
739.767146,518.144159,3370.820191,8586.388927
739.767475,-2072.576638,4596.572988,11769.274478
739.767804,-3849.070898,3677.258390,13619.789333
739.768133,-6143.709319,3064.381992,13989.892304
739.768462,-6957.935855,1915.238745,13249.686362
739.768791,-5699.585753,-1378.971896,11695.253884
739.769120,-3256.906145,-2987.772442,9696.697840
739.769450,-592.164754,-2374.896044,7698.141797
739.769779,1850.514855,-1762.019645,6513.812290
739.770108,3923.091493,-689.485948,6587.832884
739.770437,4145.153275,1838.629195,6661.853478
739.770766,3997.112087,3217.601092,7698.141797
739.771095,2442.679609,4213.525239,9178.553681
739.771424,1258.350101,4826.401637,11029.068536
739.771753,-1110.308913,4136.915689,12583.501014
739.772082,-3997.112087,2221.676944,13693.809927
739.772411,-5773.606348,1072.533697,13693.809927
739.772741,-6217.729913,-306.438199,12065.356855
739.773070,-5403.503377,-2145.067394,9548.656652
739.773399,-3478.967927,-3140.991542,6957.935855
739.773728,-444.123565,-3370.820191,5699.585753
739.774057,2738.761985,-2221.676944,5551.544565
739.774386,3849.070898,383.047749,5329.482782
739.774715,3775.050304,3370.820191,6957.935855
739.775044,2590.720797,4979.620737,9030.512492
739.775373,888.247130,5669.106685,10881.027347
739.775702,-1110.308913,5975.544884,11991.336260
739.776031,-2294.638420,3524.039291,12361.439231
739.776361,-3849.070898,919.314598,12361.439231
739.776690,-4219.173869,-995.924147,12361.439231
739.777019,-3923.091493,-2374.896044,11325.150913
739.777348,-2738.761985,-2528.115143,9104.533087
739.777677,222.061783,-2298.286494,7031.956449
739.778006,2516.700203,-1149.143247,6365.771101
739.778335,4367.215058,-229.828649,6217.729913
739.778664,4959.379811,1378.971896,6809.894666
739.778993,3997.112087,2757.943793,8364.327145
739.779322,1850.514855,4213.525239,10807.006753
739.779651,-370.102971,5362.668486,12805.562797
739.779981,-3701.029710,3983.696590,13989.892304
739.780310,-5847.626942,2528.115143,13989.892304
739.780639,-6439.791695,306.438199,12287.418637
739.780968,-5329.482782,-1608.800546,9918.759623
739.781297,-3182.885551,-3677.258390,7772.162391
739.781626,-1850.514855,-3907.087040,6957.935855
739.781955,-666.185348,-2374.896044,6809.894666
739.782284,0.000000,766.095498,5699.585753
739.782613,370.102971,3370.820191,5255.462188
739.782942,740.205942,3370.820191,6513.812290
739.783271,148.041188,3907.087040,9030.512492
739.783601,-1184.329507,3830.477490,11621.233289
739.783930,-3701.029710,3217.601092,13027.624579
739.784259,-5773.606348,2757.943793,13397.727550
739.784588,-6513.812290,1302.362347,13027.624579
739.784917,-5329.482782,-1532.190996,11547.212695
739.785246,-3108.864956,-2757.943793,9622.677246
739.785575,-444.123565,-2145.067394,7402.059420
739.785904,2220.617826,-1455.581446,6143.709319
739.786233,3997.112087,-612.876398,6217.729913
739.786562,3849.070898,1838.629195,6587.832884
739.786891,2664.741391,3447.429741,7772.162391
739.787221,1776.494261,3753.867940,9696.697840
739.787550,296.082377,4290.134789,11547.212695
739.787879,-2072.576638,3830.477490,13175.665768
739.788208,-3997.112087,1991.848295,14285.974681
739.788537,-5403.503377,459.657299,13693.809927
739.788866,-5551.544565,-459.657299,11399.171507
739.789195,-4293.194464,-2068.457845,8956.491898
739.789524,-2072.576638,-3064.381992,6809.894666
739.789853,592.164754,-2374.896044,5625.565159
739.790182,3108.864956,-1762.019645,5329.482782
739.790511,4145.153275,995.924147,6069.688724
739.790841,3701.029710,3677.258390,7550.100608
739.791172,1998.556043,5439.278036,9770.718434
739.791502,0.000000,5822.325785,11621.233289
739.791831,-2072.576638,4673.182538,12065.356855
739.792160,-3404.947333,2528.115143,12213.398043
739.792489,-3775.050304,306.438199,12583.501014
739.792818,-4367.215058,-1608.800546,12139.377449
739.793147,-3849.070898,-2451.505594,10658.965565
739.793476,-1998.556043,-2757.943793,8290.306550
739.793805,444.123565,-2374.896044,6957.935855
739.794134,3034.844362,-1149.143247,6143.709319
739.794463,4441.235652,0.000000,6291.750507
739.794793,4515.256246,1685.410096,7105.977043
739.795122,3849.070898,3140.991542,8956.491898
739.795451,1850.514855,4213.525239,11251.130318
739.795780,-962.267725,4673.182538,13175.665768
739.796109,-3701.029710,3677.258390,14063.912898
739.796438,-5551.544565,2221.676944,13545.768739
739.796767,-5773.606348,0.000000,11695.253884
739.797096,-4441.235652,-2221.676944,9104.533087
739.797425,-2368.659014,-3600.648841,7476.080014
739.797755,-1332.370696,-3370.820191,6957.935855
739.798084,-370.102971,-919.314598,6217.729913
739.798413,0.000000,1532.190996,5255.462188
739.798742,814.226536,3140.991542,5477.523971
739.799071,0.000000,3140.991542,7994.224174
739.799400,-1036.288319,3983.696590,10732.986159
739.799729,-3182.885551,3370.820191,12953.603985
739.800058,-5551.544565,2987.772442,13397.727550
739.800387,-6883.915261,2451.505594,12953.603985
739.800716,-6809.894666,0.000000,12139.377449
739.801046,-4663.297435,-2681.334243,10807.006753
739.801375,-1924.535449,-2757.943793,8586.388927
739.801704,1036.288319,-2221.676944,6809.894666
739.802033,3330.926739,-1302.362347,6069.688724
739.802362,4441.235652,766.095498,6365.771101
739.802691,4219.173869,2528.115143,7624.121203
739.803020,2812.782580,3677.258390,8808.450710
739.803349,1554.432478,4596.572988,10510.924376
739.803678,-444.123565,3983.696590,12731.542202
739.804007,-2590.720797,2987.772442,14137.933492
739.804337,-5107.421000,1762.019645,14359.995275
739.804666,-5847.626942,229.828649,12657.521608
739.804995,-5107.421000,-1608.800546,10066.800811
739.805324,-3330.926739,-2604.724693,7105.977043
739.805653,-592.164754,-3294.210641,4589.276840
739.805982,1924.535449,-2604.724693,4367.215058
739.806311,3849.070898,-306.438199,5329.482782
739.806640,3849.070898,2451.505594,6587.832884
739.806969,2442.679609,4519.963438,8512.368333
739.807298,740.205942,5439.278036,10955.047942
739.807628,-1110.308913,5286.058936,12805.562797
739.807957,-3108.864956,3217.601092,13841.851115
739.808286,-4145.153275,1225.752797,13841.851115
739.808615,-4515.256246,-842.705048,12879.583391
739.808944,-3849.070898,-2298.286494,11177.109724
739.809273,-1480.411884,-2757.943793,8956.491898
739.809602,888.247130,-2374.896044,6291.750507
739.809931,3849.070898,-1072.533697,5329.482782
739.810260,5699.585753,689.485948,5329.482782
739.810589,5995.668130,2451.505594,6587.832884
739.810919,4885.359217,3830.477490,8290.306550
739.811248,2738.761985,5056.230287,10436.903782
739.811577,-148.041188,5669.106685,13101.645173
739.811906,-3627.009116,4903.011187,14285.974681
739.812235,-5995.668130,2834.553343,14285.974681
739.812564,-7031.956449,766.095498,12435.459826
739.812893,-6365.771101,-1915.238745,10214.842000
739.813222,-4737.318029,-3677.258390,7476.080014
739.813551,-2368.659014,-4366.744339,5699.585753
739.813880,-148.041188,-3524.039291,5625.565159
739.814210,666.185348,-1072.533697,6439.791695
739.814539,444.123565,2298.286494,7031.956449
739.814868,0.000000,4673.182538,7254.018232
739.815197,-444.123565,4979.620737,9474.636058
739.815526,-962.267725,3677.258390,11399.171507
739.815855,-2220.617826,2451.505594,12583.501014
739.816184,-4293.194464,919.314598,12287.418637
739.816513,-5477.523971,153.219100,12213.398043
739.816842,-5329.482782,-919.314598,11399.171507
739.817171,-3478.967927,-2298.286494,10288.862594
739.817501,-1258.350101,-2681.334243,8660.409521
739.817830,1110.308913,-2221.676944,7105.977043
739.818159,2516.700203,0.000000,6217.729913
739.818488,3701.029710,1072.533697,6661.853478
739.818817,3034.844362,2451.505594,7772.162391
739.819146,1406.391290,2911.162892,9474.636058
739.819475,-370.102971,3140.991542,11769.274478
739.819804,-2516.700203,3677.258390,12953.603985
739.820133,-4515.256246,2451.505594,13841.851115
739.820462,-5847.626942,612.876398,13101.645173
739.820792,-5477.523971,-1225.752797,11251.130318
739.821121,-3997.112087,-2451.505594,8808.450710
739.821450,-1702.473667,-2987.772442,6735.874072
739.821779,592.164754,-2145.067394,5329.482782
739.822108,2516.700203,-842.705048,5255.462188
739.822437,3627.009116,1149.143247,6069.688724
739.822766,3404.947333,3140.991542,7624.121203
739.823095,2220.617826,4903.011187,9474.636058
739.823424,666.185348,5362.668486,11769.274478
739.823753,-1480.411884,4443.353888,13175.665768
739.824083,-3330.926739,2528.115143,13767.830521
739.824412,-4293.194464,766.095498,13323.706956
739.824741,-4441.235652,-766.095498,12509.480420
739.825070,-2738.761985,-1991.848295,10658.965565
739.825399,-1110.308913,-2068.457845,8142.265362
739.825728,1184.329507,-2068.457845,6587.832884
739.826057,3552.988522,-536.266849,5329.482782
739.826386,5107.421000,1072.533697,5329.482782
739.826715,5181.441594,2221.676944,6439.791695
739.827044,3701.029710,3677.258390,8142.265362
739.827374,1332.370696,4443.353888,10955.047942
739.827703,-1036.288319,5132.839837,13175.665768
739.828032,-3627.009116,3983.696590,14137.933492
739.828361,-5551.544565,2757.943793,13767.830521
739.828690,-5847.626942,536.266849,11843.295072
739.829019,-4811.338623,-1915.238745,9474.636058
739.829348,-2886.803174,-2987.772442,7254.018232
739.829677,-1110.308913,-3140.991542,6587.832884
739.830006,74.020594,-1608.800546,6291.750507
739.830335,592.164754,306.438199,6513.812290
739.830665,444.123565,2068.457845,7550.100608
739.830994,-444.123565,3983.696590,8586.388927
739.831323,-1480.411884,4443.353888,10066.800811
739.831652,-2442.679609,3370.820191,11177.109724
739.831981,-3701.029710,1915.238745,11917.315666
739.832310,-5033.400406,1378.971896,12435.459826
739.832639,-5477.523971,0.000000,11621.233289
739.832968,-4219.173869,-1455.581446,10881.027347
739.833297,-2368.659014,-1608.800546,9104.533087
739.833627,0.000000,-1302.362347,7402.059420
739.833956,2368.659014,-1991.848295,6661.853478
739.834285,3775.050304,0.000000,6809.894666
739.834614,3404.947333,1685.410096,7402.059420
739.834943,2072.576638,2757.943793,8956.491898
739.835272,222.061783,3600.648841,10436.903782
739.835601,-1850.514855,3217.601092,11769.274478
739.835930,-3701.029710,1991.848295,13397.727550
739.836259,-5107.421000,459.657299,13841.851115
739.836588,-5995.668130,-229.828649,12879.583391
739.836918,-5551.544565,-1685.410096,10658.965565
739.837247,-3627.009116,-3064.381992,7772.162391
739.837576,-592.164754,-3217.601092,5699.585753
739.837905,2368.659014,-2987.772442,4811.338623
739.838234,4145.153275,-842.705048,5329.482782
739.838563,4367.215058,1991.848295,6661.853478
739.838892,3404.947333,4290.134789,8512.368333
739.839221,1776.494261,4366.744339,10732.986159
739.839550,-592.164754,5669.106685,12583.501014
739.839879,-2664.741391,3983.696590,13767.830521
739.840209,-3923.091493,1762.019645,13989.892304
739.840538,-4737.318029,229.828649,13101.645173
739.840867,-4885.359217,-1302.362347,11695.253884
739.841196,-3108.864956,-2528.115143,9474.636058
739.841525,-666.185348,-2528.115143,7254.018232
739.841854,2368.659014,-1915.238745,5699.585753
739.842183,4293.194464,0.000000,4885.359217
739.842512,5033.400406,1225.752797,5477.523971
739.842841,4515.256246,2911.162892,6809.894666
739.843170,2960.823768,4060.306139,9548.656652
739.843500,370.102971,5439.278036,12065.356855
739.843829,-2368.659014,5132.839837,13989.892304
739.844158,-4589.276840,3447.429741,14359.995275
739.844487,-5477.523971,1915.238745,12879.583391
739.844816,-5477.523971,-383.047749,10584.944971
739.845145,-3552.988522,-2298.286494,8142.265362
739.845474,-1480.411884,-3140.991542,6587.832884
739.845803,0.000000,-2374.896044,5921.647536
739.846132,1036.288319,-1149.143247,5995.668130
739.846461,1036.288319,2145.067394,6661.853478
739.846791,0.000000,3983.696590,7846.182985
739.847120,-740.205942,5132.839837,9326.594869
739.847449,-1628.453072,4826.401637,10584.944971
739.847778,-2812.782580,3370.820191,11325.150913
739.848107,-4293.194464,1378.971896,11843.295072
739.848436,-5551.544565,766.095498,11769.274478
739.848765,-5403.503377,-459.657299,11103.089130
739.849094,-4071.132681,-1532.190996,10066.800811
739.849423,-2220.617826,-1378.971896,8216.285956
739.849752,444.123565,-1532.190996,6957.935855
739.850082,2886.803174,-612.876398,6365.771101
739.850411,3775.050304,536.266849,6883.915261
739.850740,3256.906145,2221.676944,7994.224174
739.851069,1554.432478,3217.601092,9918.759623
739.851398,-444.123565,3677.258390,11251.130318
739.851727,-2442.679609,3294.210641,13027.624579
739.852056,-4367.215058,1532.190996,14285.974681
739.852385,-5625.565159,383.047749,14063.912898
739.852714,-5773.606348,-995.924147,12213.398043
739.853043,-4367.215058,-2374.896044,9178.553681
739.853373,-1776.494261,-3217.601092,7031.956449
739.853702,740.205942,-3447.429741,5107.421000
739.854031,3034.844362,-2528.115143,5181.441594
739.854360,4071.132681,76.609550,6143.709319
739.854689,3775.050304,2987.772442,7476.080014
739.855018,2072.576638,4519.963438,9548.656652
739.855347,74.020594,5592.497135,11251.130318
739.855676,-1776.494261,5286.058936,12361.439231
739.856005,-3256.906145,2145.067394,13249.686362
739.856334,-4515.256246,229.828649,13619.789333
739.856664,-5181.441594,-612.876398,12879.583391
739.856993,-4589.276840,-1378.971896,10807.006753
739.857322,-2738.761985,-2604.724693,8438.347739
739.857651,148.041188,-2757.943793,6439.791695
739.857980,3034.844362,-1608.800546,5329.482782
739.858309,4737.318029,0.000000,4737.318029
739.858638,5107.421000,2068.457845,6143.709319
739.858967,3701.029710,3677.258390,7624.121203
739.859296,1998.556043,4136.915689,10510.924376
739.859625,-814.226536,4903.011187,12879.583391
739.859955,-3256.906145,4826.401637,13989.892304
739.860284,-5107.421000,3064.381992,13841.851115
739.860613,-6069.688724,1302.362347,12213.398043
739.860942,-5033.400406,-1072.533697,9844.739029
739.861271,-2812.782580,-2987.772442,7550.100608
739.861600,-962.267725,-3370.820191,6439.791695
739.861929,444.123565,-1455.581446,7031.956449
739.862258,1258.350101,689.485948,6957.935855
739.862587,444.123565,2834.553343,7031.956449
739.862916,-222.061783,5132.839837,7920.203579
739.863246,-1110.308913,4903.011187,9622.677246
739.863575,-1924.535449,3830.477490,11769.274478
739.863904,-4071.132681,2911.162892,12509.480420
739.864233,-5847.626942,1685.410096,12657.521608
739.864562,-6513.812290,612.876398,12213.398043
739.864891,-5699.585753,-919.314598,10881.027347
739.865220,-3108.864956,-1915.238745,9252.574275
739.865549,-222.061783,-2757.943793,7031.956449
739.865878,2220.617826,-1302.362347,6217.729913
739.866207,3701.029710,0.000000,5921.647536
739.866537,3849.070898,1455.581446,6957.935855
739.866866,2664.741391,3294.210641,8068.244768
739.867195,888.247130,4136.915689,10066.800811
739.867524,-666.185348,4136.915689,12213.398043
739.867853,-2886.803174,3140.991542,13989.892304
739.868182,-5033.400406,1915.238745,14285.974681
739.868511,-6069.688724,0.000000,12953.603985
739.868840,-5181.441594,-2068.457845,10658.965565
739.869169,-3627.009116,-2221.676944,8290.306550
739.869498,-962.267725,-3600.648841,5699.585753
739.869828,1776.494261,-3600.648841,4959.379811
739.870157,3256.906145,-1225.752797,5255.462188
739.870486,3552.988522,1455.581446,6291.750507
739.870815,3256.906145,3294.210641,8068.244768
739.871144,1480.411884,4979.620737,10510.924376
739.871473,-740.205942,6128.763984,11917.315666
739.871802,-2590.720797,4443.353888,12879.583391
739.872131,-3701.029710,1302.362347,13323.706956
739.872460,-4293.194464,-306.438199,12953.603985
739.872790,-4441.235652,-1149.143247,12213.398043
739.873119,-3923.091493,-2451.505594,10288.862594
739.873448,-1554.432478,-2834.553343,7994.224174
739.873777,1184.329507,-2145.067394,6735.874072
739.874106,3701.029710,-995.924147,5921.647536
739.874435,4885.359217,459.657299,5995.668130
739.874764,4367.215058,2451.505594,7105.977043
739.875093,3256.906145,3830.477490,9326.594869
739.875422,1184.329507,4366.744339,11917.315666
739.875751,-1628.453072,4596.572988,14063.912898
739.876081,-4293.194464,3600.648841,14730.098246
739.876410,-5773.606348,2221.676944,13471.748144
739.876739,-5551.544565,306.438199,11399.171507
739.877068,-3923.091493,-2068.457845,8586.388927
739.877397,-2072.576638,-3217.601092,6661.853478
739.877726,-444.123565,-3064.381992,5847.626942
739.878055,444.123565,-536.266849,6069.688724
739.878384,370.102971,1838.629195,6587.832884
739.878713,-444.123565,4290.134789,6883.915261
739.879042,-1184.329507,5209.449386,7920.203579
739.879372,-1628.453072,4290.134789,9474.636058
739.879701,-2294.638420,3370.820191,11695.253884
739.880030,-4441.235652,2451.505594,12139.377449
739.880359,-6217.729913,1149.143247,12213.398043
739.880688,-6513.812290,153.219100,11695.253884
739.881017,-4811.338623,-842.705048,10362.883188
739.881346,-1924.535449,-1378.971896,8512.368333
739.881675,740.205942,-1838.629195,6809.894666
739.882004,2886.803174,-459.657299,6143.709319
739.882333,4145.153275,536.266849,6291.750507
739.882663,3775.050304,2451.505594,7254.018232
739.882992,2442.679609,3753.867940,8734.430116
739.883321,888.247130,3907.087040,11251.130318
739.883650,-1184.329507,3524.039291,13101.645173
739.883979,-3552.988522,2604.724693,14656.077652
739.884308,-5181.441594,1455.581446,14434.015869
739.884637,-5625.565159,-383.047749,12583.501014
739.884966,-4737.318029,-1685.410096,10066.800811
739.885295,-2812.782580,-3217.601092,7254.018232
739.885624,0.000000,-3524.039291,6069.688724
739.885954,2146.597232,-2451.505594,5551.544565
739.886283,3034.844362,0.000000,5551.544565
739.886612,3701.029710,2298.286494,7105.977043
739.886941,2590.720797,3983.696590,8808.450710
739.887270,592.164754,5209.449386,10955.047942
739.887599,-1406.391290,4673.182538,12509.480420
739.887928,-3330.926739,3370.820191,12953.603985
739.888257,-4663.297435,1915.238745,12805.562797
739.888586,-5107.421000,0.000000,11917.315666
739.888915,-4515.256246,-2068.457845,11399.171507
739.889245,-3256.906145,-3217.601092,9474.636058
739.889574,-1036.288319,-2681.334243,7476.080014
739.889903,1258.350101,-1608.800546,5699.585753
739.890232,3404.947333,-1072.533697,5181.441594
739.890561,4367.215058,536.266849,6217.729913
739.890890,3997.112087,2451.505594,7772.162391
739.891219,2590.720797,3600.648841,9770.718434
739.891548,370.102971,4749.792088,11991.336260
739.891878,-2072.576638,4290.134789,13989.892304
739.892207,-4441.235652,3217.601092,13989.892304
739.892536,-5625.565159,1685.410096,13027.624579
739.892865,-4959.379811,-612.876398,10955.047942
739.893194,-3256.906145,-2681.334243,8364.327145
739.893523,-1554.432478,-2987.772442,6809.894666
739.893852,-888.247130,-2068.457845,6291.750507
739.894181,0.000000,76.609550,5699.585753
739.894511,444.123565,1991.848295,5403.503377
739.894840,0.000000,3140.991542,6809.894666
739.895169,-1110.308913,4060.306139,9696.697840
739.895498,-3108.864956,3677.258390,11991.336260
739.895827,-4959.379811,3524.039291,13249.686362
739.896156,-6661.853478,2681.334243,13471.748144
739.896485,-7031.956449,1302.362347,12583.501014
739.896815,-5403.503377,-1149.143247,11103.089130
739.897144,-3256.906145,-2528.115143,9252.574275
739.897473,0.000000,-1991.848295,7254.018232
739.897802,2368.659014,-1149.143247,6217.729913
739.898131,4145.153275,0.000000,6291.750507
739.898460,4145.153275,2068.457845,6883.915261
739.898789,3627.009116,3907.087040,7994.224174
739.899118,2368.659014,3753.867940,9104.533087
739.899448,888.247130,3907.087040,12139.377449
739.899777,-1406.391290,3677.258390,14063.912898
739.900106,-4293.194464,2834.553343,14211.954086
739.900435,-5551.544565,1302.362347,13027.624579
739.900764,-4811.338623,-995.924147,11103.089130
739.901093,-3701.029710,-2374.896044,8142.265362
739.901422,-1480.411884,-3294.210641,6069.688724
739.901752,888.247130,-2834.553343,4959.379811
739.902081,2368.659014,-1225.752797,5329.482782
739.902410,3108.864956,995.924147,5995.668130
739.902739,2738.761985,2834.553343,7328.038826
739.903068,1036.288319,4673.182538,9474.636058
739.903397,-888.247130,5056.230287,11399.171507
739.903726,-2294.638420,4136.915689,12583.501014
739.904055,-4071.132681,2145.067394,13027.624579
739.904385,-4367.215058,0.000000,13027.624579
739.904714,-4811.338623,-1532.190996,12139.377449
739.905043,-3849.070898,-2451.505594,10362.883188
739.905372,-1776.494261,-2681.334243,8734.430116
739.905701,1332.370696,-2145.067394,7105.977043
739.906030,3997.112087,-1225.752797,6069.688724
739.906359,4959.379811,76.609550,6143.709319
739.906688,4959.379811,1762.019645,7402.059420
739.907018,3627.009116,3447.429741,9400.615463
739.907347,1628.453072,4136.915689,11769.274478
739.907676,-1036.288319,4596.572988,13471.748144
739.908005,-3849.070898,4290.134789,14063.912898
739.908334,-5329.482782,2451.505594,13767.830521
739.908663,-5477.523971,0.000000,11917.315666
739.908992,-4589.276840,-1991.848295,9252.574275
739.909322,-3108.864956,-2834.553343,6883.915261
739.909651,-1332.370696,-3524.039291,6143.709319
739.909980,-592.164754,-1455.581446,6291.750507
739.910309,-222.061783,536.266849,6291.750507
739.910638,-518.144159,3140.991542,5995.668130
739.910967,-888.247130,4290.134789,7254.018232
739.911296,-1332.370696,3677.258390,9400.615463
739.911625,-2368.659014,3370.820191,11917.315666
739.911955,-4367.215058,2911.162892,12435.459826
739.912284,-6069.688724,1915.238745,12879.583391
739.912613,-6291.750507,612.876398,12139.377449
739.912942,-4367.215058,76.609550,10807.006753
739.913271,-2072.576638,-2298.286494,8364.327145
739.913600,1184.329507,-2068.457845,6735.874072
739.913929,3108.864956,-306.438199,5995.668130
739.914258,4441.235652,383.047749,6291.750507
739.914588,4071.132681,2298.286494,6587.832884
739.914917,2590.720797,3830.477490,8290.306550
739.915246,962.267725,3600.648841,10658.965565
739.915575,-814.226536,3830.477490,12583.501014
739.915904,-3034.844362,3064.381992,13693.809927
739.916233,-4959.379811,1608.800546,13989.892304
739.916562,-5625.565159,153.219100,13101.645173
739.916892,-5329.482782,-1149.143247,11029.068536
739.917221,-3552.988522,-2374.896044,8216.285956
739.917550,-1036.288319,-3217.601092,6365.771101
739.917879,1332.370696,-2451.505594,5699.585753
739.918208,3256.906145,-842.705048,5255.462188
739.918537,3182.885551,919.314598,6291.750507
739.918866,2664.741391,3600.648841,8068.244768
739.919195,1110.308913,4979.620737,10510.924376
739.919525,-740.205942,5362.668486,12583.501014
739.919854,-2886.803174,3830.477490,12879.583391
739.920183,-4145.153275,2298.286494,12731.542202
739.920512,-4293.194464,-153.219100,12361.439231
739.920841,-3701.029710,-1838.629195,11843.295072
739.921170,-2738.761985,-2374.896044,9770.718434
739.921499,-962.267725,-1762.019645,7772.162391
739.921829,1480.411884,-1608.800546,6513.812290
739.922158,3775.050304,-612.876398,5995.668130
739.922487,4589.276840,536.266849,5995.668130
739.922816,4367.215058,1915.238745,7179.997637
739.923145,2960.823768,2757.943793,9252.574275
739.923474,962.267725,4596.572988,11621.233289
739.923803,-2146.597232,4596.572988,13027.624579
739.924132,-4515.256246,3294.210641,14063.912898
739.924462,-5995.668130,1685.410096,13101.645173
739.924791,-5551.544565,-306.438199,11251.130318
739.925120,-3627.009116,-2221.676944,8882.471304
739.925449,-1998.556043,-3447.429741,7105.977043
739.925778,-592.164754,-2911.162892,6439.791695
739.926107,74.020594,-459.657299,6365.771101
739.926436,222.061783,2068.457845,5699.585753
739.926765,0.000000,3677.258390,6069.688724
739.927095,-222.061783,3524.039291,8734.430116
739.927424,-1924.535449,3907.087040,11251.130318
739.927753,-3849.070898,3294.210641,13101.645173
739.928082,-5625.565159,2374.896044,13619.789333
739.928411,-6587.832884,1685.410096,12953.603985
739.928740,-5921.647536,306.438199,11547.212695
739.929069,-3182.885551,-2451.505594,9770.718434
739.929399,-518.144159,-3064.381992,7772.162391
739.929728,2220.617826,-1608.800546,6439.791695
739.930057,4145.153275,-306.438199,6439.791695
739.930386,4885.359217,1838.629195,7105.977043
739.930715,3404.947333,3294.210641,7254.018232
739.931044,2146.597232,3907.087040,9326.594869
739.931373,740.205942,3830.477490,11843.295072
739.931702,-1332.370696,4136.915689,13619.789333
739.932032,-3923.091493,2681.334243,14211.954086
739.932361,-5551.544565,842.705048,13323.706956
739.932690,-5699.585753,-459.657299,11843.295072
739.933019,-4515.256246,-1685.410096,9104.533087
739.933348,-2146.597232,-3140.991542,6439.791695
739.933677,518.144159,-3064.381992,4959.379811
739.934006,2886.803174,-1762.019645,4663.297435
739.934335,3849.070898,459.657299,5477.523971
739.934665,3478.967927,3370.820191,7031.956449
739.934994,2368.659014,5132.839837,8808.450710
739.935323,296.082377,5745.716235,11103.089130
739.935652,-1702.473667,4903.011187,12139.377449
739.935981,-3478.967927,3600.648841,12435.459826
739.936310,-4293.194464,612.876398,12953.603985
739.936639,-4441.235652,-1225.752797,12213.398043
739.936969,-3923.091493,-2298.286494,10881.027347
739.937298,-2220.617826,-2528.115143,9104.533087
739.937627,444.123565,-2834.553343,6957.935855
739.937956,3108.864956,-1378.971896,5995.668130
739.938285,4589.276840,-153.219100,5699.585753
739.938614,4959.379811,1225.752797,6735.874072
739.938943,3923.091493,2987.772442,8882.471304
739.939272,1924.535449,4903.011187,10807.006753
739.939602,-592.164754,4519.963438,13175.665768
739.939931,-3256.906145,4290.134789,14211.954086
739.940260,-5477.523971,2757.943793,13841.851115
739.940589,-5921.647536,459.657299,12435.459826
739.940918,-4737.318029,-1532.190996,9992.780217
739.941247,-3108.864956,-2911.162892,8216.285956
739.941576,-1480.411884,-3217.601092,6957.935855
739.941905,-222.061783,-1838.629195,6513.812290
739.942235,148.041188,766.095498,5551.544565
739.942564,222.061783,2834.553343,5329.482782
739.942893,370.102971,3217.601092,7328.038826
739.943222,-814.226536,3830.477490,9622.677246
739.943551,-2368.659014,3830.477490,12065.356855
739.943880,-4367.215058,2987.772442,13323.706956
739.944209,-6069.688724,2374.896044,13471.748144
739.944539,-6513.812290,1838.629195,12509.480420
739.944868,-4737.318029,-1455.581446,10732.986159
739.945197,-2146.597232,-2681.334243,8734.430116
739.945526,592.164754,-2221.676944,6957.935855
739.945855,2886.803174,-766.095498,6069.688724
739.946184,4663.297435,153.219100,5921.647536
739.946513,3997.112087,2298.286494,6513.812290
739.946842,3034.844362,3217.601092,7846.182985
739.947172,1998.556043,3677.258390,10066.800811
739.947501,370.102971,4060.306139,12287.418637
739.947830,-2294.638420,2987.772442,13767.830521
739.948159,-4663.297435,2145.067394,14211.954086
739.948488,-5995.668130,766.095498,13249.686362
739.948817,-5329.482782,-919.314598,11029.068536
739.949146,-3627.009116,-2451.505594,8364.327145
739.949476,-1258.350101,-2834.553343,6069.688724
739.949805,1480.411884,-2757.943793,5107.421000
739.950134,3330.926739,-1455.581446,5403.503377
739.950463,3627.009116,1302.362347,6291.750507
739.950792,2886.803174,3753.867940,7994.224174
739.951121,1480.411884,4673.182538,10288.862594
739.951450,-592.164754,5209.449386,12065.356855
739.951779,-2664.741391,4596.572988,12213.398043
739.952109,-3627.009116,2374.896044,12805.562797
739.952438,-3997.112087,0.000000,12583.501014
739.952767,-3849.070898,-1685.410096,12213.398043
739.953096,-3182.885551,-2068.457845,10510.924376
739.953425,-1332.370696,-2298.286494,8438.347739
739.953754,1110.308913,-1685.410096,6883.915261
739.954083,3552.988522,-766.095498,6069.688724
739.954412,4515.256246,306.438199,5995.668130
739.954742,4293.194464,1608.800546,6883.915261
739.955071,3256.906145,3600.648841,8808.450710
739.955400,1332.370696,4213.525239,11029.068536
739.955729,-1776.494261,4903.011187,13101.645173
739.956058,-4441.235652,3830.477490,14063.912898
739.956387,-5995.668130,2145.067394,13397.727550
739.956716,-5477.523971,459.657299,11399.171507
739.957046,-4219.173869,-2298.286494,8882.471304
739.957375,-2442.679609,-3447.429741,7476.080014
739.957704,-1036.288319,-3370.820191,6439.791695
739.958033,-370.102971,-612.876398,5403.503377
739.958362,0.000000,842.705048,4663.297435
739.958691,370.102971,2681.334243,5773.606348
739.959020,-296.082377,3677.258390,8586.388927
739.959349,-2146.597232,3983.696590,11473.192101
739.959679,-4219.173869,3753.867940,13101.645173
739.960008,-6143.709319,2528.115143,13545.768739
739.960337,-7031.956449,1915.238745,13027.624579
739.960666,-5773.606348,-612.876398,11991.336260
739.960995,-3478.967927,-2604.724693,10214.842000
739.961324,-592.164754,-2528.115143,7772.162391
739.961653,2294.638420,-1915.238745,6809.894666
739.961982,4219.173869,-612.876398,6439.791695
739.962312,4737.318029,1149.143247,6883.915261
739.962641,3997.112087,2987.772442,7476.080014
739.962970,2886.803174,4136.915689,9104.533087
739.963299,1480.411884,4596.572988,11251.130318
739.963628,-592.164754,3447.429741,13397.727550
739.963957,-3404.947333,2451.505594,14211.954086
739.964286,-5551.544565,1378.971896,14137.933492
739.964616,-5847.626942,0.000000,12065.356855
739.964945,-4663.297435,-1838.629195,9548.656652
739.965274,-2738.761985,-2834.553343,6883.915261
739.965603,0.000000,-3064.381992,5033.400406
739.965932,2368.659014,-2681.334243,4663.297435
739.966261,3997.112087,-229.828649,5329.482782
739.966590,3701.029710,2911.162892,6513.812290
739.966919,2442.679609,4519.963438,8808.450710
739.967249,370.102971,5209.449386,10658.965565
739.967578,-1554.432478,5286.058936,12139.377449
739.967907,-3034.844362,3217.601092,13175.665768
739.968236,-3923.091493,995.924147,13397.727550
739.968565,-4589.276840,-612.876398,12509.480420
739.968894,-4071.132681,-2068.457845,10807.006753
739.969223,-2146.597232,-2528.115143,8808.450710
739.969553,740.205942,-2145.067394,7328.038826
739.969882,3256.906145,-1225.752797,5921.647536
739.970211,4885.359217,-229.828649,5847.626942
739.970540,4959.379811,2068.457845,6661.853478
739.970869,4293.194464,3753.867940,8290.306550
739.971198,2442.679609,4136.915689,10955.047942
739.971527,-518.144159,4749.792088,12805.562797
739.971856,-3627.009116,4596.572988,14063.912898
739.972186,-5625.565159,2604.724693,14137.933492
739.972515,-6217.729913,689.485948,12583.501014
739.972844,-5477.523971,-1455.581446,10510.924376
739.973173,-4145.153275,-2911.162892,7994.224174
739.973502,-1998.556043,-3983.696590,6735.874072
739.973831,-296.082377,-2221.676944,6365.771101
739.974160,74.020594,229.828649,6217.729913
739.974489,0.000000,2145.067394,5921.647536
739.974819,-222.061783,4596.572988,6883.915261
739.975148,-592.164754,4519.963438,8956.491898
739.975477,-1258.350101,3600.648841,11103.089130
739.975806,-2960.823768,2911.162892,12435.459826
739.976135,-5551.544565,2451.505594,12435.459826
739.976464,-6217.729913,1302.362347,12509.480420
739.976793,-5551.544565,-383.047749,11547.212695
739.977123,-3034.844362,-1762.019645,9844.739029
739.977452,-222.061783,-2681.334243,7994.224174
739.977781,1924.535449,-1608.800546,6439.791695
739.978110,3552.988522,-229.828649,6217.729913
739.978439,3923.091493,1072.533697,6587.832884
739.978768,3034.844362,2681.334243,7846.182985
739.979097,1554.432478,3753.867940,9770.718434
739.979426,148.041188,3370.820191,11325.150913
739.979756,-2368.659014,3217.601092,12879.583391
739.980085,-3923.091493,2068.457845,14211.954086
739.980414,-5329.482782,612.876398,14137.933492
739.980743,-5477.523971,-383.047749,11843.295072
739.981072,-4071.132681,-1762.019645,9104.533087
739.981401,-1110.308913,-2987.772442,6809.894666
739.981730,1332.370696,-3140.991542,5255.462188
739.982059,3182.885551,-1762.019645,4885.359217
739.982389,4145.153275,383.047749,5847.626942
739.982718,3182.885551,3217.601092,7476.080014
739.983047,1924.535449,5362.668486,9622.677246
739.983376,0.000000,5439.278036,11547.212695
739.983705,-2072.576638,4826.401637,12805.562797
739.984034,-3478.967927,2451.505594,12731.542202
739.984363,-4219.173869,306.438199,12805.562797
739.984693,-3997.112087,-1149.143247,12213.398043
739.985022,-3775.050304,-1915.238745,9918.759623
739.985351,-2072.576638,-2451.505594,8364.327145
739.985680,148.041188,-1915.238745,6809.894666
739.986009,2590.720797,-1149.143247,5625.565159
739.986338,4441.235652,0.000000,5921.647536
739.986667,4071.132681,1455.581446,6513.812290
739.986996,2886.803174,3064.381992,8438.347739
739.987326,1184.329507,4213.525239,11177.109724
739.987655,-1406.391290,4366.744339,13175.665768
739.987984,-3997.112087,3983.696590,13915.871710
739.988313,-5699.585753,2604.724693,13397.727550
739.988642,-5921.647536,306.438199,11769.274478
739.988971,-4515.256246,-1608.800546,9622.677246
739.989300,-2590.720797,-2911.162892,7328.038826
739.989630,-962.267725,-3370.820191,6291.750507
739.989959,0.000000,-1685.410096,6217.729913
739.990288,222.061783,612.876398,6735.874072
739.990617,-296.082377,2911.162892,7179.997637
739.990946,-1406.391290,4519.963438,8438.347739
739.991275,-2220.617826,4213.525239,10362.883188
739.991604,-2886.803174,2987.772442,11991.336260
739.991933,-4811.338623,2221.676944,12657.521608
739.992263,-5921.647536,1762.019645,12583.501014
739.992592,-6069.688724,383.047749,11695.253884
739.992921,-4737.318029,-995.924147,10140.821405
739.993250,-2146.597232,-1991.848295,8586.388927
739.993580,888.247130,-1991.848295,7179.997637
739.993909,2960.823768,-536.266849,6587.832884
739.994238,4145.153275,1149.143247,6661.853478
739.994567,3701.029710,2451.505594,7105.977043
739.994896,2812.782580,2911.162892,8734.430116
739.995226,1184.329507,2604.724693,11177.109724
739.995555,-444.123565,3370.820191,13175.665768
739.995884,-3256.906145,3064.381992,13841.851115
739.996213,-4811.338623,1608.800546,13619.789333
739.996542,-4959.379811,-306.438199,12361.439231
739.996872,-4145.153275,-1762.019645,9918.759623
739.997201,-2146.597232,-2528.115143,6735.874072
739.997530,444.123565,-2987.772442,5181.441594
739.997859,2590.720797,-2145.067394,4885.359217
739.998188,3330.926739,-153.219100,5477.523971
739.998518,3404.947333,1838.629195,6957.935855
739.998847,2294.638420,4519.963438,8512.368333
739.999176,296.082377,5515.887586,10881.027347
739.999505,-1702.473667,4979.620737,12435.459826
739.999834,-3330.926739,2757.943793,13471.748144
740.000164,-4663.297435,842.705048,13619.789333
740.000493,-4737.318029,-766.095498,12879.583391
740.000822,-4367.215058,-1838.629195,11325.150913
740.001151,-2664.741391,-2145.067394,9326.594869
740.001480,148.041188,-2221.676944,7254.018232
740.001810,3182.885551,-1608.800546,5773.606348
740.002139,5181.441594,-229.828649,5477.523971
740.002468,5847.626942,1455.581446,5847.626942
740.002797,4811.338623,3064.381992,8142.265362
740.003126,2442.679609,4290.134789,10658.965565
740.003456,-148.041188,4903.011187,12879.583391
740.003785,-2886.803174,4826.401637,14285.974681
740.004114,-5033.400406,3677.258390,14285.974681
740.004443,-6365.771101,1225.752797,13027.624579
740.004772,-6291.750507,-766.095498,10658.965565
740.005102,-4663.297435,-2757.943793,7772.162391
740.005431,-2590.720797,-3830.477490,6439.791695
740.005760,-888.247130,-2451.505594,5847.626942
740.006089,-296.082377,-1225.752797,5625.565159
740.006418,0.000000,1378.971896,6587.832884
740.006748,-592.164754,3830.477490,7698.141797
740.007077,-1258.350101,4903.011187,9104.533087
740.007406,-1776.494261,4213.525239,10510.924376
740.007735,-2886.803174,2757.943793,11621.233289
740.008064,-4367.215058,1762.019645,11991.336260
740.008394,-5181.441594,766.095498,11695.253884
740.008723,-4959.379811,-459.657299,10955.047942
740.009052,-3330.926739,-1532.190996,9548.656652
740.009381,-814.226536,-1302.362347,8068.244768
740.009710,1702.473667,-1685.410096,7698.141797
740.010040,3034.844362,-153.219100,6883.915261
740.010369,3627.009116,766.095498,6809.894666
740.010698,3034.844362,2145.067394,7772.162391
740.011027,1776.494261,2757.943793,9474.636058
740.011356,-444.123565,3753.867940,11843.295072
740.011686,-2368.659014,3064.381992,13545.768739
740.012015,-4589.276840,2451.505594,14211.954086
740.012344,-5699.585753,1072.533697,13545.768739
740.012673,-5625.565159,-459.657299,11769.274478
740.013002,-4293.194464,-1991.848295,8734.430116
740.013332,-1850.514855,-3140.991542,6809.894666
740.013661,296.082377,-2911.162892,5255.462188
740.013990,2294.638420,-1532.190996,5181.441594
740.014319,2960.823768,919.314598,5921.647536
740.014648,2664.741391,2604.724693,7031.956449
740.014978,2146.597232,4213.525239,9400.615463
740.015307,0.000000,5209.449386,11325.150913
740.015636,-1776.494261,4903.011187,12805.562797
740.015965,-3256.906145,2528.115143,13841.851115
740.016294,-4071.132681,919.314598,13323.706956
740.016624,-4219.173869,0.000000,12287.418637
740.016953,-3478.967927,-1378.971896,10584.944971
740.017282,-1776.494261,-2221.676944,8438.347739
740.017611,888.247130,-2298.286494,6513.812290
740.017940,3182.885551,-1149.143247,5699.585753
740.018270,4663.297435,153.219100,5551.544565
740.018599,4367.215058,2068.457845,6291.750507
740.018928,3034.844362,2757.943793,7994.224174
740.019257,1184.329507,3677.258390,10510.924376
740.019586,-1480.411884,4519.963438,12731.542202
740.019916,-3701.029710,4290.134789,13767.830521
740.020245,-6069.688724,2757.943793,13619.789333
740.020574,-6217.729913,919.314598,12213.398043
740.020903,-4959.379811,-1225.752797,9548.656652
740.021232,-2960.823768,-3370.820191,7476.080014
740.021562,-1184.329507,-3217.601092,6439.791695
740.021891,74.020594,-1378.971896,6143.709319
740.022220,814.226536,153.219100,6735.874072
740.022549,370.102971,2528.115143,7402.059420
740.022878,-444.123565,4596.572988,7920.203579
740.023208,-1110.308913,4826.401637,9326.594869
740.023537,-1776.494261,3600.648841,11177.109724
740.023866,-3552.988522,2451.505594,12583.501014
740.024195,-5403.503377,1378.971896,12879.583391
740.024524,-6217.729913,689.485948,12435.459826
740.024854,-5255.462188,-536.266849,11177.109724
740.025183,-3034.844362,-1762.019645,8734.430116
740.025512,74.020594,-2451.505594,7476.080014
740.025841,2294.638420,-1685.410096,6661.853478
740.026170,3552.988522,76.609550,6587.832884
740.026500,3256.906145,1532.190996,7105.977043
740.026829,2368.659014,2911.162892,8290.306550
740.027158,888.247130,3677.258390,10362.883188
740.027487,-1110.308913,3294.210641,12287.418637
740.027816,-3182.885551,2298.286494,14137.933492
740.028146,-5255.462188,1685.410096,14285.974681
740.028475,-6143.709319,383.047749,13101.645173
740.028804,-5403.503377,-1532.190996,10584.944971
740.029133,-3404.947333,-2681.334243,8142.265362
740.029462,-370.102971,-3294.210641,5699.585753
740.029792,2368.659014,-2681.334243,4737.318029
740.030121,3627.009116,-1149.143247,4885.359217
740.030450,3849.070898,1532.190996,5847.626942
740.030779,3182.885551,3907.087040,8364.327145
740.031108,1554.432478,4903.011187,10807.006753
740.031438,-592.164754,5822.325785,12509.480420
740.031767,-2664.741391,4213.525239,13397.727550
740.032096,-4145.153275,1838.629195,13545.768739
740.032425,-4885.359217,-229.828649,12879.583391
740.032754,-4885.359217,-1302.362347,11621.233289
740.033084,-3552.988522,-2374.896044,9696.697840
740.033413,-962.267725,-2451.505594,7772.162391
740.033742,1776.494261,-1991.848295,6069.688724
740.034071,4071.132681,-842.705048,5107.421000
740.034400,4811.338623,1149.143247,5699.585753
740.034730,4441.235652,2911.162892,7179.997637
740.035059,2812.782580,3907.087040,9622.677246
740.035388,666.185348,4596.572988,11843.295072
740.035717,-2220.617826,4826.401637,13323.706956
740.036046,-4145.153275,3524.039291,14582.057057
740.036376,-5551.544565,1991.848295,13767.830521
740.036705,-5699.585753,306.438199,11621.233289
740.037034,-4367.215058,-1685.410096,8956.491898
740.037363,-1850.514855,-2911.162892,6957.935855
740.037693,0.000000,-2681.334243,6069.688724
740.038022,814.226536,-995.924147,5921.647536
740.038351,962.267725,1225.752797,6217.729913
740.038680,148.041188,3294.210641,7254.018232
740.039009,-888.247130,4979.620737,9178.553681
740.039339,-1702.473667,4673.182538,9918.759623
740.039668,-2812.782580,3294.210641,11473.192101
740.039997,-4145.153275,1991.848295,11917.315666
740.040326,-5181.441594,995.924147,11991.336260
740.040655,-5551.544565,0.000000,11029.068536
740.040985,-4367.215058,-919.314598,9844.739029
740.041314,-2442.679609,-1072.533697,8290.306550
740.041643,74.020594,-1455.581446,7105.977043
740.041972,2516.700203,-919.314598,6661.853478
740.042301,3256.906145,0.000000,6735.874072
740.042631,2886.803174,2374.896044,7254.018232
740.042960,1554.432478,2911.162892,8586.388927
740.043289,74.020594,3217.601092,11029.068536
740.043618,-1776.494261,3064.381992,13027.624579
740.043947,-3849.070898,1915.238745,14359.995275
740.044277,-5329.482782,1149.143247,14211.954086
740.044606,-5477.523971,-153.219100,12065.356855
740.044935,-4219.173869,-1838.629195,10066.800811
740.045264,-1924.535449,-2911.162892,7698.141797
740.045593,740.205942,-3370.820191,5477.523971
740.045923,2738.761985,-2221.676944,5181.441594
740.046252,3775.050304,153.219100,5995.668130
740.046581,3552.988522,2528.115143,7105.977043
740.046910,2294.638420,4136.915689,9104.533087
740.047239,370.102971,4903.011187,11177.109724
740.047569,-1702.473667,5132.839837,12583.501014
740.047898,-3034.844362,3447.429741,13101.645173
740.048227,-4367.215058,689.485948,13027.624579
740.048556,-4959.379811,-919.314598,12657.521608
740.048885,-4737.318029,-1302.362347,11325.150913
740.049215,-2960.823768,-2068.457845,9030.512492
740.049544,-222.061783,-2221.676944,7179.997637
740.049873,2664.741391,-1378.971896,5699.585753
740.050202,3997.112087,-612.876398,5403.503377
740.050531,4589.276840,1149.143247,6217.729913
740.050861,3775.050304,2681.334243,7550.100608
740.051190,2072.576638,4060.306139,10140.821405
740.051519,0.000000,4749.792088,12065.356855
740.051848,-2664.741391,4443.353888,13915.871710
740.052177,-4811.338623,3140.991542,14063.912898
740.052507,-5403.503377,1378.971896,12731.542202
740.052836,-4737.318029,-612.876398,10510.924376
740.053165,-2738.761985,-1991.848295,8364.327145
740.053494,-1628.453072,-2451.505594,6735.874072
740.053823,-222.061783,-2068.457845,6069.688724
740.054153,444.123565,0.000000,6143.709319
740.054482,518.144159,1915.238745,6661.853478
740.054811,-296.082377,3983.696590,7698.141797
740.055140,-1628.453072,4979.620737,9474.636058
740.055469,-2442.679609,4060.306139,11251.130318
740.055799,-3627.009116,3140.991542,12435.459826
740.056128,-5329.482782,2145.067394,12583.501014
740.056457,-6069.688724,1072.533697,12065.356855
740.056786,-5255.462188,0.000000,11103.089130
740.057115,-3404.947333,-1915.238745,8956.491898
740.057445,-666.185348,-1762.019645,7328.038826
740.057774,2072.576638,-1608.800546,6587.832884
740.058103,3552.988522,0.000000,6365.771101
740.058432,3923.091493,1762.019645,6957.935855
740.058761,2664.741391,2757.943793,8068.244768
740.059091,1776.494261,3677.258390,9696.697840
740.059420,0.000000,3140.991542,12065.356855
740.059749,-2442.679609,2451.505594,13915.871710
740.060078,-4367.215058,2374.896044,14359.995275
740.060407,-5477.523971,1072.533697,13175.665768
740.060737,-4959.379811,-1378.971896,11473.192101
740.061066,-3256.906145,-2451.505594,8660.409521
740.061395,-1036.288319,-3140.991542,6217.729913
740.061724,1702.473667,-3294.210641,4737.318029
740.062053,3330.926739,-689.485948,5329.482782
740.062383,3552.988522,766.095498,5625.565159
740.062712,3034.844362,3140.991542,7994.224174
740.063041,1406.391290,4596.572988,10066.800811
740.063370,-814.226536,5439.278036,12139.377449
740.063699,-2590.720797,4519.963438,12805.562797
740.064029,-4071.132681,2374.896044,13027.624579
740.064358,-4737.318029,-306.438199,12953.603985
740.064687,-4737.318029,-1378.971896,12065.356855
740.065016,-3775.050304,-2298.286494,10214.842000
740.065345,-1480.411884,-2604.724693,8216.285956
740.065675,1554.432478,-2298.286494,6365.771101
740.066004,3701.029710,-1072.533697,5921.647536
740.066333,4959.379811,612.876398,5995.668130
740.066662,4811.338623,2298.286494,6883.915261
740.066991,3478.967927,3217.601092,8882.471304
740.067321,1702.473667,3907.087040,11695.253884
740.067650,-888.247130,4826.401637,13397.727550
740.067979,-3552.988522,3677.258390,14508.036463
740.068308,-5403.503377,2451.505594,13915.871710
740.068637,-5625.565159,459.657299,12139.377449
740.068967,-3923.091493,-2221.676944,9622.677246
740.069296,-3034.844362,-2987.772442,6809.894666
740.069625,-962.267725,-3064.381992,6291.750507
740.069954,296.082377,-1455.581446,5921.647536
740.070283,814.226536,842.705048,6291.750507
740.070613,148.041188,3140.991542,6587.832884
740.070942,-888.247130,4979.620737,7476.080014
740.071271,-1628.453072,4596.572988,9400.615463
740.071600,-2368.659014,3524.039291,11325.150913
740.071929,-4145.153275,2451.505594,11991.336260
740.072259,-5773.606348,1608.800546,12139.377449
740.072588,-5921.647536,612.876398,11843.295072
740.072917,-4515.256246,-1225.752797,10362.883188
740.073246,-2368.659014,-1685.410096,8808.450710
740.073575,222.061783,-1685.410096,7179.997637
740.073905,2516.700203,-919.314598,6439.791695
740.074234,3552.988522,229.828649,5921.647536
740.074563,3552.988522,2374.896044,6883.915261
740.074892,2664.741391,3217.601092,8660.409521
740.075221,888.247130,3370.820191,10584.944971
740.075551,-888.247130,3294.210641,13101.645173
740.075880,-3034.844362,2528.115143,14582.057057
740.076209,-4737.318029,2221.676944,14508.036463
740.076538,-5255.462188,0.000000,12953.603985
740.076867,-4441.235652,-1532.190996,10214.842000
740.077197,-2516.700203,-2757.943793,7476.080014
740.077526,148.041188,-3600.648841,5699.585753
740.077855,2220.617826,-2221.676944,5181.441594
740.078184,3034.844362,-689.485948,5403.503377
740.078513,2960.823768,2374.896044,6661.853478
740.078843,2294.638420,3600.648841,8734.430116
740.079172,592.164754,4903.011187,10732.986159
740.079501,-1480.411884,5515.887586,12287.418637
740.079830,-3182.885551,3830.477490,12435.459826
740.080159,-4219.173869,1149.143247,12731.542202
740.080489,-4737.318029,-689.485948,12657.521608
740.080818,-4441.235652,-1378.971896,11769.274478
740.081147,-3108.864956,-2145.067394,9474.636058
740.081476,-592.164754,-2451.505594,7328.038826
740.081806,1924.535449,-1838.629195,5773.606348
740.082135,4367.215058,-1149.143247,5403.503377
740.082464,5403.503377,153.219100,5921.647536
740.082793,4589.276840,2298.286494,6957.935855
740.083122,2738.761985,4213.525239,9548.656652
740.083452,222.061783,4596.572988,12213.398043
740.083781,-2220.617826,4596.572988,14137.933492
740.084110,-4515.256246,3600.648841,14285.974681
740.084439,-5699.585753,1608.800546,13027.624579
740.084768,-5107.421000,0.000000,10955.047942
740.085098,-3627.009116,-2374.896044,8808.450710
740.085427,-1850.514855,-3524.039291,6587.832884
740.085756,-740.205942,-2987.772442,6217.729913
740.086085,222.061783,-612.876398,6291.750507
740.086414,74.020594,1225.752797,6957.935855
740.086744,-962.267725,3600.648841,7254.018232
740.087073,-1702.473667,4673.182538,9030.512492
740.087402,-2294.638420,3753.867940,10658.965565
740.087731,-3108.864956,2681.334243,11991.336260
740.088060,-4663.297435,1838.629195,12583.501014
740.088390,-5773.606348,1302.362347,12065.356855
740.088719,-5329.482782,76.609550,11399.171507
740.089048,-3478.967927,-1149.143247,9992.780217
740.089377,-1036.288319,-1608.800546,8216.285956
740.089706,1924.535449,-1455.581446,7179.997637
740.090036,3775.050304,612.876398,6439.791695
740.090365,4145.153275,1532.190996,6143.709319
740.090694,3330.926739,2757.943793,7698.141797
740.091023,1850.514855,3370.820191,9252.574275
740.091352,222.061783,3677.258390,11769.274478
740.091682,-2220.617826,3600.648841,13397.727550
740.092011,-4441.235652,2834.553343,13915.871710
740.092340,-5773.606348,1302.362347,13101.645173
740.092669,-5181.441594,-842.705048,11547.212695
740.092998,-3701.029710,-2298.286494,8734.430116
740.093328,-1480.411884,-2987.772442,6069.688724
740.093657,1406.391290,-2604.724693,4959.379811
740.093986,3182.885551,-1608.800546,4959.379811
740.094315,3627.009116,1072.533697,5699.585753
740.094645,3182.885551,3370.820191,7476.080014
740.094974,1998.556043,4519.963438,9548.656652
740.095303,148.041188,5286.058936,11473.192101
740.095632,-1776.494261,4366.744339,13175.665768
740.095962,-3404.947333,2451.505594,13767.830521
740.096291,-4737.318029,306.438199,13397.727550
740.096620,-4589.276840,-1072.533697,12287.418637
740.096950,-3182.885551,-2298.286494,10732.986159
740.097279,-888.247130,-2528.115143,8364.327145
740.097608,1776.494261,-2528.115143,6439.791695
740.097937,4145.153275,-1762.019645,5551.544565
740.098267,5255.462188,153.219100,5551.544565
740.098596,5181.441594,2374.896044,6883.915261
740.098925,4145.153275,3217.601092,8734.430116
740.099254,1924.535449,4213.525239,11621.233289
740.099584,-888.247130,4443.353888,13545.768739
740.099913,-3552.988522,3524.039291,14285.974681
740.100242,-5403.503377,1991.848295,13989.892304
740.100572,-5773.606348,229.828649,11843.295072
740.100901,-4959.379811,-1685.410096,9696.697840
740.101230,-3404.947333,-3370.820191,7550.100608
740.101559,-1702.473667,-3370.820191,6587.832884
740.101889,-370.102971,-1838.629195,6217.729913
740.102218,222.061783,153.219100,6291.750507
740.102547,0.000000,2681.334243,6439.791695
740.102876,-666.185348,4519.963438,7624.121203
740.103206,-1110.308913,4213.525239,9474.636058
740.103535,-2146.597232,3370.820191,10955.047942
740.103864,-3552.988522,2604.724693,12065.356855
740.104194,-5107.421000,1762.019645,12361.439231
740.104523,-5921.647536,306.438199,11991.336260
740.104852,-4885.359217,-536.266849,10955.047942
740.105181,-2664.741391,-1685.410096,9326.594869
740.105511,-518.144159,-2068.457845,7550.100608
740.105840,2294.638420,-612.876398,6587.832884
740.106169,3849.070898,-229.828649,6661.853478
740.106498,3404.947333,1685.410096,7105.977043
740.106828,2368.659014,2834.553343,8290.306550
740.107157,962.267725,3140.991542,10436.903782
740.107486,-592.164754,3370.820191,12509.480420
740.107816,-3034.844362,2834.553343,13545.768739
740.108145,-4885.359217,2374.896044,14137.933492
740.108474,-5403.503377,842.705048,13027.624579
740.108803,-4959.379811,-995.924147,10362.883188
740.109133,-3108.864956,-2298.286494,7920.203579
740.109462,-666.185348,-2528.115143,5699.585753
740.109791,1480.411884,-2451.505594,4811.338623
740.110121,2812.782580,-536.266849,5403.503377
740.110450,3182.885551,1762.019645,6143.709319
740.110779,2590.720797,3677.258390,7920.203579
740.111108,1480.411884,5132.839837,10362.883188
740.111438,-518.144159,5745.716235,12065.356855
740.111767,-2516.700203,4213.525239,12509.480420
740.112096,-3775.050304,1838.629195,13101.645173
740.112425,-4515.256246,0.000000,13101.645173
740.112755,-4515.256246,-995.924147,11991.336260
740.113084,-2960.823768,-1915.238745,9548.656652
740.113413,-814.226536,-2145.067394,7772.162391
740.113743,1776.494261,-1991.848295,6069.688724
740.114072,4293.194464,-1302.362347,5551.544565
740.114401,5255.462188,-153.219100,5773.606348
740.114730,5033.400406,1532.190996,7105.977043
740.115060,3256.906145,3983.696590,9178.553681
740.115389,1036.288319,3907.087040,11917.315666
740.115718,-1776.494261,4060.306139,13989.892304
740.116047,-4293.194464,3600.648841,14285.974681
740.116377,-5699.585753,1838.629195,13693.809927
740.116706,-5329.482782,76.609550,11325.150913
740.117035,-4293.194464,-1838.629195,9400.615463
740.117365,-2738.761985,-3370.820191,7031.956449
740.117694,-1184.329507,-3294.210641,6291.750507
740.118023,74.020594,-1455.581446,6291.750507
740.118352,296.082377,995.924147,6365.771101
740.118682,-222.061783,2911.162892,6735.874072
740.119011,-1184.329507,3983.696590,8290.306550
740.119340,-1702.473667,3370.820191,10584.944971
740.119670,-3034.844362,2757.943793,12139.377449
740.119999,-4885.359217,2298.286494,12583.501014
740.120328,-6069.688724,1378.971896,12731.542202
740.120657,-6069.688724,229.828649,11695.253884
740.120987,-3775.050304,-1455.581446,10288.862594
740.121316,-1184.329507,-2451.505594,8216.285956
740.121645,1628.453072,-2451.505594,6957.935855
740.121974,3182.885551,-689.485948,6143.709319
740.122304,3627.009116,766.095498,6735.874072
740.122633,3108.864956,2374.896044,7698.141797
740.122962,2072.576638,3753.867940,9178.553681
740.123292,444.123565,3753.867940,10955.047942
740.123621,-1184.329507,3064.381992,12657.521608
740.123950,-3627.009116,2451.505594,13841.851115
740.124279,-5329.482782,1302.362347,13619.789333
740.124609,-5773.606348,-536.266849,11991.336260
740.124938,-4811.338623,-1608.800546,9474.636058
740.125267,-2516.700203,-2374.896044,6809.894666
740.125596,518.144159,-3064.381992,5329.482782
740.125926,2516.700203,-2068.457845,4737.318029
740.126255,3478.967927,229.828649,5403.503377
740.126584,3404.947333,2834.553343,6809.894666
740.126914,1702.473667,4826.401637,9178.553681
740.127243,370.102971,5286.058936,11177.109724
740.127572,-1850.514855,5745.716235,12879.583391
740.127901,-3478.967927,3600.648841,13471.748144
740.128231,-4219.173869,995.924147,13693.809927
740.128560,-4441.235652,-536.266849,12731.542202
740.128889,-3701.029710,-1302.362347,10955.047942
740.129218,-2220.617826,-2604.724693,8734.430116
740.129548,444.123565,-2374.896044,7105.977043
740.129877,3034.844362,-1225.752797,5847.626942
740.130206,4811.338623,0.000000,5551.544565
740.130536,4959.379811,1685.410096,5847.626942
740.130865,4145.153275,3064.381992,7994.224174
740.131194,2294.638420,3907.087040,10584.944971
740.131523,-222.061783,4366.744339,13101.645173
740.131853,-3108.864956,4443.353888,13915.871710
740.132182,-5329.482782,2604.724693,14063.912898
740.132511,-6143.709319,995.924147,12805.562797
740.132841,-5477.523971,-1225.752797,10584.944971
740.133170,-3552.988522,-2987.772442,8216.285956
740.133499,-1924.535449,-3217.601092,6661.853478
740.133828,0.000000,-2221.676944,6217.729913
740.134158,888.247130,-153.219100,6069.688724
740.134487,888.247130,2221.676944,5847.626942
740.134816,0.000000,4136.915689,6809.894666
740.135145,-666.185348,4136.915689,8956.491898
740.135475,-1924.535449,3524.039291,11325.150913
740.135804,-4071.132681,3064.381992,12435.459826
740.136133,-5699.585753,2451.505594,13027.624579
740.136463,-6661.853478,919.314598,12435.459826
740.136792,-5477.523971,-536.266849,11473.192101
740.137121,-3478.967927,-2145.067394,9474.636058
740.137450,-666.185348,-1991.848295,7772.162391
740.137780,1776.494261,-1225.752797,6513.812290
740.138109,3108.864956,0.000000,6661.853478
740.138438,3775.050304,995.924147,7105.977043
740.138767,2812.782580,2681.334243,8216.285956
740.139097,1406.391290,3677.258390,9992.780217
740.139426,-296.082377,3677.258390,11325.150913
740.139755,-2146.597232,3217.601092,13471.748144
740.140085,-4219.173869,2451.505594,14063.912898
740.140414,-5477.523971,1072.533697,13545.768739
740.140743,-5033.400406,-612.876398,11325.150913
740.141072,-3701.029710,-1838.629195,8290.306550
740.141402,-1184.329507,-2681.334243,6587.832884
740.141731,1036.288319,-2987.772442,5403.503377
740.142060,2294.638420,-995.924147,5403.503377
740.142390,3034.844362,1378.971896,5995.668130
740.142719,2590.720797,3370.820191,7402.059420
740.143048,1332.370696,4519.963438,9400.615463
740.143377,-962.267725,5132.839837,11843.295072
740.143707,-2812.782580,4673.182538,12731.542202
740.144036,-4071.132681,2451.505594,13027.624579
740.144365,-4367.215058,383.047749,12805.562797
740.144694,-4145.153275,-995.924147,11991.336260
740.145024,-3108.864956,-1915.238745,10362.883188
740.145353,-1184.329507,-2451.505594,8142.265362
740.145682,1184.329507,-1762.019645,6365.771101
740.146012,3627.009116,-766.095498,5699.585753
740.146341,4885.359217,536.266849,5847.626942
740.146670,4737.318029,2068.457845,6587.832884
740.146999,3182.885551,3294.210641,8882.471304
740.147329,1332.370696,4136.915689,11103.089130
740.147658,-1258.350101,4596.572988,13027.624579
740.147987,-3701.029710,4136.915689,13841.851115
740.148316,-5403.503377,2145.067394,13915.871710
740.148646,-5773.606348,229.828649,12213.398043
740.148975,-4885.359217,-1225.752797,9474.636058
740.149304,-2812.782580,-2834.553343,7179.997637
740.149634,-1480.411884,-2911.162892,6143.709319
740.149963,-74.020594,-995.924147,6365.771101
740.150292,0.000000,919.314598,5773.606348
740.150621,-222.061783,2834.553343,5995.668130
740.150951,-1036.288319,3524.039291,7772.162391
740.151280,-1850.514855,3753.867940,10510.924376
740.151609,-3182.885551,3370.820191,12583.501014
740.151939,-5255.462188,2528.115143,13027.624579
740.152268,-6587.832884,1455.581446,12805.562797
740.152597,-5995.668130,536.266849,11843.295072
740.152926,-4071.132681,-1378.971896,10807.006753
740.153256,-1628.453072,-2681.334243,8586.388927
740.153585,1110.308913,-1302.362347,7105.977043
740.153914,3256.906145,-612.876398,6217.729913
740.154243,4293.194464,229.828649,6439.791695
740.154573,4071.132681,2374.896044,7105.977043
740.154902,2664.741391,3140.991542,8660.409521
740.155231,1776.494261,3370.820191,10732.986159
740.155561,-888.247130,3370.820191,12879.583391
740.155890,-3330.926739,3140.991542,13915.871710
740.156219,-5625.565159,1532.190996,13841.851115
740.156548,-5847.626942,0.000000,12657.521608
740.156878,-4589.276840,-1532.190996,9770.718434
740.157207,-3182.885551,-2757.943793,6957.935855
740.157536,-222.061783,-3600.648841,5403.503377
740.157865,1776.494261,-2604.724693,4959.379811
740.158195,2886.803174,-612.876398,5403.503377
740.158524,2664.741391,1991.848295,6513.812290
740.158853,2590.720797,4213.525239,8660.409521
740.159183,666.185348,5209.449386,10955.047942
740.159512,-1480.411884,5209.449386,12435.459826
740.159841,-3182.885551,3753.867940,12805.562797
740.160170,-3849.070898,1225.752797,12953.603985
740.160500,-3775.050304,-383.047749,12731.542202
740.160829,-3849.070898,-1532.190996,11621.233289
740.161158,-2664.741391,-2145.067394,9622.677246
740.161487,-518.144159,-2374.896044,7402.059420
740.161817,2368.659014,-1455.581446,6217.729913
740.162146,4441.235652,0.000000,5699.585753
740.162475,5477.523971,1225.752797,6439.791695
740.162805,4515.256246,2757.943793,8142.265362
740.163134,2220.617826,4136.915689,10140.821405
740.163463,0.000000,4519.963438,12583.501014
740.163792,-2738.761985,4519.963438,13989.892304
740.164122,-5107.421000,3524.039291,14137.933492
740.164451,-6217.729913,1302.362347,12953.603985
740.164780,-5699.585753,-536.266849,10732.986159
740.165110,-3997.112087,-2374.896044,8142.265362
740.165439,-2220.617826,-3447.429741,6513.812290
740.165768,-1036.288319,-2451.505594,5847.626942
740.166097,-148.041188,383.047749,5033.400406
740.166427,518.144159,2145.067394,4885.359217
740.166756,296.082377,2604.724693,6439.791695
740.167085,-666.185348,3753.867940,9104.533087
740.167414,-2072.576638,4673.182538,11695.253884
740.167744,-3849.070898,3524.039291,13175.665768
740.168073,-5995.668130,2451.505594,13249.686362
740.168402,-6735.874072,1532.190996,12657.521608
740.168732,-5329.482782,-1302.362347,11325.150913
740.169061,-2442.679609,-2604.724693,9622.677246
740.169390,-296.082377,-1608.800546,7254.018232
740.169719,2294.638420,-1149.143247,6735.874072
740.170049,3701.029710,-459.657299,6291.750507
740.170378,3849.070898,1455.581446,6513.812290
740.170707,3478.967927,2604.724693,7550.100608
740.171036,2368.659014,3447.429741,9844.739029
740.171366,740.205942,3753.867940,12139.377449
740.171695,-1776.494261,3600.648841,13693.809927
740.172024,-4515.256246,2528.115143,14137.933492
740.172354,-5625.565159,919.314598,13545.768739
740.172683,-5329.482782,-689.485948,11473.192101
740.173012,-3997.112087,-1915.238745,9030.512492
740.173341,-2294.638420,-2834.553343,6439.791695
740.173671,148.041188,-2987.772442,5181.441594
740.174000,2294.638420,-1532.190996,5107.421000
740.174329,3256.906145,919.314598,5773.606348
740.174659,2590.720797,2451.505594,7105.977043
740.174988,1258.350101,4060.306139,9548.656652
740.175317,-592.164754,4826.401637,11843.295072
740.175646,-2738.761985,4060.306139,13249.686362
740.175976,-3849.070898,2681.334243,13619.789333
740.176305,-4441.235652,612.876398,12805.562797
740.176634,-3849.070898,-1072.533697,11917.315666
740.176963,-2886.803174,-2221.676944,10436.903782
740.177293,-1184.329507,-2221.676944,7994.224174
740.177622,1406.391290,-1608.800546,6365.771101
740.177951,3923.091493,-306.438199,5551.544565
740.178281,5181.441594,459.657299,5551.544565
740.178610,4959.379811,2068.457845,6661.853478
740.178939,3627.009116,2681.334243,8586.388927
740.179268,1258.350101,3983.696590,10732.986159
740.179598,-1480.411884,4366.744339,13027.624579
740.179927,-4071.132681,3753.867940,14285.974681
740.180256,-6143.709319,2451.505594,14434.015869
740.180585,-6513.812290,766.095498,12731.542202
740.180915,-5329.482782,-1455.581446,9770.718434
740.181244,-3330.926739,-3217.601092,7031.956449
740.181573,-1480.411884,-2528.115143,5551.544565
740.181903,-444.123565,-2451.505594,5403.503377
740.182232,74.020594,-383.047749,6217.729913
740.182561,-222.061783,2221.676944,7328.038826
740.182890,-1184.329507,3677.258390,8882.471304
740.183220,-2294.638420,4443.353888,10288.862594
740.183549,-2738.761985,3600.648841,11843.295072
740.183878,-3701.029710,2374.896044,12139.377449
740.184207,-4441.235652,1302.362347,12065.356855
740.184537,-4219.173869,229.828649,11547.212695
740.184866,-3330.926739,-1072.533697,10436.903782
740.185195,-1998.556043,-1378.971896,8808.450710
740.185525,222.061783,-1225.752797,7994.224174
740.185854,2294.638420,-306.438199,7105.977043
740.186183,3701.029710,612.876398,6809.894666
740.186512,3552.988522,1608.800546,7105.977043
740.186842,2516.700203,1762.019645,8216.285956
740.187171,962.267725,2451.505594,10658.965565
740.187500,-1332.370696,3217.601092,12657.521608
740.187830,-3701.029710,2987.772442,13249.686362
740.188159,-5107.421000,1762.019645,13323.706956
740.188488,-5255.462188,536.266849,11843.295072
740.188817,-4663.297435,-995.924147,9992.780217
740.189147,-2738.761985,-2298.286494,7179.997637
740.189476,-592.164754,-2451.505594,5329.482782
740.189805,1776.494261,-2145.067394,5033.400406
740.190134,2960.823768,-306.438199,5329.482782
740.190464,3404.947333,1762.019645,6513.812290
740.190793,2294.638420,3600.648841,8364.327145
740.191122,814.226536,4903.011187,10584.944971
740.191452,-1036.288319,4749.792088,12805.562797
740.191781,-2590.720797,3294.210641,14211.954086
740.192110,-3552.988522,1608.800546,14508.036463
740.192439,-4441.235652,0.000000,12879.583391
740.192769,-3849.070898,-1302.362347,11547.212695
740.193098,-1998.556043,-1838.629195,9474.636058
740.193427,518.144159,-2145.067394,7476.080014
740.193757,3330.926739,-1915.238745,5625.565159
740.194086,4959.379811,-229.828649,5403.503377
740.194415,5625.565159,1532.190996,5995.668130
740.194745,4737.318029,2757.943793,7624.121203
740.195074,2516.700203,3983.696590,9770.718434
740.195403,74.020594,4596.572988,12213.398043
740.195733,-2442.679609,3907.087040,14211.954086
740.196062,-4737.318029,3447.429741,14730.098246
740.196391,-6513.812290,1991.848295,13471.748144
740.196720,-6735.874072,-229.828649,10955.047942
740.197050,-5181.441594,-2298.286494,8290.306550
740.197379,-2738.761985,-2834.553343,6143.709319
740.197708,-814.226536,-2987.772442,5181.441594
740.198038,370.102971,-1225.752797,5477.523971
740.198367,814.226536,766.095498,6439.791695
740.198696,74.020594,3294.210641,7624.121203
740.199026,-1184.329507,4290.134789,8882.471304
740.199355,-1776.494261,4673.182538,10658.965565
740.199684,-2812.782580,3447.429741,11769.274478
740.200014,-3923.091493,1838.629195,11917.315666
740.200343,-4737.318029,842.705048,11843.295072
740.200672,-4293.194464,-1225.752797,11029.068536
740.201002,-3478.967927,-1608.800546,10066.800811
740.201331,-1702.473667,-2145.067394,8734.430116
740.201660,222.061783,-1915.238745,8142.265362
740.201990,2368.659014,-919.314598,7476.080014
740.202319,3404.947333,383.047749,7328.038826
740.202648,3404.947333,2145.067394,7328.038826
740.202977,2442.679609,2834.553343,9326.594869
740.203307,962.267725,2681.334243,11621.233289
740.203636,-1480.411884,3217.601092,13175.665768
740.203965,-3923.091493,2681.334243,14063.912898
740.204295,-5403.503377,2145.067394,13249.686362
740.204624,-5625.565159,459.657299,11325.150913
740.204953,-4219.173869,-1838.629195,9178.553681
740.205283,-1998.556043,-3140.991542,6883.915261
740.205612,74.020594,-3217.601092,5551.544565
740.205941,1776.494261,-1302.362347,4737.318029
740.206271,2516.700203,383.047749,5255.462188
740.206600,2590.720797,2298.286494,7179.997637
740.206929,1776.494261,4060.306139,9178.553681
740.207259,148.041188,5132.839837,11547.212695
740.207588,-1850.514855,5209.449386,13027.624579
740.207917,-3034.844362,3064.381992,13619.789333
740.208247,-4145.153275,689.485948,13471.748144
740.208576,-4515.256246,0.000000,12805.562797
740.208905,-3923.091493,-995.924147,11029.068536
740.209234,-2072.576638,-1608.800546,8512.368333
740.209564,740.205942,-1685.410096,5921.647536
740.209893,3552.988522,-1149.143247,5107.421000
740.210222,5181.441594,0.000000,5033.400406
740.210552,5329.482782,1762.019645,5995.668130
740.210881,4071.132681,3524.039291,7698.141797
740.211210,1850.514855,4443.353888,10066.800811
740.211540,-888.247130,4903.011187,12287.418637
740.211869,-3034.844362,4213.525239,14137.933492
740.212198,-5181.441594,3064.381992,14211.954086
740.212528,-6069.688724,1378.971896,12879.583391
740.212857,-5329.482782,-919.314598,10436.903782
740.213186,-3775.050304,-2451.505594,7994.224174
740.213516,-2516.700203,-2987.772442,6069.688724
740.213845,-666.185348,-2221.676944,5773.606348
740.214174,444.123565,-612.876398,6143.709319
740.214504,592.164754,1455.581446,7105.977043
740.214833,-148.041188,3217.601092,7994.224174
740.215162,-1554.432478,4290.134789,9844.739029
740.215491,-2220.617826,4136.915689,11547.212695
740.215821,-3330.926739,2757.943793,11917.315666
740.216150,-4145.153275,1685.410096,12065.356855
740.216479,-4441.235652,76.609550,11621.233289
740.216809,-3701.029710,-1072.533697,10807.006753
740.217138,-2220.617826,-1455.581446,9622.677246
740.217467,-444.123565,-1302.362347,8290.306550
740.217797,1628.453072,-383.047749,7624.121203
740.218126,2886.803174,0.000000,7105.977043
740.218455,3627.009116,1378.971896,7179.997637
740.218785,2368.659014,2145.067394,8142.265362
740.219114,1110.308913,2604.724693,10436.903782
740.219443,-592.164754,2681.334243,12435.459826
740.219773,-3108.864956,2528.115143,13323.706956
740.220102,-4959.379811,1838.629195,13397.727550
740.220431,-5699.585753,306.438199,12287.418637
740.220761,-5181.441594,-995.924147,10510.924376
740.221090,-3404.947333,-2374.896044,7920.203579
740.221419,-962.267725,-2987.772442,5995.668130
740.221748,1480.411884,-2604.724693,4885.359217
740.222078,2812.782580,-1072.533697,4811.338623
740.222407,3182.885551,1225.752797,6365.771101
740.222736,2664.741391,3370.820191,7920.203579
740.223066,1702.473667,4596.572988,10140.821405
740.223395,0.000000,5132.839837,12065.356855
740.223724,-1702.473667,3600.648841,13397.727550
740.224054,-2960.823768,2068.457845,13989.892304
740.224383,-3997.112087,383.047749,13471.748144
740.224712,-4145.153275,-842.705048,11991.336260
740.225042,-2960.823768,-1532.190996,10288.862594
740.225371,-370.102971,-2221.676944,8068.244768
740.225700,1850.514855,-1915.238745,6513.812290
740.226030,3923.091493,-919.314598,5403.503377
740.226359,5181.441594,612.876398,5625.565159
740.226688,4737.318029,2374.896044,6809.894666
740.227018,2368.659014,2987.772442,8734.430116
740.227347,962.267725,4443.353888,11547.212695
740.227676,-1924.535449,4519.963438,13323.706956
740.228005,-4219.173869,3677.258390,14359.995275
740.228335,-5921.647536,2528.115143,13915.871710
740.228664,-5773.606348,919.314598,11843.295072
740.228993,-4145.153275,-1838.629195,9326.594869
740.229323,-2516.700203,-2681.334243,7105.977043
740.229652,-814.226536,-2604.724693,6143.709319
740.229981,148.041188,-919.314598,5921.647536
740.230311,740.205942,919.314598,6217.729913
740.230640,888.247130,2757.943793,6735.874072
740.230969,0.000000,4136.915689,8290.306550
740.231299,-1184.329507,4443.353888,10214.842000
740.231628,-2294.638420,3907.087040,11325.150913
740.231957,-3701.029710,2374.896044,11547.212695
740.232287,-4737.318029,1149.143247,11769.274478
740.232616,-4663.297435,153.219100,11251.130318
740.232945,-3923.091493,-1378.971896,10362.883188
