#time,accel_x,accel_y,accel_z
1060.739612,-888.247130,383.047749,9326.594869
1060.739942,-962.267725,1378.971896,9548.656652
1060.740272,-1036.288319,919.314598,9474.636058
1060.740601,-1036.288319,919.314598,9548.656652
1060.740931,-1184.329507,995.924147,9548.656652
1060.741261,-962.267725,689.485948,9770.718434
1060.741590,-814.226536,842.705048,9696.697840
1060.741920,-1036.288319,689.485948,9548.656652
1060.742250,-1036.288319,689.485948,9474.636058
1060.742579,-1184.329507,612.876398,9548.656652
1060.742909,-962.267725,766.095498,9548.656652
1060.743239,-1332.370696,1149.143247,9104.533087
1060.743568,-1184.329507,536.266849,9326.594869
1060.743898,-1184.329507,1072.533697,9622.677246
1060.744228,-1110.308913,1149.143247,9622.677246
1060.744557,-962.267725,842.705048,9548.656652
1060.744887,-888.247130,1608.800546,9548.656652
1060.745216,-962.267725,1225.752797,9400.615463
1060.745546,-962.267725,766.095498,9622.677246
1060.745876,-1110.308913,842.705048,9548.656652
1060.746205,-962.267725,842.705048,9474.636058
1060.746535,-888.247130,995.924147,9770.718434
1060.746865,-814.226536,995.924147,9548.656652
1060.747194,-1110.308913,1072.533697,9474.636058
1060.747524,-888.247130,1072.533697,9474.636058
1060.747854,-1110.308913,1149.143247,9474.636058
1060.748183,-814.226536,919.314598,9622.677246
1060.748513,-1258.350101,612.876398,9178.553681
1060.748843,-1036.288319,766.095498,8882.471304
1060.749172,-962.267725,919.314598,9474.636058
1060.749502,-962.267725,842.705048,9622.677246
1060.749832,-1036.288319,1072.533697,9622.677246
1060.750161,-888.247130,1149.143247,9474.636058
1060.750491,-1110.308913,919.314598,9178.553681
1060.750821,-962.267725,995.924147,9474.636058
1060.751150,-1110.308913,995.924147,9548.656652
1060.751480,-1110.308913,1072.533697,9622.677246
1060.751810,-888.247130,995.924147,9548.656652
1060.752139,-962.267725,1532.190996,9400.615463
1060.752469,-962.267725,1225.752797,9622.677246
1060.752798,-962.267725,919.314598,9622.677246
1060.753128,-1110.308913,689.485948,9696.697840
1060.753458,-1036.288319,995.924147,9696.697840
1060.753787,-1184.329507,1149.143247,9474.636058
1060.754117,-888.247130,1149.143247,9474.636058
1060.754447,-888.247130,766.095498,9696.697840
1060.754776,-1036.288319,919.314598,9622.677246
1060.755106,-962.267725,919.314598,9622.677246
1060.755436,-1110.308913,919.314598,9622.677246
1060.755765,-962.267725,1072.533697,9548.656652
1060.756095,-814.226536,919.314598,9696.697840
1060.756425,-1036.288319,919.314598,9622.677246
1060.756754,-888.247130,842.705048,9770.718434
1060.757084,-1110.308913,1072.533697,9474.636058
1060.757414,-592.164754,919.314598,9474.636058
1060.757743,-1110.308913,766.095498,9696.697840
1060.758073,-1184.329507,842.705048,9474.636058
1060.758403,-1036.288319,766.095498,9548.656652
1060.758732,-1184.329507,1149.143247,9474.636058
1060.759062,-888.247130,612.876398,9622.677246
1060.759391,-1110.308913,1072.533697,9252.574275
1060.759721,-1110.308913,995.924147,9474.636058
1060.760051,-1110.308913,766.095498,9400.615463
1060.760380,-1036.288319,995.924147,9548.656652
1060.760710,-888.247130,1378.971896,9326.594869
1060.761040,-1332.370696,1072.533697,9252.574275
1060.761369,-1184.329507,766.095498,9548.656652
1060.761699,-962.267725,1302.362347,9548.656652
1060.762029,-962.267725,919.314598,9326.594869
1060.762358,-370.102971,1149.143247,8956.491898
1060.762688,370.102971,995.924147,9178.553681
1060.763018,888.247130,842.705048,9474.636058
1060.763347,888.247130,612.876398,9252.574275
1060.763677,444.123565,919.314598,9548.656652
1060.764007,0.000000,1072.533697,9992.780217
1060.764336,-740.205942,1072.533697,10584.944971
1060.764666,-592.164754,1072.533697,10510.924376
1060.764996,-444.123565,76.609550,10288.862594
1060.765325,0.000000,153.219100,9622.677246
1060.765655,444.123565,76.609550,9400.615463
1060.765984,1628.453072,612.876398,9178.553681
1060.766314,2738.761985,229.828649,8734.430116
1060.766644,3256.906145,1072.533697,8734.430116
1060.766973,3627.009116,1149.143247,9104.533087
1060.767303,3552.988522,2068.457845,9326.594869
1060.767633,3256.906145,1685.410096,9918.759623
1060.767962,3182.885551,1149.143247,9992.780217
1060.768292,2146.597232,1378.971896,10362.883188
1060.768622,1554.432478,766.095498,10436.903782
1060.768951,1554.432478,153.219100,10658.965565
1060.769281,1702.473667,0.000000,10288.862594
1060.769611,2368.659014,0.000000,9474.636058
1060.769940,3034.844362,-153.219100,9400.615463
1060.770270,3701.029710,459.657299,9178.553681
1060.770600,4145.153275,1532.190996,9252.574275
1060.770929,3997.112087,2451.505594,9474.636058
1060.771259,3256.906145,2604.724693,9696.697840
1060.771589,2294.638420,2757.943793,10066.800811
1060.771918,0.000000,2681.334243,10214.842000
1060.772248,-1702.473667,2221.676944,9696.697840
1060.772578,-2220.617826,995.924147,9178.553681
1060.772907,-1332.370696,-306.438199,8142.265362
1060.773237,962.267725,-1455.581446,7105.977043
1060.773566,2294.638420,-995.924147,6661.853478
1060.773896,3478.967927,-689.485948,6439.791695
1060.774226,4367.215058,766.095498,7328.038826
1060.774555,3627.009116,2911.162892,9104.533087
1060.774885,2886.803174,4519.963438,11103.089130
1060.775215,1480.411884,4290.134789,11991.336260
1060.775544,370.102971,3064.381992,12731.542202
1060.775874,-888.247130,1915.238745,12583.501014
1060.776204,-1480.411884,-383.047749,12065.356855
1060.776533,-1332.370696,-1762.019645,10881.027347
1060.776863,-888.247130,-2528.115143,9696.697840
1060.777193,444.123565,-2528.115143,8512.368333
1060.777522,1850.514855,-1838.629195,7994.224174
1060.777852,3552.988522,-383.047749,7254.018232
1060.778182,4737.318029,1149.143247,7031.956449
1060.778511,4589.276840,2145.067394,7698.141797
1060.778841,4441.235652,4060.306139,8882.471304
1060.779171,3923.091493,4136.915689,9918.759623
1060.779500,3034.844362,3753.867940,10362.883188
1060.779830,2220.617826,2451.505594,11103.089130
1060.780159,1036.288319,1378.971896,11695.253884
1060.780489,0.000000,0.000000,10881.027347
1060.780819,-814.226536,-919.314598,10510.924376
1060.781148,-888.247130,-1455.581446,10732.986159
1060.781478,-592.164754,-1302.362347,10436.903782
1060.781808,0.000000,-766.095498,10066.800811
1060.782137,888.247130,-536.266849,8956.491898
1060.782467,1480.411884,306.438199,8290.306550
1060.782797,3108.864956,689.485948,8142.265362
1060.783126,4219.173869,842.705048,8216.285956
1060.783456,5107.421000,689.485948,7994.224174
1060.783786,4663.297435,919.314598,7698.141797
1060.784115,4441.235652,1072.533697,9326.594869
1060.784445,3404.947333,1762.019645,10140.821405
1060.784775,2220.617826,2451.505594,10436.903782
1060.785104,1554.432478,2068.457845,10510.924376
1060.785434,1628.453072,1685.410096,10658.965565
1060.785764,1628.453072,1915.238745,10288.862594
1060.786093,2072.576638,1532.190996,9696.697840
1060.786423,2220.617826,689.485948,8364.327145
1060.786753,2368.659014,306.438199,7920.203579
1060.787082,2368.659014,689.485948,8068.244768
1060.787412,1554.432478,995.924147,8734.430116
1060.787741,740.205942,842.705048,9622.677246
1060.788071,-592.164754,612.876398,9992.780217
1060.788401,-1110.308913,536.266849,10436.903782
1060.788730,-740.205942,0.000000,11251.130318
1060.789060,-518.144159,-229.828649,11473.192101
1060.789390,-1110.308913,153.219100,11325.150913
1060.789719,-962.267725,612.876398,10288.862594
1060.790049,666.185348,76.609550,9252.574275
1060.790379,2812.782580,153.219100,8512.368333
1060.790708,5551.544565,1302.362347,8068.244768
1060.791038,7550.100608,2374.896044,7920.203579
1060.791368,8956.491898,2757.943793,7846.182985
1060.791697,8808.450710,3600.648841,8438.347739
1060.792027,7254.018232,4213.525239,9548.656652
1060.792357,4959.379811,5362.668486,10881.027347
1060.792686,1998.556043,3830.477490,12583.501014
1060.793016,-1110.308913,2374.896044,13693.809927
1060.793346,-4663.297435,153.219100,13471.748144
1060.793675,-8142.265362,-1685.410096,12213.398043
1060.794005,-9400.615463,-2451.505594,10362.883188
1060.794334,-6883.915261,-2604.724693,7328.038826
1060.794664,-1554.432478,-2987.772442,3849.070898
1060.794994,4589.276840,-4903.011187,1554.432478
1060.795323,8734.430116,-3447.429741,1850.514855
1060.795653,9696.697840,1149.143247,4293.194464
1060.795983,9178.553681,5898.935335,7624.121203
1060.796312,7105.977043,9039.926876,11177.109724
1060.796642,4737.318029,10189.070123,13989.892304
1060.796972,1554.432478,7354.516781,15840.407159
1060.797301,-1480.411884,1915.238745,17024.736666
1060.797631,-4219.173869,0.000000,16062.468941
1060.797961,-4737.318029,-1685.410096,13989.892304
1060.798290,-3256.906145,-4366.744339,10732.986159
1060.798620,148.041188,-6435.202183,7550.100608
1060.798950,4737.318029,-6511.811733,3775.050304
1060.799279,9252.574275,-4366.744339,1110.308913
1060.799609,11695.253884,-919.314598,3256.906145
1060.799939,11103.089130,4136.915689,7476.080014
1060.800268,7105.977043,7048.078582,11103.089130
1060.800598,1258.350101,7737.564530,13841.851115
1060.800927,-3775.050304,8120.612279,14211.954086
1060.801257,-4515.256246,4519.963438,14952.160028
1060.801587,-3108.864956,-1072.533697,13767.830521
1060.801916,-2220.617826,-5669.106685,10658.965565
1060.802246,-962.267725,-7354.516781,5847.626942
1060.802576,2294.638420,-7814.174080,4589.276840
1060.802905,4367.215058,-5132.839837,6587.832884
1060.803235,4071.132681,76.609550,7994.224174
1060.803565,1998.556043,3983.696590,8512.368333
1060.803894,1628.453072,5822.325785,9252.574275
1060.804224,3256.906145,6052.154434,11325.150913
1060.804554,3997.112087,4979.620737,13101.645173
1060.804883,2812.782580,2451.505594,12805.562797
1060.805213,0.000000,-1225.752797,12213.398043
1060.805543,-1258.350101,-2911.162892,11843.295072
1060.805872,-2738.761985,-2834.553343,10881.027347
1060.806202,-2738.761985,-2757.943793,7920.203579
1060.806532,-222.061783,-3217.601092,5773.606348
1060.806861,4589.276840,-3140.991542,5699.585753
1060.807191,8808.450710,0.000000,6143.709319
1060.807521,11103.089130,2911.162892,6291.750507
1060.807850,10362.883188,5056.230287,7328.038826
1060.808180,6587.832884,6971.469032,9400.615463
1060.808509,1480.411884,7584.345430,12287.418637
1060.808839,-962.267725,6588.421283,15692.365970
1060.809169,-1924.535449,3830.477490,16580.613101
1060.809498,-4219.173869,306.438199,14285.974681
1060.809828,-6587.832884,-4290.134789,11399.171507
1060.810158,-6513.812290,-6665.030833,9696.697840
1060.810487,-4959.379811,-6435.202183,8956.491898
1060.810817,-4515.256246,-3983.696590,7105.977043
1060.811147,-2738.761985,0.000000,4959.379811
1060.811476,2442.679609,1225.752797,4293.194464
1060.811806,8808.450710,919.314598,4737.318029
1060.812136,10881.027347,2987.772442,5921.647536
1060.812465,10732.986159,8120.612279,7402.059420
1060.812795,9400.615463,9499.584175,10214.842000
1060.813124,6439.791695,8273.831378,12879.583391
1060.813454,2812.782580,7967.393179,14063.912898
1060.813783,222.061783,3907.087040,14656.077652
1060.814113,-2072.576638,-383.047749,14656.077652
1060.814442,-4737.318029,-1225.752797,13027.624579
1060.814771,-5995.668130,-1685.410096,11325.150913
1060.815101,-5477.523971,-3907.087040,9918.759623
1060.815430,-5477.523971,-3140.991542,7698.141797
1060.815760,-3775.050304,-1072.533697,3330.926739
1060.816089,1406.391290,-383.047749,666.185348
1060.816418,8216.285956,-919.314598,1110.308913
1060.816748,11325.150913,766.095498,4293.194464
1060.817077,9030.512492,3830.477490,7179.997637
1060.817407,3997.112087,6818.249932,8882.471304
1060.817736,444.123565,8963.317327,12213.398043
1060.818066,-444.123565,7967.393179,15618.345376
1060.818395,-2072.576638,4366.744339,15988.448347
1060.818724,-4145.153275,-1378.971896,13619.789333
1060.819054,-6069.688724,-5592.497135,13027.624579
1060.819383,-8142.265362,-6435.202183,12731.542202
1060.819713,-10510.924376,-4979.620737,12065.356855
1060.820042,-10436.903782,-2834.553343,10288.862594
1060.820371,-5995.668130,-2298.286494,7179.997637
1060.820701,2220.617826,-3983.696590,5625.565159
1060.821030,7920.203579,-2987.772442,4959.379811
1060.821360,9992.780217,2987.772442,2812.782580
1060.821689,8364.327145,3983.696590,2738.761985
1060.822019,5995.668130,4290.134789,9326.594869
1060.822348,4145.153275,8580.269578,16506.592507
1060.822677,518.144159,9652.803275,19615.457463
1060.823007,-5699.585753,4979.620737,18875.251521
1060.823336,-11029.068536,2145.067394,16358.551318
1060.823666,-11843.295072,-1149.143247,11917.315666
1060.823995,-8956.491898,-10342.289223,10140.821405
1060.824324,-7031.956449,-10189.070123,8660.409521
1060.824654,-6069.688724,-4290.134789,5033.400406
1060.824983,-1850.514855,-4136.915689,3478.967927
1060.825313,3182.885551,-2681.334243,3256.906145
1060.825642,5699.585753,4596.572988,2886.803174
1060.825971,7328.038826,5056.230287,3775.050304
1060.826301,7105.977043,5745.716235,8882.471304
1060.826630,5477.523971,11338.213370,14137.933492
1060.826960,1776.494261,11644.651570,15618.345376
1060.827289,-3701.029710,6358.592633,14434.015869
1060.827619,-8734.430116,4673.182538,11325.150913
1060.827948,-9252.574275,-2145.067394,9622.677246
1060.828277,-5403.503377,-8120.612279,10732.986159
1060.828607,-3775.050304,-4673.182538,7772.162391
1060.828936,-1924.535449,-3907.087040,2442.679609
1060.829266,1776.494261,-6665.030833,-222.061783
1060.829595,4293.194464,-2681.334243,2072.576638
1060.829924,6587.832884,2451.505594,4885.359217
1060.830254,6587.832884,4903.011187,9104.533087
1060.830583,4145.153275,10418.898773,14434.015869
1060.830913,1776.494261,14709.033562,16358.551318
1060.831242,740.205942,8503.660028,15322.262999
1060.831571,-888.247130,-1378.971896,15988.448347
1060.831901,-5329.482782,-2298.286494,14359.995275
1060.832230,-11621.233289,-1608.800546,11917.315666
1060.832560,-11473.192101,-3447.429741,11251.130318
1060.832889,-6365.771101,-4903.011187,8808.450710
1060.833219,-592.164754,-7354.516781,2960.823768
1060.833548,4219.173869,-8963.317327,666.185348
1060.833877,7031.956449,-4903.011187,2220.617826
1060.834207,7105.977043,5362.668486,4737.318029
1060.834536,4885.359217,10035.851024,9400.615463
1060.834866,2442.679609,10725.336972,15322.262999
1060.835195,444.123565,11184.994271,18431.127956
1060.835524,-2072.576638,7048.078582,19171.333898
1060.835854,-5403.503377,3907.087040,18061.024985
1060.836183,-9548.656652,2221.676944,12805.562797
1060.836513,-11177.109724,-4903.011187,8142.265362
1060.836842,-8216.285956,-12334.137518,7328.038826
1060.837172,-4515.256246,-9806.022374,6513.812290
1060.837501,-1850.514855,-5898.935335,4663.297435
1060.837830,2516.700203,-3677.258390,2960.823768
1060.838160,4811.338623,459.657299,1332.370696
1060.838489,6735.874072,3753.867940,2812.782580
1060.838819,7772.162391,5286.058936,9104.533087
1060.839148,5921.647536,12027.699319,14952.160028
1060.839477,2072.576638,14555.814462,16950.716072
1060.839807,-2738.761985,9422.974625,16580.613101
1060.840136,-7624.121203,4060.306139,12879.583391
1060.840466,-8586.388927,-1915.238745,9252.574275
1060.840795,-7179.997637,-10112.460574,7920.203579
1060.841124,-5477.523971,-8120.612279,6957.935855
1060.841454,-3330.926739,-6052.154434,4145.153275
1060.841783,518.144159,-8044.002729,2738.761985
1060.842113,3701.029710,-5286.058936,2960.823768
1060.842442,5477.523971,1685.410096,2960.823768
1060.842772,6661.853478,4673.182538,7105.977043
1060.843101,6365.771101,9499.584175,12953.603985
1060.843430,4071.132681,14555.814462,17320.819043
1060.843760,740.205942,11338.213370,17764.942608
1060.844089,-3923.091493,5362.668486,16062.468941
1060.844419,-7846.182985,459.657299,13175.665768
1060.844748,-9696.697840,-4979.620737,11621.233289
1060.845077,-9770.718434,-8580.269578,10140.821405
1060.845407,-7179.997637,-8120.612279,6217.729913
1060.845736,-1628.453072,-11031.775171,3701.029710
1060.846066,2812.782580,-10035.851024,2146.597232
1060.846395,4811.338623,-1149.143247,1628.453072
1060.846725,6143.709319,3447.429741,4663.297435
1060.847054,5773.606348,7584.345430,11029.068536
1060.847383,4737.318029,14479.204912,16876.695478
1060.847713,1332.370696,14019.547613,21243.910535
1060.848042,-2220.617826,10189.070123,21836.075289
1060.848372,-8512.368333,7967.393179,16950.716072
1060.848701,-10436.903782,229.828649,11473.192101
1060.849030,-9326.594869,-9576.193725,9622.677246
1060.849360,-7105.977043,-9652.803275,7476.080014
1060.849689,-4293.194464,-7967.393179,3627.009116
1060.850019,-148.041188,-10495.508323,592.164754
1060.850348,2442.679609,-5362.668486,-0.000000
1060.850677,5403.503377,3370.820191,1480.411884
1060.851007,7846.182985,4290.134789,5551.544565
1060.851336,7031.956449,10342.289223,10881.027347
1060.851666,4071.132681,17160.539155,15396.283594
1060.851995,1406.391290,14402.595362,17987.004391
1060.852325,-1702.473667,9806.022374,17838.963202
1060.852654,-6661.853478,5592.497135,14359.995275
1060.852983,-9030.512492,-2757.943793,9400.615463
1060.853313,-10288.862594,-7584.345430,6291.750507
1060.853642,-7550.100608,-7660.954980,4589.276840
1060.853972,-2368.659014,-9269.755526,3404.947333
1060.854301,1554.432478,-9882.631924,962.267725
1060.854630,4441.235652,-4213.525239,-666.185348
1060.854960,5551.544565,1225.752797,666.185348
1060.855289,7624.121203,3907.087040,7550.100608
1060.855619,7698.141797,11568.042020,14804.118840
1060.855948,3478.967927,14249.376263,18505.148550
1060.856278,-1554.432478,12947.013916,17468.860231
1060.856607,-4811.338623,6818.249932,17616.901420
1060.856936,-6809.894666,-2451.505594,17320.819043
1060.857266,-9474.636058,-4213.525239,13101.645173
1060.857595,-10955.047942,-8120.612279,7328.038826
1060.857925,-5699.585753,-11031.775171,3701.029710
1060.858254,814.226536,-13023.623466,2664.741391
1060.858583,5107.421000,-9959.241474,2220.617826
1060.858913,5477.523971,-2451.505594,1850.514855
1060.859242,4663.297435,995.924147,4367.215058
1060.859572,4737.318029,10725.336972,12139.377449
1060.859901,4811.338623,14709.033562,18653.189738
1060.860230,1776.494261,11644.651570,21836.075289
1060.860560,-3923.091493,8886.707777,20947.828159
1060.860889,-9844.739029,5286.058936,16580.613101
1060.861219,-10362.883188,0.000000,11769.274478
1060.861548,-8586.388927,-8044.002729,9548.656652
1060.861878,-7772.162391,-12104.308868,8290.306550
1060.862207,-5847.626942,-10648.727422,4441.235652
1060.862536,-1924.535449,-10035.851024,1998.556043
1060.862866,3256.906145,-4290.134789,1036.288319
1060.863195,5477.523971,1378.971896,1702.473667
1060.863525,5847.626942,3983.696590,5329.482782
1060.863854,5403.503377,9882.631924,10881.027347
1060.864183,4737.318029,14632.424012,16506.592507
1060.864513,1850.514855,15015.471761,17764.942608
1060.864842,-3478.967927,11491.432470,16950.716072
1060.865172,-8216.285956,4979.620737,11991.336260
1060.865501,-8216.285956,-3370.820191,8586.388927
1060.865831,-5773.606348,-8886.707777,7476.080014
1060.866160,-3182.885551,-7048.078582,5403.503377
1060.866489,-1776.494261,-6358.592633,2294.638420
1060.866819,1480.411884,-6894.859482,888.247130
1060.867148,4145.153275,-2681.334243,740.205942
1060.867478,5477.523971,2374.896044,3182.885551
1060.867807,6069.688724,8044.002729,9474.636058
1060.868136,4367.215058,14325.985813,13915.871710
1060.868466,592.164754,14785.643111,16210.510130
1060.868795,-2368.659014,10189.070123,15914.427753
1060.869125,-5329.482782,3830.477490,15544.324782
1060.869454,-7994.224174,-1378.971896,14359.995275
1060.869783,-11917.315666,-4136.915689,10955.047942
1060.870113,-11843.295072,-5592.497135,8586.388927
1060.870442,-5995.668130,-8503.660028,5847.626942
1060.870772,222.061783,-10495.508323,3478.967927
1060.871101,3256.906145,-7660.954980,1554.432478
1060.871431,4663.297435,-2298.286494,1480.411884
1060.871760,5255.462188,2911.162892,6143.709319
1060.872089,4811.338623,9806.022374,13767.830521
1060.872419,3923.091493,14325.985813,18875.251521
1060.872748,222.061783,11568.042020,19837.519246
1060.873078,-3701.029710,7584.345430,18579.169144
1060.873407,-6587.832884,3753.867940,15840.407159
1060.873736,-7105.977043,-2145.067394,13101.645173
1060.874066,-7179.997637,-7584.345430,9918.759623
1060.874395,-6883.915261,-9652.803275,6661.853478
1060.874725,-2664.741391,-9499.584175,4737.318029
1060.875054,1258.350101,-7277.907231,3552.988522
1060.875384,3775.050304,-2451.505594,2368.659014
1060.875713,4145.153275,1532.190996,2146.597232
1060.876042,4811.338623,3447.429741,6513.812290
1060.876372,6217.729913,9806.022374,13915.871710
1060.876701,3627.009116,14325.985813,18357.107362
1060.877031,-2442.679609,12793.794817,17690.922014
1060.877360,-10510.924376,7967.393179,14137.933492
1060.877689,-11991.336260,1225.752797,11547.212695
1060.878019,-8512.368333,-4903.011187,10066.800811
1060.878348,-5921.647536,-9193.145976,7920.203579
1060.878678,-4071.132681,-9346.365076,3923.091493
1060.879007,-1776.494261,-8427.050478,888.247130
1060.879336,3330.926739,-5592.497135,-666.185348
1060.879666,8290.306550,-1532.190996,-296.082377
1060.879995,9770.718434,2145.067394,3404.947333
1060.880325,8364.327145,9806.022374,9844.739029
1060.880654,5847.626942,16088.005458,16802.674883
1060.880984,2516.700203,14709.033562,18875.251521
1060.881313,-1776.494261,10801.946522,17024.736666
1060.881642,-6439.791695,3677.258390,14434.015869
1060.881972,-8512.368333,-3753.867940,13693.809927
1060.882301,-9770.718434,-7048.078582,12731.542202
1060.882631,-9326.594869,-6665.030833,8586.388927
1060.882960,-5551.544565,-8963.317327,3256.906145
1060.883289,-962.267725,-11491.432470,148.041188
1060.883619,3997.112087,-7277.907231,1702.473667
1060.883948,6809.894666,-1838.629195,3627.009116
1060.884278,5847.626942,4903.011187,6143.709319
1060.884607,3701.029710,11951.089769,11843.295072
1060.884937,2368.659014,12640.575717,17764.942608
1060.885266,0.000000,11108.384721,20281.642811
1060.885595,-4145.153275,8810.098227,19541.436869
1060.885925,-7920.203579,2221.676944,15840.407159
1060.886254,-9918.759623,-2145.067394,11695.253884
1060.886584,-8808.450710,-7048.078582,10436.903782
1060.886913,-5107.421000,-10955.165621,8586.388927
1060.887242,-888.247130,-9806.022374,5773.606348
1060.887572,1702.473667,-5286.058936,2368.659014
1060.887901,4663.297435,-1455.581446,1554.432478
1060.888231,6365.771101,459.657299,3330.926739
1060.888560,6661.853478,6128.763984,8438.347739
1060.888889,6809.894666,12027.699319,14359.995275
1060.889219,2960.823768,13406.671215,17172.777854
1060.889548,-2072.576638,13406.671215,16728.654289
1060.889878,-7105.977043,7277.907231,14656.077652
1060.890207,-8290.306550,-1915.238745,11325.150913
1060.890537,-7550.100608,-5669.106685,9548.656652
1060.890866,-7105.977043,-6281.983084,7698.141797
1060.891195,-4737.318029,-7277.907231,4737.318029
1060.891525,-1184.329507,-7507.735880,2294.638420
1060.891854,2516.700203,-4979.620737,1036.288319
1060.892184,5551.544565,-536.266849,1110.308913
1060.892513,6661.853478,3677.258390,2516.700203
1060.892842,6735.874072,9193.145976,9030.512492
1060.893172,4663.297435,12793.794817,15100.201217
1060.893501,-148.041188,12793.794817,18061.024985
1060.893831,-5181.441594,9882.631924,17172.777854
1060.894160,-8882.471304,3983.696590,14063.912898
1060.894490,-10140.821405,-2374.896044,10436.903782
1060.894819,-9918.759623,-6741.640382,8734.430116
1060.895148,-7920.203579,-9346.365076,7328.038826
1060.895478,-4589.276840,-10035.851024,3923.091493
1060.895807,-1036.288319,-7890.783629,2442.679609
1060.896137,2516.700203,-3064.381992,3108.864956
1060.896466,4441.235652,612.876398,4441.235652
1060.896795,4663.297435,3217.601092,8216.285956
1060.897125,5033.400406,8733.488677,13175.665768
1060.897454,3701.029710,12334.137518,17542.880825
1060.897784,666.185348,11338.213370,18875.251521
1060.898113,-4515.256246,6818.249932,17172.777854
1060.898442,-7994.224174,-383.047749,15026.180623
1060.898772,-8808.450710,-5132.839837,13471.748144
1060.899101,-8364.327145,-6435.202183,11251.130318
1060.899431,-5181.441594,-6052.154434,7105.977043
1060.899760,-1776.494261,-9269.755526,3034.844362
1060.900090,2812.782580,-8503.660028,1702.473667
1060.900419,5921.647536,-4443.353888,3108.864956
1060.900748,6143.709319,1225.752797,6957.935855
1060.901078,4145.153275,9652.803275,11991.336260
1060.901407,2812.782580,16471.053207,14434.015869
1060.901737,1258.350101,12563.966167,15322.262999
1060.902066,-1406.391290,6511.811733,14656.077652
1060.902395,-6513.812290,2374.896044,13545.768739
1060.902725,-8438.347739,-1915.238745,12509.480420
1060.903054,-9400.615463,-3294.210641,10066.800811
1060.903384,-8956.491898,-5975.544884,6809.894666
1060.903713,-4145.153275,-8580.269578,3627.009116
1060.904043,1924.535449,-9039.926876,518.144159
1060.904372,7550.100608,-5515.887586,148.041188
1060.904701,10362.883188,0.000000,2220.617826
1060.905031,8586.388927,6588.421283,6587.832884
1060.905360,6069.688724,14709.033562,11547.212695
1060.905690,4515.256246,16088.005458,15026.180623
1060.906019,1776.494261,10955.165621,16580.613101
1060.906348,-2146.597232,6358.592633,17098.757260
1060.906678,-6143.709319,2451.505594,15248.242405
1060.907007,-9400.615463,-2451.505594,12287.418637
1060.907337,-10214.842000,-6281.983084,9622.677246
1060.907666,-8438.347739,-7507.735880,5181.441594
1060.907995,-3182.885551,-9422.974625,888.247130
1060.908325,3034.844362,-10648.727422,222.061783
1060.908654,5477.523971,-4903.011187,3552.988522
1060.908984,4293.194464,4213.525239,4737.318029
1060.909313,2368.659014,9116.536426,9252.574275
1060.909643,2516.700203,11261.603821,14137.933492
1060.909972,0.000000,12027.699319,18135.045579
1060.910301,-3108.864956,8656.879127,19171.333898
1060.910631,-6883.915261,3907.087040,17542.880825
1060.910960,-10732.986159,459.657299,13397.727550
1060.911290,-11177.109724,-4596.572988,10066.800811
1060.911619,-9178.553681,-10955.165621,9252.574275
1060.911948,-4663.297435,-11031.775171,7846.182985
1060.912278,-888.247130,-7584.345430,6069.688724
1060.912607,2960.823768,-5056.230287,3256.906145
1060.912936,5477.523971,0.000000,2368.659014
1060.913266,6587.832884,2911.162892,4441.235652
1060.913595,7402.059420,7201.297681,11251.130318
1060.913924,5477.523971,11797.870669,17172.777854
1060.914254,1554.432478,14249.376263,18505.148550
1060.914583,-3404.947333,10955.165621,16654.633695
1060.914912,-7402.059420,3447.429741,13101.645173
1060.915242,-8660.409521,-4213.525239,11103.089130
1060.915571,-8290.306550,-9729.412825,9918.759623
1060.915900,-7402.059420,-6818.249932,7772.162391
1060.916230,-4737.318029,-5745.716235,4293.194464
1060.916559,444.123565,-7124.688131,1850.514855
1060.916888,4737.318029,-5056.230287,592.164754
1060.917218,7105.977043,-1532.190996,1184.329507
1060.917547,7105.977043,4596.572988,6291.750507
1060.917876,5625.565159,13713.109414,11843.295072
1060.918206,3775.050304,17696.806004,14730.098246
1060.918535,1702.473667,10955.165621,14434.015869
1060.918864,-1850.514855,1991.848295,14656.077652
1060.919194,-5699.585753,0.000000,13915.871710
1060.919523,-9030.512492,-1608.800546,11843.295072
1060.919852,-9992.780217,-4213.525239,9030.512492
1060.920182,-7402.059420,-5362.668486,5551.544565
1060.920511,-296.082377,-8273.831378,2146.597232
1060.920840,6291.750507,-10189.070123,888.247130
1060.921170,8586.388927,-4903.011187,1776.494261
1060.921499,6587.832884,3447.429741,4885.359217
1060.921828,3552.988522,9652.803275,11103.089130
1060.922158,2516.700203,13636.499864,15470.304188
1060.922487,444.123565,12870.404366,17987.004391
1060.922816,-1406.391290,6052.154434,18801.230927
1060.923146,-5995.668130,-229.828649,17838.963202
1060.923475,-10362.883188,-1072.533697,14211.954086
1060.923804,-11991.336260,-4596.572988,10510.924376
1060.924134,-9918.759623,-8886.707777,7179.997637
1060.924463,-5403.503377,-9346.365076,3330.926739
1060.924792,740.205942,-10725.336972,2442.679609
1060.925122,5551.544565,-7354.516781,4589.276840
1060.925451,5773.606348,3600.648841,4293.194464
1060.925780,4737.318029,8733.488677,5551.544565
1060.926110,5181.441594,8580.269578,11251.130318
1060.926439,2368.659014,12027.699319,18653.189738
1060.926768,-2738.761985,13789.718964,20059.581028
1060.927098,-7105.977043,8810.098227,18283.086767
1060.927427,-9696.697840,2068.457845,12953.603985
1060.927756,-10066.800811,-4443.353888,10436.903782
1060.928086,-8290.306550,-12257.527968,9622.677246
1060.928415,-5773.606348,-10648.727422,6587.832884
1060.928744,-2738.761985,-6894.859482,1924.535449
1060.929074,2072.576638,-5898.935335,296.082377
1060.929403,6661.853478,-1378.971896,2442.679609
1060.929732,8068.244768,2987.772442,4441.235652
1060.930062,7994.224174,7507.735880,7920.203579
1060.930391,5995.668130,14632.424012,11251.130318
1060.930720,3404.947333,17773.415554,13989.892304
1060.931050,1480.411884,9576.193725,15544.324782
1060.931379,-2886.803174,1838.629195,15766.386565
1060.931708,-7772.162391,-306.438199,12509.480420
1060.932038,-10807.006753,-3294.210641,9400.615463
1060.932367,-9474.636058,-6205.373534,8290.306550
1060.932696,-5329.482782,-5745.716235,6143.709319
1060.933026,0.000000,-7431.126331,1480.411884
1060.933355,4737.318029,-8733.488677,-296.082377
1060.933684,7994.224174,-2451.505594,2220.617826
1060.934014,6513.812290,5745.716235,7105.977043
1060.934343,2960.823768,11644.651570,11695.253884
1060.934672,1258.350101,14402.595362,14878.139434
1060.935002,370.102971,10725.336972,17320.819043
1060.935331,-814.226536,3983.696590,18801.230927
1060.935660,-5403.503377,-153.219100,16802.674883
1060.935990,-9918.759623,-2451.505594,13027.624579
1060.936319,-11177.109724,-6818.249932,9992.780217
1060.936648,-9104.533087,-7967.393179,7698.141797
1060.936978,-2960.823768,-8120.612279,3034.844362
1060.937307,3849.070898,-10725.336972,1332.370696
1060.937636,7179.997637,-7354.516781,3849.070898
1060.937966,5995.668130,2451.505594,5847.626942
1060.938295,4071.132681,8580.269578,9178.553681
1060.938624,4663.297435,11031.775171,13175.665768
1060.938954,2664.741391,13636.499864,17838.963202
1060.939283,0.000000,11951.089769,19023.292709
1060.939612,-3330.926739,5056.230287,16432.571912
1060.939942,-6883.915261,-459.657299,11621.233289
1060.940271,-9474.636058,-4136.915689,8808.450710
1060.940600,-9992.780217,-9346.365076,9770.718434
1060.940930,-8216.285956,-8886.707777,8956.491898
1060.941259,-4959.379811,-6971.469032,4737.318029
1060.941588,296.082377,-7354.516781,2294.638420
1060.941918,4589.276840,-3753.867940,2368.659014
1060.942247,6513.812290,2528.115143,3849.070898
1060.942576,6661.853478,6358.592633,7920.203579
1060.942906,5329.482782,12104.308868,12213.398043
1060.943235,2368.659014,15168.690860,15248.242405
1060.943564,-444.123565,10189.070123,17394.839637
1060.943894,-4441.235652,3600.648841,15470.304188
1060.944223,-7328.038826,229.828649,11991.336260
1060.944552,-7846.182985,-3447.429741,8438.347739
1060.944882,-5033.400406,-6128.763984,6735.874072
1060.945211,-962.267725,-7584.345430,3108.864956
1060.945540,2442.679609,-8427.050478,-0.000000
1060.945870,5551.544565,-6511.811733,592.164754
1060.946199,6439.791695,459.657299,4219.173869
1060.946528,5403.503377,7584.345430,9770.718434
1060.946858,2960.823768,13023.623466,13471.748144
1060.947187,1332.370696,14938.862211,13841.851115
1060.947516,222.061783,8427.050478,16358.551318
1060.947846,-1480.411884,536.266849,18875.251521
1060.948175,-7254.018232,612.876398,15618.345376
1060.948504,-12361.439231,-1378.971896,11399.171507
1060.948834,-13397.727550,-7048.078582,9326.594869
1060.949163,-9918.759623,-6665.030833,6217.729913
1060.949492,-2220.617826,-7967.393179,1258.350101
1060.949822,6143.709319,-12563.966167,-1480.411884
1060.950151,8216.285956,-6894.859482,1702.473667
1060.950480,4589.276840,5056.230287,6439.791695
1060.950810,2220.617826,10035.851024,12065.356855
1060.951139,2220.617826,13713.109414,16284.530724
1060.951468,-296.082377,16854.100956,19393.395680
1060.951798,-740.205942,10955.165621,19689.478057
1060.952127,-2442.679609,2604.724693,15988.448347
1060.952456,-5033.400406,-2374.896044,11177.109724
1060.952786,-7550.100608,-7431.126331,10140.821405
1060.953115,-9622.677246,-8733.488677,10288.862594
1060.953444,-8290.306550,-6205.373534,7772.162391
1060.953774,-2368.659014,-6665.030833,3997.112087
1060.954103,3775.050304,-7354.516781,2516.700203
1060.954432,7105.977043,-2451.505594,2072.576638
1060.954762,7328.038826,2757.943793,2664.741391
1060.955091,6661.853478,6205.373534,8438.347739
1060.955420,4885.359217,13942.938064,14878.139434
1060.955750,666.185348,14402.595362,18653.189738
1060.956079,-2886.803174,8503.660028,18431.127956
1060.956408,-7031.956449,2911.162892,14656.077652
1060.956738,-8734.430116,-1149.143247,11473.192101
1060.957067,-7402.059420,-4826.401637,8660.409521
1060.957396,-4737.318029,-6818.249932,4811.338623
1060.957726,-2368.659014,-7890.783629,592.164754
1060.958055,2220.617826,-8427.050478,-1480.411884
1060.958384,5995.668130,-7048.078582,1036.288319
1060.958714,6587.832884,1302.362347,4737.318029
1060.959043,3701.029710,7584.345430,8586.388927
1060.959372,2146.597232,13100.233016,12731.542202
1060.959702,2368.659014,15475.129060,14582.057057
1060.960031,2072.576638,7890.783629,16210.510130
1060.960360,-666.185348,-1149.143247,17542.880825
1060.960690,-7402.059420,-1532.190996,14730.098246
1060.961019,-12953.603985,-1532.190996,11621.233289
1060.961348,-11843.295072,-5822.325785,9252.574275
1060.961678,-7698.141797,-7354.516781,5921.647536
1060.962007,-666.185348,-9039.926876,592.164754
1060.962336,6957.935855,-12180.918418,-1258.350101
1060.962666,9770.718434,-8733.488677,2146.597232
1060.962995,6069.688724,4903.011187,7105.977043
1060.963324,1924.535449,11184.994271,12509.480420
1060.963654,1554.432478,13100.233016,17098.757260
1060.963983,666.185348,15245.300410,20577.725188
1060.964312,0.000000,10801.946522,20281.642811
1060.964642,-2294.638420,2451.505594,15914.427753
1060.964971,-6217.729913,-4673.182538,13175.665768
1060.965300,-9622.677246,-5822.325785,12731.542202
1060.965630,-11843.295072,-5592.497135,10214.842000
1060.965959,-8216.285956,-7354.516781,5329.482782
1060.966288,-666.185348,-8656.879127,1776.494261
1060.966618,5107.421000,-8963.317327,1036.288319
1060.966947,7328.038826,-3140.991542,1776.494261
1060.967276,6513.812290,3753.867940,4663.297435
1060.967606,4737.318029,10342.289223,10807.006753
1060.967935,2294.638420,17850.025103,15470.304188
1060.968264,-592.164754,13636.499864,18949.272115
1060.968594,-2886.803174,7124.688131,18357.107362
1060.968923,-5847.626942,2911.162892,13841.851115
1060.969252,-7772.162391,-1378.971896,10658.965565
1060.969582,-7105.977043,-2987.772442,8734.430116
1060.969911,-5625.565159,-5898.935335,4589.276840
1060.970240,-1850.514855,-6894.859482,-1258.350101
1060.970570,3701.029710,-9346.365076,-3108.864956
1060.970899,7994.224174,-5745.716235,370.102971
1060.971228,7698.141797,4673.182538,5403.503377
1060.971558,3627.009116,9422.974625,8734.430116
1060.971887,1702.473667,14785.643111,12065.356855
1060.972216,1480.411884,16241.224558,14434.015869
1060.972546,1332.370696,6894.859482,18875.251521
1060.972875,-2886.803174,-383.047749,19097.313304
1060.973204,-10510.924376,-536.266849,14508.036463
1060.973534,-13471.748144,-1838.629195,11029.068536
1060.973863,-9992.780217,-6665.030833,9622.677246
1060.974192,-5995.668130,-6818.249932,4219.173869
1060.974522,0.000000,-9116.536426,-3108.864956
1060.974851,6365.771101,-14479.204912,-2738.761985
1060.975180,8216.285956,-5745.716235,3997.112087
1060.975510,3775.050304,8503.660028,9178.553681
1060.975839,-518.144159,11184.994271,13693.809927
1060.976168,-222.061783,13100.233016,17542.880825
1060.976498,-1110.308913,14096.157163,21021.848753
1060.976827,1184.329507,7967.393179,20355.663405
1060.977156,-1480.411884,-306.438199,14508.036463
1060.977486,-6661.853478,-4903.011187,11547.212695
1060.977815,-9992.780217,-5975.544884,12287.418637
1060.978144,-10732.986159,-6588.421283,12213.398043
1060.978474,-5551.544565,-6281.983084,8290.306550
1060.978803,222.061783,-7584.345430,2146.597232
1060.979132,4589.276840,-9193.145976,296.082377
1060.979462,7105.977043,-2451.505594,1702.473667
1060.979791,7105.977043,3217.601092,5773.606348
1060.980120,5107.421000,8580.269578,12287.418637
1060.980450,962.267725,15245.300410,16876.695478
1060.980779,-2442.679609,12640.575717,19467.416275
1060.981108,-4441.235652,6971.469032,17912.983796
1060.981438,-5995.668130,1149.143247,13175.665768
1060.981767,-6439.791695,-2451.505594,9400.615463
1060.982096,-6069.688724,-4443.353888,5625.565159
1060.982426,-4145.153275,-5592.497135,2886.803174
1060.982755,740.205942,-6435.202183,-296.082377
1060.983084,4219.173869,-7967.393179,-444.123565
1060.983414,5699.585753,-2834.553343,2146.597232
1060.983743,3997.112087,5975.544884,4811.338623
1060.984072,2516.700203,9499.584175,9696.697840
1060.984402,2442.679609,14249.376263,13175.665768
1060.984731,1110.308913,13789.718964,13693.809927
1060.985060,74.020594,4749.792088,15988.448347
1060.985390,-3775.050304,-919.314598,16728.654289
1060.985719,-10881.027347,1072.533697,13989.892304
1060.986048,-13693.809927,-995.924147,10066.800811
1060.986378,-10510.924376,-7584.345430,7328.038826
1060.986707,-4293.194464,-7201.297681,3923.091493
1060.987036,2516.700203,-9116.536426,-0.000000
1060.987366,6735.874072,-11338.213370,222.061783
1060.987695,6735.874072,-2451.505594,3182.885551
1060.988024,2812.782580,7814.174080,8290.306550
1060.988354,1554.432478,10189.070123,14952.160028
1060.988683,1554.432478,13483.280765,18949.272115
1060.989012,-444.123565,13942.938064,19171.333898
1060.989342,-814.226536,5822.325785,17172.777854
1060.989671,-3404.947333,-1532.190996,14878.139434
1060.990000,-7772.162391,-4366.744339,14508.036463
1060.990330,-11103.089130,-5362.668486,12805.562797
1060.990659,-10214.842000,-5592.497135,8808.450710
1060.990988,-4293.194464,-7354.516781,4145.153275
1060.991318,2442.679609,-9882.631924,2368.659014
1060.991647,6587.832884,-8273.831378,2072.576638
1060.991976,6587.832884,-383.047749,2664.741391
1060.992306,5403.503377,5745.716235,6217.729913
1060.992635,4737.318029,12180.918418,11917.315666
1060.992964,2294.638420,14019.547613,17764.942608
1060.993294,-1332.370696,7737.564530,19541.436869
1060.993623,-5847.626942,4903.011187,17024.736666
1060.993952,-6661.853478,1532.190996,12879.583391
1060.994282,-4959.379811,-3140.991542,10955.047942
1060.994611,-4959.379811,-5592.497135,7846.182985
1060.994940,-3627.009116,-6281.983084,1998.556043
1060.995270,1406.391290,-7431.126331,-2590.720797
1060.995599,7550.100608,-8197.221829,-2072.576638
1060.995928,9252.574275,383.047749,2294.638420
1060.996258,5995.668130,6588.421283,6661.853478
1060.996587,2738.761985,10189.070123,11177.109724
1060.996916,2072.576638,15015.471761,12879.583391
1060.997246,1628.453072,10648.727422,17542.880825
1060.997575,-222.061783,2451.505594,18949.272115
1060.997904,-6439.791695,689.485948,16580.613101
1060.998234,-11029.068536,-1762.019645,12731.542202
1060.998563,-10436.903782,-3907.087040,11251.130318
1060.998892,-9400.615463,-3753.867940,10288.862594
1060.999222,-5403.503377,-5898.935335,-444.123565
1060.999551,1406.391290,-9882.631924,-4959.379811
1060.999880,8142.265362,-11108.384721,370.102971
1061.000210,8364.327145,1685.410096,7179.997637
1061.000539,1850.514855,9039.926876,9844.739029
1061.000868,-1850.514855,11797.870669,11695.253884
1061.001198,-1628.453072,14249.376263,16062.468941
1061.001527,0.000000,10342.289223,20799.786970
1061.001856,-370.102971,5439.278036,19467.416275
1061.002186,-4589.276840,-2528.115143,13323.706956
1061.002515,-9622.677246,-4519.963438,10362.883188
1061.002844,-12065.356855,-3677.258390,10732.986159
1061.003174,-9252.574275,-7048.078582,11991.336260
1061.003503,-4589.276840,-6665.030833,7402.059420
1061.003832,-444.123565,-6052.154434,3701.029710
1061.004162,3923.091493,-4673.182538,2368.659014
1061.004491,7179.997637,0.000000,3478.967927
1061.004820,6439.791695,2757.943793,6957.935855
1061.005150,3552.988522,11338.213370,11917.315666
1061.005479,148.041188,14862.252661,16136.489536
1061.005808,-148.041188,9882.631924,18801.230927
1061.006138,-2960.823768,4443.353888,17320.819043
1061.006467,-7698.141797,-536.266849,13101.645173
1061.006796,-10214.842000,-3217.601092,9252.574275
1061.007126,-7624.121203,-5209.449386,7624.121203
1061.007455,-2886.803174,-5592.497135,4737.318029
1061.007784,1406.391290,-6205.373534,-74.020594
1061.008114,4737.318029,-8120.612279,-740.205942
1061.008443,7105.977043,-2374.896044,2738.761985
1061.008772,5625.565159,6665.030833,7550.100608
1061.009102,4145.153275,12793.794817,12213.398043
1061.009431,3627.009116,16471.053207,12805.562797
1061.009760,2368.659014,9576.193725,16062.468941
1061.010090,444.123565,1838.629195,17764.942608
1061.010419,-5477.523971,1915.238745,14730.098246
1061.010749,-9696.697840,-536.266849,11251.130318
1061.011078,-9326.594869,-4290.134789,10436.903782
1061.011408,-8438.347739,-5592.497135,10881.027347
1061.011737,-4737.318029,-6128.763984,3775.050304
1061.012067,1702.473667,-8963.317327,-4367.215058
1061.012396,8734.430116,-8733.488677,-3775.050304
1061.012726,11251.130318,-153.219100,3330.926739
1061.013055,6439.791695,6588.421283,10436.903782
1061.013385,1480.411884,12947.013916,13545.768739
1061.013715,-814.226536,16394.443657,15470.304188
1061.014044,-1628.453072,11184.994271,18135.045579
1061.014374,-2664.741391,4903.011187,21021.848753
1061.014703,-6217.729913,-3447.429741,18875.251521
1061.015033,-11399.171507,-6205.373534,12065.356855
1061.015362,-13841.851115,-5439.278036,5995.668130
1061.015692,-8956.491898,-7048.078582,5625.565159
1061.016021,-962.267725,-10189.070123,5995.668130
1061.016351,2664.741391,-10342.289223,4441.235652
1061.016680,3923.091493,-3830.477490,3182.885551
1061.017010,5033.400406,5362.668486,2738.761985
1061.017340,5329.482782,8656.879127,8142.265362
1061.017669,5773.606348,11184.994271,15544.324782
1061.017999,740.205942,12947.013916,20207.622217
1061.018328,-2516.700203,11261.603821,16876.695478
1061.018658,-4293.194464,1838.629195,15766.386565
1061.018987,-7105.977043,-4290.134789,15470.304188
1061.019317,-11695.253884,-3294.210641,14063.912898
1061.019646,-11843.295072,-7584.345430,9400.615463
1061.019976,-4367.215058,-8656.879127,4367.215058
1061.020306,2368.659014,-5132.839837,-1406.391290
1061.020635,7179.997637,-6818.249932,-2368.659014
1061.020965,8956.491898,-4749.792088,1850.514855
1061.021294,6661.853478,6205.373534,7846.182985
1061.021624,3330.926739,17466.977354,12953.603985
1061.021953,2960.823768,18462.901502,13545.768739
1061.022283,1628.453072,12563.966167,14952.160028
1061.022612,-1776.494261,3524.039291,16728.654289
1061.022942,-5773.606348,-2911.162892,14804.118840
1061.023272,-7920.203579,-2681.334243,10510.924376
1061.023601,-8216.285956,-2911.162892,8290.306550
1061.023931,-9622.677246,-3907.087040,5181.441594
1061.024260,-7550.100608,-7507.735880,-296.082377
1061.024590,1924.535449,-11797.870669,-1628.453072
1061.024919,8956.491898,-7967.393179,1480.411884
1061.025249,7254.018232,5132.839837,5995.668130
1061.025578,740.205942,12257.527968,10362.883188
1061.025908,296.082377,13483.280765,13249.686362
1061.026238,1036.288319,12180.918418,14804.118840
1061.026567,1036.288319,5822.325785,18579.169144
1061.026897,-2368.659014,1915.238745,19541.436869
1061.027226,-8290.306550,76.609550,15692.365970
1061.027556,-11843.295072,-3830.477490,11177.109724
1061.027885,-11547.212695,-7890.783629,7179.997637
1061.028215,-6217.729913,-7354.516781,3997.112087
1061.028544,2368.659014,-10112.460574,3108.864956
1061.028874,7920.203579,-9959.241474,4367.215058
1061.029203,6809.894666,1915.238745,5107.421000
1061.029533,3478.967927,8503.660028,6291.750507
1061.029863,4811.338623,7048.078582,11695.253884
1061.030192,3775.050304,12334.137518,17764.942608
1061.030522,-888.247130,17160.539155,19023.292709
1061.030851,-2516.700203,7277.907231,17172.777854
1061.031181,-4811.338623,-2757.943793,15766.386565
1061.031510,-9918.759623,-3217.601092,13323.706956
1061.031840,-13249.686362,-6741.640382,10881.027347
1061.032169,-10881.027347,-9576.193725,8068.244768
1061.032499,-5107.421000,-6741.640382,4515.256246
1061.032829,444.123565,-6128.763984,518.144159
1061.033158,5995.668130,-6971.469032,-370.102971
1061.033488,8216.285956,-612.876398,1776.494261
1061.033817,7402.059420,8044.002729,7031.956449
1061.034147,5699.585753,14938.862211,11991.336260
1061.034476,3997.112087,18386.291952,15766.386565
1061.034806,2072.576638,11951.089769,17098.757260
1061.035135,-2072.576638,3217.601092,15026.180623
1061.035465,-6957.935855,-689.485948,11399.171507
1061.035795,-8142.265362,-2757.943793,10140.821405
1061.036124,-7550.100608,-5898.935335,10214.842000
1061.036454,-8068.244768,-6128.763984,4959.379811
1061.036783,-5181.441594,-7124.688131,-1480.411884
1061.037113,3552.988522,-10189.070123,-1998.556043
1061.037442,8734.430116,-5362.668486,2516.700203
1061.037772,5921.647536,5822.325785,6735.874072
1061.038101,1036.288319,11184.994271,10362.883188
1061.038431,444.123565,14402.595362,13175.665768
1061.038760,888.247130,13406.671215,15396.283594
1061.039090,0.000000,6052.154434,18653.189738
1061.039420,-4811.338623,-766.095498,17394.839637
1061.039749,-9918.759623,-2681.334243,13619.789333
1061.040079,-12879.583391,-5132.839837,9622.677246
1061.040408,-10584.944971,-8120.612279,8142.265362
1061.040738,-4441.235652,-8044.002729,5551.544565
1061.041067,2442.679609,-9729.412825,2960.823768
1061.041397,7179.997637,-8886.707777,3552.988522
1061.041726,6735.874072,1915.238745,4885.359217
1061.042056,5181.441594,8963.317327,9992.780217
1061.042386,4885.359217,11721.261119,15396.283594
1061.042715,1924.535449,15628.348159,17838.963202
1061.043045,0.000000,12257.527968,19023.292709
1061.043374,-148.041188,1608.800546,19615.457463
1061.043704,-4811.338623,-1838.629195,15766.386565
1061.044033,-10658.965565,-2221.676944,11547.212695
1061.044363,-11325.150913,-8120.612279,8882.471304
1061.044692,-7031.956449,-7737.564530,5477.523971
1061.045022,-814.226536,-7507.735880,-0.000000
1061.045352,5107.421000,-10418.898773,-2368.659014
1061.045681,7550.100608,-5592.497135,1332.370696
1061.046011,5921.647536,7048.078582,5329.482782
1061.046340,3775.050304,12180.918418,10584.944971
1061.046670,3256.906145,15858.176809,13471.748144
1061.046999,1406.391290,17620.196454,14359.995275
1061.047329,1628.453072,6205.373534,17987.004391
1061.047658,-1554.432478,-1685.410096,16358.551318
1061.047988,-7550.100608,459.657299,11325.150913
1061.048318,-9992.780217,-2451.505594,7328.038826
1061.048647,-9622.677246,-6971.469032,7254.018232
1061.048977,-7698.141797,-7201.297681,5329.482782
1061.049306,-2146.597232,-6818.249932,-814.226536
1061.049636,5329.482782,-9346.365076,-2738.761985
1061.049965,9400.615463,-2528.115143,962.267725
1061.050295,7328.038826,7814.174080,7031.956449
1061.050624,4145.153275,9882.631924,11991.336260
1061.050954,1702.473667,13789.718964,13323.706956
1061.051283,-370.102971,13100.233016,16950.716072
1061.051613,-1406.391290,6971.469032,21243.910535
1061.051943,-4959.379811,1685.410096,18727.210333
1061.052272,-9400.615463,-3907.087040,12435.459826
1061.052602,-11843.295072,-7431.126331,7846.182985
1061.052931,-10214.842000,-8580.269578,5699.585753
1061.053261,-3627.009116,-8886.707777,4515.256246
1061.053590,2664.741391,-10572.117872,3034.844362
1061.053920,4663.297435,-6818.249932,4071.132681
1061.054249,3997.112087,3064.381992,6291.750507
1061.054579,4441.235652,7201.297681,10436.903782
1061.054909,5181.441594,10648.727422,14359.995275
1061.055238,1554.432478,16164.615008,18061.024985
1061.055568,-962.267725,12257.527968,17394.839637
1061.055897,-1110.308913,1455.581446,17320.819043
1061.056227,-4293.194464,-4060.306139,15618.345376
1061.056556,-10881.027347,-2681.334243,12509.480420
1061.056886,-13397.727550,-6818.249932,9844.739029
1061.057215,-9548.656652,-9269.755526,7179.997637
1061.057545,-2738.761985,-7201.297681,2886.803174
1061.057875,4071.132681,-7354.516781,-962.267725
1061.058204,8216.285956,-6128.763984,-740.205942
1061.058534,8660.409521,1838.629195,2738.761985
1061.058863,5921.647536,10801.946522,10214.842000
1061.059193,4811.338623,16164.615008,15248.242405
1061.059522,2146.597232,17007.320056,17468.860231
1061.059852,-370.102971,10878.556072,16654.633695
1061.060181,-3256.906145,2604.724693,14211.954086
1061.060511,-5773.606348,-2451.505594,10955.047942
1061.060840,-6439.791695,-3983.696590,8882.471304
1061.061170,-6439.791695,-5898.935335,7179.997637
1061.061500,-6661.853478,-7048.078582,3849.070898
1061.061829,-2368.659014,-6205.373534,-1110.308913
1061.062159,4367.215058,-6511.811733,-1554.432478
1061.062488,8586.388927,-1608.800546,2516.700203
1061.062818,5921.647536,5822.325785,6809.894666
1061.063147,2294.638420,12793.794817,10881.027347
1061.063477,1332.370696,13406.671215,13767.830521
1061.063806,0.000000,10035.851024,19023.292709
1061.064136,-3849.070898,7507.735880,20725.766376
1061.064466,-7624.121203,2451.505594,16062.468941
1061.064795,-9326.594869,-4826.401637,11325.150913
1061.065125,-10658.965565,-6588.421283,7476.080014
1061.065454,-8142.265362,-7277.907231,3182.885551
1061.065784,-2368.659014,-10342.289223,1702.473667
1061.066113,4589.276840,-11184.994271,3034.844362
1061.066443,5773.606348,-3370.820191,6587.832884
1061.066772,3404.947333,5286.058936,7994.224174
1061.067102,2368.659014,7124.688131,11251.130318
1061.067432,2960.823768,12563.966167,14359.995275
1061.067761,1702.473667,14019.547613,17912.983796
1061.068091,1184.329507,5745.716235,21317.931130
1061.068420,-1184.329507,306.438199,20355.663405
1061.068750,-7920.203579,76.609550,14582.057057
1061.069079,-12361.439231,-3447.429741,8660.409521
1061.069409,-11547.212695,-8197.221829,6661.853478
1061.069738,-4811.338623,-8580.269578,3775.050304
1061.070068,2812.782580,-9499.584175,148.041188
1061.070397,7698.141797,-10725.336972,-814.226536
1061.070727,7179.997637,-1302.362347,2516.700203
1061.071057,3552.988522,6894.859482,7698.141797
1061.071386,1628.453072,11108.384721,12287.418637
1061.071716,1776.494261,16700.881856,16284.530724
1061.072045,888.247130,12947.013916,18949.272115
1061.072375,-1332.370696,5822.325785,16358.551318
1061.072704,-5403.503377,-612.876398,12287.418637
1061.073034,-7105.977043,-3447.429741,10732.986159
1061.073363,-7698.141797,-5669.106685,9178.553681
1061.073693,-8808.450710,-6435.202183,7254.018232
1061.074023,-6291.750507,-6358.592633,444.123565
1061.074352,1554.432478,-7201.297681,-3108.864956
1061.074682,10066.800811,-7507.735880,-1036.288319
1061.075011,11991.336260,-383.047749,4219.173869
1061.075341,6661.853478,8656.879127,7772.162391
1061.075670,2368.659014,15168.690860,11399.171507
1061.076000,1776.494261,13942.938064,18357.107362
1061.076329,-1110.308913,11031.775171,22280.198854
1061.076659,-4959.379811,7660.954980,19097.313304
1061.076989,-6735.874072,-2681.334243,13693.809927
1061.077318,-7179.997637,-6894.859482,9770.718434
1061.077648,-8808.450710,-6511.811733,8882.471304
1061.077977,-8660.409521,-8044.002729,5625.565159
1061.078307,-4219.173869,-8580.269578,592.164754
1061.078636,3552.988522,-7124.688131,-370.102971
1061.078966,7772.162391,-3524.039291,4441.235652
1061.079295,6661.853478,3217.601092,7772.162391
1061.079625,1924.535449,9576.193725,9844.739029
1061.079955,518.144159,13023.623466,12879.583391
1061.080284,666.185348,14172.766713,17024.736666
1061.080614,1258.350101,9959.241474,21317.931130
1061.080943,-1406.391290,-689.485948,20133.601622
1061.081273,-8734.430116,-4673.182538,13693.809927
1061.081602,-14063.912898,-2987.772442,8216.285956
1061.081932,-9992.780217,-5975.544884,9178.553681
1061.082261,-1776.494261,-8120.612279,8068.244768
1061.082591,2146.597232,-5975.544884,2072.576638
1061.082920,4959.379811,-6894.859482,-1258.350101
1061.083250,7105.977043,-3370.820191,1332.370696
1061.083580,5773.606348,6971.469032,7031.956449
1061.083909,4293.194464,13406.671215,13101.645173
1061.084239,2146.597232,13023.623466,17912.983796
1061.084568,-444.123565,12487.356617,18283.086767
1061.084898,-2368.659014,7048.078582,15692.365970
1061.085227,-3701.029710,-1378.971896,11917.315666
1061.085557,-6143.709319,-3524.039291,8808.450710
1061.085886,-7994.224174,-4903.011187,8216.285956
1061.086216,-7402.059420,-6818.249932,7179.997637
1061.086546,-3627.009116,-5592.497135,1332.370696
1061.086875,2442.679609,-4979.620737,-2294.638420
1061.087205,8290.306550,-5822.325785,-148.041188
1061.087534,9178.553681,536.266849,4959.379811
1061.087864,5181.441594,9806.022374,8142.265362
1061.088193,3256.906145,13176.842566,11769.274478
1061.088523,1702.473667,11338.213370,17468.860231
1061.088852,-2220.617826,9576.193725,20281.642811
1061.089182,-6365.771101,4290.134789,17987.004391
1061.089512,-6883.915261,-4979.620737,12731.542202
1061.089841,-7994.224174,-5056.230287,8956.491898
1061.090171,-10066.800811,-5515.887586,8734.430116
1061.090500,-8512.368333,-9422.974625,5033.400406
1061.090830,-2368.659014,-7814.174080,1036.288319
1061.091159,4959.379811,-6435.202183,1480.411884
1061.091489,8290.306550,-3140.991542,5033.400406
1061.091818,4737.318029,3983.696590,7476.080014
1061.092148,444.123565,10342.289223,10436.903782
1061.092477,296.082377,12487.356617,14359.995275
1061.092807,666.185348,12563.966167,19319.375086
1061.093137,0.000000,7660.954980,23538.548956
1061.093466,-4367.215058,-1302.362347,19023.292709
1061.093796,-11769.274478,-3524.039291,10214.842000
1061.094125,-13027.624579,-3907.087040,5033.400406
1061.094455,-6883.915261,-8503.660028,7402.059420
1061.094784,296.082377,-9422.974625,7031.956449
1061.095114,2442.679609,-5975.544884,2812.782580
1061.095443,3923.091493,-5439.278036,1480.411884
1061.095773,5847.626942,1302.362347,3997.112087
1061.096103,5255.462188,8044.002729,9030.512492
1061.096432,3923.091493,11644.651570,13175.665768
1061.096762,74.020594,13100.233016,15988.448347
1061.097091,-1998.556043,9193.145976,17616.901420
1061.097421,-3108.864956,3907.087040,16506.592507
1061.097750,-6439.791695,-919.314598,12953.603985
1061.098080,-9474.636058,-3830.477490,9252.574275
1061.098409,-9474.636058,-6281.983084,8290.306550
1061.098739,-5551.544565,-7737.564530,4293.194464
1061.099069,444.123565,-5286.058936,-1702.473667
1061.099398,6143.709319,-6511.811733,-3034.844362
1061.099728,10658.965565,-3217.601092,2812.782580
1061.100057,9104.533087,7124.688131,7624.121203
1061.100387,5255.462188,12563.966167,10658.965565
1061.100716,3701.029710,15628.348159,12139.377449
1061.101046,888.247130,11491.432470,16432.571912
1061.101375,-1554.432478,6128.763984,19763.498651
1061.101705,-4367.215058,459.657299,17246.798449
1061.102035,-6217.729913,-4136.915689,12213.398043
1061.102364,-9030.512492,-4979.620737,8142.265362
1061.102694,-10436.903782,-7354.516781,9326.594869
1061.103023,-8068.244768,-8427.050478,6291.750507
1061.103353,-1554.432478,-5209.449386,-0.000000
1061.103682,6661.853478,-5898.935335,-962.267725
1061.104012,10436.903782,-2757.943793,2664.741391
1061.104341,6883.915261,4826.401637,7402.059420
1061.104671,1850.514855,11031.775171,11177.109724
1061.105000,0.000000,14096.157163,15396.283594
1061.105330,-888.247130,13406.671215,18357.107362
1061.105660,-2960.823768,9039.926876,20281.642811
1061.105989,-6217.729913,-3983.696590,17764.942608
1061.106319,-10955.047942,-8044.002729,12435.459826
1061.106648,-12213.398043,-4826.401637,7772.162391
1061.106978,-8216.285956,-7354.516781,6883.915261
1061.107307,-1850.514855,-8733.488677,5403.503377
1061.107637,1628.453072,-6971.469032,4071.132681
1061.107966,3997.112087,-4366.744339,4441.235652
1061.108296,6365.771101,1532.190996,5551.544565
1061.108626,5181.441594,10112.460574,8142.265362
1061.108955,4959.379811,14096.157163,11843.295072
1061.109285,3552.988522,12257.527968,14508.036463
1061.109614,1480.411884,7507.735880,16654.633695
1061.109944,-2220.617826,1072.533697,16358.551318
1061.110273,-7698.141797,-766.095498,14211.954086
1061.110603,-12435.459826,-383.047749,10732.986159
1061.110932,-12065.356855,-6052.154434,9178.553681
1061.111262,-6365.771101,-8427.050478,5181.441594
1061.111592,592.164754,-6894.859482,-444.123565
1061.111921,6365.771101,-9269.755526,-2146.597232
1061.112251,8216.285956,-2757.943793,1850.514855
1061.112580,5699.585753,7890.783629,7254.018232
1061.112906,3552.988522,13483.280765,11399.171507
1061.113236,3404.947333,13636.499864,14656.077652
1061.113565,1184.329507,11568.042020,17172.777854
1061.113895,-1628.453072,6665.030833,16136.489536
1061.114225,-4293.194464,-1838.629195,13619.789333
1061.114554,-6957.935855,-4749.792088,11103.089130
1061.114884,-8364.327145,-4060.306139,10436.903782
1061.115214,-9400.615463,-5669.106685,7328.038826
1061.115543,-5625.565159,-6818.249932,2368.659014
1061.115873,2146.597232,-7814.174080,-222.061783
1061.116203,8586.388927,-6052.154434,1554.432478
1061.116532,9770.718434,1072.533697,5107.421000
1061.116862,4885.359217,8197.221829,7920.203579
1061.117192,2220.617826,14402.595362,10732.986159
1061.117521,962.267725,12334.137518,17616.901420
1061.117851,-444.123565,8427.050478,22946.384202
1061.118180,-5107.421000,5209.449386,20577.725188
1061.118510,-9104.533087,-1685.410096,13101.645173
1061.118840,-10658.965565,-6128.763984,7105.977043
1061.119169,-8734.430116,-8350.440928,6439.791695
1061.119499,-3849.070898,-9346.365076,6513.812290
1061.119829,888.247130,-8197.221829,4293.194464
1061.120158,3923.091493,-4443.353888,2516.700203
1061.120488,5033.400406,1608.800546,3627.009116
1061.120818,5847.626942,4903.011187,7550.100608
1061.121147,4219.173869,9499.584175,11251.130318
1061.121477,1776.494261,14632.424012,14137.933492
1061.121807,666.185348,11338.213370,17838.963202
1061.122136,-1184.329507,3753.867940,19615.457463
1061.122466,-7105.977043,0.000000,15766.386565
1061.122796,-12213.398043,-2987.772442,11769.274478
1061.123125,-12139.377449,-7354.516781,10288.862594
1061.123455,-8956.491898,-7354.516781,7402.059420
1061.123784,-2960.823768,-5669.106685,1776.494261
1061.124114,4515.256246,-8273.831378,-2442.679609
1061.124444,8956.491898,-6741.640382,-296.082377
1061.124773,8660.409521,3830.477490,4663.297435
1061.125103,5551.544565,11414.822920,10288.862594
1061.125433,4515.256246,16317.834107,12139.377449
1061.125762,1850.514855,17926.634653,12435.459826
1061.126092,1554.432478,9422.974625,15692.365970
1061.126422,0.000000,-1225.752797,16950.716072
1061.126751,-5921.647536,-3294.210641,13101.645173
1061.127081,-10584.944971,-2451.505594,9622.677246
1061.127411,-12361.439231,-5439.278036,9474.636058
1061.127740,-11325.150913,-6128.763984,7846.182985
1061.128070,-5625.565159,-6128.763984,2886.803174
1061.128400,3256.906145,-10112.460574,-666.185348
1061.128729,9178.553681,-5286.058936,814.226536
1061.129059,7624.121203,5132.839837,5107.421000
1061.129388,3849.070898,9729.412825,10436.903782
1061.129718,2072.576638,13713.109414,13841.851115
1061.130048,-370.102971,13559.890315,16654.633695
1061.130377,-1184.329507,7737.564530,20281.642811
1061.130707,-4293.194464,1149.143247,18579.169144
1061.131037,-8512.368333,-3294.210641,12805.562797
1061.131366,-10807.006753,-8350.440928,8512.368333
1061.131696,-9548.656652,-9729.412825,6069.688724
1061.132026,-4219.173869,-7660.954980,5551.544565
1061.132355,2294.638420,-7967.393179,3849.070898
1061.132685,5403.503377,-5745.716235,3775.050304
1061.133015,6365.771101,2451.505594,5181.441594
1061.133344,5995.668130,7354.516781,8882.471304
1061.133674,5847.626942,11644.651570,11843.295072
1061.134004,3627.009116,15934.786358,14211.954086
1061.134333,2590.720797,10265.679673,18357.107362
1061.134663,-814.226536,1532.190996,18653.189738
1061.134992,-7179.997637,-459.657299,15026.180623
1061.135322,-11991.336260,-2298.286494,11991.336260
1061.135652,-12213.398043,-7507.735880,11399.171507
1061.135981,-10066.800811,-7354.516781,7994.224174
1061.136311,-4737.318029,-6665.030833,1628.453072
1061.136641,3404.947333,-10189.070123,-3108.864956
1061.136970,8660.409521,-6358.592633,-1332.370696
1061.137300,9030.512492,4290.134789,4737.318029
1061.137630,5625.565159,11031.775171,10881.027347
1061.137959,3849.070898,16317.834107,12065.356855
1061.138289,2220.617826,16547.662757,14211.954086
1061.138619,2368.659014,8810.098227,16802.674883
1061.138948,-666.185348,1378.971896,15618.345376
1061.139278,-5033.400406,-2911.162892,12435.459826
1061.139608,-8438.347739,-4749.792088,10140.821405
1061.139937,-10955.047942,-4826.401637,9030.512492
1061.140267,-10140.821405,-5669.106685,7105.977043
1061.140596,-2886.803174,-7124.688131,2368.659014
1061.140926,5847.626942,-7814.174080,-0.000000
1061.141256,10510.924376,-2681.334243,518.144159
1061.141585,8438.347739,3830.477490,4071.132681
1061.141915,4811.338623,8503.660028,9622.677246
1061.142245,1924.535449,13866.328514,15840.407159
1061.142574,-1702.473667,13713.109414,20207.622217
1061.142904,-3923.091493,10725.336972,20799.786970
1061.143234,-6143.709319,1378.971896,16062.468941
1061.143563,-7328.038826,-7201.297681,11103.089130
1061.143893,-9992.780217,-9499.584175,7550.100608
1061.144223,-9844.739029,-9193.145976,5255.462188
1061.144552,-5107.421000,-8733.488677,5107.421000
1061.144882,666.185348,-7354.516781,5033.400406
1061.145212,3701.029710,-2528.115143,4811.338623
1061.145541,4885.359217,1378.971896,5921.647536
1061.145871,4811.338623,4826.401637,8068.244768
1061.146200,4885.359217,12257.527968,11843.295072
1061.146530,3182.885551,16700.881856,16062.468941
1061.146860,2220.617826,11261.603821,17542.880825
1061.147189,-1776.494261,919.314598,18061.024985
1061.147519,-7624.121203,-2068.457845,14285.974681
1061.147849,-12139.377449,-3140.991542,10584.944971
1061.148178,-11769.274478,-8273.831378,9844.739029
1061.148508,-8364.327145,-7737.564530,7846.182985
1061.148838,-3627.009116,-5898.935335,2220.617826
1061.149167,3034.844362,-8810.098227,-1702.473667
1061.149497,8586.388927,-6128.763984,962.267725
1061.149827,7105.977043,4519.963438,5847.626942
1061.150156,2294.638420,12487.356617,10066.800811
1061.150486,814.226536,15704.957709,13249.686362
1061.150816,888.247130,15475.129060,16358.551318
1061.151145,518.144159,8733.488677,18505.148550
1061.151475,-3849.070898,612.876398,14434.015869
1061.151804,-9622.677246,-2374.896044,9474.636058
1061.152134,-11103.089130,-4596.572988,7846.182985
1061.152464,-10807.006753,-7354.516781,6291.750507
1061.152793,-7476.080014,-6511.811733,4219.173869
1061.153123,-1184.329507,-8120.612279,1702.473667
1061.153453,4071.132681,-7967.393179,1850.514855
1061.153782,5181.441594,1685.410096,4737.318029
1061.154112,3701.029710,8197.221829,7476.080014
1061.154442,2738.761985,11031.775171,11177.109724
1061.154771,0.000000,15015.471761,14804.118840
1061.155101,-2294.638420,12104.308868,18653.189738
1061.155431,-3849.070898,3677.258390,20281.642811
1061.155760,-7846.182985,842.705048,15766.386565
1061.156090,-13175.665768,-2834.553343,10066.800811
1061.156420,-14508.036463,-8963.317327,7254.018232
1061.156749,-11399.171507,-8886.707777,6069.688724
1061.157079,-5329.482782,-8733.488677,5181.441594
1061.157409,1258.350101,-10189.070123,3775.050304
1061.157738,2664.741391,-3217.601092,2664.741391
1061.158068,3701.029710,6205.373534,2886.803174
1061.158397,5477.523971,7048.078582,8290.306550
1061.158727,5181.441594,9806.022374,14878.139434
1061.159057,-148.041188,16700.881856,19097.313304
1061.159386,-4589.276840,13100.233016,18357.107362
1061.159716,-7476.080014,5209.449386,15840.407159
1061.160046,-10066.800811,1455.581446,12657.521608
1061.160375,-10436.903782,-5592.497135,9770.718434
1061.160705,-9474.636058,-14172.766713,7476.080014
1061.161035,-10066.800811,-11414.822920,6809.894666
1061.161364,-10881.027347,-6128.763984,6439.791695
1061.161694,-7698.141797,-4290.134789,5773.606348
1061.162024,-3478.967927,-1608.800546,5107.421000
1061.162353,814.226536,1685.410096,5329.482782
1061.162683,4663.297435,5975.544884,7179.997637
1061.163013,6217.729913,10112.460574,10510.924376
1061.163342,3552.988522,11031.775171,12731.542202
1061.163672,-2294.638420,9729.412825,13027.624579
1061.164001,-6883.915261,6511.811733,11473.192101
1061.164331,-7254.018232,2374.896044,10584.944971
1061.164661,-5995.668130,-2834.553343,9918.759623
1061.164990,-6365.771101,-5439.278036,7920.203579
1061.165320,-6587.832884,-5592.497135,5847.626942
1061.165650,-5329.482782,-7124.688131,5699.585753
1061.165979,-4441.235652,-4060.306139,6883.915261
1061.166309,-5033.400406,1608.800546,8808.450710
1061.166639,-5181.441594,6128.763984,10807.006753
1061.166968,-4293.194464,6665.030833,11325.150913
1061.167298,-3182.885551,7354.516781,11473.192101
1061.167628,-2368.659014,6052.154434,10510.924376
1061.167957,-1258.350101,2068.457845,9992.780217
1061.168287,-2812.782580,-766.095498,10214.842000
1061.168617,-6883.915261,-1302.362347,9844.739029
1061.168946,-9474.636058,-1915.238745,8512.368333
1061.169276,-8734.430116,-2604.724693,7698.141797
1061.169605,-6365.771101,-2451.505594,8142.265362
1061.169935,-3775.050304,-1685.410096,8142.265362
1061.170265,-2220.617826,-383.047749,8290.306550
1061.170594,296.082377,1149.143247,8438.347739
1061.170924,1406.391290,3140.991542,10066.800811
1061.171254,-296.082377,5362.668486,11695.253884
1061.171583,-3330.926739,6818.249932,13249.686362
1061.171913,-6735.874072,3907.087040,13545.768739
1061.172243,-8438.347739,1838.629195,13175.665768
1061.172572,-8586.388927,76.609550,12139.377449
1061.172902,-7328.038826,-2681.334243,10510.924376
1061.173232,-5255.462188,-4903.011187,7846.182985
1061.173561,-3997.112087,-4596.572988,5107.421000
1061.173891,-2516.700203,-2528.115143,3849.070898
1061.174221,-296.082377,0.000000,5181.441594
1061.174550,444.123565,1838.629195,7698.141797
1061.174880,-1332.370696,4903.011187,9770.718434
1061.175209,-3997.112087,6971.469032,11621.233289
1061.175539,-5551.544565,6052.154434,12731.542202
1061.175869,-6661.853478,2987.772442,13027.624579
1061.176198,-6883.915261,153.219100,12361.439231
1061.176528,-5773.606348,-1991.848295,10288.862594
1061.176858,-4145.153275,-3830.477490,8364.327145
1061.177187,-1850.514855,-4060.306139,6883.915261
1061.177517,-518.144159,-2451.505594,6735.874072
1061.177847,1110.308913,612.876398,7402.059420
1061.178176,1406.391290,2834.553343,8364.327145
1061.178506,888.247130,4136.915689,9770.718434
1061.178836,-2072.576638,5975.544884,11251.130318
1061.179165,-4959.379811,5975.544884,12583.501014
1061.179495,-7254.018232,3830.477490,12435.459826
1061.179825,-7550.100608,1455.581446,11547.212695
1061.180154,-6809.894666,-1302.362347,9030.512492
1061.180484,-4885.359217,-3447.429741,6661.853478
1061.180813,-3478.967927,-4903.011187,5551.544565
1061.181143,-2368.659014,-3600.648841,5847.626942
1061.181473,-1702.473667,76.609550,6661.853478
1061.181802,-444.123565,2757.943793,7550.100608
1061.182132,-1628.453072,5209.449386,8956.491898
1061.182462,-3627.009116,6052.154434,10807.006753
1061.182791,-5699.585753,5439.278036,12731.542202
1061.183121,-7772.162391,4290.134789,13841.851115
1061.183451,-9104.533087,2451.505594,14211.954086
1061.183780,-9474.636058,306.438199,12657.521608
1061.184110,-8438.347739,-2604.724693,10066.800811
1061.184440,-5847.626942,-5056.230287,7328.038826
1061.184769,-1924.535449,-4979.620737,6143.709319
1061.185099,1332.370696,-1991.848295,5699.585753
1061.185429,2960.823768,2068.457845,5551.544565
1061.185758,2664.741391,4366.744339,7328.038826
1061.186088,962.267725,6052.154434,9622.677246
1061.186417,-1258.350101,8427.050478,11177.109724
1061.186747,-3923.091493,7048.078582,11991.336260
1061.187077,-6069.688724,3370.820191,13101.645173
1061.187406,-8808.450710,0.000000,13175.665768
1061.187736,-10584.944971,-2374.896044,13101.645173
1061.188066,-11399.171507,-4060.306139,11177.109724
1061.188395,-9622.677246,-4749.792088,8142.265362
1061.188725,-5995.668130,-4903.011187,5847.626942
1061.189055,-2294.638420,-3140.991542,4737.318029
1061.189384,444.123565,-383.047749,5255.462188
1061.189714,1554.432478,2757.943793,6439.791695
1061.190044,370.102971,6435.202183,7920.203579
1061.190373,-1554.432478,9039.926876,9696.697840
1061.190703,-3923.091493,7048.078582,11695.253884
1061.191033,-6291.750507,3217.601092,12731.542202
1061.191362,-8364.327145,689.485948,12213.398043
1061.191692,-9326.594869,-1991.848295,11177.109724
1061.192021,-8808.450710,-4979.620737,9918.759623
1061.192351,-6735.874072,-6818.249932,8882.471304
1061.192681,-4071.132681,-4213.525239,7920.203579
1061.193010,-1184.329507,-2451.505594,6809.894666
1061.193340,1480.411884,306.438199,6365.771101
1061.193670,2960.823768,3294.210641,8290.306550
1061.193999,2812.782580,6358.592633,9918.759623
1061.194329,1332.370696,7354.516781,11399.171507
1061.194659,-1628.453072,5132.839837,13027.624579
1061.194988,-5107.421000,3064.381992,14656.077652
1061.195318,-8734.430116,1685.410096,14285.974681
1061.195648,-10510.924376,-612.876398,11991.336260
1061.195977,-9622.677246,-3907.087040,8586.388927
1061.196307,-6291.750507,-6281.983084,5551.544565
1061.196637,-2664.741391,-6205.373534,5033.400406
1061.196966,-296.082377,-2911.162892,5477.523971
1061.197296,370.102971,919.314598,6661.853478
1061.197625,-666.185348,5592.497135,7698.141797
1061.197955,-1554.432478,9499.584175,9770.718434
1061.198285,-2220.617826,9729.412825,11695.253884
1061.198614,-4293.194464,7967.393179,12583.501014
1061.198944,-5847.626942,4903.011187,12805.562797
1061.199274,-7031.956449,1608.800546,12213.398043
1061.199603,-7624.121203,-1991.848295,12435.459826
1061.199933,-8660.409521,-2987.772442,11177.109724
1061.200263,-8364.327145,-3370.820191,8808.450710
1061.200592,-5255.462188,-1532.190996,7105.977043
1061.200922,-1850.514855,0.000000,5921.647536
1061.201252,1776.494261,919.314598,5773.606348
1061.201581,2368.659014,3907.087040,6513.812290
1061.201911,1702.473667,6971.469032,7698.141797
1061.202241,0.000000,8503.660028,9474.636058
1061.202570,-2072.576638,7431.126331,11399.171507
1061.202900,-4145.153275,5209.449386,12065.356855
1061.203229,-4293.194464,3447.429741,10955.047942
1061.203559,-4811.338623,229.828649,9770.718434
1061.203889,-4071.132681,-1532.190996,8808.450710
1061.204218,-3108.864956,-1991.848295,8512.368333
1061.204548,-2738.761985,-306.438199,8364.327145
1061.204878,-2294.638420,1455.581446,8290.306550
1061.205207,-2442.679609,3830.477490,9178.553681
1061.205537,-2294.638420,5515.887586,10140.821405
1061.205867,-1850.514855,6818.249932,11103.089130
1061.206196,-1850.514855,6511.811733,11399.171507
1061.206526,-2072.576638,4749.792088,11325.150913
1061.206856,-1554.432478,3600.648841,10510.924376
1061.207185,-962.267725,2374.896044,9918.759623
1061.207515,-888.247130,1685.410096,8734.430116
1061.207845,-888.247130,1225.752797,8438.347739
1061.208174,74.020594,1532.190996,8734.430116
1061.208504,666.185348,3677.258390,9770.718434
1061.208833,0.000000,6358.592633,10658.965565
1061.209163,-1406.391290,7890.783629,10436.903782
1061.209493,-2146.597232,7201.297681,9844.739029
1061.209822,-2368.659014,6894.859482,9252.574275
1061.210152,-2590.720797,5132.839837,8438.347739
1061.210482,-1998.556043,3217.601092,7402.059420
1061.210811,-1258.350101,1378.971896,6291.750507
1061.211141,-962.267725,76.609550,6217.729913
1061.211471,-1480.411884,229.828649,7179.997637
1061.211800,-2294.638420,1608.800546,8734.430116
1061.212130,-2738.761985,4136.915689,9104.533087
1061.212460,-3256.906145,6205.373534,10140.821405
1061.212789,-2960.823768,6894.859482,11103.089130
1061.213119,-2072.576638,6511.811733,11029.068536
1061.213449,-888.247130,5975.544884,10584.944971
1061.213778,-592.164754,5132.839837,9844.739029
1061.214108,-592.164754,4596.572988,9622.677246
1061.214437,-518.144159,3217.601092,9178.553681
1061.214767,-518.144159,2451.505594,8364.327145
1061.215097,148.041188,1915.238745,8068.244768
1061.215426,444.123565,1991.848295,8586.388927
1061.215756,1406.391290,2298.286494,9696.697840
1061.216086,518.144159,2987.772442,10881.027347
1061.216415,-1406.391290,4749.792088,11325.150913
1061.216745,-2368.659014,5898.935335,11991.336260
1061.217075,-1628.453072,6205.373534,12509.480420
1061.217404,-962.267725,5592.497135,12213.398043
1061.217734,-1258.350101,4443.353888,10436.903782
1061.218064,-518.144159,3294.210641,8808.450710
1061.218393,0.000000,3447.429741,8808.450710
1061.218723,666.185348,4290.134789,9030.512492
1061.219053,148.041188,4903.011187,8142.265362
1061.219382,0.000000,4290.134789,7328.038826
1061.219712,0.000000,2911.162892,6883.915261
1061.220042,-592.164754,2068.457845,7031.956449
1061.220371,-1702.473667,1608.800546,8364.327145
1061.220701,-2368.659014,2528.115143,9252.574275
1061.221031,-3923.091493,3524.039291,9918.759623
1061.221360,-3923.091493,3753.867940,10362.883188
1061.221690,-2664.741391,4060.306139,10658.965565
1061.222019,-1184.329507,4213.525239,10362.883188
1061.222349,148.041188,5056.230287,9400.615463
1061.222679,370.102971,5745.716235,8364.327145
1061.223008,962.267725,5592.497135,8956.491898
1061.223338,740.205942,6128.763984,9030.512492
1061.223668,74.020594,6281.983084,8808.450710
1061.223997,-814.226536,5669.106685,8142.265362
1061.224327,-1258.350101,3677.258390,7476.080014
1061.224657,-1998.556043,1455.581446,7624.121203
1061.224986,-2368.659014,0.000000,7698.141797
1061.225316,-2516.700203,-306.438199,8512.368333
1061.225646,-2368.659014,459.657299,9622.677246
1061.225975,-1776.494261,2298.286494,10584.944971
1061.226305,-888.247130,3217.601092,10955.047942
1061.226635,-296.082377,4290.134789,11547.212695
1061.226964,296.082377,5975.544884,12657.521608
1061.227294,222.061783,7507.735880,12879.583391
1061.227624,148.041188,7660.954980,11473.192101
1061.227953,370.102971,5056.230287,10732.986159
1061.228283,-370.102971,3600.648841,10288.862594
1061.228612,-1332.370696,2987.772442,9622.677246
1061.228942,-2294.638420,3140.991542,8956.491898
1061.229272,-1998.556043,2451.505594,8216.285956
1061.229601,-1406.391290,1532.190996,7994.224174
1061.229931,-740.205942,1608.800546,7920.203579
1061.230261,0.000000,2068.457845,8290.306550
1061.230590,296.082377,2834.553343,8734.430116
1061.230920,-148.041188,4366.744339,9548.656652
1061.231250,-1110.308913,6971.469032,10362.883188
1061.231579,-1480.411884,7124.688131,11399.171507
1061.231909,-1258.350101,7124.688131,12213.398043
1061.232239,-1850.514855,7048.078582,11621.233289
1061.232568,-3034.844362,7048.078582,9844.739029
1061.232898,-2664.741391,5592.497135,7031.956449
1061.233228,-1110.308913,3217.601092,4737.318029
1061.233557,1258.350101,1762.019645,4071.132681
1061.233887,2812.782580,1838.629195,4293.194464
1061.234217,2516.700203,2374.896044,5033.400406
1061.234546,814.226536,3370.820191,6735.874072
1061.234876,-2516.700203,4673.182538,9252.574275
1061.235206,-4071.132681,6435.202183,12361.439231
1061.235535,-4515.256246,7048.078582,14508.036463
1061.235865,-4441.235652,6358.592633,14582.057057
1061.236194,-4589.276840,5132.839837,13619.789333
1061.236524,-4885.359217,3524.039291,12065.356855
1061.236854,-3923.091493,3064.381992,10658.965565
1061.237183,-1406.391290,2681.334243,8734.430116
1061.237513,1554.432478,2451.505594,5995.668130
1061.237843,4441.235652,2145.067394,4071.132681
1061.238172,6143.709319,1225.752797,4293.194464
1061.238502,5033.400406,2451.505594,6809.894666
1061.238832,962.267725,5975.544884,9844.739029
1061.239161,-3182.885551,8810.098227,13101.645173
1061.239491,-4885.359217,8963.317327,14804.118840
1061.239821,-4589.276840,6665.030833,14137.933492
1061.240150,-2516.700203,2451.505594,13323.706956
1061.240480,-740.205942,0.000000,10362.883188
1061.240810,-296.082377,0.000000,7476.080014
1061.241139,-296.082377,1302.362347,6809.894666
1061.241469,-592.164754,2374.896044,8660.409521
1061.241799,-1184.329507,5745.716235,9918.759623
1061.242128,-1776.494261,6052.154434,8808.450710
1061.242458,-1480.411884,4290.134789,6143.709319
1061.242787,-814.226536,1225.752797,5847.626942
1061.243117,-740.205942,1149.143247,8438.347739
1061.243447,-1924.535449,3217.601092,11843.295072
1061.243776,-2960.823768,5592.497135,13175.665768
1061.244106,-3775.050304,6588.421283,12435.459826
1061.244436,-2664.741391,6052.154434,10584.944971
1061.244765,-592.164754,3140.991542,8216.285956
1061.245095,1480.411884,1455.581446,5995.668130
1061.245425,3034.844362,536.266849,5773.606348
1061.245754,3108.864956,2145.067394,6587.832884
1061.246084,2072.576638,4443.353888,7550.100608
1061.246414,444.123565,4519.963438,9400.615463
1061.246743,-962.267725,4366.744339,11325.150913
1061.247073,-2368.659014,5132.839837,12805.562797
1061.247403,-2886.803174,5975.544884,12657.521608
1061.247732,-1998.556043,3447.429741,12361.439231
1061.248062,-1702.473667,1225.752797,12287.418637
1061.248392,-2442.679609,1378.971896,11547.212695
1061.248721,-2960.823768,2911.162892,9548.656652
1061.249051,-2442.679609,3907.087040,8216.285956
1061.249381,-1258.350101,5592.497135,7402.059420
1061.249710,0.000000,4519.963438,5995.668130
1061.250040,1998.556043,1378.971896,5329.482782
1061.250369,2960.823768,689.485948,5329.482782
1061.250699,1554.432478,2757.943793,6143.709319
1061.251029,0.000000,3447.429741,9104.533087
1061.251358,-1258.350101,3753.867940,13397.727550
1061.251688,-3330.926739,5362.668486,16062.468941
1061.252018,-5255.462188,6971.469032,15618.345376
1061.252347,-3923.091493,5669.106685,13693.809927
1061.252677,-2146.597232,2834.553343,12287.418637
1061.253007,-1924.535449,1915.238745,10436.903782
1061.253336,-2516.700203,1532.190996,8068.244768
1061.253666,-1924.535449,2298.286494,4737.318029
1061.253996,222.061783,2451.505594,3108.864956
1061.254325,1628.453072,2757.943793,3627.009116
1061.254655,2442.679609,2681.334243,4589.276840
1061.254985,2368.659014,2911.162892,5181.441594
1061.255314,2738.761985,3294.210641,6587.832884
1061.255644,1702.473667,3600.648841,9770.718434
1061.255974,-888.247130,3907.087040,13693.809927
1061.256303,-4071.132681,4903.011187,15396.283594
1061.256633,-5181.441594,3677.258390,15026.180623
1061.256962,-4515.256246,1915.238745,13249.686362
1061.257292,-3034.844362,1149.143247,11103.089130
1061.257622,-1850.514855,-1838.629195,8734.430116
1061.257951,-1628.453072,-3064.381992,6661.853478
1061.258281,-2072.576638,-1915.238745,4737.318029
1061.258611,-296.082377,0.000000,4589.276840
1061.258940,2886.803174,536.266849,5847.626942
1061.259270,3701.029710,612.876398,7624.121203
1061.259600,2368.659014,2298.286494,9548.656652
1061.259929,1332.370696,2451.505594,12213.398043
1061.260259,-148.041188,2834.553343,14285.974681
1061.260589,-2220.617826,3600.648841,15766.386565
1061.260918,-3330.926739,1838.629195,15840.407159
1061.261248,-2812.782580,-689.485948,15248.242405
1061.261578,-2738.761985,-2068.457845,12657.521608
1061.261907,-2960.823768,-2374.896044,9474.636058
1061.262237,-2146.597232,-2834.553343,7328.038826
1061.262567,-666.185348,-2298.286494,5329.482782
1061.262896,1554.432478,-1455.581446,5181.441594
1061.263226,3552.988522,-1455.581446,4811.338623
1061.263556,3330.926739,766.095498,5033.400406
1061.263885,2146.597232,3447.429741,7105.977043
1061.264215,1036.288319,4136.915689,10066.800811
1061.264544,-962.267725,3524.039291,13027.624579
1061.264874,-2886.803174,3830.477490,14582.057057
1061.265204,-3404.947333,1378.971896,14434.015869
1061.265533,-4589.276840,-1072.533697,12879.583391
1061.265863,-6365.771101,-1532.190996,11251.130318
1061.266193,-6217.729913,-1991.848295,9030.512492
1061.266522,-4811.338623,-2911.162892,7328.038826
1061.266852,-2368.659014,-1838.629195,6661.853478
1061.267182,0.000000,76.609550,5995.668130
1061.267511,1776.494261,0.000000,4737.318029
1061.267841,2368.659014,1378.971896,4515.256246
1061.268171,2516.700203,2145.067394,6661.853478
1061.268500,2294.638420,3600.648841,11103.089130
1061.268830,740.205942,5745.716235,14804.118840
1061.269160,-1332.370696,5592.497135,15840.407159
1061.269489,-1628.453072,2681.334243,15766.386565
1061.269819,-2516.700203,1149.143247,13915.871710
1061.270149,-3923.091493,1225.752797,11843.295072
1061.270478,-4219.173869,306.438199,9548.656652
1061.270808,-3034.844362,-842.705048,7402.059420
1061.271137,-1480.411884,-766.095498,4959.379811
1061.271467,518.144159,-2221.676944,3034.844362
1061.271797,1628.453072,-2374.896044,2220.617826
1061.272126,2146.597232,612.876398,3775.050304
1061.272456,2590.720797,3447.429741,6957.935855
1061.272786,2146.597232,3907.087040,10510.924376
1061.273115,-222.061783,4060.306139,13249.686362
1061.273445,-2220.617826,4366.744339,15988.448347
1061.273775,-3923.091493,3524.039291,16580.613101
1061.274104,-5403.503377,3370.820191,16062.468941
1061.274434,-5699.585753,1991.848295,13545.768739
1061.274764,-4589.276840,-1225.752797,9252.574275
1061.275093,-2368.659014,-2528.115143,5477.523971
1061.275423,1258.350101,-2604.724693,4367.215058
1061.275753,4071.132681,-2451.505594,3330.926739
1061.276082,4959.379811,-766.095498,2812.782580
1061.276412,4589.276840,995.924147,4885.359217
1061.276742,3775.050304,3600.648841,10140.821405
1061.277071,1776.494261,5898.935335,13841.851115
1061.277401,-666.185348,7201.297681,15692.365970
1061.277731,-1702.473667,4366.744339,15766.386565
1061.278060,-3108.864956,995.924147,15692.365970
1061.278390,-4811.338623,153.219100,15174.221811
1061.278719,-6735.874072,-536.266849,12953.603985
1061.279049,-7328.038826,-2145.067394,8956.491898
1061.279379,-5477.523971,-1762.019645,4367.215058
1061.279708,0.000000,-3064.381992,1924.535449
1061.280038,5477.523971,-5515.887586,1554.432478
1061.280368,6217.729913,-2451.505594,1924.535449
1061.280697,3330.926739,2374.896044,4145.153275
1061.281027,592.164754,5975.544884,8438.347739
1061.281357,-1702.473667,8656.879127,13693.809927
1061.281686,-2664.741391,7431.126331,16802.674883
1061.282016,-3552.988522,3600.648841,17024.736666
1061.282346,-6069.688724,-995.924147,14878.139434
1061.282675,-7698.141797,-1762.019645,12065.356855
1061.283005,-7550.100608,-3447.429741,9770.718434
1061.283335,-6217.729913,-5209.449386,6291.750507
1061.283664,-3182.885551,-4903.011187,3849.070898
1061.283994,1702.473667,-5975.544884,4071.132681
1061.284324,4219.173869,-2911.162892,3108.864956
1061.284653,4885.359217,1685.410096,3108.864956
1061.284983,5699.585753,2987.772442,5773.606348
1061.285312,5403.503377,3294.210641,10732.986159
1061.285642,3034.844362,6281.983084,16284.530724
1061.285972,-518.144159,7431.126331,19985.560434
1061.286301,-3997.112087,4290.134789,19837.519246
1061.286631,-6661.853478,1149.143247,16950.716072
1061.286961,-7105.977043,-1378.971896,14211.954086
1061.287290,-5255.462188,-5515.887586,10807.006753
1061.287620,-3404.947333,-5898.935335,6069.688724
1061.287950,-148.041188,-4903.011187,2886.803174
1061.288279,3404.947333,-4903.011187,1184.329507
1061.288609,5255.462188,-1608.800546,1554.432478
1061.288939,5773.606348,2068.457845,4145.153275
1061.289268,4293.194464,5669.106685,8364.327145
1061.289598,1850.514855,7890.783629,13693.809927
1061.289928,-962.267725,9269.755526,17098.757260
1061.290257,-2960.823768,7048.078582,17690.922014
1061.290587,-5033.400406,2374.896044,16580.613101
1061.290917,-7105.977043,766.095498,14508.036463
1061.291246,-8290.306550,-1378.971896,11103.089130
1061.291576,-7624.121203,-2681.334243,7846.182985
1061.291906,-4885.359217,-2451.505594,3034.844362
1061.292235,814.226536,-3600.648841,444.123565
1061.292565,6661.853478,-3524.039291,-666.185348
1061.292894,7328.038826,536.266849,296.082377
1061.293224,4885.359217,4673.182538,2960.823768
1061.293554,2368.659014,7431.126331,7994.224174
1061.293883,0.000000,8810.098227,13989.892304
1061.294213,-1554.432478,9499.584175,18061.024985
1061.294543,-4367.215058,6205.373534,18875.251521
1061.294872,-6883.915261,1149.143247,15248.242405
1061.295202,-7772.162391,-1915.238745,11769.274478
1061.295532,-7846.182985,-4596.572988,9326.594869
1061.295861,-6439.791695,-4519.963438,6217.729913
1061.296191,-2886.803174,-3907.087040,3182.885551
1061.296521,2220.617826,-5286.058936,2146.597232
1061.296850,5329.482782,-2834.553343,1258.350101
1061.297180,5403.503377,1149.143247,2664.741391
1061.297510,5477.523971,3064.381992,5847.626942
1061.297839,4219.173869,4979.620737,11473.192101
1061.298169,962.267725,8197.221829,17246.798449
1061.298499,-1998.556043,7737.564530,20725.766376
1061.298828,-5033.400406,1915.238745,20281.642811
1061.299158,-7402.059420,-1762.019645,17172.777854
1061.299487,-8290.306550,-2987.772442,13767.830521
1061.299817,-7476.080014,-6511.811733,10510.924376
1061.300147,-4737.318029,-6894.859482,6587.832884
1061.300476,-888.247130,-6588.421283,3108.864956
1061.300806,3627.009116,-5898.935335,1554.432478
1061.301136,6883.915261,-2068.457845,2146.597232
1061.301465,7179.997637,1762.019645,5773.606348
1061.301795,5181.441594,5362.668486,9252.574275
1061.302125,1554.432478,8503.660028,13249.686362
1061.302454,-370.102971,9039.926876,17616.901420
1061.302784,-1924.535449,5822.325785,20281.642811
1061.303114,-5181.441594,2221.676944,19393.395680
1061.303443,-7698.141797,459.657299,15026.180623
1061.303773,-9400.615463,-3294.210641,9252.574275
1061.304103,-7994.224174,-6435.202183,5699.585753
1061.304432,-4219.173869,-5745.716235,2960.823768
1061.304762,1036.288319,-4979.620737,1702.473667
1061.305092,5107.421000,-3217.601092,-814.226536
1061.305421,5699.585753,536.266849,222.061783
1061.305751,4737.318029,4136.915689,2812.782580
1061.306081,2812.782580,6665.030833,8290.306550
1061.306410,0.000000,9652.803275,13915.871710
1061.306740,-1998.556043,10495.508323,18357.107362
1061.307069,-4515.256246,5286.058936,18653.189738
1061.307399,-7105.977043,383.047749,15914.427753
1061.307729,-8586.388927,-1762.019645,11917.315666
1061.308058,-8512.368333,-5286.058936,8956.491898
1061.308388,-6217.729913,-5132.839837,5033.400406
1061.308718,-2146.597232,-4366.744339,2960.823768
1061.309047,3182.885551,-5362.668486,1184.329507
1061.309377,5699.585753,-2911.162892,1850.514855
1061.309707,5921.647536,2451.505594,4441.235652
1061.310036,5551.544565,5975.544884,7624.121203
1061.310366,3775.050304,7354.516781,12583.501014
1061.310696,814.226536,8427.050478,17616.901420
1061.311025,-2294.638420,6588.421283,21021.848753
1061.311355,-5477.523971,2221.676944,20503.704593
1061.311685,-7179.997637,536.266849,17394.839637
1061.312014,-7328.038826,-2221.676944,13545.768739
1061.312344,-6513.812290,-5898.935335,9474.636058
1061.312674,-3775.050304,-7124.688131,5033.400406
1061.313003,666.185348,-6588.421283,1850.514855
1061.313333,5995.668130,-4443.353888,444.123565
1061.313662,8956.491898,229.828649,2072.576638
1061.313992,8290.306550,4673.182538,5255.462188
1061.314322,5033.400406,6971.469032,8586.388927
1061.314651,1480.411884,9346.365076,12731.542202
1061.314981,-296.082377,9806.022374,17542.880825
1061.315311,-2294.638420,7354.516781,19615.457463
1061.315640,-5403.503377,2757.943793,17246.798449
1061.315970,-8142.265362,-1302.362347,14211.954086
1061.316300,-10362.883188,-4290.134789,9696.697840
1061.316629,-9548.656652,-4903.011187,6957.935855
1061.316959,-5921.647536,-5209.449386,5181.441594
1061.317289,370.102971,-3524.039291,740.205942
1061.317618,5403.503377,-2604.724693,-2368.659014
1061.317948,8956.491898,-2374.896044,-1776.494261
1061.318277,7624.121203,3294.210641,2664.741391
1061.318607,3478.967927,9499.584175,7920.203579
1061.318936,-222.061783,11261.603821,14952.160028
1061.319266,-1924.535449,11414.822920,19911.539840
1061.319596,-4441.235652,8044.002729,21317.931130
1061.319925,-6883.915261,1455.581446,18135.045579
1061.320255,-7846.182985,-4213.525239,13249.686362
1061.320584,-8438.347739,-4060.306139,7994.224174
1061.320914,-6439.791695,-4749.792088,4293.194464
1061.321244,-1924.535449,-6511.811733,4367.215058
1061.321573,2368.659014,-4826.401637,3627.009116
1061.321903,4071.132681,-536.266849,1998.556043
1061.322232,4441.235652,1762.019645,2738.761985
1061.322562,4219.173869,3524.039291,5921.647536
1061.322891,3108.864956,5898.935335,11695.253884
1061.323221,1036.288319,7048.078582,18061.024985
1061.323551,-2738.761985,6665.030833,20429.683999
1061.323880,-6661.853478,3753.867940,18949.272115
1061.324210,-7846.182985,-536.266849,15988.448347
1061.324539,-7624.121203,-3677.258390,12435.459826
1061.324869,-6143.709319,-5439.278036,8216.285956
1061.325198,-2368.659014,-6588.421283,4219.173869
1061.325528,3108.864956,-6128.763984,2294.638420
1061.325858,6143.709319,-3370.820191,1332.370696
1061.326187,7624.121203,229.828649,2812.782580
1061.326517,5329.482782,3677.258390,6735.874072
1061.326846,3330.926739,6665.030833,11769.274478
1061.327176,888.247130,9576.193725,16580.613101
1061.327506,-1554.432478,9116.536426,18727.210333
1061.327835,-3627.009116,3140.991542,18061.024985
1061.328165,-5625.565159,-1378.971896,16210.510130
1061.328494,-7920.203579,-2757.943793,13693.809927
1061.328824,-8586.388927,-2987.772442,9844.739029
1061.329153,-7179.997637,-3064.381992,7254.018232
1061.329483,-2738.761985,-4749.792088,3478.967927
1061.329813,2812.782580,-3830.477490,-962.267725
1061.330142,8586.388927,-3140.991542,-1406.391290
1061.330472,10288.862594,383.047749,1480.411884
1061.330801,5847.626942,7124.688131,4293.194464
1061.331131,888.247130,11031.775171,8660.409521
1061.331461,-888.247130,11261.603821,14730.098246
1061.331790,-1036.288319,9116.536426,19541.436869
1061.332120,-3997.112087,5822.325785,19023.292709
1061.332449,-6957.935855,-153.219100,14730.098246
1061.332779,-9252.574275,-4136.915689,10881.027347
1061.333108,-10288.862594,-2987.772442,7772.162391
1061.333438,-8956.491898,-3140.991542,6587.832884
1061.333768,-3627.009116,-4366.744339,3108.864956
1061.334097,3108.864956,-4213.525239,444.123565
1061.334427,6217.729913,-3294.210641,740.205942
1061.334756,6365.771101,1455.581446,2664.741391
1061.335086,2738.761985,5592.497135,6513.812290
1061.335415,518.144159,8044.002729,11843.295072
1061.335745,-592.164754,9499.584175,18949.272115
1061.336075,-2220.617826,8886.707777,22872.363608
1061.336404,-5033.400406,3907.087040,20651.745782
1061.336734,-6587.832884,-1991.848295,15840.407159
1061.337063,-7772.162391,-3830.477490,9696.697840
1061.337393,-5181.441594,-4596.572988,6883.915261
1061.337723,-888.247130,-5439.278036,6365.771101
1061.338052,2960.823768,-4443.353888,5551.544565
1061.338382,4071.132681,-2298.286494,3034.844362
1061.338711,4515.256246,0.000000,2220.617826
1061.339041,4811.338623,3140.991542,7105.977043
1061.339370,3330.926739,6358.592633,12435.459826
1061.339700,0.000000,8963.317327,16950.716072
1061.340030,-2072.576638,7967.393179,18579.169144
1061.340359,-3478.967927,4519.963438,17394.839637
1061.340689,-5403.503377,153.219100,14878.139434
1061.341018,-7476.080014,-2145.067394,11843.295072
1061.341348,-8512.368333,-3217.601092,8808.450710
1061.341677,-6291.750507,-3753.867940,5329.482782
1061.342007,-1628.453072,-2987.772442,1184.329507
1061.342337,4367.215058,-3753.867940,-0.000000
1061.342666,7624.121203,-2451.505594,888.247130
1061.342996,6513.812290,2528.115143,1924.535449
1061.343325,3108.864956,5745.716235,5773.606348
1061.343655,444.123565,8963.317327,11177.109724
1061.343985,-1480.411884,10878.556072,17320.819043
1061.344314,-2516.700203,7048.078582,19541.436869
1061.344644,-4959.379811,2374.896044,16728.654289
1061.344973,-6809.894666,-1532.190996,13545.768739
1061.345303,-7846.182985,-2298.286494,10066.800811
1061.345632,-7846.182985,-3524.039291,8586.388927
1061.345962,-6143.709319,-4136.915689,6735.874072
1061.346292,-740.205942,-2681.334243,2072.576638
1061.346621,5181.441594,-3830.477490,222.061783
1061.346951,8734.430116,-2757.943793,-74.020594
1061.347280,7105.977043,2987.772442,3034.844362
1061.347610,3108.864956,6358.592633,7476.080014
1061.347940,444.123565,9422.974625,14063.912898
1061.348269,-1036.288319,9652.803275,20429.683999
1061.348599,-3701.029710,8503.660028,22058.137072
1061.348928,-6809.894666,2374.896044,18505.148550
1061.349258,-8216.285956,-4060.306139,13397.727550
1061.349587,-8068.244768,-4596.572988,8808.450710
1061.349917,-5403.503377,-4443.353888,6291.750507
1061.350247,-1554.432478,-4749.792088,4885.359217
1061.350576,1850.514855,-3983.696590,3108.864956
1061.350906,3404.947333,-2681.334243,1184.329507
1061.351235,4737.318029,612.876398,2220.617826
1061.351565,4737.318029,2604.724693,6661.853478
1061.351894,3330.926739,5439.278036,11621.233289
1061.352224,444.123565,8580.269578,17098.757260
1061.352554,-2294.638420,7354.516781,20207.622217
1061.352883,-4663.297435,4596.572988,19319.375086
1061.353213,-6661.853478,306.438199,17098.757260
1061.353542,-7402.059420,-2068.457845,13397.727550
1061.353872,-6809.894666,-2834.553343,9696.697840
1061.354202,-3552.988522,-4366.744339,4367.215058
1061.354531,1702.473667,-3830.477490,1628.453072
1061.354861,6587.832884,-4366.744339,148.041188
1061.355190,8512.368333,-536.266849,1406.391290
1061.355520,5699.585753,4979.620737,3478.967927
1061.355849,2886.803174,6052.154434,7772.162391
1061.356179,0.000000,8810.098227,13027.624579
1061.356509,-2368.659014,9806.022374,17690.922014
1061.356838,-3775.050304,5975.544884,18653.189738
1061.357168,-6143.709319,1072.533697,15840.407159
1061.357497,-7550.100608,-2145.067394,11695.253884
1061.357827,-8660.409521,-2911.162892,8808.450710
1061.358156,-7698.141797,-3677.258390,7328.038826
1061.358486,-5033.400406,-2604.724693,3849.070898
1061.358816,1110.308913,-2757.943793,-444.123565
1061.359145,7105.977043,-4060.306139,-740.205942
1061.359475,8438.347739,-612.876398,592.164754
1061.359804,4959.379811,3830.477490,3775.050304
1061.360134,1406.391290,6588.421283,9178.553681
1061.360464,-888.247130,8580.269578,15618.345376
1061.360793,-1998.556043,8197.221829,21614.013506
1061.361123,-3923.091493,5362.668486,21984.116477
1061.361452,-6883.915261,0.000000,17616.901420
1061.361782,-7772.162391,-3753.867940,12287.418637
1061.362111,-6587.832884,-4903.011187,9326.594869
1061.362441,-3923.091493,-5439.278036,7254.018232
1061.362771,74.020594,-3983.696590,5033.400406
1061.363100,3627.009116,-3447.429741,2664.741391
1061.363430,5403.503377,-2068.457845,1998.556043
1061.363759,6143.709319,1762.019645,3701.029710
1061.364089,4885.359217,3370.820191,7550.100608
1061.364419,2886.803174,5439.278036,12583.501014
1061.364748,-666.185348,7354.516781,17764.942608
1061.365078,-2812.782580,6971.469032,20799.786970
1061.365407,-4959.379811,2987.772442,19319.375086
1061.365737,-6957.935855,-153.219100,15988.448347
1061.366066,-7698.141797,-1915.238745,11843.295072
1061.366396,-6957.935855,-3447.429741,8216.285956
1061.366726,-3034.844362,-3370.820191,4367.215058
1061.367055,2146.597232,-2528.115143,814.226536
1061.367385,6809.894666,-3447.429741,-888.247130
1061.367714,7846.182985,-229.828649,296.082377
1061.368044,4811.338623,3447.429741,3775.050304
1061.368373,1406.391290,6894.859482,8808.450710
1061.368703,-2072.576638,10418.898773,14508.036463
1061.369033,-3478.967927,9729.412825,17838.963202
1061.369362,-3923.091493,4290.134789,17764.942608
1061.369692,-5255.462188,-842.705048,15026.180623
1061.370021,-7031.956449,-2987.772442,11695.253884
1061.370351,-8216.285956,-2681.334243,9178.553681
1061.370681,-7476.080014,-2374.896044,7328.038826
1061.371010,-3478.967927,-1455.581446,3330.926739
1061.371340,3627.009116,-2911.162892,518.144159
1061.371669,8808.450710,-4443.353888,-1036.288319
1061.371999,9104.533087,-306.438199,1406.391290
1061.372328,4589.276840,3677.258390,4663.297435
1061.372658,296.082377,7277.907231,10807.006753
1061.372988,-2146.597232,8733.488677,18431.127956
1061.373317,-3256.906145,7354.516781,22576.281231
1061.373647,-5921.647536,3217.601092,21243.910535
1061.373976,-7698.141797,-2451.505594,16284.530724
1061.374306,-7994.224174,-4290.134789,11029.068536
1061.374635,-6883.915261,-5439.278036,7328.038826
1061.374965,-3478.967927,-5056.230287,5107.421000
1061.375295,1628.453072,-4443.353888,4737.318029
1061.375624,4515.256246,-3217.601092,2442.679609
1061.375954,5625.565159,-612.876398,1554.432478
1061.376283,4737.318029,919.314598,4219.173869
1061.376613,2960.823768,2987.772442,8068.244768
1061.376943,666.185348,6665.030833,14656.077652
1061.377272,-1628.453072,6971.469032,20503.704593
1061.377602,-3330.926739,5286.058936,20799.786970
1061.377931,-5699.585753,1149.143247,17690.922014
1061.378261,-6809.894666,-2834.553343,14285.974681
1061.378590,-7105.977043,-4136.915689,11251.130318
1061.378920,-6143.709319,-2757.943793,8512.368333
1061.379250,-1924.535449,-2298.286494,3330.926739
1061.379579,4071.132681,-2911.162892,962.267725
1061.379909,7920.203579,-3524.039291,-518.144159
1061.380238,8586.388927,383.047749,1406.391290
1061.380568,5255.462188,3677.258390,5403.503377
1061.380898,814.226536,7890.783629,9770.718434
1061.381227,-2220.617826,10572.117872,15470.304188
1061.381557,-2812.782580,7660.954980,19171.333898
1061.381886,-4071.132681,2604.724693,17912.983796
1061.382216,-6069.688724,-2451.505594,14508.036463
1061.382545,-7476.080014,-2145.067394,11695.253884
1061.382875,-8068.244768,-1072.533697,8956.491898
1061.383205,-6735.874072,-689.485948,7328.038826
1061.383534,-1776.494261,-1072.533697,2590.720797
1061.383864,5255.462188,-2221.676944,-1258.350101
1061.384193,9474.636058,-2911.162892,-1850.514855
1061.384523,8512.368333,1915.238745,370.102971
1061.384852,2960.823768,5439.278036,3701.029710
1061.385182,-1110.308913,7201.297681,10881.027347
1061.385512,-3330.926739,8810.098227,18949.272115
1061.385841,-5033.400406,8503.660028,22354.219448
1061.386171,-7031.956449,2987.772442,19541.436869
1061.386500,-8216.285956,-4519.963438,14211.954086
1061.386830,-8438.347739,-5515.887586,9918.759623
1061.387160,-7105.977043,-5132.839837,7328.038826
1061.387489,-2960.823768,-3217.601092,5921.647536
1061.387819,2072.576638,-2681.334243,5033.400406
1061.388148,4885.359217,-2145.067394,3627.009116
1061.388478,5921.647536,153.219100,2738.761985
1061.388807,5625.565159,1762.019645,4885.359217
1061.389137,4737.318029,3294.210641,8734.430116
1061.389467,2368.659014,6052.154434,15766.386565
1061.389796,-518.144159,6818.249932,21836.075289
1061.390126,-3775.050304,4213.525239,21688.034101
1061.390455,-7179.997637,-612.876398,17987.004391
1061.390785,-7994.224174,-2298.286494,13989.892304
1061.391114,-6439.791695,-3830.477490,11251.130318
1061.391444,-4071.132681,-3907.087040,7624.121203
1061.391774,518.144159,-3677.258390,2146.597232
1061.392103,4959.379811,-4903.011187,-888.247130
1061.392433,8364.327145,-3983.696590,-1924.535449
1061.392762,7772.162391,1532.190996,2146.597232
1061.393092,3997.112087,4673.182538,6587.832884
1061.393422,-370.102971,8044.002729,11473.192101
1061.393751,-2960.823768,8886.707777,16136.489536
1061.394081,-3478.967927,5286.058936,19245.354492
1061.394410,-5107.421000,842.705048,18135.045579
1061.394740,-7476.080014,-2604.724693,15174.221811
1061.395069,-9178.553681,-2221.676944,11399.171507
1061.395399,-8290.306550,-1991.848295,9104.533087
1061.395729,-5699.585753,-2451.505594,6217.729913
1061.396058,0.000000,-2451.505594,222.061783
1061.396388,7031.956449,-3294.210641,-222.061783
1061.396717,9992.780217,-1455.581446,-518.144159
1061.397047,7772.162391,2757.943793,1554.432478
1061.397376,2812.782580,5669.106685,5773.606348
1061.397706,-592.164754,7507.735880,12509.480420
1061.398036,-2664.741391,8427.050478,20281.642811
1061.398365,-4219.173869,6741.640382,22650.301825
1061.398695,-6661.853478,1532.190996,19023.292709
1061.399024,-8068.244768,-3983.696590,13619.789333
1061.399354,-8068.244768,-4749.792088,10066.800811
1061.399684,-6365.771101,-3370.820191,7550.100608
1061.400013,-2072.576638,-1991.848295,5403.503377
1061.400343,3330.926739,-1762.019645,1628.453072
1061.400672,6809.894666,-2604.724693,518.144159
1061.401002,6661.853478,766.095498,1850.514855
1061.401331,4885.359217,3907.087040,4737.318029
1061.401661,2812.782580,5745.716235,9474.636058
1061.401991,-518.144159,7507.735880,15248.242405
1061.402320,-3108.864956,5286.058936,20429.683999
1061.402650,-5329.482782,2145.067394,21317.931130
1061.402979,-7920.203579,-1608.800546,17616.901420
1061.403309,-9326.594869,-2068.457845,13619.789333
1061.403639,-7624.121203,-3524.039291,10510.924376
1061.403968,-4515.256246,-3447.429741,7179.997637
1061.404298,592.164754,-2911.162892,2886.803174
1061.404627,5551.544565,-3447.429741,222.061783
1061.404957,9474.636058,-1455.581446,-148.041188
1061.405286,8586.388927,2911.162892,3108.864956
1061.405616,5181.441594,4749.792088,6957.935855
1061.405946,1036.288319,8044.002729,13175.665768
1061.406275,-1924.535449,9806.022374,18653.189738
1061.406605,-3108.864956,7354.516781,21243.910535
1061.406934,-5477.523971,2068.457845,18209.066173
1061.407264,-7402.059420,-2451.505594,14434.015869
1061.407593,-8142.265362,-3677.258390,10955.047942
1061.407923,-7920.203579,-3217.601092,9030.512492
1061.408253,-5255.462188,-1915.238745,6217.729913
1061.408582,370.102971,-1762.019645,-1110.308913
1061.408912,6587.832884,-3294.210641,-2442.679609
1061.409241,9696.697840,-1762.019645,-2146.597232
1061.409571,8512.368333,2145.067394,1258.350101
1061.409901,2738.761985,5975.544884,5921.647536
1061.410230,-1184.329507,9193.145976,11843.295072
1061.410560,-3478.967927,8580.269578,19467.416275
1061.410889,-4811.338623,6281.983084,22280.198854
1061.411219,-7698.141797,1302.362347,19615.457463
1061.411548,-8734.430116,-4060.306139,14508.036463
1061.411878,-9252.574275,-2681.334243,10066.800811
1061.412208,-7328.038826,-1915.238745,6365.771101
1061.412537,-2368.659014,-3370.820191,3849.070898
1061.412867,4367.215058,-4673.182538,1332.370696
1061.413196,6291.750507,-2604.724693,1628.453072
1061.413526,6513.812290,2298.286494,888.247130
1061.413855,5033.400406,2911.162892,3849.070898
1061.414185,3330.926739,3294.210641,9770.718434
1061.414515,0.000000,5745.716235,17246.798449
1061.414844,-2442.679609,5745.716235,22428.240043
1061.415174,-5551.544565,3753.867940,21614.013506
1061.415503,-7698.141797,-306.438199,17394.839637
1061.415833,-7402.059420,-3907.087040,13989.892304
1061.416163,-5255.462188,-4673.182538,11399.171507
1061.416492,-2442.679609,-4826.401637,7624.121203
1061.416822,2368.659014,-3064.381992,2738.761985
1061.417151,6809.894666,-3217.601092,444.123565
1061.417481,9326.594869,-995.924147,148.041188
1061.417810,7846.182985,3294.210641,4515.256246
1061.418140,4515.256246,5822.325785,7698.141797
1061.418470,296.082377,8350.440928,11991.336260
1061.418799,-1850.514855,8810.098227,17172.777854
1061.419129,-3849.070898,5362.668486,19911.539840
1061.419458,-6513.812290,-459.657299,17542.880825
1061.419788,-9030.512492,-3524.039291,14211.954086
1061.420118,-10881.027347,-2451.505594,10510.924376
1061.420447,-9548.656652,-1225.752797,8512.368333
1061.420777,-5921.647536,-1915.238745,5699.585753
1061.421106,0.000000,-2451.505594,1036.288319
1061.421436,6809.894666,-1991.848295,-3478.967927
1061.421766,10584.944971,-995.924147,-2294.638420
1061.422095,8956.491898,2528.115143,1554.432478
1061.422425,3108.864956,7354.516781,6365.771101
1061.422754,-1924.535449,10495.508323,13545.768739
1061.423084,-2812.782580,9269.755526,19911.539840
1061.423413,-4441.235652,7507.735880,22058.137072
1061.423743,-6513.812290,2604.724693,19245.354492
1061.424073,-7476.080014,-3524.039291,13767.830521
1061.424402,-7920.203579,-4290.134789,9474.636058
1061.424732,-6291.750507,-2145.067394,6883.915261
1061.425061,-1850.514855,-1991.848295,4367.215058
1061.425391,3701.029710,-2451.505594,1184.329507
1061.425721,6143.709319,-1072.533697,1406.391290
1061.426050,6809.894666,1225.752797,814.226536
1061.426380,4219.173869,2757.943793,3923.091493
1061.426709,1850.514855,5439.278036,9178.553681
1061.427039,-592.164754,6665.030833,16728.654289
1061.427369,-3701.029710,5975.544884,21984.116477
1061.427698,-6883.915261,3830.477490,20873.807564
1061.428028,-8512.368333,-919.314598,16876.695478
1061.428357,-7846.182985,-4060.306139,13027.624579
1061.428687,-6069.688724,-4136.915689,10288.862594
1061.429016,-2812.782580,-2604.724693,6587.832884
1061.429346,1924.535449,-1608.800546,2442.679609
1061.429676,6365.771101,-3140.991542,-370.102971
1061.430005,8068.244768,1149.143247,2072.576638
1061.430335,6365.771101,4290.134789,3997.112087
1061.430664,4589.276840,4749.792088,8142.265362
1061.430994,1406.391290,6894.859482,13767.830521
1061.431324,-1924.535449,6588.421283,18801.230927
1061.431653,-4367.215058,3830.477490,19837.519246
1061.431983,-6513.812290,-229.828649,17468.860231
1061.432312,-8660.409521,-1991.848295,14211.954086
1061.432642,-8586.388927,-2451.505594,11029.068536
1061.432972,-5995.668130,-3294.210641,8142.265362
1061.433301,-2886.803174,-2911.162892,4959.379811
1061.433631,2072.576638,-3600.648841,-1036.288319
1061.433960,7846.182985,-2451.505594,-2368.659014
1061.434290,9696.697840,536.266849,-0.000000
1061.434619,7920.203579,3524.039291,3478.967927
1061.434949,1850.514855,7507.735880,7550.100608
1061.435279,-1998.556043,9193.145976,13175.665768
1061.435608,-2368.659014,6435.202183,19393.395680
1061.435938,-4293.194464,4903.011187,21688.034101
1061.436267,-7920.203579,1608.800546,17838.963202
1061.436597,-8882.471304,-4136.915689,12805.562797
1061.436927,-9104.533087,-4366.744339,8660.409521
1061.437256,-7550.100608,-2834.553343,5847.626942
1061.437586,-2294.638420,-3217.601092,4293.194464
1061.437915,2664.741391,-2987.772442,1036.288319
1061.438245,6143.709319,-1532.190996,-74.020594
1061.438575,5329.482782,689.485948,962.267725
1061.438904,3330.926739,2604.724693,4145.153275
1061.439234,1406.391290,4673.182538,10362.883188
1061.439563,-370.102971,6205.373534,17912.983796
1061.439893,-2368.659014,5975.544884,22946.384202
1061.440222,-6069.688724,3294.210641,21169.889941
1061.440552,-7402.059420,-1378.971896,17690.922014
1061.440882,-6883.915261,-3064.381992,13841.851115
1061.441211,-5255.462188,-3064.381992,10288.862594
1061.441541,-1036.288319,-3064.381992,6587.832884
1061.441870,3108.864956,-2374.896044,2664.741391
1061.442200,6735.874072,-2374.896044,1110.308913
1061.442530,6069.688724,1378.971896,2590.720797
1061.442859,4737.318029,3753.867940,3404.947333
1061.443189,3330.926739,4903.011187,8586.388927
1061.443518,444.123565,6818.249932,13915.871710
1061.443848,-2886.803174,6588.421283,18061.024985
1061.444177,-5107.421000,3524.039291,18357.107362
1061.444507,-7105.977043,-842.705048,15914.427753
1061.444837,-8882.471304,-1762.019645,13397.727550
1061.445166,-8142.265362,-1302.362347,10584.944971
1061.445496,-6439.791695,-842.705048,8734.430116
1061.445825,-1998.556043,-1225.752797,2738.761985
1061.446155,3997.112087,-2451.505594,-2368.659014
1061.446485,8364.327145,-1378.971896,-962.267725
1061.446814,10140.821405,1915.238745,370.102971
1061.447144,5921.647536,5745.716235,4959.379811
1061.447473,1480.411884,9039.926876,8586.388927
1061.447803,-1924.535449,9039.926876,15026.180623
1061.448133,-2664.741391,6741.640382,20133.601622
1061.448462,-5403.503377,3907.087040,20207.622217
1061.448792,-8068.244768,153.219100,16136.489536
1061.449121,-9030.512492,-3907.087040,11769.274478
1061.449451,-8438.347739,-3370.820191,9400.615463
1061.449780,-6513.812290,-1991.848295,7624.121203
1061.450110,-2368.659014,-2681.334243,2516.700203
1061.450440,3330.926739,-4366.744339,-666.185348
1061.450769,6143.709319,-2374.896044,-148.041188
1061.451099,5995.668130,1762.019645,2146.597232
1061.451428,3923.091493,4290.134789,5995.668130
1061.451758,1924.535449,6052.154434,11177.109724
1061.452088,-444.123565,5975.544884,18061.024985
1061.452417,-2368.659014,4903.011187,22132.157666
1061.452747,-5699.585753,3294.210641,21243.910535
1061.453076,-7179.997637,-995.924147,17394.839637
1061.453406,-7031.956449,-1915.238745,12435.459826
1061.453736,-5033.400406,-2298.286494,8586.388927
1061.454065,-296.082377,-4596.572988,5847.626942
1061.454395,3034.844362,-6052.154434,962.267725
1061.454724,4367.215058,-4749.792088,888.247130
1061.455054,4441.235652,919.314598,1480.411884
1061.455383,4663.297435,2604.724693,4515.256246
1061.455713,3552.988522,3447.429741,8660.409521
1061.456043,-222.061783,5132.839837,14434.015869
1061.456372,-3108.864956,4903.011187,19023.292709
1061.456702,-5033.400406,3524.039291,20281.642811
1061.457031,-7328.038826,1149.143247,18061.024985
1061.457361,-8660.409521,-459.657299,14211.954086
1061.457691,-7402.059420,-2987.772442,10584.944971
1061.458020,-4219.173869,-4060.306139,7476.080014
1061.458350,0.000000,-1838.629195,3034.844362
1061.458679,5181.441594,-2911.162892,-592.164754
1061.459009,7698.141797,-2068.457845,666.185348
1061.459339,6883.915261,2834.553343,2516.700203
1061.459668,4145.153275,4596.572988,6661.853478
1061.459998,962.267725,7737.564530,10955.047942
1061.460327,-1554.432478,8733.488677,15618.345376
1061.460657,-2590.720797,5362.668486,18727.210333
1061.460986,-4737.318029,2757.943793,17542.880825
1061.461316,-7328.038826,-383.047749,13915.871710
1061.461646,-7846.182985,-2451.505594,11177.109724
1061.461975,-7031.956449,-2145.067394,8808.450710
1061.462305,-4959.379811,-1378.971896,5773.606348
1061.462634,-370.102971,-2681.334243,222.061783
1061.462964,5921.647536,-4596.572988,-1776.494261
1061.463294,7846.182985,-1302.362347,-0.000000
1061.463623,5773.606348,3217.601092,2664.741391
1061.463953,1110.308913,5898.935335,7328.038826
1061.464282,-1850.514855,7124.688131,12509.480420
1061.464612,-2368.659014,6971.469032,18949.272115
1061.464942,-3701.029710,5056.230287,21762.054695
1061.465271,-6291.750507,1532.190996,19467.416275
1061.465601,-7698.141797,-2757.943793,14730.098246
1061.465930,-7698.141797,-4290.134789,10881.027347
1061.466260,-5181.441594,-3064.381992,8216.285956
1061.466589,-814.226536,-3140.991542,5551.544565
1061.466919,3034.844362,-2911.162892,4367.215058
1061.467249,4589.276840,-2374.896044,1110.308913
1061.467578,5403.503377,383.047749,1406.391290
1061.467908,5329.482782,536.266849,5699.585753
1061.468237,3552.988522,2757.943793,10955.047942
1061.468567,0.000000,6128.763984,17172.777854
1061.468897,-2590.720797,5975.544884,20651.745782
1061.469226,-4515.256246,3294.210641,20577.725188
1061.469556,-6069.688724,306.438199,17542.880825
1061.469885,-6587.832884,-1762.019645,13249.686362
1061.470215,-4959.379811,-3140.991542,9918.759623
1061.470544,-2664.741391,-1762.019645,6143.709319
1061.470874,1850.514855,-306.438199,518.144159
1061.471204,5921.647536,-3064.381992,-0.000000
1061.471533,6809.894666,-995.924147,-962.267725
1061.471863,5403.503377,536.266849,1702.473667
1061.472192,1406.391290,3677.258390,7179.997637
1061.472522,-2442.679609,7737.564530,12361.439231
1061.472852,-4515.256246,7507.735880,16950.716072
1061.473181,-4515.256246,3140.991542,18505.148550
1061.473511,-6291.750507,0.000000,16876.695478
1061.473840,-8290.306550,-1302.362347,14359.995275
1061.474170,-8438.347739,-1685.410096,11917.315666
1061.474500,-7772.162391,-306.438199,9918.759623
1061.474829,-4885.359217,612.876398,5625.565159
1061.475159,740.205942,-1991.848295,296.082377
1061.475488,7846.182985,-5286.058936,-1776.494261
1061.475818,9326.594869,-1149.143247,666.185348
1061.476147,6661.853478,2911.162892,2442.679609
1061.476477,2146.597232,4596.572988,6957.935855
1061.476807,-148.041188,6511.811733,13619.789333
1061.477136,-1702.473667,7048.078582,20725.766376
1061.477466,-3701.029710,5439.278036,21910.095883
1061.477795,-5847.626942,1072.533697,18357.107362
1061.478125,-6587.832884,-2681.334243,13545.768739
1061.478455,-6069.688724,-3600.648841,10066.800811
1061.478784,-3775.050304,-2451.505594,7550.100608
1061.479114,-370.102971,-2145.067394,4515.256246
1061.479443,2368.659014,-3217.601092,1776.494261
1061.479773,5181.441594,-3370.820191,-592.164754
1061.480103,5107.421000,0.000000,2072.576638
1061.480432,3552.988522,995.924147,5329.482782
1061.480762,740.205942,3294.210641,10807.006753
1061.481091,-2072.576638,5898.935335,16950.716072
1061.481421,-3775.050304,5286.058936,21910.095883
1061.481750,-5847.626942,2528.115143,21391.951724
1061.482080,-7920.203579,306.438199,17542.880825
1061.482410,-8364.327145,-1762.019645,13767.830521
1061.482739,-6587.832884,-2757.943793,11103.089130
1061.483069,-3330.926739,-1072.533697,7846.182985
1061.483398,1702.473667,-1762.019645,1110.308913
1061.483728,6439.791695,-4443.353888,296.082377
1061.484058,8216.285956,-2221.676944,-518.144159
1061.484387,6883.915261,2451.505594,3034.844362
1061.484717,3923.091493,5592.497135,7476.080014
1061.485046,-296.082377,8273.831378,12213.398043
1061.485376,-2516.700203,7967.393179,16802.674883
1061.485706,-2886.803174,4443.353888,18949.272115
1061.486035,-4737.318029,995.924147,17172.777854
1061.486365,-7105.977043,-306.438199,13545.768739
1061.486694,-8068.244768,-1225.752797,10066.800811
1061.487024,-6957.935855,-536.266849,7994.224174
1061.487353,-3701.029710,-689.485948,5329.482782
1061.487683,2590.720797,-1685.410096,-740.205942
1061.488013,6661.853478,-2374.896044,-1998.556043
1061.488342,7179.997637,-689.485948,-1628.453072
1061.488672,4811.338623,2451.505594,1776.494261
1061.489001,740.205942,5132.839837,6661.853478
1061.489331,-2664.741391,6435.202183,14359.995275
1061.489661,-5255.462188,6588.421283,20577.725188
1061.489990,-7328.038826,5132.839837,21836.075289
1061.490320,-8882.471304,229.828649,17912.983796
1061.490649,-8734.430116,-4519.963438,13397.727550
1061.490979,-7402.059420,-4596.572988,10436.903782
1061.491309,-4145.153275,-3140.991542,7402.059420
1061.491638,444.123565,-3600.648841,5255.462188
1061.491968,3849.070898,-2757.943793,2516.700203
1061.492297,6735.874072,-536.266849,1258.350101
1061.492627,7105.977043,2374.896044,2886.803174
1061.492956,7476.080014,2298.286494,5921.647536
1061.493286,4441.235652,4290.134789,11251.130318
1061.493616,740.205942,5209.449386,17394.839637
1061.493945,-2368.659014,3907.087040,22206.178260
1061.494275,-6069.688724,1762.019645,21688.034101
1061.494604,-8142.265362,-383.047749,18061.024985
1061.494934,-8290.306550,-2451.505594,13619.789333
1061.495264,-5921.647536,-3830.477490,9770.718434
1061.495593,-2220.617826,-4366.744339,4589.276840
1061.495923,3330.926739,-4213.525239,1258.350101
1061.496252,6069.688724,-3677.258390,-222.061783
1061.496582,7402.059420,919.314598,814.226536
1061.496911,5033.400406,4213.525239,3775.050304
1061.497241,1628.453072,5515.887586,6735.874072
1061.497571,-1258.350101,5975.544884,12287.418637
1061.497900,-1998.556043,5975.544884,18135.045579
1061.498230,-4441.235652,4290.134789,20503.704593
1061.498559,-7550.100608,1838.629195,17394.839637
1061.498889,-9622.677246,-2221.676944,13397.727550
1061.499219,-8882.471304,-2987.772442,9992.780217
1061.499548,-6587.832884,-1149.143247,8364.327145
1061.499878,-2368.659014,-995.924147,3701.029710
1061.500207,4663.297435,-2298.286494,-1110.308913
1061.500537,8438.347739,-1302.362347,-2516.700203
1061.500867,9770.718434,0.000000,-1258.350101
1061.501196,6217.729913,3677.258390,3108.864956
1061.501526,1036.288319,6741.640382,7772.162391
1061.501855,-2220.617826,8503.660028,14952.160028
1061.502185,-3701.029710,7048.078582,20207.622217
1061.502514,-6217.729913,4366.744339,21317.931130
1061.502844,-8290.306550,-1532.190996,17838.963202
1061.503174,-8364.327145,-4979.620737,13027.624579
1061.503503,-7624.121203,-2068.457845,10510.924376
1061.503833,-4367.215058,-383.047749,6957.935855
1061.504162,444.123565,-2068.457845,1924.535449
1061.504492,6217.729913,-3677.258390,296.082377
1061.504822,7105.977043,-229.828649,1924.535449
1061.505151,6143.709319,5898.935335,3182.885551
1061.505481,3256.906145,5975.544884,5995.668130
1061.505810,814.226536,4443.353888,10510.924376
1061.506140,-2516.700203,3447.429741,17912.983796
1061.506470,-4885.359217,2757.943793,21984.116477
1061.506799,-7772.162391,536.266849,19911.539840
1061.507129,-9400.615463,-2145.067394,16136.489536
1061.507458,-8882.471304,-2911.162892,12583.501014
1061.507788,-6217.729913,-3217.601092,10732.986159
1061.508117,-1628.453072,-3064.381992,8734.430116
1061.508447,3923.091493,-1991.848295,2146.597232
1061.508777,7846.182985,536.266849,-518.144159
1061.509106,10066.800811,1378.971896,-148.041188
1061.509436,9992.780217,2987.772442,4145.153275
1061.509765,5847.626942,6435.202183,8364.327145
1061.510095,1776.494261,8886.707777,13101.645173
1061.510425,-1776.494261,7201.297681,18431.127956
1061.510754,-4515.256246,4903.011187,20207.622217
1061.511084,-7476.080014,-306.438199,17542.880825
1061.511413,-9030.512492,-5056.230287,13175.665768
1061.511743,-9474.636058,-4290.134789,8882.471304
1061.512073,-7624.121203,-1302.362347,7254.018232
1061.512402,-3182.885551,-2145.067394,3701.029710
1061.512732,2960.823768,-2834.553343,-888.247130
1061.513061,6809.894666,-2221.676944,-888.247130
1061.513391,7328.038826,1608.800546,148.041188
1061.513720,3256.906145,6128.763984,3034.844362
1061.514050,-444.123565,7431.126331,7105.977043
1061.514380,-2516.700203,6511.811733,14211.954086
1061.514709,-3552.988522,4136.915689,20207.622217
1061.515039,-6439.791695,3064.381992,21539.992912
1061.515368,-9252.574275,-1302.362347,16876.695478
1061.515698,-9992.780217,-4366.744339,11399.171507
1061.516028,-7846.182985,-5056.230287,7846.182985
1061.516357,-2590.720797,-4903.011187,7105.977043
1061.516687,3256.906145,-3217.601092,4071.132681
1061.517016,6069.688724,-1072.533697,2960.823768
1061.517346,6957.935855,1378.971896,-0.000000
1061.517675,6735.874072,2604.724693,3997.112087
1061.518005,5477.523971,3524.039291,9178.553681
1061.518335,1480.411884,5592.497135,14582.057057
1061.518664,-1554.432478,5209.449386,18505.148550
1061.518994,-4515.256246,2451.505594,19911.539840
1061.519324,-6661.853478,-842.705048,18801.230927
1061.519653,-7994.224174,-3294.210641,16506.592507
1061.519983,-7624.121203,-4749.792088,12953.603985
1061.520313,-5625.565159,-3677.258390,9474.636058
1061.520642,-888.247130,-689.485948,3330.926739
1061.520972,5033.400406,-1608.800546,2294.638420
1061.521301,8290.306550,-153.219100,1258.350101
1061.521631,8956.491898,3600.648841,1554.432478
1061.521961,6365.771101,5362.668486,4441.235652
1061.522290,2664.741391,8656.879127,8734.430116
1061.522620,-1998.556043,9959.241474,14434.015869
1061.522950,-4219.173869,6205.373534,18283.086767
1061.523279,-6291.750507,1378.971896,17838.963202
1061.523609,-8882.471304,-1838.629195,14878.139434
1061.523939,-10066.800811,-2834.553343,12657.521608
1061.524268,-10066.800811,-1455.581446,9992.780217
1061.524598,-7402.059420,-766.095498,7254.018232
1061.524928,-1702.473667,-1532.190996,3775.050304
1061.525257,5329.482782,-2068.457845,-1406.391290
1061.525587,9548.656652,995.924147,-1702.473667
1061.525916,11473.192101,2374.896044,444.123565
1061.526246,7254.018232,6128.763984,4441.235652
1061.526576,1924.535449,10035.851024,8290.306550
1061.526905,-1406.391290,8503.660028,14952.160028
1061.527235,-2738.761985,7354.516781,21021.848753
1061.527565,-6439.791695,6281.983084,21465.972318
1061.527894,-8882.471304,76.609550,16580.613101
1061.528224,-8734.430116,-5745.716235,11177.109724
1061.528554,-7624.121203,-5362.668486,7031.956449
1061.528883,-3997.112087,-3600.648841,5329.482782
1061.529213,518.144159,-4060.306139,2886.803174
1061.529542,3775.050304,-1455.581446,2738.761985
1061.529872,4737.318029,2298.286494,1480.411884
1061.530202,4367.215058,1225.752797,3552.988522
1061.530531,2812.782580,3370.820191,7846.182985
1061.530861,0.000000,5439.278036,13619.789333
1061.531191,-2368.659014,5056.230287,18949.272115
1061.531520,-5477.523971,3753.867940,20503.704593
1061.531850,-8438.347739,306.438199,18579.169144
1061.532180,-8068.244768,-4519.963438,15544.324782
1061.532509,-6217.729913,-5209.449386,12065.356855
1061.532839,-3627.009116,-3753.867940,8142.265362
1061.533168,740.205942,-3217.601092,3552.988522
1061.533498,5847.626942,-4749.792088,2072.576638
1061.533828,7698.141797,-766.095498,2590.720797
1061.534157,7994.224174,3294.210641,4367.215058
1061.534487,6661.853478,5515.887586,8068.244768
1061.534817,3775.050304,7124.688131,10732.986159
1061.535146,-148.041188,5439.278036,15026.180623
1061.535476,-2812.782580,3524.039291,18505.148550
1061.535806,-6069.688724,1991.848295,17987.004391
1061.536135,-8290.306550,-1149.143247,15470.304188
1061.536465,-9252.574275,-3677.258390,11991.336260
1061.536795,-8660.409521,-4213.525239,9030.512492
1061.537124,-5255.462188,-3830.477490,5329.482782
1061.537454,518.144159,-4903.011187,2368.659014
1061.537783,6365.771101,-1072.533697,-814.226536
1061.538113,9030.512492,1608.800546,-74.020594
1061.538443,8512.368333,4979.620737,2368.659014
1061.538772,3330.926739,8503.660028,5699.585753
1061.539102,0.000000,9269.755526,10214.842000
1061.539432,-1702.473667,8273.831378,15692.365970
1061.539761,-4145.153275,6894.859482,19319.375086
1061.540091,-7328.038826,1608.800546,18209.066173
1061.540421,-9474.636058,-4290.134789,14211.954086
1061.540750,-10584.944971,-4903.011187,10955.047942
1061.541080,-9252.574275,-3447.429741,9030.512492
1061.541409,-4663.297435,-3294.210641,6217.729913
