#time,accel_x,accel_y,accel_z
1102.172387,-1184.329507,842.705048,9326.594869
1102.172716,-1036.288319,1072.533697,9622.677246
1102.173046,-962.267725,919.314598,9622.677246
1102.173375,-962.267725,919.314598,9474.636058
1102.173704,-1036.288319,995.924147,9548.656652
1102.174034,-814.226536,842.705048,9104.533087
1102.174363,-888.247130,612.876398,9548.656652
1102.174692,-1036.288319,689.485948,9548.656652
1102.175022,-1110.308913,689.485948,9622.677246
1102.175351,-1110.308913,536.266849,9474.636058
1102.175680,-1110.308913,1149.143247,9474.636058
1102.176010,-1036.288319,842.705048,9474.636058
1102.176339,-1036.288319,995.924147,9400.615463
1102.176668,-1184.329507,995.924147,9474.636058
1102.176998,-1184.329507,842.705048,9326.594869
1102.177327,-1036.288319,842.705048,9474.636058
1102.177657,-888.247130,1302.362347,9844.739029
1102.177986,-1036.288319,1072.533697,9696.697840
1102.178315,-962.267725,995.924147,9548.656652
1102.178645,-888.247130,995.924147,9770.718434
1102.178974,-1110.308913,919.314598,9474.636058
1102.179303,-1628.453072,689.485948,9474.636058
1102.179633,-592.164754,1149.143247,9474.636058
1102.179962,-962.267725,1072.533697,9474.636058
1102.180291,-814.226536,919.314598,9474.636058
1102.180621,-888.247130,995.924147,9622.677246
1102.180950,-1258.350101,995.924147,9326.594869
1102.181279,-888.247130,919.314598,9400.615463
1102.181609,-1110.308913,1072.533697,9474.636058
1102.181938,-1036.288319,842.705048,9770.718434
1102.182267,-962.267725,689.485948,9622.677246
1102.182597,-1110.308913,995.924147,9622.677246
1102.182926,-962.267725,919.314598,9622.677246
1102.183255,-962.267725,842.705048,9400.615463
1102.183585,-888.247130,842.705048,9622.677246
1102.183914,-962.267725,919.314598,9622.677246
1102.184243,-962.267725,1072.533697,9548.656652
1102.184573,-592.164754,1225.752797,9992.780217
1102.184902,-814.226536,766.095498,9474.636058
1102.185232,-1110.308913,995.924147,9548.656652
1102.185561,-1110.308913,842.705048,9696.697840
1102.185890,-1036.288319,995.924147,9474.636058
1102.186220,-814.226536,919.314598,9474.636058
1102.186549,-962.267725,1072.533697,9400.615463
1102.186878,-1110.308913,919.314598,9474.636058
1102.187208,-1184.329507,1072.533697,9252.574275
1102.187537,-1036.288319,1149.143247,9474.636058
1102.187866,-962.267725,1225.752797,9548.656652
1102.188196,-1406.391290,995.924147,9252.574275
1102.188525,-1258.350101,842.705048,9474.636058
1102.188854,-962.267725,919.314598,9696.697840
1102.189184,-1036.288319,842.705048,9474.636058
1102.189513,-962.267725,689.485948,9474.636058
1102.189842,-962.267725,1149.143247,9326.594869
1102.190172,-1258.350101,919.314598,9400.615463
1102.190501,-1184.329507,919.314598,9548.656652
1102.190830,-814.226536,842.705048,9474.636058
1102.191160,-962.267725,1072.533697,9548.656652
1102.191489,-666.185348,459.657299,9474.636058
1102.191818,-962.267725,689.485948,9474.636058
1102.192148,-1184.329507,919.314598,9400.615463
1102.192477,-1036.288319,766.095498,9400.615463
1102.192807,-962.267725,766.095498,9474.636058
1102.193136,-888.247130,919.314598,9622.677246
1102.193465,-814.226536,383.047749,9696.697840
1102.193795,-592.164754,919.314598,9104.533087
1102.194124,222.061783,536.266849,9030.512492
1102.194453,962.267725,842.705048,9400.615463
1102.194783,1110.308913,689.485948,9252.574275
1102.195112,444.123565,689.485948,9326.594869
1102.195441,148.041188,1149.143247,10066.800811
1102.195771,-740.205942,1532.190996,10362.883188
1102.196100,-962.267725,995.924147,10436.903782
1102.196429,-518.144159,76.609550,10214.842000
1102.196759,0.000000,0.000000,9326.594869
1102.197088,888.247130,0.000000,9104.533087
1102.197417,1480.411884,0.000000,8956.491898
1102.197747,2516.700203,383.047749,8734.430116
1102.198076,3108.864956,1302.362347,8734.430116
1102.198405,3775.050304,1378.971896,8808.450710
1102.198735,4145.153275,2451.505594,9474.636058
1102.199064,3775.050304,1838.629195,9696.697840
1102.199393,3108.864956,1302.362347,10288.862594
1102.199723,2220.617826,995.924147,10288.862594
1102.200052,1406.391290,536.266849,10658.965565
1102.200382,1406.391290,76.609550,10658.965565
1102.200711,1184.329507,-689.485948,10436.903782
1102.201040,1924.535449,-229.828649,9622.677246
1102.201370,2738.761985,-459.657299,9326.594869
1102.201699,3552.988522,0.000000,9252.574275
1102.202028,4145.153275,1762.019645,9252.574275
1102.202358,3923.091493,1762.019645,9104.533087
1102.202687,3552.988522,2528.115143,9696.697840
1102.203016,1998.556043,2757.943793,10214.842000
1102.203346,222.061783,2681.334243,10214.842000
1102.203675,-1480.411884,1838.629195,9918.759623
1102.204004,-1776.494261,766.095498,9178.553681
1102.204334,-962.267725,-153.219100,8512.368333
1102.204663,444.123565,-995.924147,7328.038826
1102.204992,2368.659014,-1225.752797,6291.750507
1102.205322,3997.112087,-1149.143247,6365.771101
1102.205651,4515.256246,612.876398,7105.977043
1102.205980,3552.988522,3064.381992,9474.636058
1102.206310,2294.638420,4596.572988,11399.171507
1102.206639,962.267725,4749.792088,12731.542202
1102.206968,-370.102971,3600.648841,13027.624579
1102.207298,-1480.411884,1378.971896,12953.603985
1102.207627,-1776.494261,-1225.752797,12287.418637
1102.207956,-2146.597232,-2145.067394,11325.150913
1102.208286,-1332.370696,-2374.896044,9474.636058
1102.208615,148.041188,-2528.115143,7846.182985
1102.208945,2442.679609,-1991.848295,7105.977043
1102.209274,4515.256246,-1225.752797,6735.874072
1102.209603,5477.523971,919.314598,6439.791695
1102.209933,5403.503377,2911.162892,7402.059420
1102.210262,5033.400406,4366.744339,8882.471304
1102.210591,4293.194464,4596.572988,10140.821405
1102.210921,3404.947333,4366.744339,11325.150913
1102.211250,2590.720797,3294.210641,11917.315666
1102.211579,1184.329507,1072.533697,11769.274478
1102.211909,0.000000,-766.095498,11325.150913
1102.212238,-1110.308913,-1608.800546,10955.047942
1102.212567,-1184.329507,-1762.019645,10881.027347
1102.212897,-888.247130,-1991.848295,10510.924376
1102.213226,-296.082377,-995.924147,9844.739029
1102.213555,814.226536,0.000000,8586.388927
1102.213885,2220.617826,306.438199,7476.080014
1102.214214,3701.029710,766.095498,7254.018232
1102.214543,5107.421000,842.705048,7846.182985
1102.214873,4885.359217,1302.362347,7846.182985
1102.215202,4589.276840,1455.581446,8512.368333
1102.215531,3997.112087,1608.800546,9844.739029
1102.215861,2886.803174,842.705048,10436.903782
1102.216190,1998.556043,1532.190996,11103.089130
1102.216520,1332.370696,1608.800546,11325.150913
1102.216849,962.267725,1532.190996,11399.171507
1102.217178,1110.308913,1608.800546,10658.965565
1102.217508,1554.432478,1072.533697,9474.636058
1102.217837,2442.679609,0.000000,7994.224174
1102.218166,2960.823768,-306.438199,7105.977043
1102.218496,2886.803174,306.438199,8068.244768
1102.218825,2220.617826,612.876398,8882.471304
1102.219154,1628.453072,766.095498,9918.759623
1102.219484,148.041188,919.314598,9918.759623
1102.219813,-592.164754,1225.752797,10214.842000
1102.220142,-1036.288319,229.828649,10955.047942
1102.220472,-962.267725,0.000000,11251.130318
1102.220801,-1258.350101,229.828649,11177.109724
1102.221130,-888.247130,306.438199,9992.780217
1102.221460,666.185348,229.828649,9178.553681
1102.221789,2590.720797,383.047749,8882.471304
1102.222118,4515.256246,1991.848295,7994.224174
1102.222448,6957.935855,2451.505594,7550.100608
1102.222777,8586.388927,2451.505594,7624.121203
1102.223106,9030.512492,3217.601092,8512.368333
1102.223436,7994.224174,4290.134789,9696.697840
1102.223765,5181.441594,4443.353888,11547.212695
1102.224095,1702.473667,3677.258390,13101.645173
1102.224424,-1998.556043,2604.724693,13619.789333
1102.224753,-5773.606348,689.485948,13101.645173
1102.225083,-7698.141797,-1225.752797,12065.356855
1102.225412,-8290.306550,-2604.724693,9992.780217
1102.225741,-6143.709319,-3294.210641,6513.812290
1102.226071,-1184.329507,-4519.963438,3256.906145
1102.226400,4811.338623,-4903.011187,1554.432478
1102.226729,9326.594869,-2221.676944,2516.700203
1102.227059,10214.842000,1915.238745,5107.421000
1102.227388,9474.636058,6128.763984,7846.182985
1102.227717,8364.327145,9346.365076,11029.068536
1102.228047,5921.647536,10495.508323,13693.809927
1102.228376,2368.659014,8350.440928,14730.098246
1102.228705,-1036.288319,1685.410096,16580.613101
1102.229035,-4071.132681,-1225.752797,17172.777854
1102.229364,-6291.750507,-1685.410096,14878.139434
1102.229693,-5329.482782,-4060.306139,11991.336260
1102.230023,-1776.494261,-5286.058936,9326.594869
1102.230352,2886.803174,-6894.859482,4959.379811
1102.230681,7624.121203,-5822.325785,1036.288319
1102.231011,11621.233289,-2681.334243,1850.514855
1102.231340,11917.315666,3524.039291,5329.482782
1102.231669,8364.327145,8350.440928,8808.450710
1102.231999,3627.009116,8044.002729,11177.109724
1102.232328,-962.267725,8120.612279,12731.542202
1102.232658,-2442.679609,5592.497135,14359.995275
1102.232987,-2738.761985,612.876398,14211.954086
1102.233316,-3034.844362,-2681.334243,11769.274478
1102.233646,-2072.576638,-6281.983084,8142.265362
1102.233975,740.205942,-7507.735880,6143.709319
1102.234304,2368.659014,-5975.544884,7031.956449
1102.234634,2738.761985,-1685.410096,8586.388927
1102.234963,2220.617826,1378.971896,9622.677246
1102.235292,1924.535449,3677.258390,10584.944971
1102.235622,3701.029710,6281.983084,11473.192101
1102.235951,4811.338623,4979.620737,12139.377449
1102.236280,4071.132681,1608.800546,11029.068536
1102.236610,1776.494261,76.609550,10436.903782
1102.236939,-148.041188,-919.314598,10658.965565
1102.237268,-1184.329507,-1225.752797,10658.965565
1102.237598,-2146.597232,-1762.019645,8586.388927
1102.237927,-592.164754,-2834.553343,5773.606348
1102.238256,3108.864956,-3983.696590,5329.482782
1102.238586,7476.080014,-2068.457845,6957.935855
1102.238915,9548.656652,2451.505594,7328.038826
1102.239244,8290.306550,5439.278036,7698.141797
1102.239574,5551.544565,6128.763984,9252.574275
1102.239903,2368.659014,6818.249932,11843.295072
1102.240233,-148.041188,5592.497135,15840.407159
1102.240562,-2442.679609,3524.039291,17468.860231
1102.240891,-5107.421000,1072.533697,15100.201217
1102.241221,-7105.977043,-2911.162892,11843.295072
1102.241550,-6143.709319,-5286.058936,9844.739029
1102.241879,-3923.091493,-6511.811733,8808.450710
1102.242209,-2294.638420,-4979.620737,6365.771101
1102.242538,0.000000,-1378.971896,2886.803174
1102.242867,4145.153275,1225.752797,2146.597232
1102.243197,9622.677246,2298.286494,4589.276840
1102.243526,11843.295072,4290.134789,7476.080014
1102.243855,10807.006753,8273.831378,8660.409521
1102.244185,8364.327145,10189.070123,9844.739029
1102.244514,6439.791695,9576.193725,11917.315666
1102.244843,4219.173869,7660.954980,13693.809927
1102.245173,2072.576638,2757.943793,14804.118840
1102.245502,0.000000,-1838.629195,14508.036463
1102.245831,-2442.679609,-1685.410096,12583.501014
1102.246161,-3997.112087,-1762.019645,10955.047942
1102.246490,-4293.194464,-3370.820191,10955.047942
1102.246819,-5033.400406,-2374.896044,9474.636058
1102.247149,-3997.112087,-766.095498,6809.894666
1102.247478,1184.329507,-612.876398,3108.864956
1102.247807,7254.018232,1455.581446,1406.391290
1102.248137,11843.295072,1991.848295,2368.659014
1102.248466,12065.356855,1149.143247,4367.215058
1102.248796,8586.388927,3370.820191,6883.915261
1102.249125,5847.626942,6588.421283,10140.821405
1102.249454,5181.441594,6971.469032,13767.830521
1102.249784,2886.803174,3600.648841,17098.757260
1102.250113,-1036.288319,306.438199,17764.942608
1102.250442,-3701.029710,-2451.505594,15174.221811
1102.250772,-5255.462188,-4060.306139,12287.418637
1102.251101,-5699.585753,-4060.306139,11991.336260
1102.251430,-5329.482782,-2374.896044,12287.418637
1102.251760,-2368.659014,-2374.896044,7328.038826
1102.252089,3256.906145,-2911.162892,3330.926739
1102.252418,10140.821405,-2834.553343,2442.679609
1102.252748,12361.439231,1378.971896,2812.782580
1102.253077,9474.636058,4519.963438,5995.668130
1102.253406,4737.318029,5898.935335,10140.821405
1102.253736,1184.329507,9652.803275,13619.789333
1102.254065,-814.226536,8810.098227,15840.407159
1102.254394,-4219.173869,3524.039291,15840.407159
1102.254724,-7254.018232,-3370.820191,14063.912898
1102.255053,-9622.677246,-5975.544884,12287.418637
1102.255382,-8734.430116,-6971.469032,10288.862594
1102.255712,-4663.297435,-8197.221829,8586.388927
1102.256041,-2146.597232,-4826.401637,7254.018232
1102.256370,370.102971,-2145.067394,4811.338623
1102.256700,5107.421000,-1072.533697,4663.297435
1102.257029,11251.130318,2298.286494,6439.791695
1102.257358,13915.871710,8580.269578,7402.059420
1102.257688,10658.965565,10725.336972,9178.553681
1102.258017,5403.503377,9652.803275,13249.686362
1102.258347,1036.288319,9116.536426,14063.912898
1102.258676,-2294.638420,5515.887586,12879.583391
1102.259005,-5181.441594,-536.266849,13027.624579
1102.259335,-8068.244768,-3753.867940,12805.562797
1102.259664,-8142.265362,-4903.011187,10510.924376
1102.259993,-6217.729913,-8120.612279,5255.462188
1102.260323,-2886.803174,-7431.126331,1776.494261
1102.260652,1776.494261,-3907.087040,2072.576638
1102.260981,6069.688724,-1762.019645,3775.050304
1102.261311,6735.874072,1991.848295,7328.038826
1102.261640,3997.112087,8810.098227,9696.697840
1102.261969,1036.288319,12257.527968,11473.192101
1102.262299,-296.082377,9806.022374,14211.954086
1102.262628,-1258.350101,6052.154434,16580.613101
1102.262957,-3108.864956,1838.629195,14952.160028
1102.263287,-5551.544565,-1532.190996,10732.986159
1102.263616,-5847.626942,-4366.744339,6957.935855
1102.263945,-3552.988522,-7354.516781,5995.668130
1102.264275,-740.205942,-6588.421283,8438.347739
1102.264604,1110.308913,-3140.991542,9252.574275
1102.264933,1850.514855,383.047749,8364.327145
1102.265263,518.144159,4213.525239,7031.956449
1102.265592,0.000000,8427.050478,8364.327145
1102.265921,1924.535449,8120.612279,12657.521608
1102.266251,2072.576638,5362.668486,15174.221811
1102.266580,-222.061783,5362.668486,13471.748144
1102.266909,-3627.009116,3753.867940,9474.636058
1102.267239,-3627.009116,-306.438199,8586.388927
1102.267568,-2442.679609,-4366.744339,9252.574275
1102.267898,-1628.453072,-4060.306139,9474.636058
1102.268227,-1998.556043,-3370.820191,8438.347739
1102.268556,-2146.597232,-1532.190996,7846.182985
1102.268886,-3034.844362,919.314598,8882.471304
1102.269215,-2738.761985,3064.381992,9622.677246
1102.269544,-518.144159,4060.306139,10584.944971
1102.269874,2072.576638,3524.039291,10881.027347
1102.270203,1480.411884,4290.134789,8142.265362
1102.270532,-1110.308913,2451.505594,6439.791695
1102.270862,-888.247130,-612.876398,8142.265362
1102.271191,740.205942,-612.876398,9548.656652
1102.271520,444.123565,-919.314598,9326.594869
1102.271850,-962.267725,-2145.067394,6809.894666
1102.272179,-1998.556043,-3370.820191,6883.915261
1102.272508,-1850.514855,-1685.410096,8734.430116
1102.272838,-1850.514855,1225.752797,9622.677246
1102.273167,-2220.617826,1685.410096,10214.842000
1102.273496,-2368.659014,1685.410096,10214.842000
1102.273826,-2368.659014,1838.629195,9474.636058
1102.274155,-2664.741391,1378.971896,9400.615463
1102.274484,-666.185348,-306.438199,9400.615463
1102.274814,888.247130,-229.828649,9326.594869
1102.275143,592.164754,0.000000,10066.800811
1102.275472,-1554.432478,-1302.362347,10510.924376
1102.275802,-3627.009116,-1762.019645,11473.192101
1102.276131,-4293.194464,1302.362347,13101.645173
1102.276460,-4441.235652,3217.601092,13101.645173
1102.276790,-3108.864956,919.314598,11843.295072
1102.277119,0.000000,-153.219100,9178.553681
1102.277449,2590.720797,-842.705048,7624.121203
1102.277778,4293.194464,-766.095498,7772.162391
1102.278107,4367.215058,1991.848295,9474.636058
1102.278437,4367.215058,2681.334243,11325.150913
1102.278766,2146.597232,3830.477490,11325.150913
1102.279095,-2738.761985,4213.525239,10807.006753
1102.279425,-3627.009116,3907.087040,11399.171507
1102.279754,-1850.514855,2451.505594,11695.253884
1102.280083,-1628.453072,-842.705048,9548.656652
1102.280413,-2664.741391,-2221.676944,8216.285956
1102.280742,-3404.947333,-1455.581446,7179.997637
1102.281071,-1850.514855,-536.266849,6365.771101
1102.281401,-814.226536,0.000000,5403.503377
1102.281730,1036.288319,1225.752797,6883.915261
1102.282059,2516.700203,2681.334243,7105.977043
1102.282389,1406.391290,2604.724693,7031.956449
1102.282718,-740.205942,2451.505594,7994.224174
1102.283047,-2516.700203,5515.887586,9030.512492
1102.283377,-2812.782580,4366.744339,10658.965565
1102.283706,-2886.803174,0.000000,10436.903782
1102.284035,-3478.967927,-1378.971896,9030.512492
1102.284365,-3627.009116,-1762.019645,7994.224174
1102.284694,-740.205942,-1685.410096,7476.080014
1102.285023,1628.453072,-1608.800546,8882.471304
1102.285353,2294.638420,76.609550,9474.636058
1102.285682,148.041188,1762.019645,9992.780217
1102.286011,-1554.432478,2604.724693,11029.068536
1102.286341,-2368.659014,4136.915689,12361.439231
1102.286670,-2442.679609,5132.839837,14137.933492
1102.287000,-2738.761985,2911.162892,14211.954086
1102.287329,-2738.761985,153.219100,12435.459826
1102.287658,-3182.885551,-2911.162892,9696.697840
1102.287988,-1850.514855,-2145.067394,8660.409521
1102.288317,-518.144159,-1991.848295,9844.739029
1102.288646,222.061783,-2604.724693,10732.986159
1102.288976,222.061783,536.266849,9770.718434
1102.289305,-1258.350101,2911.162892,9474.636058
1102.289634,-1258.350101,3370.820191,10436.903782
1102.289964,-592.164754,3447.429741,11325.150913
1102.290293,-1110.308913,4366.744339,11621.233289
1102.290622,-1554.432478,2911.162892,9474.636058
1102.290952,-1554.432478,0.000000,7550.100608
1102.291281,-296.082377,-612.876398,6661.853478
1102.291610,296.082377,-1455.581446,6217.729913
1102.291940,148.041188,-2757.943793,6661.853478
1102.292269,666.185348,612.876398,7698.141797
1102.292598,74.020594,1762.019645,7624.121203
1102.292928,-2368.659014,1685.410096,7476.080014
1102.293257,-4811.338623,2681.334243,7994.224174
1102.293586,-4811.338623,4213.525239,9548.656652
1102.293916,-2664.741391,2374.896044,9770.718434
1102.294245,-2368.659014,-459.657299,8068.244768
1102.294574,-2590.720797,-2068.457845,6809.894666
1102.294904,-1554.432478,-2221.676944,7476.080014
1102.295233,0.000000,-2068.457845,8364.327145
1102.295562,962.267725,-1149.143247,9474.636058
1102.295892,592.164754,383.047749,10584.944971
1102.296221,-1480.411884,3907.087040,11325.150913
1102.296550,-2294.638420,3677.258390,12731.542202
1102.296880,-1258.350101,2911.162892,13989.892304
1102.297209,-814.226536,3600.648841,14285.974681
1102.297539,-1850.514855,2451.505594,11843.295072
1102.297868,-1776.494261,-1225.752797,10732.986159
1102.298197,-1036.288319,-1915.238745,10066.800811
1102.298527,1332.370696,153.219100,9622.677246
1102.298856,2072.576638,-459.657299,10658.965565
1102.299185,1258.350101,-919.314598,11029.068536
1102.299515,-1480.411884,2298.286494,10436.903782
1102.299844,-3108.864956,3370.820191,11177.109724
1102.300173,-2516.700203,3983.696590,11325.150913
1102.300503,-1110.308913,4366.744339,11843.295072
1102.300832,-1332.370696,2221.676944,9918.759623
1102.301161,-1332.370696,612.876398,7031.956449
1102.301491,-740.205942,-995.924147,5995.668130
1102.301820,814.226536,-383.047749,6587.832884
1102.302149,1332.370696,1149.143247,6587.832884
1102.302479,962.267725,1149.143247,7105.977043
1102.302808,962.267725,919.314598,6069.688724
1102.303137,-370.102971,1149.143247,6365.771101
1102.303467,-1702.473667,3064.381992,7105.977043
1102.303796,-1776.494261,3294.210641,8660.409521
1102.304125,-1776.494261,1072.533697,9548.656652
1102.304455,-3034.844362,2298.286494,9326.594869
1102.304784,-3182.885551,76.609550,7550.100608
1102.305113,-1998.556043,-2757.943793,6513.812290
1102.305443,0.000000,-1378.971896,7031.956449
1102.305772,592.164754,-1149.143247,8734.430116
1102.306101,592.164754,0.000000,9844.739029
1102.306431,-1036.288319,1378.971896,10214.842000
1102.306760,-2516.700203,2451.505594,11251.130318
1102.307090,-3108.864956,2681.334243,12657.521608
1102.307419,-2516.700203,2068.457845,13471.748144
1102.307748,-1480.411884,1302.362347,12805.562797
1102.308078,-2072.576638,-1149.143247,9622.677246
1102.308407,-1628.453072,-1838.629195,7772.162391
1102.308736,222.061783,-2604.724693,9474.636058
1102.309066,2294.638420,-689.485948,13249.686362
1102.309395,740.205942,919.314598,14656.077652
1102.309724,-2516.700203,2451.505594,14582.057057
1102.310054,-4293.194464,3370.820191,13471.748144
1102.310383,-3775.050304,3753.867940,12657.521608
1102.310712,-1554.432478,2757.943793,11917.315666
1102.311042,222.061783,306.438199,11547.212695
1102.311371,814.226536,-1225.752797,7846.182985
1102.311700,-444.123565,-1915.238745,5403.503377
1102.312030,-1184.329507,-1455.581446,5995.668130
1102.312359,-148.041188,536.266849,7476.080014
1102.312688,1332.370696,1378.971896,7846.182985
1102.313018,2294.638420,1225.752797,7328.038826
1102.313347,-222.061783,3064.381992,5699.585753
1102.313676,-2664.741391,4136.915689,5551.544565
1102.314006,-3923.091493,2757.943793,7476.080014
1102.314335,-4071.132681,3370.820191,9622.677246
1102.314664,-4737.318029,3140.991542,8660.409521
1102.314994,-5033.400406,-153.219100,6735.874072
1102.315323,-3330.926739,-2834.553343,5847.626942
1102.315652,-1184.329507,-3064.381992,5625.565159
1102.315982,888.247130,-2068.457845,6291.750507
1102.316311,1628.453072,-1608.800546,7550.100608
1102.316641,222.061783,2145.067394,9548.656652
1102.316970,-2664.741391,4903.011187,11399.171507
1102.317299,-2812.782580,4749.792088,13323.706956
1102.317629,-1776.494261,3983.696590,13471.748144
1102.317958,-518.144159,1455.581446,11843.295072
1102.318287,-962.267725,-612.876398,10140.821405
1102.318617,-592.164754,-2068.457845,10436.903782
1102.318946,370.102971,-2451.505594,11251.130318
1102.319275,518.144159,-1302.362347,12139.377449
1102.319605,0.000000,0.000000,12805.562797
1102.319934,0.000000,1072.533697,12953.603985
1102.320263,-222.061783,1838.629195,11991.336260
1102.320593,-740.205942,2681.334243,12213.398043
1102.320922,-1332.370696,3217.601092,12065.356855
1102.321251,-962.267725,2834.553343,11843.295072
1102.321581,-962.267725,842.705048,10510.924376
1102.321910,-1480.411884,612.876398,9918.759623
1102.322239,-2368.659014,229.828649,7920.203579
1102.322569,-518.144159,-459.657299,7328.038826
1102.322898,1850.514855,-536.266849,8068.244768
1102.323227,2220.617826,306.438199,7698.141797
1102.323557,0.000000,2298.286494,6439.791695
1102.323886,-2220.617826,2681.334243,6513.812290
1102.324215,-2368.659014,3983.696590,8068.244768
1102.324545,-2146.597232,3753.867940,8364.327145
1102.324874,-2146.597232,2374.896044,7328.038826
1102.325203,-1850.514855,229.828649,6069.688724
1102.325533,-1628.453072,-1378.971896,4663.297435
1102.325862,-1406.391290,-1378.971896,4293.194464
1102.326192,-296.082377,-1149.143247,6439.791695
1102.326521,222.061783,229.828649,8808.450710
1102.326850,-592.164754,1838.629195,8956.491898
1102.327180,-2812.782580,2528.115143,9474.636058
1102.327509,-3404.947333,2834.553343,11029.068536
1102.327838,-2960.823768,2987.772442,12139.377449
1102.328168,-2664.741391,1455.581446,12287.418637
1102.328497,-2516.700203,76.609550,10807.006753
1102.328826,-2368.659014,-1532.190996,10140.821405
1102.329156,-1258.350101,-2221.676944,10807.006753
1102.329485,-888.247130,-842.705048,11473.192101
1102.329814,-148.041188,-612.876398,13175.665768
1102.330144,740.205942,76.609550,13841.851115
1102.330473,-888.247130,1685.410096,12731.542202
1102.330802,-2368.659014,2451.505594,12583.501014
1102.331132,-1924.535449,3064.381992,13767.830521
1102.331461,-296.082377,2834.553343,14285.974681
1102.331790,222.061783,2221.676944,12139.377449
1102.332120,-888.247130,-689.485948,8882.471304
1102.332449,-518.144159,-1225.752797,7624.121203
1102.332778,1406.391290,-153.219100,7476.080014
1102.333108,3034.844362,-1455.581446,9770.718434
1102.333437,2146.597232,1378.971896,7994.224174
1102.333766,-1184.329507,3677.258390,5551.544565
1102.334096,-3034.844362,1378.971896,6069.688724
1102.334425,-2516.700203,2145.067394,8512.368333
1102.334754,-2886.803174,3140.991542,9474.636058
1102.335084,-3256.906145,1532.190996,9178.553681
1102.335413,-4219.173869,536.266849,6883.915261
1102.335743,-3404.947333,995.924147,3997.112087
1102.336072,-962.267725,-1838.629195,3552.988522
1102.336401,1628.453072,-3830.477490,5107.421000
1102.336731,1554.432478,1149.143247,7698.141797
1102.337060,592.164754,3677.258390,8290.306550
1102.337389,-1184.329507,2451.505594,9400.615463
1102.337719,-3108.864956,2987.772442,9104.533087
1102.338048,-3849.070898,2528.115143,9844.739029
1102.338377,-2368.659014,153.219100,11843.295072
1102.338707,-1184.329507,612.876398,12213.398043
1102.339036,-1480.411884,-536.266849,10658.965565
1102.339365,-1850.514855,-2834.553343,9252.574275
1102.339695,-1480.411884,-2068.457845,10732.986159
1102.340024,592.164754,0.000000,13101.645173
1102.340353,1776.494261,995.924147,14285.974681
1102.340683,518.144159,3370.820191,13323.706956
1102.341012,-1332.370696,3600.648841,11991.336260
1102.341342,-2220.617826,1378.971896,12657.521608
1102.341671,-1924.535449,2145.067394,14285.974681
1102.342001,-2220.617826,3217.601092,14656.077652
1102.342331,-2368.659014,842.705048,12583.501014
1102.342660,-2738.761985,-459.657299,8882.471304
1102.342990,-1628.453072,-842.705048,8586.388927
1102.343320,1554.432478,-1608.800546,8660.409521
1102.343649,3404.947333,76.609550,7105.977043
1102.343979,2146.597232,2298.286494,6883.915261
1102.344309,1036.288319,4366.744339,7105.977043
1102.344638,-1554.432478,5209.449386,7994.224174
1102.344968,-1332.370696,4749.792088,8660.409521
1102.345298,-370.102971,3524.039291,9400.615463
1102.345627,-1036.288319,2757.943793,7698.141797
1102.345957,-2738.761985,995.924147,5107.421000
1102.346287,-2442.679609,-2528.115143,3627.009116
1102.346616,0.000000,-2757.943793,5255.462188
1102.346946,740.205942,-689.485948,6661.853478
1102.347276,0.000000,1149.143247,7846.182985
1102.347605,-1184.329507,2451.505594,7772.162391
1102.347935,-2812.782580,2834.553343,7476.080014
1102.348265,-2516.700203,2374.896044,8882.471304
1102.348594,-1924.535449,2451.505594,10584.944971
1102.348924,-1850.514855,2528.115143,10584.944971
1102.349254,-2368.659014,842.705048,9252.574275
1102.349583,-3034.844362,-2145.067394,8882.471304
1102.349913,-2442.679609,-2834.553343,10214.842000
1102.350242,-1480.411884,-1991.848295,11843.295072
1102.350572,-370.102971,-536.266849,13027.624579
1102.350902,-592.164754,-306.438199,11843.295072
1102.351231,-1184.329507,-536.266849,12287.418637
1102.351561,-1554.432478,842.705048,14211.954086
1102.351891,-740.205942,2298.286494,15322.262999
1102.352220,-1110.308913,2298.286494,15100.201217
1102.352550,-1406.391290,1608.800546,14137.933492
1102.352880,-296.082377,1455.581446,12731.542202
1102.353209,1184.329507,-612.876398,9918.759623
1102.353539,1998.556043,-1991.848295,7698.141797
1102.353869,2516.700203,-919.314598,8364.327145
1102.354198,2590.720797,1378.971896,9622.677246
1102.354528,1332.370696,1455.581446,8290.306550
1102.354858,-1184.329507,919.314598,9104.533087
1102.355187,-2886.803174,3524.039291,9474.636058
1102.355517,-2146.597232,3600.648841,9844.739029
1102.355847,-666.185348,612.876398,8660.409521
1102.356176,-1480.411884,0.000000,6143.709319
1102.356506,-2886.803174,1072.533697,3034.844362
1102.356836,-1184.329507,0.000000,4441.235652
1102.357165,1702.473667,-1378.971896,6957.935855
1102.357495,962.267725,1685.410096,7550.100608
1102.357825,-2220.617826,2604.724693,5773.606348
1102.358154,-3478.967927,689.485948,5773.606348
1102.358484,-3627.009116,766.095498,7254.018232
1102.358814,-3108.864956,2451.505594,9548.656652
1102.359143,-2516.700203,1072.533697,9548.656652
1102.359473,-3108.864956,-536.266849,8068.244768
1102.359803,-2664.741391,-612.876398,7402.059420
1102.360132,-1480.411884,-919.314598,8660.409521
1102.360462,296.082377,-1072.533697,10881.027347
1102.360792,1406.391290,1378.971896,12509.480420
1102.361121,962.267725,1838.629195,12583.501014
1102.361451,-1184.329507,2298.286494,12139.377449
1102.361781,-1332.370696,2145.067394,13027.624579
1102.362110,-814.226536,1532.190996,15322.262999
1102.362440,-1924.535449,2145.067394,15396.283594
1102.362770,-3034.844362,766.095498,14656.077652
1102.363099,-2442.679609,-536.266849,12509.480420
1102.363429,-592.164754,-1455.581446,10214.842000
1102.363759,814.226536,-2145.067394,8142.265362
1102.364088,2294.638420,-1838.629195,9178.553681
1102.364418,3552.988522,153.219100,10436.903782
1102.364747,1628.453072,3294.210641,10214.842000
1102.365077,-1332.370696,4290.134789,10066.800811
1102.365407,-2442.679609,4596.572988,10881.027347
1102.365736,-2220.617826,4596.572988,11029.068536
1102.366066,-1850.514855,1608.800546,10436.903782
1102.366396,-2368.659014,0.000000,7402.059420
1102.366725,-3108.864956,-383.047749,4737.318029
1102.367055,-1850.514855,-1685.410096,3552.988522
1102.367385,-444.123565,-2834.553343,4515.256246
1102.367714,0.000000,-766.095498,6217.729913
1102.368044,0.000000,1915.238745,6513.812290
1102.368374,-1850.514855,1991.848295,5255.462188
1102.368703,-2886.803174,2604.724693,5921.647536
1102.369033,-1924.535449,2681.334243,7846.182985
1102.369363,222.061783,2221.676944,10584.944971
1102.369692,0.000000,1608.800546,9992.780217
1102.370022,-2960.823768,1149.143247,8586.388927
1102.370352,-3256.906145,0.000000,8068.244768
1102.370681,518.144159,-1149.143247,9104.533087
1102.371011,2516.700203,-2451.505594,10510.924376
1102.371341,2886.803174,-1149.143247,10881.027347
1102.371670,1258.350101,383.047749,10510.924376
1102.372000,0.000000,0.000000,11695.253884
1102.372330,-666.185348,459.657299,13693.809927
1102.372659,-962.267725,2757.943793,16210.510130
1102.372989,-1480.411884,3907.087040,14656.077652
1102.373319,-2146.597232,1225.752797,11399.171507
1102.373648,-1776.494261,-2298.286494,9622.677246
1102.373978,814.226536,-1838.629195,9474.636058
1102.374308,1998.556043,-1685.410096,10288.862594
1102.374637,1258.350101,-1991.848295,11547.212695
1102.374967,-2072.576638,1532.190996,12657.521608
1102.375297,-4441.235652,4596.572988,12583.501014
1102.375626,-3923.091493,2604.724693,11843.295072
1102.375956,-2368.659014,-306.438199,11029.068536
1102.376286,-2072.576638,2451.505594,10584.944971
1102.376615,-1036.288319,2145.067394,8660.409521
1102.376945,0.000000,-842.705048,6587.832884
1102.377275,-222.061783,229.828649,4515.256246
1102.377604,-296.082377,1149.143247,3923.091493
1102.377934,1258.350101,306.438199,6365.771101
1102.378264,1702.473667,1455.581446,7698.141797
1102.378593,-592.164754,3447.429741,7105.977043
1102.378923,-3330.926739,3447.429741,5699.585753
1102.379252,-3256.906145,2374.896044,7031.956449
1102.379582,-1924.535449,1915.238745,8734.430116
1102.379912,-2368.659014,1915.238745,9474.636058
1102.380241,-3775.050304,1991.848295,6217.729913
1102.380571,-3775.050304,306.438199,4737.318029
1102.380901,-592.164754,-2604.724693,7031.956449
1102.381230,1628.453072,-383.047749,9474.636058
1102.381560,888.247130,1991.848295,9844.739029
1102.381890,-592.164754,1149.143247,10066.800811
1102.382219,-2516.700203,2451.505594,11399.171507
1102.382549,-3997.112087,4673.182538,13545.768739
1102.382879,-3256.906145,2451.505594,15174.221811
1102.383208,-1776.494261,229.828649,14804.118840
1102.383538,-2146.597232,306.438199,12583.501014
1102.383868,-2368.659014,0.000000,9622.677246
1102.384197,-962.267725,-3524.039291,8734.430116
1102.384527,2664.741391,-2681.334243,9770.718434
1102.384857,3775.050304,-153.219100,11695.253884
1102.385186,1702.473667,1302.362347,11769.274478
1102.385516,-592.164754,3217.601092,11917.315666
1102.385846,-1776.494261,3370.820191,12435.459826
1102.386175,-1258.350101,2987.772442,12657.521608
1102.386505,-1554.432478,2681.334243,12509.480420
1102.386835,-1702.473667,2145.067394,11917.315666
1102.387164,-1850.514855,995.924147,8808.450710
1102.387494,-2294.638420,-919.314598,6069.688724
1102.387824,-1258.350101,-1149.143247,5477.523971
1102.388153,370.102971,-766.095498,6661.853478
1102.388483,592.164754,229.828649,6809.894666
1102.388813,-1036.288319,2374.896044,4589.276840
1102.389142,-2368.659014,2298.286494,4441.235652
1102.389472,-2368.659014,2145.067394,6587.832884
1102.389802,-2960.823768,2451.505594,7698.141797
1102.390131,-3552.988522,842.705048,9400.615463
1102.390461,-4367.215058,842.705048,9030.512492
1102.390791,-4589.276840,536.266849,7550.100608
1102.391120,-3034.844362,-995.924147,6883.915261
1102.391450,666.185348,-1685.410096,6735.874072
1102.391780,2886.803174,-1455.581446,8142.265362
1102.392109,3108.864956,-842.705048,9474.636058
1102.392439,0.000000,459.657299,10807.006753
1102.392768,-2368.659014,3983.696590,13101.645173
1102.393098,-2146.597232,5209.449386,14434.015869
1102.393428,222.061783,3217.601092,12805.562797
1102.393757,0.000000,229.828649,10288.862594
1102.394087,74.020594,-1991.848295,8808.450710
1102.394417,1406.391290,-2604.724693,9622.677246
1102.394746,1258.350101,-2374.896044,10584.944971
1102.395076,740.205942,-766.095498,13249.686362
1102.395406,0.000000,1608.800546,14285.974681
1102.395735,-592.164754,1838.629195,13397.727550
1102.396065,-1406.391290,0.000000,12361.439231
1102.396395,-1406.391290,612.876398,12287.418637
1102.396724,-888.247130,4213.525239,11917.315666
1102.397054,518.144159,1685.410096,11991.336260
1102.397384,148.041188,-766.095498,10288.862594
1102.397713,-1036.288319,1302.362347,7179.997637
1102.398043,0.000000,0.000000,5625.565159
1102.398373,2220.617826,-2145.067394,5921.647536
1102.398702,3182.885551,766.095498,7994.224174
1102.399032,1776.494261,2987.772442,7550.100608
1102.399362,-962.267725,2604.724693,7550.100608
1102.399691,-3478.967927,2911.162892,8142.265362
1102.400021,-4811.338623,5439.278036,9252.574275
1102.400351,-3627.009116,3064.381992,9104.533087
1102.400680,-2960.823768,995.924147,7920.203579
1102.401010,-2812.782580,-153.219100,5181.441594
1102.401340,-1850.514855,-1915.238745,4589.276840
1102.401669,0.000000,-1991.848295,3997.112087
1102.401999,1110.308913,-1072.533697,5995.668130
1102.402329,1480.411884,306.438199,8882.471304
1102.402658,-1406.391290,2757.943793,9474.636058
1102.402988,-3627.009116,4443.353888,10658.965565
1102.403318,-3108.864956,3140.991542,12065.356855
1102.403647,-1776.494261,2987.772442,13841.851115
1102.403977,-1776.494261,2987.772442,12879.583391
1102.404307,-2294.638420,0.000000,10066.800811
1102.404636,-1628.453072,-2451.505594,9400.615463
1102.404966,-296.082377,-1455.581446,10362.883188
1102.405296,666.185348,-383.047749,12361.439231
1102.405625,592.164754,-536.266849,11991.336260
1102.405955,-222.061783,229.828649,11177.109724
1102.406285,-1702.473667,1838.629195,12213.398043
1102.406614,-2368.659014,2145.067394,13397.727550
1102.406944,-2516.700203,2451.505594,14211.954086
1102.407273,-3034.844362,1991.848295,13249.686362
1102.407603,-2442.679609,1149.143247,11251.130318
1102.407933,-2294.638420,-306.438199,8882.471304
1102.408262,-296.082377,-1455.581446,7624.121203
1102.408592,1184.329507,-1072.533697,6365.771101
1102.408922,2960.823768,0.000000,7698.141797
1102.409251,3701.029710,1685.410096,8216.285956
1102.409581,1258.350101,3294.210641,7698.141797
1102.409911,-1924.535449,4290.134789,7698.141797
1102.410240,-3330.926739,3677.258390,9178.553681
1102.410570,-2664.741391,2681.334243,11251.130318
1102.410900,-2738.761985,3064.381992,9696.697840
1102.411229,-3330.926739,-383.047749,5329.482782
1102.411559,-2368.659014,-3524.039291,2886.803174
1102.411889,-222.061783,-3064.381992,3330.926739
1102.412218,2072.576638,-2298.286494,5181.441594
1102.412548,3182.885551,-995.924147,6883.915261
1102.412878,1480.411884,995.924147,8956.491898
1102.413207,-1332.370696,4903.011187,10288.862594
1102.413537,-3404.947333,6741.640382,10658.965565
1102.413867,-2886.803174,4136.915689,10436.903782
1102.414196,-1480.411884,1149.143247,11621.233289
1102.414526,-1036.288319,0.000000,11695.253884
1102.414856,-2664.741391,-995.924147,9992.780217
1102.415185,-2738.761985,-3294.210641,9474.636058
1102.415515,-1184.329507,-2834.553343,11399.171507
1102.415845,592.164754,-919.314598,12139.377449
1102.416174,1406.391290,-2145.067394,12583.501014
1102.416504,518.144159,-153.219100,12435.459826
1102.416834,-1184.329507,4749.792088,12805.562797
1102.417163,-1628.453072,4749.792088,13767.830521
1102.417493,444.123565,2451.505594,15396.283594
1102.417823,370.102971,3217.601092,13841.851115
1102.418152,-1184.329507,1762.019645,9844.739029
1102.418482,-370.102971,-2068.457845,7031.956449
1102.418812,1628.453072,-1302.362347,7328.038826
1102.419141,2960.823768,-153.219100,9104.533087
1102.419471,2146.597232,-229.828649,9326.594869
1102.419801,-370.102971,2911.162892,8068.244768
1102.420130,-2220.617826,4903.011187,8142.265362
1102.420460,-2960.823768,4213.525239,9622.677246
1102.420789,-3478.967927,3907.087040,10214.842000
1102.421119,-4145.153275,3294.210641,9844.739029
1102.421449,-4071.132681,536.266849,7179.997637
1102.421778,-4515.256246,-459.657299,5107.421000
1102.422108,-3478.967927,-229.828649,3701.029710
1102.422438,-1332.370696,-2221.676944,4071.132681
1102.422767,444.123565,-1685.410096,4885.359217
1102.423097,962.267725,919.314598,5847.626942
1102.423427,0.000000,1378.971896,6587.832884
1102.423756,-1628.453072,3524.039291,8142.265362
1102.424086,-2442.679609,5745.716235,10436.903782
1102.424416,-1924.535449,3677.258390,12287.418637
1102.424745,-814.226536,2221.676944,12287.418637
1102.425075,-1332.370696,1762.019645,10362.883188
1102.425405,-1110.308913,-612.876398,9474.636058
1102.425734,-814.226536,-3217.601092,9918.759623
1102.426064,370.102971,-1532.190996,11843.295072
1102.426394,1036.288319,-229.828649,12361.439231
1102.426723,148.041188,-689.485948,11695.253884
1102.427053,-2368.659014,995.924147,12213.398043
1102.427383,-3108.864956,3524.039291,13989.892304
1102.427712,-1850.514855,2681.334243,14211.954086
1102.428042,-1480.411884,1378.971896,13545.768739
1102.428372,-962.267725,1762.019645,11251.130318
1102.428701,-1036.288319,229.828649,8734.430116
1102.429031,518.144159,-1532.190996,8512.368333
1102.429361,1554.432478,-1302.362347,9326.594869
1102.429690,1554.432478,1685.410096,10066.800811
1102.430020,888.247130,2528.115143,9844.739029
1102.430350,-962.267725,2145.067394,9844.739029
1102.430679,-3034.844362,2145.067394,11103.089130
1102.431009,-3849.070898,3753.867940,11695.253884
1102.431339,-3849.070898,2911.162892,9474.636058
1102.431668,-3034.844362,0.000000,6291.750507
1102.431998,-2368.659014,-689.485948,3923.091493
1102.432328,-296.082377,-2068.457845,3182.885551
1102.432657,1480.411884,-3600.648841,3552.988522
1102.432987,2886.803174,-1991.848295,7031.956449
1102.433317,1258.350101,2834.553343,8216.285956
1102.433646,-1998.556043,6511.811733,5847.626942
1102.433976,-3330.926739,3753.867940,5107.421000
1102.434306,-1406.391290,2068.457845,9178.553681
1102.434635,-592.164754,3677.258390,12213.398043
1102.434965,-2738.761985,1685.410096,11843.295072
1102.435294,-4367.215058,-1149.143247,10214.842000
1102.435624,-4663.297435,-536.266849,8808.450710
1102.435954,-2516.700203,-1302.362347,9400.615463
1102.436283,1406.391290,-5132.839837,10658.965565
1102.436613,2368.659014,-3064.381992,10881.027347
1102.436943,1258.350101,2298.286494,10066.800811
1102.437272,-370.102971,1838.629195,11843.295072
1102.437602,-888.247130,1685.410096,14582.057057
1102.437932,-1850.514855,5515.887586,16210.510130
1102.438261,-2516.700203,3830.477490,14285.974681
1102.438591,-1110.308913,995.924147,11843.295072
1102.438921,296.082377,-689.485948,8734.430116
1102.439250,2294.638420,-2451.505594,8660.409521
1102.439580,1850.514855,-2528.115143,8882.471304
1102.439910,1332.370696,306.438199,10066.800811
1102.440239,1036.288319,2145.067394,10436.903782
1102.440569,-592.164754,3294.210641,10510.924376
1102.440899,-2664.741391,4136.915689,11325.150913
1102.441228,-3404.947333,3294.210641,11473.192101
1102.441558,-2368.659014,1991.848295,11325.150913
1102.441888,-1702.473667,1685.410096,9252.574275
1102.442217,-2220.617826,536.266849,6735.874072
1102.442547,-2590.720797,-1072.533697,4293.194464
1102.442877,-1998.556043,-766.095498,3404.947333
1102.443206,1036.288319,-1149.143247,4737.318029
1102.443536,2220.617826,0.000000,5847.626942
1102.443866,962.267725,2451.505594,5181.441594
1102.444196,-1184.329507,3447.429741,6069.688724
1102.444525,-2664.741391,2757.943793,8216.285956
1102.444855,-3108.864956,4136.915689,9844.739029
1102.445185,-2368.659014,3524.039291,11399.171507
1102.445515,-2442.679609,1072.533697,10658.965565
1102.445844,-3849.070898,-229.828649,8290.306550
1102.446174,-3034.844362,-2298.286494,7179.997637
1102.446504,518.144159,-3600.648841,8660.409521
1102.446833,2442.679609,-2451.505594,10066.800811
1102.447163,1406.391290,536.266849,11029.068536
1102.447493,-1332.370696,2298.286494,11843.295072
1102.447823,-2368.659014,2834.553343,12731.542202
1102.448152,-2368.659014,3907.087040,14359.995275
1102.448482,-1258.350101,3294.210641,15322.262999
1102.448812,-1110.308913,2528.115143,13915.871710
1102.449142,-1850.514855,-459.657299,10510.924376
1102.449471,-1554.432478,-3294.210641,8660.409521
1102.449801,296.082377,-2451.505594,8512.368333
1102.450131,1480.411884,-1608.800546,10658.965565
1102.450461,1110.308913,-459.657299,12065.356855
1102.450790,-1702.473667,1685.410096,12435.459826
1102.451120,-3404.947333,4060.306139,11251.130318
1102.451450,-3034.844362,3983.696590,10658.965565
1102.451780,-1332.370696,2221.676944,10436.903782
1102.452109,0.000000,1838.629195,10881.027347
1102.452439,-666.185348,383.047749,8142.265362
1102.452769,-1332.370696,-229.828649,5921.647536
1102.453099,-296.082377,0.000000,4885.359217
1102.453428,666.185348,689.485948,3997.112087
1102.453758,1184.329507,0.000000,5033.400406
1102.454088,1036.288319,0.000000,6735.874072
1102.454418,-1184.329507,2528.115143,6957.935855
1102.454747,-3923.091493,4290.134789,7031.956449
1102.455077,-5329.482782,3447.429741,8808.450710
1102.455407,-4071.132681,2451.505594,11103.089130
1102.455737,-3034.844362,1149.143247,10436.903782
1102.456066,-2738.761985,-1532.190996,6809.894666
1102.456396,-2368.659014,-2374.896044,4515.256246
1102.456726,-740.205942,-1991.848295,5773.606348
1102.457056,962.267725,-1378.971896,9770.718434
1102.457385,1554.432478,0.000000,11029.068536
1102.457715,222.061783,2681.334243,10658.965565
1102.458045,-1332.370696,2681.334243,11769.274478
1102.458375,-2072.576638,3140.991542,14285.974681
1102.458704,-1480.411884,3677.258390,15840.407159
1102.459034,-1258.350101,919.314598,14804.118840
1102.459364,-1258.350101,-383.047749,11325.150913
1102.459693,-1332.370696,153.219100,9030.512492
1102.460023,888.247130,-2604.724693,9104.533087
1102.460353,2960.823768,-2757.943793,10955.047942
1102.460683,2812.782580,-229.828649,11843.295072
1102.461012,370.102971,1685.410096,11547.212695
1102.461342,-2368.659014,2604.724693,11473.192101
1102.461672,-3256.906145,2757.943793,12879.583391
1102.462002,-2368.659014,3753.867940,14063.912898
1102.462331,-2738.761985,1608.800546,11325.150913
1102.462661,-2590.720797,842.705048,8142.265362
1102.462991,-1702.473667,-842.705048,6587.832884
1102.463321,-592.164754,-1532.190996,6143.709319
1102.463650,74.020594,306.438199,5699.585753
1102.463980,1184.329507,459.657299,5477.523971
1102.464310,2220.617826,1532.190996,5255.462188
1102.464640,518.144159,2374.896044,5329.482782
1102.464969,-1628.453072,2911.162892,7402.059420
1102.465299,-3034.844362,4060.306139,9030.512492
1102.465629,-2738.761985,3753.867940,10362.883188
1102.465959,-2812.782580,2298.286494,9770.718434
1102.466288,-2960.823768,153.219100,7179.997637
1102.466618,-2294.638420,-2298.286494,5403.503377
1102.466948,-592.164754,-3524.039291,5255.462188
1102.467278,740.205942,-1378.971896,6439.791695
1102.467607,1628.453072,766.095498,8882.471304
1102.467937,962.267725,1378.971896,10881.027347
1102.468267,-1924.535449,3294.210641,11325.150913
1102.468597,-3701.029710,4979.620737,11991.336260
1102.468926,-2294.638420,3064.381992,13175.665768
1102.469256,-518.144159,2145.067394,14359.995275
1102.469586,-2072.576638,842.705048,12657.521608
1102.469916,-3330.926739,-1991.848295,9696.697840
1102.470245,-2146.597232,-3064.381992,9326.594869
1102.470575,222.061783,-2451.505594,10732.986159
1102.470905,1406.391290,-1072.533697,13619.789333
1102.471235,370.102971,612.876398,13027.624579
1102.471564,-962.267725,2604.724693,11547.212695
1102.471894,-1332.370696,2068.457845,11843.295072
1102.472224,-740.205942,2068.457845,13619.789333
1102.472554,444.123565,3370.820191,14211.954086
1102.472883,222.061783,3294.210641,12435.459826
1102.473213,-740.205942,2834.553343,6735.874072
1102.473543,-1628.453072,689.485948,2590.720797
1102.473872,814.226536,-2298.286494,4071.132681
1102.474202,3330.926739,-1915.238745,7402.059420
1102.474532,740.205942,612.876398,8142.265362
1102.474862,-2812.782580,1225.752797,7105.977043
1102.475191,-5255.462188,3600.648841,7402.059420
1102.475521,-5403.503377,3294.210641,8068.244768
1102.475851,-4071.132681,689.485948,9326.594869
1102.476181,-3034.844362,0.000000,9252.574275
1102.476510,-3330.926739,2911.162892,7254.018232
1102.476840,-2960.823768,766.095498,5773.606348
1102.477170,-1702.473667,-2145.067394,4885.359217
1102.477500,-222.061783,0.000000,5477.523971
1102.477829,296.082377,76.609550,6957.935855
1102.478159,666.185348,306.438199,9030.512492
1102.478489,-1628.453072,4213.525239,9622.677246
1102.478819,-3330.926739,3677.258390,11769.274478
1102.479148,-3775.050304,919.314598,12731.542202
1102.479478,-2516.700203,1149.143247,13693.809927
1102.479808,-1184.329507,1455.581446,12805.562797
1102.480138,-222.061783,-919.314598,10066.800811
1102.480467,148.041188,-2451.505594,8734.430116
1102.480797,1554.432478,-2298.286494,10658.965565
1102.481127,2590.720797,-1915.238745,13693.809927
1102.481457,2146.597232,383.047749,14434.015869
1102.481786,-592.164754,3370.820191,13915.871710
1102.482116,-2738.761985,2757.943793,13175.665768
1102.482446,-3108.864956,2298.286494,12879.583391
1102.482776,-1924.535449,1378.971896,12065.356855
1102.483105,0.000000,-995.924147,10510.924376
1102.483435,518.144159,-306.438199,7920.203579
1102.483765,-518.144159,0.000000,5551.544565
1102.484095,444.123565,-1225.752797,5255.462188
1102.484424,2886.803174,-842.705048,6661.853478
1102.484754,3552.988522,536.266849,7994.224174
1102.485084,1702.473667,3217.601092,8290.306550
1102.485414,-1776.494261,2834.553343,8438.347739
1102.485743,-2886.803174,3064.381992,10362.883188
1102.486073,-3478.967927,2681.334243,11251.130318
1102.486403,-3404.947333,1991.848295,10066.800811
1102.486733,-3108.864956,612.876398,7476.080014
1102.487062,-2886.803174,-689.485948,4811.338623
1102.487392,-1332.370696,-1608.800546,3330.926739
1102.487722,1184.329507,-2145.067394,4145.153275
1102.488051,2738.761985,-536.266849,6217.729913
1102.488381,2442.679609,2298.286494,7698.141797
1102.488711,-814.226536,4213.525239,8438.347739
1102.489041,-4071.132681,4213.525239,10066.800811
1102.489370,-4589.276840,3600.648841,12139.377449
1102.489700,-4071.132681,2757.943793,13693.809927
1102.490030,-3849.070898,689.485948,12361.439231
1102.490360,-3997.112087,-1378.971896,10510.924376
1102.490689,-3330.926739,-2987.772442,9696.697840
1102.491019,-2368.659014,-2911.162892,10584.944971
1102.491349,-1258.350101,-1838.629195,12139.377449
1102.491679,370.102971,153.219100,14137.933492
1102.492008,0.000000,1915.238745,12731.542202
1102.492338,-814.226536,2911.162892,12287.418637
1102.492668,-814.226536,2145.067394,13545.768739
1102.492998,444.123565,2987.772442,14359.995275
1102.493327,-296.082377,4673.182538,10881.027347
1102.493657,-1332.370696,2221.676944,6957.935855
1102.493987,-666.185348,-1072.533697,7328.038826
1102.494317,518.144159,-1072.533697,8364.327145
1102.494646,592.164754,-842.705048,8882.471304
1102.494976,222.061783,-1072.533697,8586.388927
1102.495306,-370.102971,1991.848295,8438.347739
1102.495636,-1554.432478,2681.334243,8290.306550
1102.495965,-2368.659014,306.438199,9770.718434
1102.496295,-3478.967927,2221.676944,10436.903782
1102.496625,-3997.112087,5515.887586,9548.656652
1102.496955,-2368.659014,1685.410096,7105.977043
1102.497284,-592.164754,-1762.019645,4811.338623
1102.497614,-814.226536,-1532.190996,3182.885551
1102.497944,518.144159,-1685.410096,3330.926739
1102.498274,2368.659014,-1915.238745,5403.503377
1102.498603,2812.782580,1378.971896,7994.224174
1102.498933,444.123565,3064.381992,9622.677246
1102.499263,-2590.720797,2987.772442,9992.780217
1102.499593,-3478.967927,3294.210641,10881.027347
1102.499922,-1924.535449,2604.724693,12287.418637
1102.500252,-518.144159,1838.629195,12731.542202
1102.500582,-518.144159,383.047749,10881.027347
1102.500912,-1702.473667,-1225.752797,8586.388927
1102.501241,-592.164754,-2911.162892,9474.636058
1102.501571,1184.329507,-1225.752797,11695.253884
1102.501901,1702.473667,842.705048,12953.603985
1102.502230,666.185348,459.657299,12509.480420
1102.502560,-2516.700203,1608.800546,12509.480420
1102.502890,-3256.906145,3294.210641,13175.665768
1102.503220,-2590.720797,2604.724693,13471.748144
1102.503549,-1332.370696,1762.019645,13471.748144
1102.503879,-1998.556043,1455.581446,11621.233289
1102.504209,-2146.597232,919.314598,8290.306550
1102.504539,-1036.288319,-1302.362347,6291.750507
1102.504868,1554.432478,-1455.581446,7031.956449
1102.505198,2442.679609,766.095498,7920.203579
1102.505528,1628.453072,1378.971896,8142.265362
1102.505858,0.000000,1455.581446,8290.306550
1102.506187,-2516.700203,2681.334243,9474.636058
1102.506517,-4367.215058,4366.744339,10288.862594
1102.506847,-4737.318029,3217.601092,10658.965565
1102.507177,-3627.009116,1302.362347,10288.862594
1102.507506,-3256.906145,766.095498,7105.977043
1102.507836,-2294.638420,-1072.533697,3923.091493
1102.508166,-222.061783,-2451.505594,3701.029710
1102.508496,1258.350101,-229.828649,4663.297435
1102.508825,1998.556043,1455.581446,6661.853478
1102.509155,740.205942,1991.848295,6883.915261
1102.509485,-1924.535449,3677.258390,7846.182985
1102.509815,-3775.050304,3983.696590,8660.409521
1102.510144,-3775.050304,3064.381992,10510.924376
1102.510474,-2812.782580,1225.752797,12139.377449
1102.510804,-2812.782580,383.047749,11695.253884
1102.511134,-3923.091493,-1455.581446,9696.697840
1102.511463,-3701.029710,-2681.334243,9252.574275
1102.511793,-814.226536,-1915.238745,10732.986159
1102.512123,1628.453072,-842.705048,12731.542202
1102.512453,2220.617826,1378.971896,11843.295072
1102.512782,962.267725,2681.334243,10658.965565
1102.513112,222.061783,2604.724693,11843.295072
1102.513442,-296.082377,2911.162892,13323.706956
1102.513772,-962.267725,2604.724693,14656.077652
1102.514101,-962.267725,2145.067394,14804.118840
1102.514431,-1924.535449,1225.752797,10881.027347
1102.514761,-1110.308913,-842.705048,6143.709319
1102.515090,962.267725,-3447.429741,5699.585753
1102.515420,3849.070898,-4136.915689,8660.409521
1102.515750,2886.803174,842.705048,10362.883188
1102.516080,-1110.308913,2604.724693,9992.780217
1102.516409,-4219.173869,4443.353888,9992.780217
1102.516739,-5329.482782,5898.935335,10362.883188
1102.517069,-3627.009116,3064.381992,10955.047942
1102.517399,-1332.370696,612.876398,9622.677246
1102.517728,-1850.514855,153.219100,5699.585753
1102.518058,-2812.782580,0.000000,2368.659014
1102.518388,-1628.453072,-3140.991542,3627.009116
1102.518718,0.000000,-2604.724693,6143.709319
1102.519047,148.041188,995.924147,7624.121203
1102.519377,0.000000,459.657299,8068.244768
1102.519707,-2072.576638,1455.581446,8216.285956
1102.520037,-5033.400406,2911.162892,9844.739029
1102.520366,-7105.977043,2911.162892,12805.562797
1102.520696,-8068.244768,3447.429741,13545.768739
1102.521026,-7624.121203,3524.039291,11325.150913
1102.521356,-6217.729913,-229.828649,8068.244768
1102.521685,-3552.988522,-5669.106685,6513.812290
1102.522015,-1850.514855,-5286.058936,7179.997637
1102.522345,0.000000,-3064.381992,8956.491898
1102.522675,1924.535449,229.828649,10732.986159
1102.523004,1036.288319,4826.401637,11695.253884
1102.523334,-2590.720797,5592.497135,11769.274478
1102.523664,-5551.544565,3753.867940,13249.686362
1102.523994,-8216.285956,4519.963438,15914.427753
1102.524323,-8808.450710,5439.278036,16210.510130
1102.524653,-7920.203579,2604.724693,13323.706956
1102.524983,-6809.894666,-2451.505594,9696.697840
1102.525313,-5921.647536,-5592.497135,6291.750507
1102.525642,-4071.132681,-6665.030833,5329.482782
1102.525972,-888.247130,-3907.087040,6809.894666
1102.526302,1036.288319,1455.581446,7698.141797
1102.526632,370.102971,4366.744339,9770.718434
1102.526961,-2146.597232,4903.011187,11547.212695
1102.527291,-5255.462188,6741.640382,11473.192101
1102.527621,-7254.018232,7507.735880,11251.130318
1102.527951,-8068.244768,5669.106685,11251.130318
1102.528280,-7624.121203,2757.943793,9918.759623
1102.528610,-6587.832884,-1378.971896,7994.224174
1102.528940,-5995.668130,-6435.202183,5181.441594
1102.529269,-4959.379811,-6894.859482,3627.009116
1102.529599,-2886.803174,-2987.772442,3330.926739
1102.529929,74.020594,153.219100,4515.256246
1102.530259,2442.679609,1762.019645,5995.668130
1102.530588,2960.823768,5898.935335,8068.244768
1102.530918,1480.411884,7737.564530,8882.471304
1102.531248,-1184.329507,7737.564530,10066.800811
1102.531578,-6217.729913,6435.202183,13175.665768
1102.531907,-10807.006753,4136.915689,15544.324782
1102.532237,-13175.665768,2528.115143,14211.954086
1102.532567,-11399.171507,-2604.724693,9918.759623
1102.532897,-7328.038826,-8044.002729,6661.853478
1102.533226,-3108.864956,-9652.803275,5403.503377
1102.533556,666.185348,-7814.174080,5699.585753
1102.533886,1924.535449,-3217.601092,7105.977043
1102.534216,1776.494261,3830.477490,9844.739029
1102.534545,1776.494261,10725.336972,13619.789333
1102.534875,1924.535449,11951.089769,15470.304188
1102.535205,-222.061783,10265.679673,15396.283594
1102.535535,-2812.782580,7354.516781,13915.871710
1102.535864,-6883.915261,0.000000,14211.954086
1102.536194,-10436.903782,-3907.087040,16728.654289
1102.536524,-14434.015869,-3064.381992,15174.221811
1102.536854,-14063.912898,-5975.544884,9326.594869
1102.537183,-7772.162391,-11491.432470,3775.050304
1102.537513,0.000000,-9652.803275,1702.473667
1102.537843,5033.400406,-4903.011187,2146.597232
1102.538173,6957.935855,0.000000,4959.379811
1102.538502,5181.441594,8197.221829,8438.347739
1102.538832,1554.432478,16471.053207,12065.356855
1102.539162,-1924.535449,15934.786358,13841.851115
1102.539492,-5107.421000,11797.870669,13767.830521
1102.539821,-6513.812290,5056.230287,12435.459826
1102.540151,-7031.956449,-2298.286494,10658.965565
1102.540481,-7550.100608,-6435.202183,8068.244768
1102.540811,-9548.656652,-9806.022374,6069.688724
1102.541140,-10436.903782,-9806.022374,4589.276840
1102.541470,-8956.491898,-6818.249932,3701.029710
1102.541800,-4219.173869,-3447.429741,4071.132681
1102.542130,444.123565,536.266849,5329.482782
1102.542459,2442.679609,4519.963438,6069.688724
1102.542789,3404.947333,10725.336972,8142.265362
1102.543119,2368.659014,10495.508323,11399.171507
1102.543448,-296.082377,9039.926876,14582.057057
1102.543778,-4885.359217,8120.612279,15470.304188
1102.544108,-10362.883188,4213.525239,13101.645173
1102.544438,-11991.336260,-919.314598,11621.233289
1102.544767,-11177.109724,-6511.811733,11473.192101
1102.545097,-8956.491898,-8197.221829,10214.842000
1102.545427,-5699.585753,-7967.393179,7550.100608
1102.545757,-3701.029710,-5822.325785,4441.235652
1102.546086,-1036.288319,-2221.676944,4885.359217
1102.546416,1036.288319,1225.752797,9326.594869
1102.546746,-444.123565,6971.469032,13323.706956
1102.547076,-3034.844362,10725.336972,15248.242405
1102.547405,-6291.750507,10035.851024,14804.118840
1102.547735,-7105.977043,7354.516781,14582.057057
1102.548065,-6957.935855,1608.800546,13841.851115
1102.548395,-5995.668130,-3524.039291,10510.924376
1102.548724,-5181.441594,-7584.345430,5625.565159
1102.549054,-4071.132681,-8120.612279,4145.153275
1102.549384,-1924.535449,-5209.449386,6513.812290
1102.549714,-222.061783,-1532.190996,7846.182985
1102.550044,-370.102971,1149.143247,8512.368333
1102.550373,-2294.638420,5132.839837,8438.347739
1102.550703,-2590.720797,9729.412825,9696.697840
1102.551033,-1924.535449,9806.022374,12139.377449
1102.551363,-2738.761985,6665.030833,11843.295072
1102.551692,-4071.132681,2987.772442,10288.862594
1102.552022,-4737.318029,-229.828649,8068.244768
1102.552352,-4071.132681,-3983.696590,7031.956449
1102.552682,-3478.967927,-5286.058936,6661.853478
1102.553011,-3330.926739,-4673.182538,6735.874072
1102.553341,-3478.967927,-2681.334243,6661.853478
1102.553671,-3404.947333,0.000000,7550.100608
1102.554001,-3849.070898,3064.381992,9474.636058
1102.554330,-4145.153275,5286.058936,11103.089130
1102.554660,-4441.235652,5898.935335,11473.192101
1102.554990,-4663.297435,5745.716235,11695.253884
1102.555320,-3923.091493,3524.039291,10732.986159
1102.555649,-2220.617826,766.095498,9252.574275
1102.555979,-1332.370696,-1915.238745,7698.141797
1102.556309,-1480.411884,-2911.162892,7254.018232
1102.556639,-1702.473667,-2681.334243,7994.224174
1102.556968,-1406.391290,-612.876398,8586.388927
1102.557298,-1776.494261,612.876398,9992.780217
1102.557628,-4071.132681,2451.505594,11843.295072
1102.557958,-7031.956449,4060.306139,13471.748144
1102.558287,-8586.388927,4519.963438,13989.892304
1102.558617,-8734.430116,3600.648841,14211.954086
1102.558947,-8512.368333,1991.848295,12435.459826
1102.559277,-7105.977043,-536.266849,9622.677246
1102.559606,-4441.235652,-3753.867940,7328.038826
1102.559936,-1628.453072,-5362.668486,6143.709319
1102.560266,-296.082377,-2834.553343,5847.626942
1102.560596,888.247130,-536.266849,6587.832884
1102.560925,740.205942,2221.676944,8068.244768
1102.561255,-740.205942,4519.963438,10140.821405
1102.561585,-2516.700203,6741.640382,11473.192101
1102.561915,-3997.112087,6588.421283,11251.130318
1102.562244,-5699.585753,3753.867940,11547.212695
1102.562574,-7772.162391,1608.800546,12065.356855
1102.562904,-9474.636058,0.000000,11695.253884
1102.563234,-9400.615463,-1915.238745,9844.739029
1102.563563,-8068.244768,-4213.525239,7402.059420
1102.563893,-5551.544565,-5056.230287,5403.503377
1102.564223,-2664.741391,-3600.648841,4737.318029
1102.564553,-592.164754,-536.266849,5329.482782
1102.564882,222.061783,2221.676944,6365.771101
1102.565212,-1036.288319,4749.792088,7772.162391
1102.565542,-2886.803174,7201.297681,9992.780217
1102.565872,-5033.400406,7507.735880,12361.439231
1102.566201,-7698.141797,4826.401637,13471.748144
1102.566531,-9252.574275,2145.067394,12287.418637
1102.566861,-9474.636058,-1225.752797,10658.965565
1102.567191,-7920.203579,-4673.182538,9992.780217
1102.567521,-6217.729913,-6128.763984,9104.533087
1102.567850,-3923.091493,-4903.011187,8068.244768
1102.568180,-1554.432478,-2221.676944,6883.915261
1102.568510,814.226536,229.828649,7402.059420
1102.568840,2368.659014,3140.991542,9326.594869
1102.569169,1628.453072,5822.325785,11029.068536
1102.569499,518.144159,7354.516781,11769.274478
1102.569829,-1776.494261,5592.497135,12287.418637
1102.570159,-4589.276840,2987.772442,14359.995275
1102.570488,-7698.141797,1149.143247,14952.160028
1102.570818,-9770.718434,-536.266849,12657.521608
1102.571148,-9326.594869,-3830.477490,9178.553681
1102.571478,-6143.709319,-5745.716235,6365.771101
1102.571807,-2368.659014,-5362.668486,5107.421000
1102.572137,518.144159,-3294.210641,4737.318029
1102.572467,1554.432478,-306.438199,5033.400406
1102.572797,444.123565,4596.572988,6809.894666
1102.573126,-1184.329507,9116.536426,9548.656652
1102.573456,-2886.803174,10112.460574,12213.398043
1102.573786,-5255.462188,7890.783629,13101.645173
1102.574116,-6661.853478,4596.572988,13249.686362
1102.574445,-7105.977043,459.657299,11917.315666
1102.574775,-7328.038826,-1915.238745,11251.130318
1102.575105,-8142.265362,-3217.601092,9622.677246
1102.575435,-7254.018232,-3524.039291,7624.121203
1102.575764,-4737.318029,-1762.019645,6217.729913
1102.576094,-1184.329507,383.047749,5625.565159
1102.576424,1628.453072,1838.629195,6587.832884
1102.576754,1850.514855,4826.401637,7550.100608
1102.577083,444.123565,7660.954980,8956.491898
1102.577413,-666.185348,8427.050478,10066.800811
1102.577743,-2146.597232,6281.983084,11695.253884
1102.578073,-3923.091493,4749.792088,12657.521608
1102.578402,-5329.482782,2374.896044,11621.233289
1102.578732,-5403.503377,0.000000,9918.759623
1102.579062,-4515.256246,-2068.457845,8660.409521
1102.579392,-2886.803174,-2374.896044,8438.347739
1102.579721,-2146.597232,0.000000,8438.347739
1102.580051,-2368.659014,2374.896044,9030.512492
1102.580381,-2516.700203,4443.353888,9474.636058
1102.580711,-2516.700203,6052.154434,10510.924376
1102.581040,-2146.597232,7354.516781,11103.089130
1102.581370,-2368.659014,6588.421283,11251.130318
1102.581700,-2442.679609,4443.353888,11547.212695
1102.582030,-1924.535449,3447.429741,10955.047942
1102.582359,-962.267725,2298.286494,9474.636058
1102.582689,-814.226536,1149.143247,8512.368333
1102.583019,-740.205942,1225.752797,8216.285956
1102.583349,-222.061783,1991.848295,8586.388927
1102.583679,518.144159,4443.353888,9770.718434
1102.584008,-222.061783,6818.249932,10362.883188
1102.584338,-1480.411884,7584.345430,10362.883188
1102.584668,-2442.679609,8044.002729,9770.718434
1102.584998,-2886.803174,7507.735880,9400.615463
1102.585327,-3108.864956,5439.278036,8734.430116
1102.585657,-2812.782580,3294.210641,6735.874072
1102.585987,-1850.514855,1302.362347,5255.462188
1102.586317,-740.205942,0.000000,5107.421000
1102.586646,-592.164754,0.000000,6809.894666
1102.586976,-1924.535449,2145.067394,8068.244768
1102.587306,-2812.782580,4596.572988,9178.553681
1102.587636,-3478.967927,6665.030833,10584.944971
1102.587965,-3034.844362,7814.174080,12139.377449
1102.588295,-1406.391290,7431.126331,11695.253884
1102.588625,-370.102971,5592.497135,10732.986159
1102.588955,-148.041188,4290.134789,9770.718434
1102.589284,-370.102971,3600.648841,9622.677246
1102.589614,-666.185348,2451.505594,9474.636058
1102.589944,-370.102971,2757.943793,8586.388927
1102.590274,0.000000,2298.286494,8660.409521
1102.590603,444.123565,2298.286494,9252.574275
1102.590933,814.226536,1838.629195,9474.636058
1102.591263,148.041188,2681.334243,10140.821405
1102.591593,-1332.370696,4443.353888,10807.006753
1102.591922,-2294.638420,6128.763984,11547.212695
1102.592252,-2072.576638,6052.154434,12361.439231
1102.592582,-1702.473667,5286.058936,12583.501014
1102.592912,-1702.473667,4443.353888,10807.006753
1102.593241,-1110.308913,3600.648841,9252.574275
1102.593571,-444.123565,3600.648841,8808.450710
1102.593901,0.000000,4366.744339,8660.409521
1102.594231,-296.082377,4519.963438,8586.388927
1102.594560,-370.102971,4136.915689,7550.100608
1102.594890,-592.164754,3447.429741,6809.894666
1102.595220,-814.226536,2834.553343,7031.956449
1102.595550,-1480.411884,2911.162892,8142.265362
1102.595879,-2664.741391,2451.505594,9178.553681
1102.596209,-3552.988522,2834.553343,9548.656652
1102.596539,-3849.070898,3064.381992,9918.759623
1102.596869,-2738.761985,4060.306139,10288.862594
1102.597198,-1036.288319,4213.525239,10214.842000
1102.597528,-888.247130,4979.620737,9474.636058
1102.597858,-296.082377,5592.497135,9104.533087
1102.598188,370.102971,5669.106685,9326.594869
1102.598517,518.144159,5898.935335,9178.553681
1102.598847,296.082377,6052.154434,8438.347739
1102.599177,-444.123565,4826.401637,7846.182985
1102.599507,-962.267725,3140.991542,7254.018232
1102.599836,-1776.494261,1455.581446,7105.977043
1102.600166,-2072.576638,536.266849,7772.162391
1102.600496,-2294.638420,76.609550,9030.512492
1102.600826,-2146.597232,76.609550,9400.615463
1102.601156,-1924.535449,1532.190996,10510.924376
1102.601485,-1036.288319,2681.334243,11399.171507
1102.601815,-444.123565,3983.696590,12361.439231
1102.602145,0.000000,5898.935335,12805.562797
1102.602475,-148.041188,6741.640382,13323.706956
1102.602804,-444.123565,7124.688131,12287.418637
1102.603134,-444.123565,5439.278036,11251.130318
1102.603464,-296.082377,4290.134789,10214.842000
1102.603794,-1184.329507,3064.381992,9400.615463
1102.604123,-2072.576638,2604.724693,8660.409521
1102.604453,-1998.556043,1991.848295,8216.285956
1102.604783,-1776.494261,1991.848295,7920.203579
1102.605113,-1406.391290,1915.238745,7624.121203
1102.605442,-962.267725,2374.896044,7846.182985
1102.605772,-444.123565,2834.553343,8586.388927
1102.606102,-296.082377,3983.696590,9252.574275
1102.606432,-888.247130,6205.373534,10066.800811
1102.606761,-888.247130,6818.249932,11103.089130
1102.607091,-1406.391290,6971.469032,11769.274478
1102.607421,-1924.535449,6971.469032,11399.171507
1102.607751,-2812.782580,7584.345430,10066.800811
1102.608080,-2738.761985,6052.154434,7476.080014
1102.608410,-962.267725,4290.134789,5033.400406
1102.608740,1480.411884,1838.629195,3701.029710
1102.609070,2812.782580,766.095498,3627.009116
1102.609399,2294.638420,2068.457845,4885.359217
1102.609729,222.061783,3217.601092,6957.935855
1102.610059,-2146.597232,4979.620737,9474.636058
1102.610389,-4219.173869,5745.716235,12065.356855
1102.610718,-4737.318029,6511.811733,14434.015869
1102.611048,-4737.318029,6281.983084,15026.180623
1102.611378,-4515.256246,5592.497135,14211.954086
1102.611708,-4441.235652,3753.867940,12213.398043
1102.612037,-3108.864956,2911.162892,10214.842000
1102.612367,-1110.308913,1455.581446,7772.162391
1102.612697,2294.638420,1225.752797,6217.729913
1102.613027,4885.359217,1762.019645,5403.503377
1102.613356,5551.544565,2528.115143,6439.791695
1102.613686,3997.112087,4290.134789,7920.203579
1102.614016,592.164754,6588.421283,10288.862594
1102.614346,-2664.741391,8350.440928,13175.665768
1102.614675,-4145.153275,8120.612279,14508.036463
1102.615005,-4145.153275,6281.983084,14508.036463
1102.615335,-2886.803174,2987.772442,12805.562797
1102.615665,-1406.391290,153.219100,9918.759623
1102.615994,-1184.329507,-383.047749,7328.038826
1102.616324,-1554.432478,536.266849,6661.853478
1102.616654,-2146.597232,2834.553343,8290.306550
1102.616984,-2516.700203,5362.668486,8882.471304
1102.617313,-1998.556043,5209.449386,7328.038826
1102.617643,-1036.288319,2681.334243,5625.565159
1102.617973,74.020594,1455.581446,6291.750507
1102.618303,-1184.329507,2068.457845,8808.450710
1102.618633,-2294.638420,3983.696590,11695.253884
1102.618962,-3108.864956,6588.421283,13027.624579
1102.619292,-2812.782580,7124.688131,12435.459826
1102.619622,-1406.391290,5362.668486,11029.068536
1102.619952,-592.164754,3600.648841,7698.141797
1102.620281,1184.329507,1455.581446,5551.544565
1102.620611,2442.679609,536.266849,4959.379811
1102.620941,2590.720797,2068.457845,6291.750507
1102.621271,2146.597232,3753.867940,7846.182985
1102.621600,1184.329507,3907.087040,9918.759623
1102.621930,-296.082377,4443.353888,11917.315666
1102.622260,-2368.659014,5515.887586,12657.521608
1102.622590,-3034.844362,6281.983084,12435.459826
1102.622919,-2146.597232,4136.915689,12139.377449
1102.623249,-1332.370696,2681.334243,12509.480420
1102.623579,-1702.473667,3064.381992,11695.253884
1102.623909,-2516.700203,2834.553343,9104.533087
1102.624238,-2146.597232,3600.648841,7624.121203
1102.624568,-1110.308913,4596.572988,7698.141797
1102.624898,296.082377,5132.839837,7624.121203
1102.625228,2368.659014,3524.039291,6735.874072
1102.625557,2664.741391,1762.019645,6069.688724
1102.625887,1332.370696,2374.896044,7179.997637
1102.626217,-592.164754,4596.572988,11177.109724
1102.626547,-2738.761985,6894.859482,14804.118840
1102.626876,-4441.235652,9039.926876,15470.304188
1102.627206,-4737.318029,8810.098227,14434.015869
1102.627536,-2886.803174,6128.763984,12583.501014
1102.627866,-1406.391290,2298.286494,10288.862594
1102.628195,-1332.370696,1302.362347,8438.347739
1102.628525,-2146.597232,2834.553343,6365.771101
1102.628855,-2220.617826,4213.525239,4515.256246
1102.629185,-740.205942,4213.525239,3923.091493
1102.629514,1480.411884,3294.210641,4219.173869
1102.629844,2368.659014,3447.429741,4441.235652
1102.630174,2220.617826,5515.887586,4515.256246
1102.630504,2146.597232,6511.811733,6661.853478
1102.630833,1406.391290,6818.249932,10881.027347
1102.631163,-1258.350101,7890.783629,13471.748144
1102.631493,-3701.029710,7737.564530,14878.139434
1102.631823,-3701.029710,5515.887586,14508.036463
1102.632152,-3552.988522,4290.134789,13545.768739
1102.632482,-4737.318029,4826.401637,11103.089130
1102.632812,-4293.194464,1991.848295,8882.471304
1102.633142,-3849.070898,-1302.362347,5699.585753
1102.633471,-1850.514855,-1302.362347,3404.947333
1102.633801,888.247130,-689.485948,3256.906145
1102.634131,2960.823768,1225.752797,4737.318029
1102.634461,2886.803174,3370.820191,6439.791695
1102.634790,2368.659014,4519.963438,8216.285956
1102.635120,2146.597232,4673.182538,12287.418637
1102.635450,1480.411884,6971.469032,16580.613101
1102.635780,-1036.288319,8886.707777,19393.395680
1102.636110,-2960.823768,7277.907231,18283.086767
1102.636439,-4441.235652,3830.477490,15100.201217
1102.636769,-3997.112087,1455.581446,11325.150913
1102.637099,-2368.659014,-2528.115143,7846.182985
1102.637429,74.020594,-4290.134789,5551.544565
1102.637758,1628.453072,-3294.210641,4737.318029
1102.638088,1998.556043,-1225.752797,3330.926739
1102.638418,1998.556043,0.000000,3108.864956
1102.638748,2368.659014,1762.019645,5847.626942
1102.639077,1702.473667,5132.839837,10732.986159
1102.639407,444.123565,8580.269578,15618.345376
1102.639737,-2072.576638,10878.556072,17172.777854
1102.640067,-4071.132681,8656.879127,15026.180623
1102.640396,-4737.318029,4443.353888,13471.748144
1102.640726,-5699.585753,1608.800546,10584.944971
1102.641056,-4885.359217,229.828649,7105.977043
1102.641386,-3701.029710,-2604.724693,3330.926739
1102.641715,-1850.514855,-5056.230287,-222.061783
1102.642045,0.000000,-6741.640382,-1406.391290
1102.642375,1850.514855,-5592.497135,1036.288319
1102.642705,2516.700203,-306.438199,4811.338623
1102.643034,1776.494261,3294.210641,9400.615463
1102.643364,-592.164754,5209.449386,14508.036463
1102.643694,-3701.029710,8273.831378,17024.736666
1102.644024,-4885.359217,9039.926876,19393.395680
1102.644353,-3552.988522,6205.373534,19245.354492
1102.644683,-1480.411884,3140.991542,15100.201217
1102.645012,0.000000,-842.705048,9474.636058
1102.645342,962.267725,-4826.401637,4663.297435
1102.645672,1110.308913,-6665.030833,2368.659014
1102.646001,2368.659014,-5362.668486,2960.823768
1102.646331,4367.215058,-3600.648841,5847.626942
1102.646660,3775.050304,-612.876398,8512.368333
1102.646990,0.000000,2451.505594,10881.027347
1102.647319,-2516.700203,2834.553343,13545.768739
1102.647649,-3108.864956,3600.648841,16506.592507
1102.647978,-2368.659014,4749.792088,18579.169144
1102.648308,-2812.782580,5362.668486,18949.272115
1102.648638,-3775.050304,3983.696590,14656.077652
1102.648967,-3034.844362,229.828649,8512.368333
1102.649297,666.185348,-4443.353888,4293.194464
1102.649626,4071.132681,-3983.696590,3330.926739
1102.649956,3997.112087,-2068.457845,4293.194464
1102.650285,1258.350101,153.219100,4811.338623
1102.650615,-2516.700203,1838.629195,5773.606348
1102.650944,-4515.256246,2604.724693,8364.327145
1102.651274,-4515.256246,3217.601092,11695.253884
1102.651604,-3552.988522,3677.258390,14211.954086
1102.651933,-2886.803174,3907.087040,13915.871710
1102.652263,-2294.638420,2757.943793,11103.089130
1102.652592,-296.082377,1072.533697,8068.244768
1102.652922,2368.659014,-919.314598,5847.626942
1102.653251,2886.803174,-995.924147,5773.606348
1102.653581,2220.617826,2145.067394,6883.915261
1102.653910,0.000000,3753.867940,6291.750507
1102.654240,-1332.370696,1685.410096,5403.503377
1102.654570,-1850.514855,0.000000,6957.935855
1102.654899,-2072.576638,0.000000,9104.533087
1102.655229,-2294.638420,1149.143247,10955.047942
1102.655558,-2886.803174,766.095498,10066.800811
1102.655888,-2886.803174,-306.438199,9104.533087
1102.656217,-1184.329507,-153.219100,10436.903782
1102.656547,0.000000,766.095498,12509.480420
1102.656876,370.102971,1455.581446,12065.356855
1102.657206,-518.144159,612.876398,10510.924376
1102.657536,-1702.473667,842.705048,9474.636058
1102.657865,-1480.411884,229.828649,10214.842000
1102.658195,-1110.308913,-1685.410096,10436.903782
1102.658524,148.041188,-2145.067394,10362.883188
1102.658854,-444.123565,-1915.238745,10510.924376
1102.659183,-962.267725,766.095498,11103.089130
1102.659513,-444.123565,306.438199,11769.274478
1102.659842,592.164754,-689.485948,12435.459826
1102.660172,1258.350101,766.095498,13027.624579
1102.660502,740.205942,2528.115143,13101.645173
1102.660831,-888.247130,4366.744339,12065.356855
1102.661161,-1702.473667,2681.334243,11029.068536
1102.661490,-1554.432478,1302.362347,9918.759623
1102.661820,-1036.288319,1225.752797,8512.368333
1102.662149,-296.082377,-153.219100,6883.915261
1102.662479,-1036.288319,-919.314598,5477.523971
1102.662808,-2072.576638,-919.314598,4441.235652
1102.663138,-1702.473667,-612.876398,4959.379811
1102.663467,0.000000,766.095498,6735.874072
1102.663797,444.123565,766.095498,8364.327145
1102.664127,-2294.638420,3447.429741,9992.780217
1102.664456,-5477.523971,4749.792088,10288.862594
1102.664786,-5625.565159,3907.087040,9992.780217
1102.665115,-3775.050304,2604.724693,9326.594869
1102.665445,-1110.308913,76.609550,8438.347739
1102.665774,0.000000,-1149.143247,6069.688724
1102.666104,-888.247130,-1532.190996,4885.359217
1102.666433,0.000000,-1072.533697,4515.256246
1102.666763,1332.370696,0.000000,6217.729913
1102.667093,2960.823768,459.657299,9104.533087
1102.667422,2960.823768,2298.286494,12287.418637
1102.667752,518.144159,2757.943793,13101.645173
1102.668081,-2220.617826,2834.553343,12953.603985
1102.668411,-2738.761985,2145.067394,12879.583391
1102.668740,-1406.391290,689.485948,15174.221811
1102.669070,0.000000,1685.410096,15248.242405
1102.669399,-592.164754,1455.581446,10955.047942
1102.669729,148.041188,-2374.896044,6439.791695
1102.670059,1998.556043,-5056.230287,5329.482782
1102.670388,2664.741391,-2374.896044,8438.347739
1102.670718,2368.659014,2068.457845,11769.274478
1102.671047,0.000000,4366.744339,12139.377449
1102.671377,-3627.009116,3447.429741,10658.965565
1102.671706,-4515.256246,1072.533697,11621.233289
1102.672036,-3849.070898,-842.705048,12731.542202
1102.672365,-3256.906145,-536.266849,12953.603985
1102.672695,-2886.803174,0.000000,11029.068536
1102.673025,-2516.700203,536.266849,8290.306550
1102.673354,-1998.556043,-995.924147,6513.812290
1102.673684,-518.144159,-2757.943793,6809.894666
1102.674013,740.205942,0.000000,8438.347739
1102.674343,444.123565,3370.820191,7846.182985
1102.674672,-1850.514855,4673.182538,6883.915261
1102.675002,-1776.494261,2221.676944,6661.853478
1102.675331,-1332.370696,-306.438199,8216.285956
1102.675661,-1110.308913,-153.219100,9474.636058
1102.675991,-888.247130,1991.848295,9178.553681
1102.676320,-962.267725,1762.019645,6957.935855
1102.676650,148.041188,-1072.533697,6069.688724
1102.676979,740.205942,-3140.991542,6883.915261
1102.677309,888.247130,-1225.752797,9622.677246
1102.677638,1036.288319,2451.505594,11843.295072
1102.677968,-1110.308913,5439.278036,10436.903782
1102.678297,-3034.844362,2911.162892,8956.491898
1102.678627,-3330.926739,-2221.676944,9770.718434
1102.678956,-2368.659014,-2451.505594,11843.295072
1102.679286,-1406.391290,76.609550,12139.377449
1102.679616,-2294.638420,1532.190996,9696.697840
1102.679945,-1850.514855,153.219100,8068.244768
1102.680275,222.061783,-2298.286494,9622.677246
1102.680604,1998.556043,-1685.410096,12361.439231
1102.680934,1998.556043,2068.457845,14063.912898
1102.681263,-296.082377,5439.278036,12805.562797
1102.681593,-1998.556043,4903.011187,11251.130318
1102.681922,-1998.556043,1762.019645,11843.295072
1102.682252,-1258.350101,0.000000,12361.439231
1102.682582,-296.082377,383.047749,11177.109724
1102.682911,-444.123565,1149.143247,8660.409521
1102.683241,-740.205942,689.485948,6439.791695
1102.683570,-814.226536,-919.314598,6143.709319
1102.683900,444.123565,-1762.019645,7254.018232
1102.684229,1258.350101,766.095498,8290.306550
1102.684559,148.041188,3907.087040,8512.368333
1102.684888,-2146.597232,5286.058936,7846.182985
1102.685218,-3478.967927,2911.162892,8808.450710
1102.685548,-3923.091493,229.828649,8734.430116
1102.685877,-3256.906145,-306.438199,9030.512492
1102.686207,-2294.638420,0.000000,8808.450710
1102.686536,-2886.803174,-1072.533697,6439.791695
1102.686866,-3256.906145,-3370.820191,5033.400406
1102.687195,-1554.432478,-2834.553343,6661.853478
1102.687525,444.123565,153.219100,9548.656652
1102.687854,888.247130,3447.429741,10658.965565
1102.688184,0.000000,3677.258390,9770.718434
1102.688514,-666.185348,1608.800546,9844.739029
1102.688843,-1036.288319,0.000000,10362.883188
1102.689173,-814.226536,-229.828649,10807.006753
1102.689502,74.020594,153.219100,11695.253884
1102.689832,222.061783,153.219100,11547.212695
1102.690161,-370.102971,76.609550,9992.780217
1102.690491,518.144159,-1532.190996,9548.656652
1102.690820,2220.617826,-2834.553343,9992.780217
1102.691150,2590.720797,-842.705048,11177.109724
1102.691480,666.185348,2298.286494,12953.603985
1102.691809,-2146.597232,4903.011187,13175.665768
1102.692139,-3034.844362,3907.087040,11991.336260
1102.692468,-3034.844362,306.438199,11177.109724
1102.692798,-2072.576638,-612.876398,11251.130318
1102.693127,-2072.576638,-383.047749,11621.233289
1102.693457,-2738.761985,612.876398,9104.533087
1102.693786,-2442.679609,153.219100,5477.523971
1102.694116,-814.226536,-2911.162892,5699.585753
1102.694445,148.041188,-1532.190996,8512.368333
1102.694775,-592.164754,2681.334243,11473.192101
1102.695105,-2590.720797,5975.544884,10955.047942
1102.695434,-4589.276840,5669.106685,8660.409521
1102.695764,-3404.947333,2451.505594,7550.100608
1102.696093,-1258.350101,536.266849,8142.265362
1102.696423,444.123565,-459.657299,9104.533087
1102.696752,-296.082377,1532.190996,6883.915261
1102.697082,-1480.411884,2451.505594,3997.112087
1102.697411,-148.041188,-1149.143247,4293.194464
1102.697741,1628.453072,-1532.190996,7550.100608
1102.698071,1628.453072,1532.190996,10510.924376
1102.698400,222.061783,4673.182538,10288.862594
1102.698730,-2220.617826,3677.258390,8216.285956
1102.699059,-2590.720797,1225.752797,8068.244768
1102.699389,-1776.494261,-612.876398,10584.944971
1102.699718,-1480.411884,-306.438199,12805.562797
1102.700048,-2146.597232,1532.190996,11769.274478
1102.700377,-2146.597232,1225.752797,9178.553681
1102.700707,-444.123565,-1378.971896,8290.306550
1102.701037,814.226536,-3677.258390,9474.636058
1102.701366,1332.370696,-1455.581446,12065.356855
1102.701696,962.267725,2834.553343,13841.851115
1102.702025,-1258.350101,5362.668486,13323.706956
1102.702355,-3256.906145,4366.744339,12361.439231
1102.702684,-2442.679609,689.485948,12583.501014
1102.703014,-1036.288319,-1302.362347,13915.871710
1102.703343,-814.226536,459.657299,12805.562797
1102.703673,-2368.659014,2145.067394,9178.553681
1102.704003,-2886.803174,153.219100,6883.915261
1102.704332,-222.061783,-2298.286494,7698.141797
1102.704662,370.102971,-612.876398,9770.718434
1102.704991,222.061783,2451.505594,9992.780217
1102.705321,-1036.288319,3600.648841,8438.347739
1102.705650,-3256.906145,3830.477490,6883.915261
1102.705980,-3849.070898,2451.505594,7402.059420
1102.706309,-2516.700203,689.485948,8808.450710
1102.706639,-1406.391290,306.438199,8068.244768
1102.706969,-1776.494261,766.095498,6661.853478
1102.707298,-2590.720797,306.438199,5773.606348
1102.707628,-2442.679609,-1149.143247,5625.565159
1102.707957,-592.164754,-919.314598,7031.956449
1102.708287,1110.308913,536.266849,8142.265362
1102.708616,888.247130,2987.772442,9474.636058
1102.708946,-1480.411884,4136.915689,9770.718434
1102.709275,-2590.720797,3370.820191,9844.739029
1102.709605,-1998.556043,536.266849,8882.471304
1102.709935,-740.205942,0.000000,9400.615463
1102.710264,592.164754,229.828649,10362.883188
1102.710594,370.102971,612.876398,10436.903782
1102.710923,-592.164754,-459.657299,9030.512492
1102.711253,-592.164754,-1991.848295,7772.162391
1102.711582,962.267725,-995.924147,10584.944971
1102.711912,1554.432478,1455.581446,14211.954086
1102.712241,-592.164754,3983.696590,14730.098246
1102.712571,-3034.844362,4290.134789,12583.501014
1102.712900,-3330.926739,842.705048,10288.862594
1102.713230,-2146.597232,-459.657299,10881.027347
1102.713560,-962.267725,306.438199,11917.315666
1102.713889,-1036.288319,1072.533697,11917.315666
1102.714219,-2664.741391,995.924147,8660.409521
1102.714548,-2442.679609,-766.095498,7031.956449
1102.714878,-518.144159,-2374.896044,8512.368333
1102.715207,0.000000,76.609550,11029.068536
1102.715537,-1554.432478,3600.648841,11843.295072
1102.715866,-4071.132681,5439.278036,10732.986159
1102.716196,-4515.256246,4213.525239,9844.739029
1102.716526,-2960.823768,2145.067394,9104.533087
1102.716855,-1406.391290,612.876398,8438.347739
1102.717185,0.000000,0.000000,7402.059420
1102.717514,-148.041188,1302.362347,5477.523971
1102.717844,-444.123565,1149.143247,3849.070898
1102.718173,518.144159,153.219100,4737.318029
1102.718503,1036.288319,0.000000,7254.018232
1102.718832,888.247130,2451.505594,9770.718434
1102.719162,-592.164754,5056.230287,10214.842000
1102.719492,-2738.761985,4060.306139,8734.430116
1102.719821,-2738.761985,766.095498,7476.080014
1102.720151,-1554.432478,-689.485948,9252.574275
1102.720480,-296.082377,383.047749,11399.171507
1102.720810,-962.267725,2298.286494,10140.821405
1102.721139,-1924.535449,995.924147,7476.080014
1102.721469,-1184.329507,-1302.362347,7476.080014
1102.721798,-148.041188,-1072.533697,9326.594869
1102.722128,1184.329507,459.657299,12139.377449
1102.722458,1036.288319,3140.991542,12731.542202
1102.722787,-1998.556043,3064.381992,11917.315666
1102.723117,-3701.029710,2298.286494,11843.295072
1102.723446,-3256.906145,-536.266849,12805.562797
1102.723776,-1998.556043,-383.047749,14211.954086
1102.724105,-888.247130,1608.800546,13027.624579
1102.724435,-1406.391290,1991.848295,9696.697840
1102.724764,0.000000,-153.219100,7476.080014
1102.725094,1776.494261,-2068.457845,8290.306550
1102.725424,1480.411884,76.609550,10066.800811
1102.725753,148.041188,3753.867940,11029.068536
1102.726083,-2294.638420,5669.106685,10362.883188
1102.726412,-2960.823768,4213.525239,9770.718434
1102.726742,-2590.720797,1302.362347,9104.533087
1102.727071,-2368.659014,-1378.971896,8290.306550
1102.727401,-962.267725,0.000000,7624.121203
1102.727730,-1406.391290,1378.971896,6883.915261
1102.728060,-1998.556043,1685.410096,5477.523971
1102.728389,-1628.453072,-306.438199,5625.565159
1102.728719,-370.102971,-919.314598,6883.915261
1102.729049,-592.164754,995.924147,9178.553681
1102.729378,-1332.370696,3370.820191,10140.821405
1102.729708,-3330.926739,3294.210641,8956.491898
1102.730037,-4071.132681,766.095498,8586.388927
1102.730367,-2886.803174,-459.657299,9474.636058
1102.730696,-1554.432478,612.876398,10881.027347
1102.731026,-888.247130,1072.533697,9844.739029
1102.731355,-814.226536,153.219100,7698.141797
1102.731685,444.123565,-1378.971896,7031.956449
1102.732015,2146.597232,-2451.505594,9548.656652
1102.732344,2812.782580,76.609550,11103.089130
1102.732674,1332.370696,2911.162892,13101.645173
1102.733003,-1110.308913,4903.011187,12879.583391
1102.733333,-2368.659014,3907.087040,12583.501014
1102.733662,-1702.473667,0.000000,12731.542202
1102.733992,-814.226536,-842.705048,12805.562797
1102.734321,-296.082377,0.000000,11843.295072
1102.734651,-1554.432478,1762.019645,9400.615463
1102.734981,-2072.576638,842.705048,6957.935855
1102.735310,222.061783,-2221.676944,7624.121203
1102.735640,1332.370696,-1532.190996,9992.780217
1102.735969,0.000000,3370.820191,11843.295072
1102.736299,-2146.597232,5209.449386,11399.171507
1102.736628,-4071.132681,4519.963438,9770.718434
1102.736958,-3404.947333,2145.067394,9622.677246
1102.737287,-2368.659014,842.705048,10436.903782
1102.737617,-1998.556043,1455.581446,10436.903782
1102.737947,-2368.659014,2911.162892,8734.430116
1102.738276,-2812.782580,2911.162892,6069.688724
1102.738606,-1036.288319,306.438199,5551.544565
1102.738935,740.205942,-612.876398,5699.585753
1102.739265,888.247130,536.266849,6957.935855
1102.739594,444.123565,2604.724693,8512.368333
1102.739924,-2368.659014,4903.011187,8512.368333
1102.740253,-3923.091493,4213.525239,8364.327145
1102.740583,-2886.803174,1378.971896,8216.285956
1102.740913,-592.164754,-229.828649,9326.594869
1102.741242,148.041188,1072.533697,8660.409521
1102.741572,-518.144159,1685.410096,7476.080014
1102.741901,-740.205942,0.000000,5773.606348
1102.742231,666.185348,-1915.238745,6365.771101
1102.742560,1628.453072,-2451.505594,9326.594869
1102.742890,1258.350101,1378.971896,13101.645173
1102.743219,-1258.350101,3677.258390,14211.954086
1102.743549,-4071.132681,3370.820191,12213.398043
1102.743878,-3108.864956,-153.219100,11547.212695
1102.744208,-1850.514855,-2911.162892,12213.398043
1102.744538,-296.082377,-1915.238745,12953.603985
1102.744867,-444.123565,1149.143247,13027.624579
1102.745197,-1110.308913,1991.848295,10658.965565
1102.745526,-1036.288319,-536.266849,8586.388927
1102.745856,296.082377,-2374.896044,9844.739029
1102.746185,1702.473667,-612.876398,12583.501014
1102.746515,148.041188,2987.772442,13101.645173
1102.746845,-2590.720797,4519.963438,10807.006753
1102.747174,-3182.885551,1915.238745,9474.636058
1102.747504,-2146.597232,-1685.410096,10140.821405
1102.747833,-2294.638420,-1149.143247,11473.192101
1102.748163,-2442.679609,2604.724693,9696.697840
1102.748492,-2886.803174,2451.505594,6291.750507
1102.748822,-1480.411884,306.438199,4219.173869
1102.749152,814.226536,-2221.676944,4737.318029
1102.749481,1702.473667,-1608.800546,6735.874072
1102.749811,740.205942,1838.629195,8142.265362
1102.750140,-2294.638420,4596.572988,8734.430116
1102.750470,-4219.173869,4673.182538,8142.265362
1102.750800,-3849.070898,1072.533697,9400.615463
1102.751129,-2368.659014,-995.924147,9844.739029
1102.751459,-888.247130,766.095498,9400.615463
1102.751788,-518.144159,1072.533697,7920.203579
1102.752118,-1110.308913,306.438199,6217.729913
1102.752448,0.000000,-1455.581446,6587.832884
1102.752777,1184.329507,-1762.019645,8660.409521
1102.753107,1998.556043,766.095498,10658.965565
1102.753436,1036.288319,2757.943793,11547.212695
1102.753766,-1554.432478,3294.210641,11029.068536
1102.754096,-2812.782580,1685.410096,11103.089130
1102.754425,-2442.679609,-1149.143247,11473.192101
1102.754755,-592.164754,-919.314598,13027.624579
1102.755084,740.205942,1378.971896,13175.665768
1102.755414,-444.123565,2298.286494,10510.924376
1102.755744,-518.144159,-766.095498,7698.141797
1102.756073,1184.329507,-2757.943793,9030.512492
1102.756403,1554.432478,612.876398,11695.253884
1102.756732,814.226536,5286.058936,12805.562797
1102.757062,-1480.411884,5975.544884,11325.150913
1102.757392,-3182.885551,1915.238745,10066.800811
1102.757721,-3256.906145,-1225.752797,10214.842000
1102.758051,-3627.009116,-995.924147,10955.047942
1102.758380,-3256.906145,0.000000,10140.821405
1102.758710,-3627.009116,1762.019645,8364.327145
1102.759039,-3404.947333,919.314598,6883.915261
1102.759369,-1332.370696,-842.705048,7031.956449
1102.759699,592.164754,-1532.190996,7846.182985
1102.760028,962.267725,1378.971896,7994.224174
1102.760358,-666.185348,4596.572988,7772.162391
1102.760687,-2590.720797,3830.477490,8216.285956
1102.761017,-2442.679609,3447.429741,9030.512492
1102.761347,-1480.411884,1225.752797,8882.471304
1102.761676,-296.082377,76.609550,8734.430116
1102.762006,444.123565,229.828649,7698.141797
1102.762335,-222.061783,0.000000,6661.853478
1102.762665,74.020594,-1838.629195,5773.606348
1102.762995,1036.288319,-2298.286494,6587.832884
1102.763324,2072.576638,-459.657299,8956.491898
1102.763654,1776.494261,2068.457845,11621.233289
1102.763983,-888.247130,3677.258390,11769.274478
1102.764313,-3330.926739,2451.505594,10732.986159
1102.764643,-2516.700203,-1378.971896,10881.027347
1102.764972,-1184.329507,-1838.629195,11991.336260
1102.765302,0.000000,-766.095498,12583.501014
1102.765631,-222.061783,229.828649,11399.171507
1102.765961,-1554.432478,-842.705048,9252.574275
1102.766291,-962.267725,-1685.410096,9474.636058
1102.766620,0.000000,-612.876398,12509.480420
1102.766950,666.185348,2145.067394,14952.160028
1102.767279,-1332.370696,3753.867940,13841.851115
1102.767609,-3182.885551,3217.601092,10807.006753
1102.767938,-2368.659014,-689.485948,10140.821405
1102.768268,-1480.411884,-2374.896044,10807.006753
1102.768598,-1702.473667,-766.095498,11473.192101
1102.768927,-2738.761985,1915.238745,9918.759623
1102.769257,-2960.823768,1991.848295,7031.956449
1102.769586,-222.061783,-842.705048,5699.585753
1102.769916,2146.597232,-1915.238745,6439.791695
1102.770246,2516.700203,76.609550,7624.121203
1102.770575,740.205942,3524.039291,8586.388927
1102.770905,-1702.473667,5515.887586,7550.100608
1102.771234,-3404.947333,4366.744339,8216.285956
1102.771564,-3034.844362,1455.581446,9030.512492
1102.771894,-2368.659014,766.095498,9844.739029
1102.772223,-1110.308913,1149.143247,8660.409521
1102.772553,-1258.350101,0.000000,6143.709319
1102.772882,-1184.329507,-1149.143247,5033.400406
1102.773212,-370.102971,-1838.629195,6143.709319
1102.773542,0.000000,-306.438199,8660.409521
1102.773871,0.000000,2068.457845,10584.944971
1102.774201,-1110.308913,3830.477490,10807.006753
1102.774530,-2368.659014,3140.991542,11029.068536
1102.774860,-2812.782580,1149.143247,10584.944971
1102.775190,-1702.473667,0.000000,11177.109724
1102.775519,370.102971,-919.314598,11325.150913
1102.775849,1036.288319,0.000000,10732.986159
1102.776178,-296.082377,1225.752797,9622.677246
1102.776508,-296.082377,-766.095498,9474.636058
1102.776838,1036.288319,-612.876398,10658.965565
1102.777167,1702.473667,536.266849,12583.501014
1102.777497,1184.329507,3064.381992,13249.686362
1102.777826,-1998.556043,4519.963438,11991.336260
1102.778156,-2590.720797,2681.334243,10732.986159
1102.778485,-1924.535449,-153.219100,10288.862594
1102.778815,-814.226536,-1149.143247,11029.068536
1102.779145,-518.144159,306.438199,10881.027347
1102.779474,-1776.494261,2145.067394,8438.347739
1102.779804,-2294.638420,995.924147,6439.791695
1102.780133,-666.185348,-766.095498,6143.709319
1102.780463,666.185348,-842.705048,8290.306550
1102.780793,74.020594,2604.724693,10066.800811
1102.781122,-2664.741391,4443.353888,9770.718434
1102.781452,-4441.235652,3140.991542,8512.368333
1102.781781,-3627.009116,612.876398,8216.285956
1102.782111,-2294.638420,-1072.533697,8882.471304
1102.782441,-1332.370696,-612.876398,8734.430116
1102.782770,-1628.453072,459.657299,8142.265362
1102.783100,-1702.473667,459.657299,5699.585753
1102.783429,-888.247130,-459.657299,5921.647536
1102.783759,1110.308913,-1302.362347,7550.100608
1102.784089,2294.638420,536.266849,10066.800811
1102.784418,1110.308913,2221.676944,10807.006753
1102.784748,-1332.370696,2604.724693,10510.924376
1102.785077,-1554.432478,1991.848295,10658.965565
1102.785407,-1628.453072,-153.219100,10955.047942
1102.785737,-444.123565,-1532.190996,11325.150913
1102.786066,1332.370696,-1302.362347,11843.295072
1102.786396,888.247130,76.609550,10510.924376
1102.786725,444.123565,1225.752797,8290.306550
1102.787055,444.123565,-995.924147,8068.244768
1102.787385,1850.514855,-2298.286494,10807.006753
1102.787714,1554.432478,1072.533697,13619.789333
1102.788044,-1406.391290,4213.525239,13693.809927
1102.788373,-4293.194464,3217.601092,11399.171507
1102.788703,-4219.173869,-153.219100,10140.821405
1102.789032,-2664.741391,-2374.896044,11621.233289
1102.789362,-1332.370696,-612.876398,12953.603985
1102.789692,-2368.659014,2145.067394,11029.068536
1102.790021,-2590.720797,2604.724693,7105.977043
1102.790351,-962.267725,-995.924147,5477.523971
1102.790680,888.247130,-1838.629195,7846.182985
1102.791010,1036.288319,689.485948,9918.759623
1102.791340,-666.185348,4366.744339,9918.759623
1102.791669,-2886.803174,4903.011187,8290.306550
1102.791999,-3330.926739,1838.629195,7328.038826
1102.792328,-2220.617826,-536.266849,8882.471304
1102.792658,-666.185348,-1149.143247,9918.759623
1102.792988,-814.226536,766.095498,8364.327145
1102.793317,-1998.556043,1991.848295,5995.668130
1102.793647,-1184.329507,689.485948,5107.421000
1102.793976,518.144159,-1378.971896,6143.709319
1102.794306,1332.370696,383.047749,8290.306550
1102.794636,1702.473667,2987.772442,9178.553681
1102.794965,148.041188,3677.258390,9178.553681
1102.795295,-1776.494261,2834.553343,9400.615463
1102.795624,-2516.700203,1072.533697,9844.739029
1102.795954,-1850.514855,-995.924147,10658.965565
1102.796284,-592.164754,-842.705048,11177.109724
1102.796613,-1110.308913,459.657299,10436.903782
1102.796943,-1554.432478,536.266849,9252.574275
1102.797272,-444.123565,-1225.752797,10066.800811
1102.797602,1332.370696,-995.924147,10955.047942
1102.797932,1924.535449,1685.410096,12213.398043
1102.798261,740.205942,3217.601092,12731.542202
1102.798591,-1110.308913,3370.820191,12287.418637
1102.798920,-2368.659014,2068.457845,11473.192101
1102.799250,-1850.514855,1225.752797,12213.398043
1102.799579,0.000000,1685.410096,12361.439231
1102.799909,444.123565,1608.800546,10362.883188
1102.800239,0.000000,1225.752797,7772.162391
1102.800568,74.020594,-459.657299,7254.018232
1102.800898,444.123565,-383.047749,8142.265362
1102.801227,222.061783,2374.896044,9400.615463
1102.801557,-1332.370696,3447.429741,9696.697840
1102.801887,-2960.823768,3600.648841,9252.574275
1102.802216,-4515.256246,2528.115143,9474.636058
1102.802546,-3627.009116,842.705048,8734.430116
1102.802875,-2590.720797,0.000000,7994.224174
1102.803205,-1628.453072,0.000000,7402.059420
1102.803535,-1480.411884,1225.752797,6957.935855
1102.803864,-1406.391290,1072.533697,6661.853478
1102.804194,-666.185348,-612.876398,6365.771101
1102.804523,222.061783,995.924147,7105.977043
1102.804853,888.247130,1302.362347,8808.450710
1102.805183,148.041188,2298.286494,11029.068536
1102.805512,-2072.576638,2757.943793,11177.109724
1102.805842,-2516.700203,1378.971896,10066.800811
1102.806171,-1110.308913,-766.095498,9252.574275
1102.806501,148.041188,-1991.848295,10362.883188
1102.806831,814.226536,76.609550,11843.295072
1102.807160,0.000000,995.924147,10214.842000
1102.807490,-296.082377,-459.657299,7994.224174
1102.807819,962.267725,-1608.800546,7402.059420
1102.808149,2146.597232,-612.876398,11473.192101
1102.808478,1184.329507,1762.019645,13101.645173
1102.808808,-1480.411884,3217.601092,12509.480420
1102.809138,-2738.761985,2145.067394,10955.047942
1102.809467,-2516.700203,153.219100,11325.150913
1102.809797,-1702.473667,-459.657299,13101.645173
1102.810126,-1184.329507,0.000000,13027.624579
1102.810456,-1628.453072,1378.971896,10288.862594
1102.810786,-1554.432478,612.876398,7772.162391
1102.811115,-888.247130,306.438199,7476.080014
1102.811445,-222.061783,229.828649,10066.800811
1102.811774,-962.267725,2528.115143,11547.212695
1102.812104,-2368.659014,5209.449386,9918.759623
1102.812434,-2886.803174,3753.867940,8068.244768
1102.812763,-2220.617826,689.485948,7402.059420
1102.813093,-1406.391290,-306.438199,8068.244768
1102.813422,-1184.329507,459.657299,8808.450710
1102.813752,-888.247130,2604.724693,7550.100608
1102.814082,-888.247130,2757.943793,5773.606348
1102.814411,0.000000,995.924147,6291.750507
1102.814741,740.205942,1072.533697,8068.244768
1102.815070,1184.329507,2451.505594,8956.491898
1102.815400,592.164754,4060.306139,8364.327145
1102.815730,-814.226536,3524.039291,7476.080014
1102.816059,-2294.638420,1608.800546,7698.141797
1102.816389,-2146.597232,306.438199,9474.636058
1102.816718,-1110.308913,229.828649,10436.903782
1102.817048,-1036.288319,612.876398,9474.636058
1102.817378,-1924.535449,919.314598,7624.121203
1102.817707,-1184.329507,-612.876398,7920.203579
1102.818037,0.000000,-1991.848295,9918.759623
1102.818366,666.185348,-459.657299,11251.130318
1102.818696,0.000000,1685.410096,11917.315666
1102.819025,-1480.411884,2987.772442,12435.459826
1102.819355,-2886.803174,2374.896044,12953.603985
1102.819685,-2368.659014,842.705048,13101.645173
1102.820014,-1036.288319,0.000000,12139.377449
1102.820344,518.144159,-612.876398,10807.006753
1102.820673,592.164754,459.657299,9992.780217
1102.821003,0.000000,1072.533697,9104.533087
1102.821333,222.061783,-766.095498,8956.491898
1102.821662,666.185348,-153.219100,10214.842000
1102.821992,1036.288319,2374.896044,11251.130318
1102.822321,-962.267725,3370.820191,11399.171507
1102.822651,-3108.864956,2451.505594,10584.944971
1102.822981,-4367.215058,919.314598,9252.574275
1102.823310,-4071.132681,153.219100,8512.368333
1102.823640,-2442.679609,459.657299,8882.471304
1102.823969,-2664.741391,1302.362347,8068.244768
1102.824299,-3034.844362,1838.629195,6513.812290
1102.824629,-2368.659014,0.000000,5403.503377
1102.824958,-444.123565,-153.219100,5921.647536
1102.825288,814.226536,1378.971896,6957.935855
1102.825617,222.061783,1608.800546,7994.224174
1102.825947,-1480.411884,2221.676944,8512.368333
1102.826277,-2442.679609,2145.067394,9104.533087
1102.826606,-1998.556043,689.485948,9400.615463
1102.826936,-814.226536,0.000000,9696.697840
1102.827265,0.000000,536.266849,10436.903782
1102.827595,-296.082377,1378.971896,9548.656652
1102.827925,0.000000,383.047749,7920.203579
1102.828254,1628.453072,-536.266849,7254.018232
1102.828584,2960.823768,-689.485948,8438.347739
1102.828913,3108.864956,536.266849,11103.089130
1102.829243,962.267725,2681.334243,12953.603985
1102.829572,-2516.700203,3370.820191,12139.377449
1102.829902,-3182.885551,383.047749,11473.192101
1102.830232,-2368.659014,-1685.410096,11917.315666
1102.830561,-1554.432478,-1302.362347,13471.748144
1102.830891,-1406.391290,536.266849,12435.459826
1102.831220,-2220.617826,1455.581446,10436.903782
1102.831550,-1554.432478,919.314598,8586.388927
1102.831880,-518.144159,0.000000,9252.574275
1102.832209,740.205942,536.266849,11177.109724
1102.832539,74.020594,2987.772442,11917.315666
1102.832868,-2146.597232,4443.353888,9918.759623
1102.833198,-3627.009116,2757.943793,7624.121203
1102.833528,-2886.803174,-459.657299,7772.162391
1102.833857,-1850.514855,-1072.533697,9844.739029
1102.834187,-1480.411884,1072.533697,10362.883188
1102.834516,-2072.576638,3140.991542,7994.224174
1102.834846,-2072.576638,1225.752797,4737.318029
1102.835176,-592.164754,-1915.238745,4885.359217
1102.835505,444.123565,-842.705048,8142.265362
1102.835835,0.000000,3064.381992,10436.903782
1102.836164,-1776.494261,5898.935335,9252.574275
1102.836494,-2886.803174,4519.963438,7698.141797
1102.836824,-2960.823768,766.095498,7698.141797
1102.837153,-1924.535449,-1455.581446,9326.594869
1102.837483,-814.226536,-306.438199,10140.821405
1102.837812,-740.205942,2068.457845,8438.347739
1102.838142,-1628.453072,2221.676944,6143.709319
1102.838471,-444.123565,-306.438199,6439.791695
1102.838801,1554.432478,-2068.457845,8956.491898
1102.839131,2590.720797,-229.828649,11399.171507
1102.839460,1702.473667,3370.820191,11917.315666
1102.839790,-1850.514855,4519.963438,11399.171507
1102.840119,-3108.864956,2451.505594,11843.295072
1102.840449,-2146.597232,153.219100,13027.624579
1102.840779,-370.102971,0.000000,12509.480420
1102.841108,666.185348,766.095498,10658.965565
1102.841438,518.144159,1608.800546,9104.533087
1102.841767,-888.247130,1532.190996,7254.018232
1102.842097,-296.082377,-689.485948,7920.203579
1102.842427,1036.288319,-766.095498,9992.780217
1102.842756,592.164754,1685.410096,11103.089130
1102.843086,-2072.576638,2911.162892,10658.965565
1102.843415,-3997.112087,1608.800546,10732.986159
1102.843745,-3849.070898,-995.924147,10955.047942
1102.844075,-2886.803174,-919.314598,11695.253884
1102.844404,-1776.494261,919.314598,12361.439231
1102.844734,-1406.391290,3217.601092,11473.192101
1102.845063,-2368.659014,2757.943793,8882.471304
1102.845393,-1406.391290,0.000000,6365.771101
1102.845722,518.144159,-842.705048,6661.853478
1102.846052,1110.308913,1072.533697,8290.306550
1102.846382,-666.185348,4290.134789,8586.388927
1102.846711,-2516.700203,3524.039291,8364.327145
1102.847041,-3404.947333,306.438199,7772.162391
1102.847370,-2812.782580,-1225.752797,7994.224174
1102.847700,-1924.535449,-1149.143247,8808.450710
1102.848029,-962.267725,-536.266849,8734.430116
1102.848359,-1702.473667,229.828649,7772.162391
1102.848688,-2220.617826,229.828649,7105.977043
1102.849018,-518.144159,-1072.533697,7254.018232
1102.849347,1110.308913,-1532.190996,9474.636058
1102.849677,1332.370696,1225.752797,11177.109724
1102.850006,-814.226536,2528.115143,10955.047942
1102.850336,-2072.576638,536.266849,10214.842000
1102.850665,-1924.535449,-1302.362347,10658.965565
1102.850995,-1036.288319,-1225.752797,12139.377449
1102.851324,-370.102971,459.657299,13175.665768
1102.851654,-592.164754,1302.362347,11769.274478
1102.851983,-592.164754,0.000000,10066.800811
1102.852313,0.000000,-919.314598,9178.553681
1102.852643,962.267725,-995.924147,10658.965565
1102.852972,1480.411884,1455.581446,12509.480420
1102.853302,296.082377,3983.696590,12583.501014
1102.853631,-2220.617826,3983.696590,10510.924376
1102.853961,-2960.823768,1991.848295,9400.615463
1102.854290,-1776.494261,-459.657299,10214.842000
1102.854620,-296.082377,612.876398,11177.109724
1102.854949,-814.226536,2451.505594,9548.656652
1102.855279,-1924.535449,2298.286494,6069.688724
1102.855608,-1554.432478,766.095498,4811.338623
1102.855938,-1480.411884,689.485948,6809.894666
1102.856267,-1258.350101,2757.943793,8216.285956
1102.856597,-1406.391290,3217.601092,8956.491898
1102.856926,-2812.782580,3677.258390,8364.327145
1102.857256,-3775.050304,2374.896044,7254.018232
1102.857585,-4071.132681,153.219100,7254.018232
1102.857915,-1850.514855,-995.924147,9178.553681
1102.858244,-1184.329507,459.657299,9696.697840
1102.858574,-2368.659014,2834.553343,9252.574275
1102.858903,-2590.720797,2987.772442,7550.100608
1102.859233,-1110.308913,0.000000,7476.080014
1102.859563,1184.329507,-229.828649,8290.306550
1102.859892,2442.679609,919.314598,9696.697840
1102.860222,1258.350101,1838.629195,10288.862594
1102.860551,-1332.370696,1838.629195,9918.759623
1102.860881,-2442.679609,0.000000,11029.068536
1102.861210,-1924.535449,-1072.533697,11843.295072
1102.861540,-888.247130,0.000000,12583.501014
1102.861869,-148.041188,229.828649,12361.439231
1102.862199,-814.226536,995.924147,10140.821405
1102.862528,-592.164754,-229.828649,8438.347739
1102.862858,740.205942,-306.438199,9474.636058
1102.863187,2294.638420,383.047749,11177.109724
1102.863517,1184.329507,1685.410096,12287.418637
1102.863846,-2072.576638,2834.553343,11769.274478
1102.864176,-3552.988522,1762.019645,10955.047942
1102.864505,-3775.050304,-612.876398,10214.842000
1102.864835,-2812.782580,-1072.533697,10584.944971
1102.865164,-1776.494261,-1225.752797,11399.171507
1102.865494,-2072.576638,459.657299,10955.047942
1102.865824,-3256.906145,1915.238745,8364.327145
1102.866153,-2664.741391,0.000000,6439.791695
1102.866483,-444.123565,-842.705048,7105.977043
1102.866812,444.123565,766.095498,9474.636058
1102.867142,-666.185348,4443.353888,10288.862594
1102.867471,-1998.556043,4673.182538,8142.265362
1102.867801,-1998.556043,536.266849,6513.812290
1102.868130,-1184.329507,-1532.190996,7402.059420
1102.868460,-740.205942,0.000000,9696.697840
1102.868789,-1480.411884,2068.457845,9474.636058
1102.869119,-1998.556043,1991.848295,6291.750507
1102.869448,-814.226536,-1225.752797,3923.091493
1102.869778,962.267725,-2221.676944,5477.523971
1102.870107,2072.576638,229.828649,9252.574275
1102.870437,1332.370696,3294.210641,10584.944971
1102.870766,-962.267725,3753.867940,9030.512492
1102.871096,-2294.638420,1149.143247,8586.388927
1102.871425,-2516.700203,-1225.752797,10881.027347
1102.871755,-1332.370696,-1915.238745,13841.851115
1102.872084,-1924.535449,306.438199,13693.809927
1102.872414,-2886.803174,1685.410096,10658.965565
1102.872744,-2368.659014,-536.266849,9178.553681
1102.873073,-666.185348,-2681.334243,11029.068536
1102.873403,444.123565,-1149.143247,14211.954086
1102.873732,74.020594,2834.553343,13545.768739
1102.874062,-1184.329507,4290.134789,11029.068536
1102.874391,-1850.514855,2757.943793,9474.636058
1102.874721,-1332.370696,766.095498,10288.862594
1102.875050,0.000000,-229.828649,12435.459826
1102.875380,370.102971,1685.410096,12213.398043
1102.875709,-518.144159,3907.087040,9622.677246
1102.876039,-1480.411884,2298.286494,7254.018232
1102.876368,-1184.329507,-1608.800546,7105.977043
1102.876698,0.000000,-1685.410096,8438.347739
1102.877027,-296.082377,2451.505594,9178.553681
1102.877357,-1702.473667,4903.011187,7994.224174
1102.877686,-3182.885551,3983.696590,5921.647536
1102.878016,-2812.782580,0.000000,5847.626942
1102.878345,-1628.453072,-689.485948,8142.265362
1102.878675,-1332.370696,1762.019645,8734.430116
1102.879005,-1850.514855,2987.772442,7328.038826
1102.879334,-2960.823768,1838.629195,5699.585753
1102.879664,-3552.988522,0.000000,6439.791695
1102.879993,-2294.638420,-459.657299,8142.265362
1102.880323,0.000000,766.095498,9992.780217
1102.880652,666.185348,2451.505594,10436.903782
1102.880982,-1258.350101,2834.553343,9326.594869
1102.881311,-2442.679609,536.266849,8956.491898
1102.881641,-1406.391290,-2221.676944,9548.656652
1102.881970,0.000000,-1532.190996,11177.109724
1102.882300,296.082377,1225.752797,11991.336260
1102.882629,-444.123565,2451.505594,11547.212695
1102.882959,-740.205942,689.485948,10066.800811
1102.883288,1110.308913,-1455.581446,9178.553681
1102.883618,3775.050304,-1302.362347,10658.965565
1102.883947,3404.947333,1915.238745,12435.459826
1102.884277,592.164754,4903.011187,12731.542202
1102.884606,-2442.679609,3983.696590,11695.253884
1102.884936,-3108.864956,0.000000,10362.883188
1102.885265,-2220.617826,-2604.724693,10955.047942
1102.885595,-1036.288319,-995.924147,12287.418637
1102.885925,-1628.453072,-229.828649,12287.418637
1102.886254,-3404.947333,536.266849,9992.780217
1102.886584,-3775.050304,-536.266849,7772.162391
1102.886913,-1998.556043,-1608.800546,8364.327145
1102.887243,-592.164754,153.219100,10362.883188
1102.887572,-1332.370696,3907.087040,11695.253884
1102.887902,-2220.617826,5592.497135,9474.636058
1102.888231,-2442.679609,2987.772442,6661.853478
1102.888561,-1628.453072,76.609550,5477.523971
1102.888890,592.164754,0.000000,7550.100608
1102.889220,666.185348,383.047749,8734.430116
1102.889549,-1036.288319,2528.115143,7846.182985
1102.889879,-2368.659014,2451.505594,6217.729913
1102.890208,-1554.432478,-689.485948,5255.462188
1102.890538,370.102971,-1532.190996,7772.162391
1102.890867,1110.308913,1378.971896,10510.924376
1102.891197,74.020594,4596.572988,10510.924376
1102.891526,-1702.473667,4443.353888,8068.244768
1102.891856,-2146.597232,306.438199,6661.853478
1102.892185,-1554.432478,-3064.381992,8068.244768
1102.892515,-592.164754,-1685.410096,12435.459826
1102.892845,-2368.659014,2604.724693,12731.542202
1102.893174,-4219.173869,4443.353888,9918.759623
1102.893504,-3552.988522,76.609550,7254.018232
1102.893833,-518.144159,-3294.210641,9696.697840
1102.894163,1258.350101,-1838.629195,12879.583391
1102.894492,444.123565,2451.505594,14063.912898
1102.894822,-1036.288319,3600.648841,11843.295072
1102.895151,-2442.679609,2451.505594,10288.862594
1102.895481,-1480.411884,76.609550,11621.233289
1102.895810,444.123565,-459.657299,13397.727550
1102.896140,1332.370696,1685.410096,12361.439231
1102.896469,592.164754,2451.505594,9252.574275
1102.896799,370.102971,689.485948,7254.018232
1102.897128,962.267725,-1915.238745,7402.059420
1102.897458,1776.494261,-2145.067394,8216.285956
1102.897787,1850.514855,0.000000,9844.739029
1102.898117,-962.267725,3600.648841,9178.553681
1102.898446,-3775.050304,4979.620737,8660.409521
1102.898776,-3849.070898,1149.143247,8956.491898
1102.899106,-2886.803174,-1072.533697,8956.491898
1102.899435,-1850.514855,-536.266849,8290.306550
1102.899765,-2368.659014,459.657299,8438.347739
1102.900094,-3256.906145,1532.190996,6957.935855
1102.900424,-3997.112087,-689.485948,4811.338623
1102.900753,-1924.535449,-3753.867940,4885.359217
1102.901083,1036.288319,-2604.724693,7920.203579
1102.901412,888.247130,-153.219100,10436.903782
1102.901742,-1480.411884,689.485948,10584.944971
1102.902071,-3478.967927,-766.095498,8438.347739
1102.902401,-2886.803174,-4673.182538,8586.388927
1102.902730,0.000000,-5056.230287,11029.068536
1102.903060,1036.288319,-919.314598,12879.583391
1102.903389,222.061783,306.438199,11991.336260
1102.903719,-888.247130,-1225.752797,9474.636058
1102.904048,0.000000,-3294.210641,8290.306550
1102.904378,2812.782580,-3830.477490,9844.739029
1102.904707,5107.421000,-4290.134789,10955.047942
1102.905037,3108.864956,-2145.067394,11843.295072
1102.905366,-888.247130,-1378.971896,11917.315666
1102.905696,-4589.276840,-2757.943793,11991.336260
1102.906026,-5625.565159,-3217.601092,12509.480420
1102.906355,-4145.153275,-1838.629195,13323.706956
1102.906685,-2072.576638,-3294.210641,12805.562797
1102.907014,-1554.432478,-4136.915689,10807.006753
1102.907344,-1998.556043,-4903.011187,8290.306550
1102.907673,-1998.556043,-4979.620737,6365.771101
1102.908003,-296.082377,-2374.896044,7476.080014
1102.908332,1554.432478,383.047749,9918.759623
1102.908662,1998.556043,1149.143247,11991.336260
1102.908991,-740.205942,-229.828649,11473.192101
1102.909321,-3330.926739,-1149.143247,9548.656652
1102.909650,-4071.132681,-3447.429741,8142.265362
1102.909980,-3034.844362,-2911.162892,9178.553681
1102.910309,-1036.288319,-1991.848295,9622.677246
1102.910639,-592.164754,-3524.039291,8512.368333
1102.910968,-1258.350101,-3524.039291,6513.812290
1102.911298,-592.164754,-1838.629195,4737.318029
1102.911627,1036.288319,0.000000,5181.441594
1102.911957,3256.906145,995.924147,6735.874072
1102.912287,3849.070898,1608.800546,8068.244768
1102.912616,2812.782580,76.609550,8660.409521
1102.912946,518.144159,-2451.505594,9030.512492
1102.913275,-2072.576638,-2451.505594,10436.903782
1102.913605,-4811.338623,-1072.533697,12435.459826
1102.913934,-6883.915261,-689.485948,13175.665768
1102.914264,-6291.750507,-1225.752797,11029.068536
1102.914593,-3552.988522,-4673.182538,8438.347739
1102.914923,0.000000,-8273.831378,7179.997637
1102.915252,592.164754,-5669.106685,7031.956449
1102.915582,962.267725,-1991.848295,8364.327145
1102.915911,962.267725,306.438199,10732.986159
1102.916241,0.000000,2145.067394,12731.542202
1102.916570,-148.041188,2528.115143,14211.954086
1102.916900,-148.041188,-153.219100,15248.242405
1102.917229,-444.123565,-1838.629195,14582.057057
1102.917559,-1850.514855,-1838.629195,13693.809927
1102.917888,-3478.967927,-4903.011187,12435.459826
1102.918218,-4663.297435,-6435.202183,11325.150913
1102.918547,-4441.235652,-4136.915689,10214.842000
1102.918877,-2590.720797,-3524.039291,8216.285956
1102.919207,1332.370696,-2987.772442,5625.565159
1102.919536,4219.173869,-2757.943793,3923.091493
1102.919866,6217.729913,-2298.286494,4219.173869
1102.920195,6217.729913,0.000000,5921.647536
1102.920525,4589.276840,2911.162892,9548.656652
1102.920854,2220.617826,4290.134789,13101.645173
1102.921184,-2294.638420,4366.744339,14211.954086
1102.921513,-5995.668130,2834.553343,13693.809927
1102.921843,-6439.791695,-919.314598,12583.501014
1102.922172,-5477.523971,-4903.011187,10510.924376
1102.922502,-5625.565159,-5592.497135,7624.121203
1102.922831,-5181.441594,-5209.449386,5551.544565
1102.923161,-3627.009116,-4903.011187,4071.132681
1102.923490,-1998.556043,-4213.525239,3552.988522
1102.923820,-518.144159,-2145.067394,3182.885551
1102.924149,1184.329507,76.609550,3849.070898
1102.924479,2812.782580,612.876398,6069.688724
1102.924808,3701.029710,612.876398,8882.471304
1102.925138,2072.576638,306.438199,11177.109724
1102.925468,444.123565,-766.095498,13619.789333
1102.925797,-1924.535449,-995.924147,16062.468941
1102.926127,-4145.153275,-306.438199,17394.839637
1102.926456,-5181.441594,-536.266849,16580.613101
1102.926786,-3997.112087,-2834.553343,13101.645173
1102.927115,-1554.432478,-6358.592633,8216.285956
1102.927445,1406.391290,-6665.030833,5181.441594
1102.927774,3478.967927,-6205.373534,5551.544565
1102.928104,4441.235652,-2757.943793,7031.956449
1102.928433,3108.864956,0.000000,8586.388927
1102.928763,1036.288319,689.485948,10288.862594
1102.929092,-740.205942,995.924147,12361.439231
1102.929422,-2368.659014,76.609550,14211.954086
1102.929751,-3404.947333,-1915.238745,14656.077652
1102.930081,-4737.318029,-3983.696590,13027.624579
1102.930410,-4737.318029,-6511.811733,10955.047942
1102.930740,-3923.091493,-7814.174080,9178.553681
1102.931069,-3404.947333,-7507.735880,8808.450710
1102.931399,-2294.638420,-4519.963438,8068.244768
1102.931728,-962.267725,-2221.676944,7772.162391
1102.932058,518.144159,-766.095498,7031.956449
1102.932388,1702.473667,-536.266849,7105.977043
1102.932717,888.247130,-153.219100,8216.285956
1102.933047,0.000000,306.438199,9104.533087
1102.933376,-1332.370696,612.876398,9622.677246
1102.933706,-1554.432478,-1378.971896,9918.759623
1102.934035,-1480.411884,-3370.820191,9918.759623
1102.934365,-592.164754,-4443.353888,8586.388927
1102.934694,0.000000,-6281.983084,7254.018232
1102.935024,740.205942,-6358.592633,6883.915261
1102.935353,1258.350101,-4366.744339,7550.100608
1102.935683,666.185348,-2298.286494,8956.491898
1102.936012,-222.061783,-229.828649,10362.883188
1102.936342,-888.247130,1991.848295,11843.295072
1102.936671,-666.185348,2757.943793,12361.439231
1102.937001,-1036.288319,2068.457845,11843.295072
1102.937330,-1184.329507,153.219100,10214.842000
1102.937660,-888.247130,-2145.067394,9178.553681
1102.937989,-592.164754,-3447.429741,8882.471304
1102.938319,-1776.494261,-3447.429741,8438.347739
1102.938649,-3108.864956,-3217.601092,8216.285956
1102.938978,-3627.009116,-4213.525239,8512.368333
1102.939308,-3478.967927,-4213.525239,9400.615463
1102.939637,-2738.761985,-3140.991542,9770.718434
1102.939967,-2368.659014,-2068.457845,11177.109724
1102.940296,-1554.432478,-1072.533697,11991.336260
1102.940626,-962.267725,459.657299,12731.542202
1102.940955,-666.185348,1915.238745,13101.645173
1102.941285,-296.082377,2987.772442,12879.583391
1102.941614,370.102971,3140.991542,10807.006753
1102.941944,1184.329507,2145.067394,8438.347739
1102.942273,2220.617826,-995.924147,6217.729913
1102.942603,3034.844362,-4213.525239,4737.318029
1102.942932,2516.700203,-5745.716235,4367.215058
1102.943262,814.226536,-5286.058936,6291.750507
1102.943591,-1850.514855,-3983.696590,9030.512492
1102.943921,-3330.926739,-2451.505594,11843.295072
1102.944250,-3404.947333,-842.705048,13545.768739
1102.944580,-3034.844362,229.828649,13767.830521
1102.944909,-1924.535449,153.219100,12435.459826
1102.945239,-1702.473667,76.609550,11251.130318
1102.945569,-1850.514855,-229.828649,9474.636058
1102.945898,-1850.514855,306.438199,7994.224174
1102.946228,-1480.411884,-689.485948,7031.956449
1102.946557,-666.185348,-2757.943793,6365.771101
1102.946887,-814.226536,-4903.011187,5551.544565
1102.947216,-1850.514855,-6128.763984,5329.482782
1102.947546,-2368.659014,-6588.421283,6957.935855
1102.947875,-2368.659014,-6358.592633,9252.574275
1102.948205,-1998.556043,-4749.792088,11399.171507
1102.948534,-1554.432478,-3907.087040,13101.645173
1102.948864,-1184.329507,-2374.896044,13989.892304
1102.949194,-666.185348,-842.705048,14211.954086
1102.949523,296.082377,-459.657299,13323.706956
1102.949853,1184.329507,-2068.457845,11251.130318
1102.950182,1628.453072,-1838.629195,9844.739029
1102.950512,666.185348,-2451.505594,9474.636058
1102.950842,-444.123565,-2757.943793,8808.450710
1102.951171,-1776.494261,-4366.744339,7402.059420
1102.951501,-2368.659014,-5286.058936,6809.894666
1102.951830,-2368.659014,-5362.668486,7624.121203
1102.952160,-1702.473667,-4903.011187,9326.594869
1102.952490,-1184.329507,-4673.182538,9178.553681
1102.952819,0.000000,-4903.011187,9252.574275
1102.953149,-444.123565,-4673.182538,10140.821405
1102.953478,-1776.494261,-3217.601092,12139.377449
1102.953808,-3034.844362,-1532.190996,13545.768739
1102.954138,-3552.988522,-995.924147,13471.748144
1102.954467,-3552.988522,-1915.238745,12139.377449
1102.954797,-3404.947333,-3064.381992,10658.965565
1102.955126,-2368.659014,-3753.867940,9474.636058
1102.955456,-888.247130,-3370.820191,8734.430116
1102.955786,0.000000,-1225.752797,7624.121203
1102.956115,518.144159,153.219100,7105.977043
1102.956445,1332.370696,689.485948,7402.059420
1102.956774,1850.514855,1072.533697,8142.265362
1102.957104,1480.411884,1072.533697,8216.285956
1102.957434,666.185348,1149.143247,8438.347739
1102.957763,-962.267725,0.000000,10140.821405
1102.958093,-3478.967927,-306.438199,11473.192101
1102.958422,-5181.441594,-766.095498,12509.480420
1102.958752,-5995.668130,-766.095498,12065.356855
1102.959082,-6217.729913,76.609550,10807.006753
1102.959411,-5921.647536,-229.828649,9030.512492
1102.959741,-5033.400406,153.219100,7550.100608
1102.960070,-3034.844362,459.657299,7105.977043
1102.960400,-1628.453072,1225.752797,6661.853478
1102.960730,-814.226536,2528.115143,6587.832884
1102.961059,-1406.391290,2451.505594,6587.832884
1102.961389,-1776.494261,2298.286494,7920.203579
1102.961718,-2442.679609,842.705048,9770.718434
1102.962048,-3923.091493,229.828649,10955.047942
1102.962378,-4959.379811,459.657299,11991.336260
1102.962707,-7328.038826,-383.047749,12509.480420
1102.963037,-7846.182985,-766.095498,12139.377449
1102.963366,-7105.977043,-995.924147,10584.944971
1102.963696,-4885.359217,-1225.752797,8142.265362
1102.964026,-2146.597232,-919.314598,6439.791695
1102.964355,-814.226536,229.828649,5699.585753
1102.964685,296.082377,459.657299,6883.915261
1102.965014,0.000000,1225.752797,7920.203579
1102.965344,-1776.494261,1608.800546,9104.533087
1102.965674,-3849.070898,2068.457845,10732.986159
1102.966003,-5329.482782,1608.800546,12657.521608
1102.966333,-6735.874072,459.657299,13693.809927
1102.966662,-7254.018232,-1149.143247,13767.830521
1102.966992,-7402.059420,-1532.190996,12509.480420
1102.967322,-6735.874072,-1072.533697,11547.212695
1102.967651,-5255.462188,-1532.190996,10362.883188
1102.967981,-3701.029710,-1149.143247,8660.409521
1102.968310,-3034.844362,-1149.143247,7328.038826
1102.968640,-2590.720797,-919.314598,6587.832884
1102.968970,-2738.761985,-919.314598,7328.038826
1102.969299,-3330.926739,-459.657299,7994.224174
1102.969629,-4145.153275,0.000000,9104.533087
1102.969958,-5329.482782,-1455.581446,9696.697840
1102.970288,-6069.688724,-1455.581446,10362.883188
1102.970618,-6069.688724,-1225.752797,10732.986159
1102.970947,-5107.421000,-459.657299,11251.130318
1102.971277,-3627.009116,1302.362347,10732.986159
1102.971606,-2368.659014,2987.772442,10066.800811
1102.971936,-1554.432478,3830.477490,8956.491898
1102.972266,-296.082377,3907.087040,7698.141797
1102.972595,370.102971,3217.601092,7179.997637
1102.972925,-296.082377,2604.724693,7254.018232
1102.973254,-1554.432478,1225.752797,7994.224174
1102.973584,-4071.132681,-306.438199,8956.491898
1102.973914,-6513.812290,-1302.362347,10288.862594
1102.974243,-8660.409521,-1685.410096,11103.089130
1102.974573,-9400.615463,-1532.190996,11547.212695
1102.974902,-8586.388927,-766.095498,11769.274478
1102.975232,-6513.812290,383.047749,11251.130318
1102.975562,-4219.173869,2528.115143,10066.800811
1102.975891,-1924.535449,2911.162892,8660.409521
1102.976221,74.020594,3907.087040,7550.100608
1102.976550,740.205942,4596.572988,7031.956449
1102.976880,222.061783,4290.134789,7105.977043
1102.977210,-1184.329507,2911.162892,7550.100608
1102.977539,-3256.906145,1072.533697,8660.409521
1102.977869,-5477.523971,383.047749,9918.759623
1102.978198,-7550.100608,-229.828649,10732.986159
1102.978528,-7698.141797,-612.876398,11029.068536
1102.978858,-6513.812290,-229.828649,11325.150913
1102.979187,-5329.482782,1225.752797,10881.027347
1102.979517,-4145.153275,2604.724693,10288.862594
1102.979846,-2220.617826,3907.087040,9326.594869
1102.980176,-1776.494261,4596.572988,8364.327145
1102.980506,-962.267725,4366.744339,8882.471304
1102.980835,-1776.494261,3600.648841,8956.491898
1102.981165,-3478.967927,1762.019645,8882.471304
1102.981494,-5107.421000,-229.828649,8586.388927
1102.981824,-6291.750507,-2374.896044,9104.533087
1102.982154,-7179.997637,-2987.772442,10066.800811
1102.982483,-7179.997637,-2681.334243,11103.089130
1102.982813,-6957.935855,-1532.190996,10955.047942
1102.983142,-5477.523971,229.828649,10658.965565
1102.983472,-2738.761985,2681.334243,10288.862594
