#time,accel_x,accel_y,accel_z
1041.219572,-1184.329507,842.705048,9696.697840
1041.219901,-1184.329507,919.314598,9548.656652
1041.220231,-962.267725,536.266849,9622.677246
1041.220561,-1036.288319,689.485948,9548.656652
1041.220891,-1110.308913,842.705048,9548.656652
1041.221220,-1184.329507,1149.143247,9548.656652
1041.221550,-1184.329507,766.095498,9474.636058
1041.221880,-740.205942,1149.143247,9474.636058
1041.222210,-962.267725,995.924147,9474.636058
1041.222539,-962.267725,1149.143247,9400.615463
1041.222869,-1036.288319,919.314598,9474.636058
1041.223199,-1184.329507,842.705048,9252.574275
1041.223529,-962.267725,1378.971896,9474.636058
1041.223858,-814.226536,842.705048,9474.636058
1041.224188,-1036.288319,766.095498,9326.594869
1041.224518,-1110.308913,689.485948,9474.636058
1041.224848,-1110.308913,919.314598,9474.636058
1041.225177,-1110.308913,306.438199,9178.553681
1041.225507,-888.247130,1302.362347,9104.533087
1041.225837,-962.267725,919.314598,9696.697840
1041.226167,-962.267725,919.314598,9400.615463
1041.226496,-1110.308913,995.924147,9474.636058
1041.226826,-962.267725,1072.533697,9696.697840
1041.227156,-740.205942,766.095498,9474.636058
1041.227486,-1036.288319,995.924147,9474.636058
1041.227815,-1110.308913,919.314598,9622.677246
1041.228145,-962.267725,766.095498,9696.697840
1041.228475,-1036.288319,536.266849,9622.677246
1041.228805,-1110.308913,1225.752797,9622.677246
1041.229134,-1332.370696,766.095498,9622.677246
1041.229464,-888.247130,842.705048,9696.697840
1041.229794,-1036.288319,919.314598,9548.656652
1041.230124,-962.267725,995.924147,9770.718434
1041.230453,-1036.288319,842.705048,9400.615463
1041.230783,-1110.308913,1149.143247,9474.636058
1041.231113,-1110.308913,1072.533697,9770.718434
1041.231443,-962.267725,612.876398,9770.718434
1041.231772,-1184.329507,612.876398,9622.677246
1041.232102,-1036.288319,536.266849,9622.677246
1041.232432,-888.247130,842.705048,9474.636058
1041.232762,-1258.350101,995.924147,9474.636058
1041.233091,-962.267725,766.095498,9474.636058
1041.233421,-1110.308913,995.924147,9474.636058
1041.233751,-1036.288319,995.924147,9474.636058
1041.234081,-962.267725,1072.533697,9474.636058
1041.234410,-1036.288319,1149.143247,9474.636058
1041.234740,-1184.329507,995.924147,9474.636058
1041.235070,-1184.329507,1072.533697,9474.636058
1041.235399,-1184.329507,919.314598,9400.615463
1041.235729,-888.247130,1302.362347,9474.636058
1041.236059,-592.164754,306.438199,9252.574275
1041.236389,-962.267725,766.095498,9400.615463
1041.236718,-1036.288319,766.095498,9400.615463
1041.237048,-962.267725,919.314598,9548.656652
1041.237378,-666.185348,1149.143247,9696.697840
1041.237708,-740.205942,919.314598,9844.739029
1041.238037,-888.247130,766.095498,9474.636058
1041.238367,-1036.288319,689.485948,9548.656652
1041.238697,-1036.288319,995.924147,9696.697840
1041.239027,-1110.308913,919.314598,9548.656652
1041.239356,-1110.308913,1302.362347,9770.718434
1041.239686,-1110.308913,766.095498,9548.656652
1041.240016,-962.267725,842.705048,9622.677246
1041.240346,-962.267725,995.924147,9622.677246
1041.240675,-962.267725,919.314598,9622.677246
1041.241005,-814.226536,536.266849,9548.656652
1041.241335,-888.247130,919.314598,9844.739029
1041.241665,-1036.288319,919.314598,9474.636058
1041.241994,-370.102971,995.924147,9474.636058
1041.242324,0.000000,766.095498,9030.512492
1041.242654,814.226536,383.047749,9252.574275
1041.242984,1258.350101,459.657299,9400.615463
1041.243313,740.205942,766.095498,9622.677246
1041.243643,296.082377,842.705048,9770.718434
1041.243973,-296.082377,995.924147,9992.780217
1041.244303,-666.185348,1149.143247,10214.842000
1041.244632,-444.123565,0.000000,10436.903782
1041.244962,-296.082377,459.657299,9844.739029
1041.245292,296.082377,229.828649,9474.636058
1041.245622,1110.308913,76.609550,9252.574275
1041.245951,2072.576638,536.266849,8956.491898
1041.246281,3034.844362,842.705048,8586.388927
1041.246611,2960.823768,1149.143247,8438.347739
1041.246941,3478.967927,1608.800546,8956.491898
1041.247270,3775.050304,1838.629195,9474.636058
1041.247600,3256.906145,1378.971896,10066.800811
1041.247930,2368.659014,995.924147,10214.842000
1041.248260,1702.473667,1072.533697,10510.924376
1041.248589,1184.329507,306.438199,10510.924376
1041.248919,1554.432478,0.000000,10658.965565
1041.249249,2072.576638,-459.657299,9770.718434
1041.249579,2664.741391,-306.438199,9252.574275
1041.249908,3330.926739,-306.438199,8882.471304
1041.250238,4219.173869,842.705048,9178.553681
1041.250568,4367.215058,1991.848295,9400.615463
1041.250898,3701.029710,2528.115143,9770.718434
1041.251227,2516.700203,2987.772442,10288.862594
1041.251557,1258.350101,2681.334243,10807.006753
1041.251887,-1036.288319,2451.505594,10288.862594
1041.252217,-1998.556043,1532.190996,9622.677246
1041.252546,-1554.432478,-306.438199,8586.388927
1041.252876,0.000000,-919.314598,7772.162391
1041.253206,1702.473667,-1762.019645,6661.853478
1041.253536,2886.803174,-1378.971896,6217.729913
1041.253865,4145.153275,76.609550,6957.935855
1041.254195,3775.050304,1915.238745,8216.285956
1041.254525,2738.761985,3983.696590,10066.800811
1041.254855,1702.473667,4903.011187,11695.253884
1041.255184,518.144159,4060.306139,12139.377449
1041.255514,-370.102971,2681.334243,12435.459826
1041.255844,-1554.432478,459.657299,11843.295072
1041.256174,-1776.494261,-1532.190996,11177.109724
1041.256503,-1406.391290,-2451.505594,10066.800811
1041.256833,0.000000,-2221.676944,9178.553681
1041.257163,1554.432478,-2451.505594,8512.368333
1041.257493,2886.803174,-1302.362347,7846.182985
1041.257822,4293.194464,229.828649,7402.059420
1041.258152,4737.318029,1762.019645,7402.059420
1041.258482,4737.318029,3524.039291,8216.285956
1041.258812,5033.400406,4673.182538,9474.636058
1041.259141,3997.112087,3753.867940,10214.842000
1041.259471,2960.823768,2987.772442,11029.068536
1041.259801,1776.494261,1762.019645,11251.130318
1041.260131,518.144159,536.266849,11029.068536
1041.260460,-592.164754,-459.657299,10140.821405
1041.260790,-888.247130,-1149.143247,10584.944971
1041.261120,-592.164754,-1225.752797,10584.944971
1041.261450,-222.061783,-842.705048,10066.800811
1041.261779,74.020594,-306.438199,9326.594869
1041.262109,592.164754,0.000000,7772.162391
1041.262439,2368.659014,536.266849,8290.306550
1041.262769,3108.864956,919.314598,8290.306550
1041.263098,3849.070898,689.485948,8512.368333
1041.263428,3849.070898,76.609550,8512.368333
1041.263758,3701.029710,306.438199,9178.553681
1041.264088,3330.926739,612.876398,9770.718434
1041.264417,2442.679609,1225.752797,10214.842000
1041.264747,1850.514855,1685.410096,10214.842000
1041.265077,2368.659014,1991.848295,10436.903782
1041.265407,2516.700203,2145.067394,10362.883188
1041.265736,2664.741391,2145.067394,9918.759623
1041.266066,2590.720797,1915.238745,8586.388927
1041.266396,2960.823768,1149.143247,8142.265362
1041.266726,2664.741391,842.705048,8364.327145
1041.267055,1554.432478,1455.581446,9326.594869
1041.267385,370.102971,919.314598,9844.739029
1041.267715,-962.267725,383.047749,10510.924376
1041.268045,-1850.514855,-306.438199,11029.068536
1041.268374,-2072.576638,-536.266849,11399.171507
1041.268704,-1628.453072,-919.314598,11029.068536
1041.269034,-1184.329507,-459.657299,10436.903782
1041.269364,-296.082377,0.000000,9104.533087
1041.269693,888.247130,612.876398,7994.224174
1041.270023,3182.885551,536.266849,7476.080014
1041.270353,5477.523971,1838.629195,7179.997637
1041.270682,7179.997637,3753.867940,7328.038826
1041.271012,8734.430116,3907.087040,7476.080014
1041.271342,9104.533087,4136.915689,8734.430116
1041.271672,7624.121203,4596.572988,9992.780217
1041.272001,5107.421000,4443.353888,11103.089130
1041.272331,2516.700203,3217.601092,12879.583391
1041.272661,-814.226536,1915.238745,14359.995275
1041.272991,-4219.173869,0.000000,14804.118840
1041.273320,-7476.080014,-1072.533697,13249.686362
1041.273650,-7994.224174,-1838.629195,10732.986159
1041.273980,-6291.750507,-3294.210641,7698.141797
1041.274310,-2368.659014,-4443.353888,4219.173869
1041.274639,3404.947333,-4290.134789,1480.411884
1041.274969,8142.265362,-2757.943793,1184.329507
1041.275299,9992.780217,536.266849,3256.906145
1041.275629,9400.615463,5056.230287,7105.977043
1041.275958,7550.100608,8273.831378,10362.883188
1041.276288,5551.544565,9576.193725,13175.665768
1041.276618,2294.638420,9499.584175,14656.077652
1041.276948,-518.144159,4826.401637,16358.551318
1041.277277,-2368.659014,-995.924147,17542.880825
1041.277607,-5033.400406,-2757.943793,15766.386565
1041.277937,-6587.832884,-2451.505594,11695.253884
1041.278267,-4293.194464,-4596.572988,8512.368333
1041.278596,740.205942,-6052.154434,5847.626942
1041.278926,5773.606348,-4903.011187,2368.659014
1041.279256,10288.862594,-4366.744339,1480.411884
1041.279586,12213.398043,-306.438199,4367.215058
1041.279915,9696.697840,6281.983084,8586.388927
1041.280245,4959.379811,7967.393179,11843.295072
1041.280575,-518.144159,7431.126331,13915.871710
1041.280905,-3478.967927,6818.249932,14952.160028
1041.281234,-2368.659014,2834.553343,14730.098246
1041.281564,-592.164754,-2145.067394,12583.501014
1041.281894,-444.123565,-4979.620737,8364.327145
1041.282224,814.226536,-6741.640382,5033.400406
1041.282553,3034.844362,-7431.126331,5699.585753
1041.282883,3404.947333,-3217.601092,7402.059420
1041.283213,2294.638420,2298.286494,8956.491898
1041.283543,1998.556043,4366.744339,10140.821405
1041.283872,2738.761985,5745.716235,11473.192101
1041.284202,3775.050304,5209.449386,12509.480420
1041.284532,3701.029710,2604.724693,12139.377449
1041.284862,2072.576638,919.314598,10881.027347
1041.285191,-296.082377,-306.438199,10955.047942
1041.285521,-2886.803174,-1762.019645,11029.068536
1041.285851,-3552.988522,-2451.505594,9844.739029
1041.286181,-1924.535449,-3064.381992,7105.977043
1041.286510,1406.391290,-4136.915689,5551.544565
1041.286840,4219.173869,-2145.067394,5551.544565
1041.287170,7105.977043,1378.971896,6735.874072
1041.287500,8216.285956,2834.553343,7772.162391
1041.287829,7031.956449,4903.011187,9844.739029
1041.288159,3404.947333,7967.393179,12213.398043
1041.288489,-740.205942,8427.050478,13693.809927
1041.288819,-3330.926739,4979.620737,14582.057057
1041.289148,-4145.153275,1455.581446,14730.098246
1041.289478,-5107.421000,-1455.581446,13027.624579
1041.289808,-4885.359217,-3907.087040,10584.944971
1041.290137,-3849.070898,-5822.325785,8364.327145
1041.290467,-2960.823768,-5362.668486,5847.626942
1041.290796,-2146.597232,-2911.162892,4515.256246
1041.291126,296.082377,229.828649,4959.379811
1041.291455,4293.194464,2681.334243,7105.977043
1041.291784,6365.771101,4290.134789,7698.141797
1041.292114,6661.853478,5822.325785,8068.244768
1041.292443,5551.544565,7201.297681,9622.677246
1041.292773,4367.215058,6894.859482,11695.253884
1041.293102,1924.535449,5286.058936,13175.665768
1041.293432,-888.247130,4979.620737,12731.542202
1041.293761,-1924.535449,3447.429741,11843.295072
1041.294090,-2664.741391,0.000000,10140.821405
1041.294420,-2442.679609,-1915.238745,8586.388927
1041.294749,-2220.617826,-2528.115143,7846.182985
1041.295079,-2886.803174,-1685.410096,8290.306550
1041.295408,-4367.215058,0.000000,7846.182985
1041.295738,-4885.359217,2068.457845,7550.100608
1041.296067,-2886.803174,1991.848295,7402.059420
1041.296397,666.185348,459.657299,7476.080014
1041.296726,2516.700203,0.000000,7105.977043
1041.297055,2738.761985,612.876398,7105.977043
1041.297385,2368.659014,2374.896044,8586.388927
1041.297714,1406.391290,1762.019645,11103.089130
1041.298044,148.041188,2451.505594,12435.459826
1041.298373,-518.144159,3983.696590,11991.336260
1041.298703,666.185348,2604.724693,10510.924376
1041.299032,1998.556043,-383.047749,10362.883188
1041.299361,1110.308913,-612.876398,10066.800811
1041.299691,-2664.741391,-383.047749,10732.986159
1041.300020,-6291.750507,-383.047749,11991.336260
1041.300350,-8068.244768,153.219100,13101.645173
1041.300679,-6957.935855,1072.533697,11621.233289
1041.301009,-3923.091493,-2757.943793,9252.574275
1041.301338,-592.164754,-5669.106685,6661.853478
1041.301667,1998.556043,-4673.182538,5625.565159
1041.301997,3256.906145,-2604.724693,7031.956449
1041.302326,3108.864956,1378.971896,9474.636058
1041.302656,1036.288319,5822.325785,11029.068536
1041.302985,-148.041188,6435.202183,11695.253884
1041.303315,74.020594,4826.401637,12361.439231
1041.303644,296.082377,2757.943793,12805.562797
1041.303973,-814.226536,1072.533697,12139.377449
1041.304303,-5107.421000,-1302.362347,10362.883188
1041.304632,-8882.471304,-1225.752797,9770.718434
1041.304962,-8956.491898,-1532.190996,10214.842000
1041.305291,-5625.565159,-2451.505594,9178.553681
1041.305621,-1332.370696,-1532.190996,6069.688724
1041.305950,2664.741391,-1608.800546,2368.659014
1041.306280,6217.729913,-1991.848295,2590.720797
1041.306609,5033.400406,229.828649,5699.585753
1041.306938,1924.535449,5056.230287,11103.089130
1041.307268,-1776.494261,9576.193725,14137.933492
1041.307597,-4219.173869,10878.556072,14137.933492
1041.307927,-4663.297435,6894.859482,11917.315666
1041.308256,-2220.617826,0.000000,9474.636058
1041.308586,0.000000,-5975.544884,8142.265362
1041.308915,-370.102971,-6588.421283,7994.224174
1041.309244,-3256.906145,-3753.867940,8364.327145
1041.309574,-4811.338623,383.047749,8438.347739
1041.309903,-2442.679609,1991.848295,8882.471304
1041.310233,2812.782580,1378.971896,7920.203579
1041.310562,7772.162391,1608.800546,6883.915261
1041.310892,10066.800811,3677.258390,6661.853478
1041.311221,8660.409521,5439.278036,7698.141797
1041.311550,4515.256246,6511.811733,9770.718434
1041.311880,0.000000,5745.716235,13175.665768
1041.312209,-3256.906145,5362.668486,15100.201217
1041.312539,-5773.606348,3600.648841,14656.077652
1041.312868,-6291.750507,-612.876398,12213.398043
1041.313198,-5329.482782,-4290.134789,9252.574275
1041.313527,-5329.482782,-7354.516781,7920.203579
1041.313856,-5625.565159,-5822.325785,7846.182985
1041.314186,-5033.400406,-1838.629195,7550.100608
1041.314515,-3478.967927,1072.533697,7105.977043
1041.314845,74.020594,536.266849,7179.997637
1041.315174,2886.803174,1225.752797,8882.471304
1041.315504,4441.235652,2987.772442,9030.512492
1041.315833,4515.256246,4749.792088,9326.594869
1041.316163,3404.947333,3907.087040,11251.130318
1041.316492,1332.370696,4366.744339,12805.562797
1041.316821,-1924.535449,3294.210641,13323.706956
1041.317151,-4441.235652,919.314598,13027.624579
1041.317480,-5255.462188,459.657299,11473.192101
1041.317810,-4515.256246,-1302.362347,10362.883188
1041.318139,-3404.947333,-3294.210641,9474.636058
1041.318469,-3330.926739,-3753.867940,8142.265362
1041.318798,-3330.926739,-2145.067394,6217.729913
1041.319127,-2368.659014,76.609550,4737.318029
1041.319457,222.061783,842.705048,5773.606348
1041.319786,2368.659014,1225.752797,7476.080014
1041.320116,2664.741391,1685.410096,9178.553681
1041.320445,1406.391290,2604.724693,10881.027347
1041.320775,-370.102971,4060.306139,12287.418637
1041.321104,-1702.473667,4213.525239,13619.789333
1041.321433,-3404.947333,3524.039291,12583.501014
1041.321763,-4219.173869,1608.800546,10288.862594
1041.322092,-3478.967927,-1608.800546,9030.512492
1041.322422,-1924.535449,-3294.210641,8216.285956
1041.322751,-1998.556043,-2528.115143,7920.203579
1041.323081,-2368.659014,-1915.238745,7550.100608
1041.323410,-1702.473667,-1225.752797,7254.018232
1041.323739,222.061783,995.924147,7031.956449
1041.324069,3034.844362,1608.800546,7476.080014
1041.324398,5477.523971,1455.581446,7994.224174
1041.324728,6069.688724,2374.896044,8586.388927
1041.325057,4515.256246,3677.258390,10436.903782
1041.325387,1406.391290,4213.525239,12287.418637
1041.325716,-1332.370696,5056.230287,12583.501014
1041.326046,-2664.741391,3983.696590,12805.562797
1041.326375,-3478.967927,1685.410096,11991.336260
1041.326704,-4219.173869,-612.876398,10510.924376
1041.327034,-4441.235652,-2987.772442,9104.533087
1041.327363,-4737.318029,-4596.572988,8956.491898
1041.327693,-5699.585753,-2834.553343,8512.368333
1041.328022,-5107.421000,-306.438199,7846.182985
1041.328352,-2590.720797,-306.438199,7846.182985
1041.328681,1258.350101,-459.657299,7846.182985
1041.329010,3701.029710,536.266849,7920.203579
1041.329340,4071.132681,1838.629195,8734.430116
1041.329669,3034.844362,3677.258390,10436.903782
1041.329999,1036.288319,4596.572988,12879.583391
1041.330328,-370.102971,6358.592633,14137.933492
1041.330658,-1776.494261,6052.154434,13841.851115
1041.330987,-2368.659014,3064.381992,11991.336260
1041.331316,-2146.597232,-306.438199,10362.883188
1041.331646,-2220.617826,-1762.019645,9178.553681
1041.331975,-2664.741391,-2451.505594,8808.450710
1041.332305,-3552.988522,-2221.676944,8438.347739
1041.332634,-3627.009116,229.828649,6291.750507
1041.332964,-3478.967927,612.876398,5033.400406
1041.333293,-1480.411884,689.485948,5699.585753
1041.333622,740.205942,1225.752797,7179.997637
1041.333952,2072.576638,1225.752797,9104.533087
1041.334281,74.020594,1685.410096,10510.924376
1041.334611,-2664.741391,4366.744339,11769.274478
1041.334940,-3256.906145,4826.401637,11843.295072
1041.335270,-2146.597232,1762.019645,11695.253884
1041.335599,-1036.288319,612.876398,10510.924376
1041.335929,-222.061783,0.000000,8956.491898
1041.336258,222.061783,-2145.067394,8216.285956
1041.336587,-370.102971,-1225.752797,8068.244768
1041.336917,-1036.288319,0.000000,8364.327145
1041.337246,0.000000,459.657299,8586.388927
1041.337576,740.205942,1762.019645,7846.182985
1041.337905,2738.761985,1685.410096,7105.977043
1041.338235,4737.318029,1149.143247,7105.977043
1041.338564,4515.256246,383.047749,8956.491898
1041.338893,1554.432478,2528.115143,11029.068536
1041.339223,-2812.782580,4366.744339,12435.459826
1041.339552,-4293.194464,4366.744339,12657.521608
1041.339882,-5329.482782,2911.162892,12213.398043
1041.340211,-5329.482782,-383.047749,11843.295072
1041.340541,-5403.503377,-2757.943793,10066.800811
1041.340870,-5625.565159,-4366.744339,7994.224174
1041.341199,-5329.482782,-4443.353888,7550.100608
1041.341529,-4811.338623,-2987.772442,8438.347739
1041.341858,-3478.967927,-1608.800546,9326.594869
1041.342188,-1480.411884,-153.219100,8586.388927
1041.342517,1628.453072,1072.533697,7624.121203
1041.342847,5033.400406,995.924147,7328.038826
1041.343176,6365.771101,1532.190996,9918.759623
1041.343505,4145.153275,2604.724693,12953.603985
1041.343835,814.226536,5132.839837,14952.160028
1041.344164,-2294.638420,6971.469032,15026.180623
1041.344494,-3330.926739,4673.182538,13175.665768
1041.344823,-2738.761985,536.266849,11251.130318
1041.345153,-2220.617826,-3830.477490,9548.656652
1041.345482,-2738.761985,-5056.230287,8512.368333
1041.345812,-4293.194464,-3524.039291,7476.080014
1041.346141,-4959.379811,-2298.286494,6587.832884
1041.346470,-3552.988522,-153.219100,7254.018232
1041.346800,-1776.494261,1378.971896,7402.059420
1041.347129,1406.391290,2221.676944,6513.812290
1041.347459,3849.070898,2528.115143,5773.606348
1041.347788,4219.173869,2374.896044,7179.997637
1041.348118,1850.514855,4213.525239,10584.944971
1041.348447,-1998.556043,5592.497135,13249.686362
1041.348776,-4589.276840,6281.983084,14211.954086
1041.349106,-5329.482782,5056.230287,12213.398043
1041.349435,-3627.009116,1072.533697,9992.780217
1041.349765,-962.267725,-2298.286494,7624.121203
1041.350094,-444.123565,-4366.744339,6587.832884
1041.350424,-1850.514855,-2757.943793,6365.771101
1041.350753,-1554.432478,76.609550,6513.812290
1041.351082,74.020594,1608.800546,7031.956449
1041.351412,1850.514855,2834.553343,7846.182985
1041.351741,3404.947333,2987.772442,7550.100608
1041.352071,4811.338623,2757.943793,8216.285956
1041.352400,4515.256246,3677.258390,9326.594869
1041.352730,2294.638420,4519.963438,11473.192101
1041.353059,-1110.308913,5209.449386,13397.727550
1041.353388,-4293.194464,3983.696590,13249.686362
1041.353718,-5551.544565,1838.629195,13249.686362
1041.354047,-5995.668130,306.438199,11473.192101
1041.354377,-5255.462188,-3064.381992,9622.677246
1041.354706,-5625.565159,-4903.011187,9326.594869
1041.355036,-5699.585753,-3294.210641,9252.574275
1041.355365,-4663.297435,-1685.410096,7846.182985
1041.355695,-2368.659014,-919.314598,7105.977043
1041.356024,296.082377,383.047749,6809.894666
1041.356353,2442.679609,536.266849,7105.977043
1041.356683,4367.215058,306.438199,8734.430116
1041.357012,3775.050304,2298.286494,10807.006753
1041.357342,1480.411884,4903.011187,12287.418637
1041.357671,-814.226536,4903.011187,12953.603985
1041.358001,-2368.659014,3753.867940,13619.789333
1041.358330,-2590.720797,2451.505594,13397.727550
1041.358659,-1850.514855,-689.485948,11621.233289
1041.358989,-2664.741391,-2298.286494,9474.636058
1041.359318,-5033.400406,-2757.943793,8216.285956
1041.359648,-6365.771101,-2374.896044,8364.327145
1041.359977,-5551.544565,-1378.971896,8438.347739
1041.360307,-3552.988522,1149.143247,7846.182985
1041.360636,-1110.308913,842.705048,6439.791695
1041.360965,1332.370696,-459.657299,6439.791695
1041.361295,2516.700203,-229.828649,7179.997637
1041.361624,2368.659014,153.219100,10066.800811
1041.361954,444.123565,2145.067394,12583.501014
1041.362283,-2146.597232,5822.325785,13693.809927
1041.362613,-3701.029710,6894.859482,13175.665768
1041.362942,-2368.659014,3217.601092,11399.171507
1041.363271,-444.123565,-995.924147,9030.512492
1041.363601,-296.082377,-3140.991542,7772.162391
1041.363930,-1036.288319,-2604.724693,8660.409521
1041.364260,-2294.638420,229.828649,8956.491898
1041.364589,-2072.576638,1225.752797,7105.977043
1041.364919,0.000000,383.047749,6365.771101
1041.365248,2442.679609,766.095498,6291.750507
1041.365578,5255.462188,2298.286494,7105.977043
1041.365907,5921.647536,2987.772442,7994.224174
1041.366236,2960.823768,4826.401637,9696.697840
1041.366566,-148.041188,6205.373534,11547.212695
1041.366895,-2886.803174,5515.887586,12213.398043
1041.367225,-4293.194464,3600.648841,12213.398043
1041.367554,-4663.297435,2374.896044,11991.336260
1041.367884,-4737.318029,459.657299,10362.883188
1041.368213,-5329.482782,-2757.943793,8512.368333
1041.368542,-5995.668130,-4749.792088,8068.244768
1041.368872,-5773.606348,-3524.039291,8438.347739
1041.369201,-4219.173869,-1225.752797,7846.182985
1041.369531,-2072.576638,536.266849,7624.121203
1041.369860,592.164754,459.657299,7031.956449
1041.370190,3108.864956,536.266849,7105.977043
1041.370519,4663.297435,1685.410096,8882.471304
1041.370848,3775.050304,3447.429741,11695.253884
1041.371178,1702.473667,5975.544884,13397.727550
1041.371507,-1554.432478,6281.983084,13693.809927
1041.371837,-2294.638420,3907.087040,13175.665768
1041.372166,-2368.659014,459.657299,11991.336260
1041.372496,-2368.659014,-1608.800546,10807.006753
1041.372825,-2738.761985,-2451.505594,9400.615463
1041.373154,-4441.235652,-3064.381992,9326.594869
1041.373484,-4515.256246,-2911.162892,9252.574275
1041.373813,-3923.091493,-766.095498,8290.306550
1041.374143,-2146.597232,536.266849,6069.688724
1041.374472,1184.329507,536.266849,5329.482782
1041.374802,3478.967927,-536.266849,6439.791695
1041.375131,4145.153275,919.314598,9178.553681
1041.375461,1332.370696,2834.553343,11473.192101
1041.375790,-1924.535449,4136.915689,12879.583391
1041.376119,-3404.947333,5975.544884,13175.665768
1041.376449,-3552.988522,4213.525239,12287.418637
1041.376778,-2516.700203,0.000000,11251.130318
1041.377108,-1332.370696,-3370.820191,9400.615463
1041.377437,-1628.453072,-2911.162892,7476.080014
1041.377767,-2664.741391,-2221.676944,7179.997637
1041.378096,-2368.659014,-1302.362347,7698.141797
1041.378425,-1554.432478,153.219100,7772.162391
1041.378755,296.082377,1915.238745,6217.729913
1041.379084,3182.885551,1532.190996,5329.482782
1041.379414,6883.915261,2068.457845,5995.668130
1041.379743,6735.874072,2604.724693,7994.224174
1041.380073,3034.844362,2987.772442,11769.274478
1041.380402,-1628.453072,5822.325785,13767.830521
1041.380731,-4959.379811,7431.126331,13767.830521
1041.381061,-5699.585753,4673.182538,12805.562797
1041.381390,-4885.359217,-459.657299,11769.274478
1041.381720,-3627.009116,-3294.210641,10214.842000
1041.382049,-4145.153275,-5286.058936,8586.388927
1041.382379,-5329.482782,-4290.134789,7476.080014
1041.382708,-5699.585753,-766.095498,6513.812290
1041.383037,-3849.070898,-153.219100,6439.791695
1041.383367,-222.061783,-1072.533697,7550.100608
1041.383696,1924.535449,919.314598,7772.162391
1041.384026,3997.112087,2834.553343,7550.100608
1041.384355,3923.091493,2681.334243,8882.471304
1041.384685,2368.659014,4519.963438,11621.233289
1041.385014,-370.102971,5975.544884,13693.809927
1041.385344,-2368.659014,4596.572988,14211.954086
1041.385673,-3923.091493,3064.381992,13471.748144
1041.386002,-4885.359217,1838.629195,11621.233289
1041.386332,-5181.441594,-1991.848295,9696.697840
1041.386661,-4959.379811,-3907.087040,9030.512492
1041.386991,-5033.400406,-4366.744339,9178.553681
1041.387320,-4071.132681,-2068.457845,8512.368333
1041.387650,-2590.720797,-459.657299,6883.915261
1041.387979,444.123565,383.047749,6217.729913
1041.388308,3627.009116,-842.705048,6365.771101
1041.388638,5773.606348,153.219100,8216.285956
1041.388967,4293.194464,3983.696590,9622.677246
1041.389297,2220.617826,6128.763984,11991.336260
1041.389626,148.041188,5975.544884,13175.665768
1041.389956,-2294.638420,5132.839837,13027.624579
1041.390286,-3330.926739,3064.381992,11843.295072
1041.390615,-2220.617826,-842.705048,10955.047942
1041.390945,-1850.514855,-2681.334243,9548.656652
1041.391274,-3108.864956,-3140.991542,8438.347739
1041.391604,-4219.173869,-3217.601092,7624.121203
1041.391933,-2442.679609,-1302.362347,6439.791695
1041.392263,444.123565,76.609550,4959.379811
1041.392592,3478.967927,919.314598,5107.421000
1041.392922,5255.462188,1685.410096,6809.894666
1041.393251,5181.441594,3140.991542,8142.265362
1041.393581,3627.009116,4673.182538,9770.718434
1041.393910,888.247130,5362.668486,11843.295072
1041.394240,-1406.391290,6435.202183,12731.542202
1041.394569,-2812.782580,4136.915689,12361.439231
1041.394899,-3108.864956,0.000000,11769.274478
1041.395229,-2738.761985,-2451.505594,11103.089130
1041.395558,-3108.864956,-3064.381992,9474.636058
1041.395888,-4589.276840,-3447.429741,8586.388927
1041.396217,-5551.544565,-2221.676944,8512.368333
1041.396547,-4663.297435,0.000000,7994.224174
1041.396876,-1850.514855,229.828649,7031.956449
1041.397206,1554.432478,229.828649,6513.812290
1041.397535,3775.050304,536.266849,7402.059420
1041.397865,3478.967927,1838.629195,9104.533087
1041.398194,1332.370696,2604.724693,11251.130318
1041.398524,-1850.514855,4673.182538,13545.768739
1041.398853,-4071.132681,5286.058936,13249.686362
1041.399183,-5033.400406,2911.162892,12731.542202
1041.399512,-4515.256246,612.876398,11917.315666
1041.399842,-3182.885551,-1455.581446,10955.047942
1041.400172,-3034.844362,-3294.210641,9252.574275
1041.400501,-4515.256246,-3217.601092,7254.018232
1041.400831,-4959.379811,-1991.848295,7105.977043
1041.401160,-3849.070898,-459.657299,8364.327145
1041.401490,-1850.514855,2068.457845,7476.080014
1041.401819,740.205942,1685.410096,6513.812290
1041.402149,3404.947333,0.000000,6661.853478
1041.402478,4293.194464,689.485948,9030.512492
1041.402808,2738.761985,2451.505594,12139.377449
1041.403137,-518.144159,4136.915689,14211.954086
1041.403467,-3552.988522,5745.716235,13915.871710
1041.403796,-4515.256246,5898.935335,12583.501014
1041.404126,-2812.782580,1225.752797,10140.821405
1041.404455,-370.102971,-3370.820191,9104.533087
1041.404785,-222.061783,-4136.915689,8290.306550
1041.405115,-2738.761985,-2987.772442,7772.162391
1041.405444,-4589.276840,0.000000,7328.038826
1041.405774,-4071.132681,766.095498,5995.668130
1041.406103,592.164754,229.828649,5921.647536
1041.406433,5033.400406,0.000000,6587.832884
1041.406762,7254.018232,995.924147,7550.100608
1041.407092,6217.729913,3217.601092,8364.327145
1041.407421,2886.803174,4749.792088,10140.821405
1041.407751,148.041188,6665.030833,11769.274478
1041.408080,-1554.432478,5745.716235,13767.830521
1041.408410,-2294.638420,3140.991542,13693.809927
1041.408739,-2072.576638,1072.533697,11621.233289
1041.409069,-1480.411884,-1378.971896,9474.636058
1041.409398,-1480.411884,-3830.477490,7994.224174
1041.409728,-2516.700203,-3524.039291,7179.997637
1041.410058,-3256.906145,-2298.286494,6587.832884
1041.410387,-2220.617826,-153.219100,6809.894666
1041.410717,148.041188,1225.752797,7846.182985
1041.411046,2072.576638,1838.629195,8438.347739
1041.411376,3552.988522,2068.457845,8216.285956
1041.411705,3701.029710,1532.190996,9252.574275
1041.412035,1924.535449,2374.896044,12509.480420
1041.412364,-2368.659014,5745.716235,13989.892304
1041.412694,-6439.791695,4903.011187,13101.645173
1041.413023,-6365.771101,1608.800546,11843.295072
1041.413353,-5329.482782,-2068.457845,10658.965565
1041.413682,-3701.029710,-4213.525239,10214.842000
1041.414012,-3701.029710,-5132.839837,9622.677246
1041.414341,-5181.441594,-3830.477490,8808.450710
1041.414671,-5477.523971,-689.485948,7402.059420
1041.415001,-2664.741391,-689.485948,6809.894666
1041.415330,1110.308913,0.000000,9178.553681
1041.415660,3404.947333,2757.943793,9770.718434
1041.415989,4219.173869,3217.601092,9030.512492
1041.416319,4071.132681,2451.505594,8734.430116
1041.416648,2516.700203,4060.306139,10732.986159
1041.416978,592.164754,4290.134789,13545.768739
1041.417307,-1924.535449,3983.696590,14359.995275
1041.417637,-4663.297435,3677.258390,12879.583391
1041.417966,-5847.626942,1762.019645,10362.883188
1041.418296,-4367.215058,-2145.067394,8364.327145
1041.418625,-2886.803174,-4596.572988,8068.244768
1041.418955,-3627.009116,-3140.991542,7476.080014
1041.419284,-4515.256246,-995.924147,6661.853478
1041.419614,-3478.967927,536.266849,5921.647536
1041.419944,-518.144159,1915.238745,6661.853478
1041.420273,2368.659014,1991.848295,7402.059420
1041.420603,4663.297435,2374.896044,7698.141797
1041.420932,4663.297435,3907.087040,8364.327145
1041.421262,3108.864956,4596.572988,9326.594869
1041.421591,1258.350101,5286.058936,11029.068536
1041.421921,-518.144159,4673.182538,12065.356855
1041.422250,-1628.453072,2911.162892,13767.830521
1041.422580,-2738.761985,1838.629195,12139.377449
1041.422909,-2590.720797,0.000000,9770.718434
1041.423239,-1924.535449,-1838.629195,8438.347739
1041.423568,-1702.473667,-2757.943793,7624.121203
1041.423898,-962.267725,-1302.362347,6143.709319
1041.424227,962.267725,612.876398,4515.256246
1041.424557,3552.988522,2068.457845,5181.441594
1041.424887,5033.400406,2298.286494,6883.915261
1041.425216,4737.318029,1915.238745,9178.553681
1041.425546,2812.782580,4060.306139,10658.965565
1041.425875,-666.185348,5592.497135,12213.398043
1041.426205,-2442.679609,5056.230287,14211.954086
1041.426534,-4071.132681,2528.115143,15100.201217
1041.426864,-5329.482782,1072.533697,13915.871710
1041.427193,-5699.585753,-1608.800546,11399.171507
1041.427523,-5107.421000,-4366.744339,8586.388927
1041.427852,-4589.276840,-5056.230287,7624.121203
1041.428182,-4663.297435,-3907.087040,7698.141797
1041.428511,-4071.132681,-2145.067394,7476.080014
1041.428841,-1998.556043,-459.657299,6957.935855
1041.429170,962.267725,536.266849,7550.100608
1041.429500,3256.906145,2221.676944,8734.430116
1041.429830,3701.029710,2374.896044,9622.677246
1041.430159,2072.576638,2298.286494,11177.109724
1041.430489,74.020594,3217.601092,13101.645173
1041.430818,-962.267725,5132.839837,13693.809927
1041.431148,-2072.576638,2451.505594,12953.603985
1041.431477,-3627.009116,842.705048,11251.130318
1041.431807,-3108.864956,-1149.143247,9844.739029
1041.432136,-2294.638420,-3753.867940,8512.368333
1041.432466,-2590.720797,-3064.381992,7105.977043
1041.432795,-3775.050304,-2145.067394,6957.935855
1041.433125,-3330.926739,-1532.190996,7328.038826
1041.433454,-2294.638420,-229.828649,8216.285956
1041.433784,-814.226536,1762.019645,9178.553681
1041.434113,1480.411884,2068.457845,9252.574275
1041.434443,1924.535449,2298.286494,8512.368333
1041.434773,1406.391290,3524.039291,8882.471304
1041.435102,370.102971,2604.724693,10732.986159
1041.435432,-592.164754,1838.629195,12139.377449
1041.435761,-1924.535449,3524.039291,11547.212695
1041.436091,-2590.720797,2604.724693,10881.027347
1041.436420,-1480.411884,0.000000,9696.697840
1041.436750,-740.205942,-1608.800546,7550.100608
1041.437079,-296.082377,-2528.115143,6735.874072
1041.437409,666.185348,-1991.848295,6661.853478
1041.437738,1998.556043,919.314598,6217.729913
1041.438068,3182.885551,3217.601092,5773.606348
1041.438397,4293.194464,2451.505594,6143.709319
1041.438727,5033.400406,2374.896044,7550.100608
1041.439056,4145.153275,3830.477490,9548.656652
1041.439386,1628.453072,4596.572988,12731.542202
1041.439716,-1554.432478,4903.011187,14359.995275
1041.440045,-4441.235652,3907.087040,14063.912898
1041.440375,-5773.606348,1149.143247,13693.809927
1041.440704,-5255.462188,-919.314598,12731.542202
1041.441034,-4737.318029,-2451.505594,9992.780217
1041.441363,-4589.276840,-4443.353888,6439.791695
1041.441693,-5477.523971,-4136.915689,6291.750507
1041.442022,-4959.379811,-1762.019645,7328.038826
1041.442352,-2738.761985,995.924147,7846.182985
1041.442681,0.000000,842.705048,7476.080014
1041.443011,1924.535449,1685.410096,7698.141797
1041.443340,2590.720797,2221.676944,8734.430116
1041.443670,2960.823768,2604.724693,10362.883188
1041.443999,2294.638420,3524.039291,13027.624579
1041.444329,148.041188,5439.278036,14656.077652
1041.444658,-1924.535449,4979.620737,13175.665768
1041.444988,-2368.659014,1838.629195,11473.192101
1041.445318,-1924.535449,-842.705048,11177.109724
1041.445647,-1628.453072,-1532.190996,10362.883188
1041.445977,-3404.947333,-1991.848295,9178.553681
1041.446306,-5551.544565,-2221.676944,7920.203579
1041.446636,-5477.523971,-1762.019645,7920.203579
1041.446965,-4071.132681,-919.314598,8438.347739
1041.447295,-1702.473667,-229.828649,8142.265362
1041.447624,148.041188,383.047749,7105.977043
1041.447954,1850.514855,536.266849,6143.709319
1041.448283,3108.864956,1149.143247,7031.956449
1041.448613,2516.700203,1455.581446,10584.944971
1041.448942,0.000000,3370.820191,12953.603985
1041.449272,-2664.741391,5362.668486,13101.645173
1041.449601,-3552.988522,5132.839837,11251.130318
1041.449931,-1702.473667,1685.410096,10584.944971
1041.450261,1258.350101,-1838.629195,9770.718434
1041.450590,148.041188,-2374.896044,7476.080014
1041.450920,-1628.453072,-1838.629195,6291.750507
1041.451249,-1850.514855,-153.219100,6365.771101
1041.451579,222.061783,1149.143247,6735.874072
1041.451908,1850.514855,1685.410096,7328.038826
1041.452238,3034.844362,995.924147,7846.182985
1041.452567,3701.029710,2145.067394,7624.121203
1041.452897,3256.906145,2451.505594,8956.491898
1041.453226,1406.391290,1762.019645,11325.150913
1041.453556,-1184.329507,2987.772442,13989.892304
1041.453885,-4293.194464,3677.258390,13841.851115
1041.454215,-5033.400406,1455.581446,12509.480420
1041.454544,-3849.070898,-689.485948,11325.150913
1041.454874,-2294.638420,-2221.676944,9844.739029
1041.455204,-2146.597232,-3600.648841,7550.100608
1041.455533,-3478.967927,-2911.162892,7476.080014
1041.455863,-3627.009116,842.705048,7254.018232
1041.456192,-1184.329507,1915.238745,6957.935855
1041.456522,1480.411884,306.438199,8142.265362
1041.456851,2590.720797,1532.190996,9326.594869
1041.457181,2590.720797,2834.553343,9696.697840
1041.457510,1924.535449,2221.676944,10584.944971
1041.457840,370.102971,3753.867940,11769.274478
1041.458169,-1702.473667,4443.353888,12879.583391
1041.458499,-2368.659014,2528.115143,12361.439231
1041.458828,-2886.803174,-766.095498,11769.274478
1041.459158,-2664.741391,-1302.362347,11621.233289
1041.459487,-2960.823768,-1838.629195,10881.027347
1041.459817,-4219.173869,-3140.991542,9474.636058
1041.460147,-4811.338623,-1072.533697,8734.430116
1041.460476,-3701.029710,153.219100,7254.018232
1041.460806,-518.144159,229.828649,6143.709319
1041.461135,2590.720797,919.314598,5847.626942
1041.461465,4219.173869,612.876398,6365.771101
1041.461794,4071.132681,1532.190996,7846.182985
1041.462124,2294.638420,2681.334243,10214.842000
1041.462453,-296.082377,4826.401637,12805.562797
1041.462783,-2294.638420,5439.278036,13323.706956
1041.463112,-3478.967927,3677.258390,12805.562797
1041.463442,-3775.050304,1991.848295,11843.295072
1041.463771,-2590.720797,-1072.533697,10658.965565
1041.464101,-518.144159,-2987.772442,9770.718434
1041.464430,-1850.514855,-1991.848295,7920.203579
1041.464760,-3923.091493,383.047749,5847.626942
1041.465090,-3701.029710,612.876398,3108.864956
1041.465419,296.082377,0.000000,3182.885551
1041.465749,4589.276840,0.000000,6217.729913
1041.466078,4959.379811,2145.067394,8290.306550
1041.466408,2886.803174,4213.525239,9178.553681
1041.466737,370.102971,4749.792088,10066.800811
1041.467067,-666.185348,4519.963438,11991.336260
1041.467396,-888.247130,3064.381992,14211.954086
1041.467726,-2072.576638,1915.238745,15544.324782
1041.468055,-4737.318029,1455.581446,14063.912898
1041.468385,-5477.523971,229.828649,11843.295072
1041.468714,-4367.215058,-2298.286494,10881.027347
1041.469044,-3701.029710,-3907.087040,9326.594869
1041.469373,-4071.132681,-1685.410096,6291.750507
1041.469703,-3256.906145,-1225.752797,3552.988522
1041.470033,740.205942,-1072.533697,4145.153275
1041.470362,3182.885551,0.000000,7031.956449
1041.470692,3182.885551,1838.629195,9474.636058
1041.471021,1702.473667,3140.991542,10140.821405
1041.471351,-518.144159,4596.572988,11473.192101
1041.471680,-1628.453072,6128.763984,13397.727550
1041.472010,-2368.659014,4903.011187,13545.768739
1041.472339,-3182.885551,1225.752797,12065.356855
1041.472669,-3923.091493,-1608.800546,11325.150913
1041.472998,-3627.009116,-1915.238745,11917.315666
1041.473328,-4441.235652,-1608.800546,11695.253884
1041.473657,-6143.709319,-2374.896044,9474.636058
1041.473987,-6291.750507,-1378.971896,8068.244768
1041.474316,-3552.988522,-459.657299,6661.853478
1041.474646,1776.494261,-689.485948,5847.626942
1041.474976,5255.462188,-383.047749,6069.688724
1041.475305,5847.626942,1455.581446,6883.915261
1041.475635,3256.906145,3140.991542,8142.265362
1041.475964,962.267725,3447.429741,11547.212695
1041.476294,-592.164754,5362.668486,14359.995275
1041.476623,-2220.617826,6052.154434,14211.954086
1041.476953,-3108.864956,2911.162892,12657.521608
1041.477282,-2590.720797,306.438199,11325.150913
1041.477612,-1406.391290,-2298.286494,9548.656652
1041.477941,-1406.391290,-2681.334243,7402.059420
1041.478271,-2812.782580,-1762.019645,6365.771101
1041.478600,-3775.050304,612.876398,6735.874072
1041.478930,-2220.617826,1838.629195,6513.812290
1041.479259,296.082377,689.485948,5773.606348
1041.479589,3775.050304,1838.629195,5995.668130
1041.479919,5255.462188,2145.067394,7105.977043
1041.480248,4071.132681,2834.553343,8882.471304
1041.480578,666.185348,4749.792088,10140.821405
1041.480907,-2072.576638,4596.572988,12657.521608
1041.481237,-3256.906145,2987.772442,13989.892304
1041.481566,-4367.215058,3064.381992,13915.871710
1041.481896,-5107.421000,1225.752797,12805.562797
1041.482225,-4515.256246,-1225.752797,10510.924376
1041.482555,-4293.194464,-3677.258390,8068.244768
1041.482884,-4663.297435,-3370.820191,6587.832884
1041.483214,-4441.235652,-1072.533697,5773.606348
1041.483543,-2146.597232,-459.657299,5403.503377
1041.483873,518.144159,306.438199,7179.997637
1041.484202,1850.514855,919.314598,8808.450710
1041.484532,1998.556043,2681.334243,9030.512492
1041.484862,2368.659014,2911.162892,9918.759623
1041.485191,666.185348,3524.039291,12213.398043
1041.485521,-1776.494261,5592.497135,13619.789333
1041.485850,-3775.050304,4290.134789,12583.501014
1041.486180,-3627.009116,1378.971896,11621.233289
1041.486509,-2664.741391,-536.266849,11325.150913
1041.486839,-3034.844362,-842.705048,10732.986159
1041.487168,-4663.297435,-2451.505594,9104.533087
1041.487498,-6661.853478,-2911.162892,8956.491898
1041.487827,-6365.771101,-2528.115143,9548.656652
1041.488157,-3552.988522,-306.438199,9992.780217
1041.488486,-370.102971,229.828649,8956.491898
1041.488816,2812.782580,-383.047749,6957.935855
1041.489145,4071.132681,-383.047749,6143.709319
1041.489475,5181.441594,459.657299,7772.162391
1041.489805,4293.194464,2528.115143,11029.068536
1041.490134,1924.535449,5132.839837,12509.480420
1041.490464,-592.164754,6511.811733,12213.398043
1041.490793,-814.226536,3753.867940,11769.274478
1041.491123,148.041188,536.266849,11177.109724
1041.491452,1036.288319,-1991.848295,9400.615463
1041.491782,74.020594,-2528.115143,8808.450710
1041.492111,-2072.576638,0.000000,7402.059420
1041.492440,-2886.803174,1608.800546,6513.812290
1041.492770,-1184.329507,1072.533697,5107.421000
1041.493099,740.205942,0.000000,4441.235652
1041.493429,2590.720797,0.000000,5773.606348
1041.493758,3478.967927,919.314598,7254.018232
1041.494088,2072.576638,2451.505594,9696.697840
1041.494417,-1110.308913,3064.381992,12657.521608
1041.494747,-3849.070898,3907.087040,14730.098246
1041.495076,-4811.338623,3370.820191,14211.954086
1041.495406,-4145.153275,995.924147,12361.439231
1041.495735,-2294.638420,-1072.533697,10955.047942
1041.496065,-1554.432478,-2068.457845,8808.450710
1041.496394,-1480.411884,-3140.991542,7328.038826
1041.496724,-1924.535449,-1991.848295,7105.977043
1041.497053,-2072.576638,1838.629195,5699.585753
1041.497383,444.123565,2681.334243,7105.977043
1041.497712,2664.741391,842.705048,9400.615463
1041.498042,2516.700203,2911.162892,9844.739029
1041.498371,666.185348,4213.525239,8512.368333
1041.498700,814.226536,2451.505594,10066.800811
1041.499030,-370.102971,3140.991542,12805.562797
1041.499359,-2738.761985,4673.182538,13767.830521
1041.499689,-5625.565159,1532.190996,11695.253884
1041.500018,-6587.832884,-689.485948,9918.759623
1041.500348,-6217.729913,0.000000,9770.718434
1041.500677,-5255.462188,-2298.286494,10066.800811
1041.501007,-5699.585753,-3907.087040,9696.697840
1041.501336,-7254.018232,-1915.238745,8956.491898
1041.501666,-6883.915261,0.000000,7698.141797
1041.501995,-3404.947333,-306.438199,7105.977043
1041.502325,962.267725,-306.438199,8068.244768
1041.502654,3034.844362,1225.752797,7846.182985
1041.502984,3552.988522,995.924147,7920.203579
1041.503313,2960.823768,1608.800546,8660.409521
1041.503643,2294.638420,2987.772442,12287.418637
1041.503972,296.082377,5209.449386,14804.118840
1041.504301,-1776.494261,5056.230287,14137.933492
1041.504631,-2072.576638,2757.943793,12435.459826
1041.504960,-1110.308913,153.219100,11251.130318
1041.505290,0.000000,-1915.238745,9622.677246
1041.505619,-1258.350101,-2298.286494,8068.244768
1041.505949,-2220.617826,-1532.190996,6661.853478
1041.506278,-1480.411884,76.609550,5033.400406
1041.506608,518.144159,766.095498,4737.318029
1041.506937,3034.844362,766.095498,5477.523971
1041.507267,4367.215058,2068.457845,6661.853478
1041.507596,3849.070898,2681.334243,7550.100608
1041.507926,2590.720797,3140.991542,9770.718434
1041.508255,-222.061783,3677.258390,12139.377449
1041.508585,-1776.494261,3830.477490,14582.057057
1041.508914,-3849.070898,3294.210641,14804.118840
1041.509244,-5329.482782,1302.362347,12509.480420
1041.509573,-3701.029710,-1225.752797,10436.903782
1041.509903,-1406.391290,-3753.867940,9252.574275
1041.510232,-2072.576638,-2681.334243,8068.244768
1041.510561,-2960.823768,-612.876398,6661.853478
1041.510891,-1036.288319,766.095498,6143.709319
1041.511220,2072.576638,2451.505594,5551.544565
1041.511550,3997.112087,2374.896044,6291.750507
1041.511879,4071.132681,2681.334243,6883.915261
1041.512209,3478.967927,2451.505594,8956.491898
1041.512538,518.144159,3524.039291,11399.171507
1041.512868,-2516.700203,4903.011187,13323.706956
1041.513197,-5107.421000,4749.792088,12657.521608
1041.513527,-5995.668130,536.266849,12435.459826
1041.513856,-5847.626942,-2451.505594,12657.521608
1041.514186,-6069.688724,-2604.724693,12139.377449
1041.514515,-6587.832884,-3830.477490,11103.089130
1041.514845,-6957.935855,-3064.381992,9326.594869
1041.515174,-7105.977043,-919.314598,7994.224174
1041.515504,-3997.112087,153.219100,6217.729913
1041.515833,1110.308913,-842.705048,5329.482782
1041.516162,5181.441594,-995.924147,6439.791695
1041.516492,5773.606348,1149.143247,7994.224174
1041.516821,3404.947333,3600.648841,9400.615463
1041.517151,1110.308913,4749.792088,11991.336260
1041.517480,-444.123565,5745.716235,14508.036463
1041.517810,-1850.514855,5515.887586,14952.160028
1041.518139,-2886.803174,3753.867940,11991.336260
1041.518469,-2960.823768,-1608.800546,11325.150913
1041.518798,-2516.700203,-4979.620737,11769.274478
1041.519128,-4145.153275,-3600.648841,12287.418637
1041.519457,-6143.709319,-1378.971896,10140.821405
1041.519787,-5699.585753,-229.828649,6661.853478
1041.520116,-2664.741391,612.876398,2738.761985
1041.520446,2368.659014,0.000000,814.226536
1041.520775,7254.018232,-2298.286494,3627.009116
1041.521105,8068.244768,766.095498,6809.894666
1041.521434,3849.070898,6358.592633,8808.450710
1041.521764,-148.041188,7048.078582,10955.047942
1041.522093,-1332.370696,6511.811733,13101.645173
1041.522422,-888.247130,4213.525239,14656.077652
1041.522752,-1406.391290,459.657299,13767.830521
1041.523081,-2220.617826,-1378.971896,11473.192101
1041.523411,-2368.659014,-1608.800546,10807.006753
1041.523740,-2812.782580,-1991.848295,10807.006753
1041.524070,-4663.297435,-2145.067394,9770.718434
1041.524399,-5181.441594,229.828649,5847.626942
1041.524729,-1258.350101,689.485948,3627.009116
1041.525058,4145.153275,-536.266849,4145.153275
1041.525388,6291.750507,1532.190996,5773.606348
1041.525717,4959.379811,2757.943793,7550.100608
1041.526047,2442.679609,2911.162892,9770.718434
1041.526376,-444.123565,5898.935335,12287.418637
1041.526706,-3330.926739,8197.221829,13545.768739
1041.527035,-4367.215058,3830.477490,13545.768739
1041.527365,-4589.276840,-1072.533697,13175.665768
1041.527694,-4737.318029,-2528.115143,12287.418637
1041.528023,-4737.318029,-2834.553343,10584.944971
1041.528353,-5107.421000,-4290.134789,9844.739029
1041.528682,-6069.688724,-2757.943793,8808.450710
1041.529012,-5847.626942,-536.266849,8142.265362
1041.529341,-2664.741391,0.000000,7179.997637
1041.529671,1924.535449,383.047749,6883.915261
1041.530000,4737.318029,1532.190996,7624.121203
1041.530330,4219.173869,2987.772442,8660.409521
1041.530659,2812.782580,3140.991542,10658.965565
1041.530989,888.247130,4596.572988,12953.603985
1041.531318,-1184.329507,5822.325785,12879.583391
1041.531648,-2960.823768,3677.258390,12139.377449
1041.531977,-3997.112087,766.095498,11843.295072
1041.532307,-3256.906145,-2221.676944,11843.295072
1041.532636,-2812.782580,-3677.258390,10955.047942
1041.532966,-4441.235652,-3447.429741,9030.512492
1041.533295,-5551.544565,-1378.971896,7031.956449
1041.533624,-4219.173869,-995.924147,6143.709319
1041.533954,-518.144159,153.219100,6143.709319
1041.534283,2960.823768,1991.848295,6513.812290
1041.534613,4959.379811,2604.724693,6735.874072
1041.534942,5107.421000,3370.820191,7031.956449
1041.535272,3330.926739,4136.915689,8364.327145
1041.535601,1258.350101,4519.963438,11325.150913
1041.535931,-740.205942,4596.572988,12953.603985
1041.536260,-2812.782580,4290.134789,12065.356855
1041.536590,-4219.173869,1455.581446,11399.171507
1041.536919,-3108.864956,-2298.286494,10955.047942
1041.537249,-2368.659014,-3370.820191,10362.883188
1041.537578,-3701.029710,-3370.820191,8956.491898
1041.537908,-4145.153275,-2068.457845,7254.018232
1041.538237,-2738.761985,995.924147,5255.462188
1041.538567,592.164754,1838.629195,5329.482782
1041.538896,3552.988522,995.924147,6291.750507
1041.539226,4589.276840,2681.334243,7846.182985
1041.539555,3627.009116,4673.182538,8586.388927
1041.539884,1554.432478,3907.087040,10436.903782
1041.540214,-1702.473667,5056.230287,12435.459826
1041.540543,-4293.194464,4749.792088,14137.933492
1041.540873,-4959.379811,995.924147,14211.954086
1041.541202,-5551.544565,-1532.190996,13175.665768
1041.541532,-5329.482782,-1378.971896,11843.295072
1041.541861,-4589.276840,-3524.039291,10436.903782
1041.542191,-4737.318029,-4826.401637,8734.430116
1041.542520,-4737.318029,-1915.238745,7254.018232
1041.542850,-1850.514855,153.219100,6217.729913
1041.543179,2664.741391,1149.143247,5995.668130
1041.543509,4959.379811,1838.629195,5921.647536
1041.543838,5181.441594,2374.896044,7698.141797
1041.544168,4219.173869,2604.724693,10140.821405
1041.544497,2368.659014,4443.353888,12139.377449
1041.544827,0.000000,5822.325785,13767.830521
1041.545156,-2294.638420,3370.820191,14656.077652
1041.545485,-4293.194464,612.876398,14730.098246
1041.545815,-4737.318029,-1378.971896,14211.954086
1041.546144,-3552.988522,-2681.334243,12213.398043
1041.546474,-3182.885551,-2068.457845,9030.512492
1041.546803,-4367.215058,-1302.362347,5773.606348
1041.547133,-3552.988522,-1685.410096,2368.659014
1041.547462,-444.123565,-2604.724693,2812.782580
1041.547792,2294.638420,153.219100,5403.503377
1041.548121,2738.761985,3524.039291,8142.265362
1041.548451,1776.494261,4596.572988,8438.347739
1041.548780,1258.350101,4826.401637,9178.553681
1041.549110,1110.308913,3217.601092,9770.718434
1041.549439,1036.288319,2987.772442,11251.130318
1041.549769,444.123565,1608.800546,12287.418637
1041.550098,-1110.308913,1532.190996,12657.521608
1041.550428,-2738.761985,2068.457845,12657.521608
1041.550757,-2590.720797,-1072.533697,11325.150913
1041.551087,-2442.679609,-2374.896044,9622.677246
1041.551416,-2886.803174,-1762.019645,8660.409521
1041.551745,-1850.514855,-536.266849,7179.997637
1041.552075,444.123565,229.828649,4737.318029
1041.552404,2442.679609,153.219100,4515.256246
1041.552734,3997.112087,842.705048,5699.585753
1041.553063,3997.112087,1302.362347,7328.038826
1041.553393,2368.659014,2604.724693,8660.409521
1041.553722,-814.226536,4979.620737,11621.233289
1041.554052,-3108.864956,5132.839837,13767.830521
1041.554381,-4959.379811,3830.477490,13767.830521
1041.554711,-5255.462188,459.657299,14137.933492
1041.555040,-5477.523971,-1378.971896,12657.521608
1041.555370,-5033.400406,-2221.676944,11251.130318
1041.555699,-5995.668130,-4366.744339,9326.594869
1041.556029,-6439.791695,-4290.134789,9030.512492
1041.556358,-5699.585753,-2068.457845,8068.244768
1041.556688,-2590.720797,-536.266849,6365.771101
1041.557017,2442.679609,-612.876398,5329.482782
1041.557346,5329.482782,0.000000,6513.812290
1041.557676,6217.729913,1991.848295,7550.100608
1041.558005,4737.318029,2911.162892,9400.615463
1041.558335,2664.741391,5209.449386,12287.418637
1041.558664,518.144159,7660.954980,14359.995275
1041.558994,-1184.329507,5132.839837,15322.262999
1041.559323,-2590.720797,1685.410096,14508.036463
1041.559653,-2960.823768,-1378.971896,13101.645173
1041.559982,-3552.988522,-2834.553343,10658.965565
1041.560312,-4441.235652,-3294.210641,8216.285956
1041.560641,-4663.297435,-3064.381992,7698.141797
1041.560971,-4441.235652,-1302.362347,6513.812290
1041.561300,-2664.741391,383.047749,4145.153275
1041.561630,888.247130,536.266849,3997.112087
1041.561959,4737.318029,1455.581446,5921.647536
1041.562289,5329.482782,3217.601092,7698.141797
1041.562618,2590.720797,4903.011187,8586.388927
1041.562947,74.020594,5439.278036,10732.986159
1041.563277,-962.267725,4979.620737,12805.562797
1041.563606,-1480.411884,4290.134789,14137.933492
1041.563936,-2368.659014,1991.848295,13619.789333
1041.564265,-2812.782580,-689.485948,11621.233289
1041.564595,-2368.659014,-1915.238745,9474.636058
1041.564924,-1776.494261,-3600.648841,8512.368333
1041.565254,-2072.576638,-1991.848295,8734.430116
1041.565583,-1702.473667,612.876398,6143.709319
1041.565913,814.226536,2298.286494,4515.256246
1041.566242,4071.132681,1838.629195,3849.070898
1041.566572,6217.729913,2451.505594,5329.482782
1041.566901,6587.832884,2911.162892,7476.080014
1041.567231,3923.091493,3600.648841,10807.006753
1041.567560,-814.226536,6894.859482,13915.871710
1041.567890,-5403.503377,6435.202183,15396.283594
1041.568219,-6957.935855,2451.505594,16062.468941
1041.568549,-6809.894666,-1225.752797,14582.057057
1041.568878,-6587.832884,-2451.505594,12139.377449
1041.569207,-5477.523971,-4060.306139,8512.368333
1041.569537,-4663.297435,-5592.497135,6291.750507
1041.569866,-4663.297435,-3907.087040,5329.482782
1041.570196,-3775.050304,-919.314598,5255.462188
1041.570525,-1036.288319,1072.533697,6143.709319
1041.570855,2368.659014,2145.067394,7550.100608
1041.571184,4367.215058,2451.505594,8438.347739
1041.571514,3552.988522,3064.381992,9844.739029
1041.571843,1776.494261,4290.134789,11251.130318
1041.572173,222.061783,4826.401637,13397.727550
1041.572502,-740.205942,2757.943793,15840.407159
1041.572832,-2368.659014,1149.143247,14656.077652
1041.573161,-5329.482782,76.609550,12657.521608
1041.573491,-5033.400406,-2528.115143,10584.944971
1041.573820,-3701.029710,-3983.696590,9326.594869
1041.574150,-3256.906145,-3677.258390,7920.203579
1041.574479,-3256.906145,-2757.943793,6365.771101
1041.574808,-1702.473667,-1225.752797,5551.544565
1041.575138,814.226536,1532.190996,6365.771101
1041.575467,2812.782580,2911.162892,6291.750507
1041.575797,4663.297435,1838.629195,6809.894666
1041.576126,4589.276840,2834.553343,7772.162391
1041.576456,2664.741391,2987.772442,11177.109724
1041.576785,-222.061783,3600.648841,14211.954086
1041.577115,-3034.844362,4673.182538,14285.974681
1041.577444,-4219.173869,3140.991542,12731.542202
1041.577774,-3330.926739,0.000000,11103.089130
1041.578103,-1702.473667,-2451.505594,9918.759623
1041.578433,-888.247130,-2987.772442,8438.347739
1041.578762,-1406.391290,-2681.334243,7550.100608
1041.579092,-2294.638420,153.219100,6587.832884
1041.579421,-296.082377,2757.943793,4885.359217
1041.579751,3627.009116,1991.848295,4293.194464
1041.580080,6217.729913,1991.848295,5107.421000
1041.580410,5847.626942,3983.696590,5995.668130
1041.580739,4663.297435,3294.210641,8660.409521
1041.581068,2146.597232,2681.334243,12139.377449
1041.581398,-2220.617826,4903.011187,14582.057057
1041.581727,-4737.318029,5439.278036,14878.139434
1041.582057,-5921.647536,1378.971896,13693.809927
1041.582386,-5181.441594,-919.314598,12065.356855
1041.582716,-3775.050304,-2528.115143,10732.986159
1041.583045,-3404.947333,-4136.915689,9104.533087
1041.583375,-4737.318029,-2298.286494,7772.162391
1041.583704,-5625.565159,0.000000,6439.791695
1041.584034,-3034.844362,919.314598,5403.503377
1041.584363,1184.329507,536.266849,5033.400406
1041.584693,3478.967927,612.876398,6439.791695
1041.585022,3997.112087,1762.019645,8290.306550
1041.585352,1480.411884,2987.772442,10140.821405
1041.585681,-814.226536,5286.058936,13397.727550
1041.586011,-3034.844362,6205.373534,14804.118840
1041.586340,-3923.091493,3830.477490,14211.954086
1041.586669,-3849.070898,-536.266849,12213.398043
1041.586999,-3034.844362,-2221.676944,11473.192101
1041.587328,-2368.659014,-3140.991542,11547.212695
1041.587658,-2960.823768,-2604.724693,10658.965565
1041.587987,-4589.276840,-2298.286494,8956.491898
1041.588317,-3923.091493,-1225.752797,7772.162391
1041.588646,-814.226536,0.000000,6143.709319
1041.588976,2738.761985,153.219100,6291.750507
1041.589305,4515.256246,1838.629195,6587.832884
1041.589635,4441.235652,2911.162892,6809.894666
1041.589964,3404.947333,2374.896044,8512.368333
1041.590294,1258.350101,3217.601092,12139.377449
1041.590623,-2220.617826,4366.744339,14804.118840
1041.590953,-4219.173869,5209.449386,14359.995275
1041.591282,-4811.338623,2451.505594,11769.274478
1041.591612,-3330.926739,-1072.533697,9474.636058
1041.591941,-1332.370696,-3447.429741,8290.306550
1041.592270,-814.226536,-4136.915689,7698.141797
1041.592600,-2442.679609,-689.485948,7254.018232
1041.592929,-2516.700203,1378.971896,5625.565159
1041.593259,0.000000,1915.238745,4737.318029
1041.593589,3627.009116,1685.410096,4589.276840
1041.593918,5551.544565,1455.581446,6069.688724
1041.594248,5847.626942,2757.943793,7031.956449
1041.594577,4293.194464,3370.820191,9844.739029
1041.594907,1850.514855,3830.477490,13175.665768
1041.595237,-1184.329507,4443.353888,15618.345376
1041.595566,-3404.947333,3064.381992,15174.221811
1041.595896,-4367.215058,1685.410096,13397.727550
1041.596225,-2812.782580,-1149.143247,11399.171507
1041.596555,-1406.391290,-3217.601092,9770.718434
1041.596884,-2146.597232,-3600.648841,8438.347739
1041.597214,-4145.153275,-2451.505594,7105.977043
1041.597544,-3849.070898,1072.533697,6291.750507
1041.597873,-2220.617826,1685.410096,5181.441594
1041.598203,370.102971,1455.581446,6661.853478
1041.598532,2368.659014,229.828649,8956.491898
1041.598862,2368.659014,1762.019645,9918.759623
1041.599192,-370.102971,3830.477490,10732.986159
1041.599521,-3182.885551,4519.963438,12361.439231
1041.599851,-4589.276840,3907.087040,13545.768739
1041.600180,-5181.441594,1302.362347,13989.892304
1041.600510,-5477.523971,-536.266849,13101.645173
1041.600840,-4885.359217,-1838.629195,11103.089130
1041.601169,-4737.318029,-2757.943793,9400.615463
1041.601499,-4145.153275,-3370.820191,8734.430116
1041.601828,-3404.947333,-2451.505594,8438.347739
1041.602158,-1628.453072,0.000000,6587.832884
1041.602487,1406.391290,1302.362347,4737.318029
1041.602817,4219.173869,1378.971896,5033.400406
1041.603147,5255.462188,2987.772442,7772.162391
1041.603476,4959.379811,3753.867940,9992.780217
1041.603806,2664.741391,4903.011187,10288.862594
1041.604135,222.061783,5592.497135,11473.192101
1041.604465,-2294.638420,3064.381992,12805.562797
1041.604795,-4145.153275,1225.752797,14508.036463
1041.605124,-5773.606348,-153.219100,13619.789333
1041.605454,-6217.729913,-1915.238745,10955.047942
1041.605783,-5181.441594,-2528.115143,9252.574275
1041.606113,-3478.967927,-2834.553343,7846.182985
1041.606442,-3034.844362,-2528.115143,5773.606348
1041.606772,-1332.370696,-1149.143247,3849.070898
1041.607102,2368.659014,1762.019645,3404.947333
1041.607431,5625.565159,2374.896044,5255.462188
1041.607761,6365.771101,2298.286494,7105.977043
1041.608090,5329.482782,4749.792088,8660.409521
1041.608420,3404.947333,4979.620737,11029.068536
1041.608750,1628.453072,4519.963438,14137.933492
1041.609079,-962.267725,4136.915689,15396.283594
1041.609409,-2664.741391,1838.629195,15174.221811
1041.609738,-3627.009116,-1378.971896,13397.727550
1041.610068,-3849.070898,-2221.676944,11843.295072
1041.610398,-2960.823768,-2604.724693,10807.006753
1041.610727,-3478.967927,-3064.381992,9844.739029
1041.611057,-3775.050304,-1762.019645,6217.729913
1041.611386,-1998.556043,1302.362347,3701.029710
1041.611716,2146.597232,689.485948,3552.988522
1041.612045,4737.318029,995.924147,5477.523971
1041.612375,4071.132681,2221.676944,7624.121203
1041.612705,1628.453072,3140.991542,9252.574275
1041.613034,-1628.453072,5132.839837,11325.150913
1041.613364,-4589.276840,5439.278036,13397.727550
1041.613693,-5773.606348,4443.353888,14582.057057
1041.614023,-5847.626942,0.000000,13175.665768
1041.614353,-5403.503377,-3600.648841,11695.253884
1041.614682,-4885.359217,-3600.648841,10658.965565
1041.615012,-5551.544565,-3677.258390,10066.800811
1041.615341,-6291.750507,-2834.553343,9252.574275
1041.615671,-5625.565159,0.000000,8586.388927
1041.616001,-1924.535449,1072.533697,6513.812290
1041.616330,3108.864956,-383.047749,5921.647536
1041.616660,5773.606348,0.000000,6661.853478
1041.616989,4737.318029,2987.772442,7476.080014
1041.617319,3404.947333,4060.306139,9178.553681
1041.617648,1776.494261,4136.915689,11843.295072
1041.617978,-518.144159,5975.544884,13915.871710
1041.618308,-2516.700203,5745.716235,13545.768739
1041.618637,-4293.194464,1608.800546,11029.068536
1041.618967,-4145.153275,-1225.752797,10584.944971
1041.619296,-3627.009116,-3600.648841,11695.253884
1041.619626,-5033.400406,-2987.772442,10881.027347
1041.619956,-6957.935855,-1455.581446,9030.512492
1041.620285,-6217.729913,-766.095498,7105.977043
1041.620615,-2368.659014,-229.828649,6143.709319
1041.620944,2072.576638,-153.219100,4663.297435
1041.621274,5107.421000,0.000000,4885.359217
1041.621603,5921.647536,1762.019645,6365.771101
1041.621933,4737.318029,3907.087040,8882.471304
1041.622263,2294.638420,4749.792088,12953.603985
1041.622592,0.000000,5132.839837,13989.892304
1041.622922,-1480.411884,5439.278036,12583.501014
1041.623251,-1184.329507,1838.629195,11251.130318
1041.623581,814.226536,-1225.752797,10881.027347
1041.623911,1480.411884,-1608.800546,9992.780217
1041.624240,-370.102971,-2221.676944,8290.306550
1041.624570,-3108.864956,-1991.848295,7254.018232
1041.624899,-3849.070898,766.095498,7624.121203
1041.625229,-1702.473667,2451.505594,8216.285956
1041.625559,1184.329507,2221.676944,7328.038826
1041.625888,2220.617826,842.705048,7031.956449
1041.626218,2368.659014,1532.190996,7031.956449
1041.626547,1036.288319,1608.800546,9178.553681
1041.626877,-2072.576638,2987.772442,12583.501014
1041.627206,-5477.523971,4903.011187,14211.954086
1041.627536,-7328.038826,3140.991542,12657.521608
1041.627866,-5995.668130,-306.438199,10732.986159
1041.628195,-2960.823768,-3140.991542,10658.965565
1041.628525,-1406.391290,-4060.306139,10436.903782
1041.628854,-1776.494261,-3447.429741,9252.574275
1041.629184,-4515.256246,-1455.581446,7624.121203
1041.629514,-3923.091493,1149.143247,8142.265362
1041.629843,-518.144159,2604.724693,9326.594869
1041.630173,2516.700203,1915.238745,9474.636058
1041.630502,3849.070898,1608.800546,8438.347739
1041.630832,3849.070898,2298.286494,8364.327145
1041.631161,3404.947333,2145.067394,8956.491898
1041.631491,1776.494261,2374.896044,12287.418637
1041.631821,-1554.432478,3294.210641,14508.036463
1041.632150,-4885.359217,3907.087040,14063.912898
1041.632480,-6143.709319,2757.943793,11991.336260
1041.632809,-4737.318029,-842.705048,10658.965565
1041.633139,-3034.844362,-3064.381992,8956.491898
1041.633469,-3552.988522,-3370.820191,7328.038826
1041.633798,-4663.297435,-2221.676944,6143.709319
1041.634128,-4367.215058,306.438199,4811.338623
1041.634457,-1776.494261,1762.019645,4737.318029
1041.634787,1036.288319,1838.629195,6069.688724
1041.635117,2886.803174,1608.800546,7550.100608
1041.635446,3330.926739,3294.210641,8364.327145
1041.635776,2812.782580,4519.963438,8586.388927
1041.636105,2072.576638,3524.039291,9844.739029
1041.636435,666.185348,2987.772442,12509.480420
1041.636764,-1776.494261,2374.896044,14211.954086
1041.637094,-3997.112087,2221.676944,13767.830521
1041.637424,-3849.070898,306.438199,11695.253884
1041.637753,-2368.659014,-1149.143247,9918.759623
1041.638083,-1850.514855,-2757.943793,8660.409521
1041.638412,-2220.617826,-3217.601092,7328.038826
1041.638742,-1480.411884,-689.485948,5403.503377
1041.639072,888.247130,2374.896044,4071.132681
1041.639401,2886.803174,2834.553343,5181.441594
1041.639731,3997.112087,1915.238745,7846.182985
1041.640060,2886.803174,2221.676944,9622.677246
1041.640390,962.267725,3677.258390,11695.253884
1041.640720,-1628.453072,4749.792088,13989.892304
1041.641049,-3775.050304,5209.449386,14285.974681
1041.641379,-5255.462188,1762.019645,14211.954086
1041.641708,-5625.565159,-2374.896044,13101.645173
1041.642038,-4811.338623,-2451.505594,11769.274478
1041.642367,-4515.256246,-2528.115143,9622.677246
1041.642697,-4441.235652,-3140.991542,8734.430116
1041.643027,-4737.318029,-1532.190996,7994.224174
1041.643356,-3404.947333,229.828649,6957.935855
1041.643686,740.205942,1225.752797,5847.626942
1041.644015,4441.235652,995.924147,6439.791695
1041.644345,5181.441594,2221.676944,7105.977043
1041.644675,4293.194464,3217.601092,8438.347739
1041.645004,2368.659014,2068.457845,10955.047942
1041.645334,0.000000,4366.744339,12583.501014
1041.645663,-1776.494261,5286.058936,14063.912898
1041.645993,-3108.864956,2145.067394,13619.789333
1041.646322,-3997.112087,-1072.533697,12213.398043
1041.646652,-4737.318029,-2604.724693,11103.089130
1041.646982,-4441.235652,-2451.505594,9548.656652
1041.647311,-4515.256246,-2068.457845,8364.327145
1041.647641,-3849.070898,-766.095498,6957.935855
1041.647970,-1998.556043,153.219100,5625.565159
1041.648300,1332.370696,0.000000,4959.379811
1041.648630,2886.803174,1302.362347,5625.565159
1041.648959,3256.906145,3370.820191,6735.874072
1041.649289,2442.679609,4136.915689,8586.388927
1041.649618,1332.370696,3524.039291,11251.130318
1041.649948,-370.102971,2374.896044,13323.706956
1041.650278,-1924.535449,3370.820191,13175.665768
1041.650607,-3108.864956,2451.505594,11769.274478
1041.650937,-2664.741391,459.657299,10584.944971
1041.651266,-1628.453072,-1915.238745,10066.800811
1041.651596,-1184.329507,-3217.601092,9326.594869
1041.651925,-1924.535449,-2221.676944,8068.244768
1041.652255,-2368.659014,0.000000,7476.080014
1041.652585,-296.082377,1915.238745,7031.956449
1041.652914,2812.782580,1762.019645,6439.791695
1041.653244,5255.462188,1149.143247,7105.977043
1041.653573,5181.441594,2451.505594,7624.121203
1041.653903,3182.885551,4136.915689,8512.368333
1041.654233,222.061783,3064.381992,11769.274478
1041.654562,-2442.679609,3064.381992,14508.036463
1041.654892,-5181.441594,3140.991542,14804.118840
1041.655221,-6883.915261,766.095498,13323.706956
1041.655551,-6143.709319,-995.924147,11843.295072
1041.655880,-4145.153275,-2604.724693,10066.800811
1041.656210,-3330.926739,-5056.230287,8290.306550
1041.656540,-4145.153275,-4749.792088,7698.141797
1041.656869,-4663.297435,459.657299,7031.956449
1041.657199,-2442.679609,2987.772442,6439.791695
1041.657528,1480.411884,766.095498,6439.791695
1041.657858,3701.029710,1072.533697,6957.935855
1041.658188,3701.029710,2221.676944,8364.327145
1041.658517,3182.885551,2451.505594,10584.944971
1041.658847,962.267725,4596.572988,12435.459826
1041.659176,-2368.659014,5209.449386,14137.933492
1041.659506,-3775.050304,2911.162892,13989.892304
1041.659836,-3849.070898,-229.828649,13027.624579
1041.660165,-2886.803174,-1302.362347,11769.274478
1041.660495,-2146.597232,-2374.896044,9844.739029
1041.660824,-2886.803174,-2757.943793,7846.182985
1041.661154,-4589.276840,-2298.286494,7105.977043
1041.661483,-4367.215058,-766.095498,6809.894666
1041.661813,-1628.453072,1378.971896,6365.771101
1041.662143,1850.514855,2221.676944,5995.668130
1041.662472,3182.885551,1302.362347,5995.668130
1041.662802,3034.844362,1532.190996,7179.997637
1041.663131,2072.576638,2681.334243,9326.594869
1041.663461,1036.288319,2757.943793,13619.789333
1041.663791,-1554.432478,5209.449386,15174.221811
1041.664120,-4589.276840,6128.763984,13249.686362
1041.664450,-4811.338623,1838.629195,11177.109724
1041.664779,-2294.638420,-1838.629195,10584.944971
1041.665109,-222.061783,-2681.334243,9622.677246
1041.665439,-1036.288319,-2068.457845,8364.327145
1041.665768,-2590.720797,-842.705048,6365.771101
1041.666098,-1924.535449,919.314598,5033.400406
1041.666427,1110.308913,0.000000,4885.359217
1041.666757,3923.091493,459.657299,5995.668130
1041.667086,4663.297435,3370.820191,6143.709319
1041.667416,4071.132681,3447.429741,7476.080014
1041.667746,3108.864956,3753.867940,11251.130318
1041.668075,0.000000,4673.182538,14582.057057
1041.668405,-3627.009116,5056.230287,15766.386565
1041.668734,-6069.688724,2987.772442,14211.954086
1041.669064,-7105.977043,842.705048,12361.439231
1041.669394,-6365.771101,-766.095498,10658.965565
1041.669723,-4811.338623,-4673.182538,9178.553681
1041.670053,-5921.647536,-5286.058936,7402.059420
1041.670382,-7031.956449,-1762.019645,6365.771101
1041.670712,-5847.626942,-919.314598,5477.523971
1041.671041,-1850.514855,-536.266849,6439.791695
1041.671371,518.144159,459.657299,7772.162391
1041.671701,1480.411884,2298.286494,8438.347739
1041.672030,2664.741391,3677.258390,8438.347739
1041.672360,2960.823768,4519.963438,10881.027347
1041.672689,1184.329507,4749.792088,14285.974681
1041.673019,-3478.967927,5515.887586,14137.933492
1041.673349,-6735.874072,4673.182538,13249.686362
1041.673678,-6957.935855,919.314598,12731.542202
1041.674008,-6661.853478,-1072.533697,12139.377449
1041.674337,-6587.832884,-2451.505594,9770.718434
1041.674667,-6661.853478,-5669.106685,8290.306550
1041.674997,-6957.935855,-5975.544884,8586.388927
1041.675326,-7105.977043,-383.047749,7624.121203
1041.675656,-4515.256246,1762.019645,6661.853478
1041.675985,-518.144159,0.000000,6513.812290
1041.676315,1776.494261,459.657299,5625.565159
1041.676644,3404.947333,3677.258390,5847.626942
1041.676974,4737.318029,3140.991542,7772.162391
1041.677304,2960.823768,4290.134789,10436.903782
1041.677633,-3108.864956,6052.154434,11917.315666
1041.677963,-7698.141797,4979.620737,12139.377449
1041.678292,-9030.512492,2145.067394,12435.459826
1041.678622,-7920.203579,-383.047749,12583.501014
1041.678952,-6439.791695,-1455.581446,10214.842000
1041.679281,-5033.400406,-3907.087040,7105.977043
1041.679611,-2886.803174,-4596.572988,5847.626942
1041.679940,-2146.597232,-3064.381992,6587.832884
1041.680270,-2738.761985,1532.190996,7179.997637
1041.680599,-3256.906145,5286.058936,7550.100608
1041.680929,-2664.741391,4903.011187,8364.327145
1041.681259,-2220.617826,3830.477490,8956.491898
1041.681588,-1480.411884,3524.039291,9252.574275
1041.681918,-1776.494261,1915.238745,9252.574275
1041.682247,-2812.782580,0.000000,10140.821405
1041.682577,-5773.606348,0.000000,11769.274478
1041.682907,-8808.450710,229.828649,13027.624579
1041.683236,-9622.677246,0.000000,12731.542202
1041.683566,-8882.471304,-995.924147,11177.109724
1041.683895,-6809.894666,0.000000,10436.903782
1041.684225,-4589.276840,306.438199,9696.697840
1041.684555,-1702.473667,229.828649,9030.512492
1041.684884,296.082377,536.266849,7624.121203
1041.685214,370.102971,2221.676944,7772.162391
1041.685543,-1554.432478,3140.991542,9474.636058
1041.685873,-3404.947333,3140.991542,10881.027347
1041.686202,-5403.503377,1762.019645,11251.130318
1041.686532,-7550.100608,1302.362347,11177.109724
1041.686862,-7772.162391,689.485948,10732.986159
1041.687191,-6291.750507,-536.266849,10214.842000
1041.687521,-5255.462188,-2145.067394,9030.512492
1041.687850,-3923.091493,-1455.581446,7920.203579
1041.688180,-2146.597232,459.657299,7402.059420
1041.688510,0.000000,2145.067394,7772.162391
1041.688839,-518.144159,2374.896044,8068.244768
1041.689169,-2590.720797,3600.648841,9104.533087
1041.689498,-4737.318029,3677.258390,10214.842000
1041.689828,-6365.771101,2911.162892,11399.171507
1041.690158,-7402.059420,2221.676944,11695.253884
1041.690487,-6957.935855,0.000000,9992.780217
1041.690817,-4811.338623,-2757.943793,8068.244768
1041.691146,-2368.659014,-4290.134789,6957.935855
1041.691476,-666.185348,-2451.505594,6883.915261
1041.691805,666.185348,-153.219100,7105.977043
1041.692135,1110.308913,2145.067394,7846.182985
1041.692465,444.123565,4443.353888,9326.594869
1041.692794,-1998.556043,5286.058936,10584.944971
1041.693124,-4293.194464,4979.620737,11769.274478
1041.693453,-6291.750507,3600.648841,12361.439231
1041.693783,-7624.121203,1838.629195,11177.109724
1041.694113,-7179.997637,-536.266849,9918.759623
1041.694442,-6069.688724,-3524.039291,8586.388927
1041.694772,-3923.091493,-4979.620737,7328.038826
1041.695101,-2294.638420,-4136.915689,6513.812290
1041.695431,-592.164754,-842.705048,6365.771101
1041.695761,296.082377,1608.800546,7772.162391
1041.696090,444.123565,3907.087040,10066.800811
1041.696420,-1110.308913,6281.983084,11769.274478
1041.696750,-3849.070898,6358.592633,12805.562797
1041.697079,-6661.853478,4673.182538,13767.830521
1041.697409,-8956.491898,3217.601092,14508.036463
1041.697739,-10066.800811,612.876398,13175.665768
1041.698068,-9326.594869,-2068.457845,9992.780217
1041.698398,-6883.915261,-4903.011187,6809.894666
1041.698728,-2960.823768,-5898.935335,4737.318029
1041.699057,1184.329507,-3983.696590,4589.276840
1041.699387,3330.926739,-306.438199,5477.523971
1041.699717,3108.864956,4136.915689,7402.059420
1041.700046,1480.411884,7507.735880,9252.574275
1041.700376,-444.123565,9729.412825,11325.150913
1041.700706,-2442.679609,8427.050478,12509.480420
1041.701035,-4737.318029,5515.887586,13027.624579
1041.701365,-7624.121203,459.657299,14137.933492
1041.701695,-10732.986159,-2221.676944,13841.851115
1041.702024,-12805.562797,-3677.258390,11473.192101
1041.702354,-12065.356855,-5515.887586,8068.244768
1041.702684,-8808.450710,-6665.030833,6069.688724
1041.703013,-3923.091493,-4136.915689,4293.194464
1041.703343,592.164754,-1915.238745,3849.070898
1041.703673,2960.823768,766.095498,4663.297435
1041.704002,2590.720797,5669.106685,6587.832884
1041.704332,740.205942,8886.707777,8808.450710
1041.704662,-1036.288319,9576.193725,11769.274478
1041.704991,-3997.112087,7354.516781,13175.665768
1041.705321,-6069.688724,3907.087040,12731.542202
1041.705651,-7846.182985,-612.876398,11547.212695
1041.705980,-8734.430116,-5132.839837,10584.944971
1041.706310,-8808.450710,-6511.811733,10288.862594
1041.706640,-7550.100608,-6128.763984,9770.718434
1041.706969,-5847.626942,-4136.915689,8438.347739
1041.707299,-3108.864956,-1685.410096,7105.977043
1041.707629,-296.082377,459.657299,7846.182985
1041.707958,1332.370696,3140.991542,8956.491898
1041.708288,1776.494261,6128.763984,10288.862594
1041.708618,148.041188,6894.859482,10881.027347
1041.708947,-2146.597232,4749.792088,11621.233289
1041.709277,-4219.173869,2221.676944,12953.603985
1041.709607,-6069.688724,689.485948,13027.624579
1041.709936,-7476.080014,-1685.410096,10658.965565
1041.710266,-7254.018232,-4596.572988,8068.244768
1041.710596,-5107.421000,-5056.230287,7179.997637
1041.710925,-3404.947333,-3217.601092,7476.080014
1041.711255,-2590.720797,-995.924147,7476.080014
1041.711585,-2072.576638,1838.629195,7772.162391
1041.711914,-1998.556043,5286.058936,8734.430116
1041.712244,-2220.617826,7354.516781,9844.739029
1041.712574,-2368.659014,7048.078582,11103.089130
1041.712903,-3478.967927,4979.620737,11769.274478
1041.713233,-4071.132681,2987.772442,11843.295072
1041.713563,-5033.400406,1225.752797,11399.171507
1041.713892,-5847.626942,-536.266849,10214.842000
1041.714222,-6291.750507,-1762.019645,9400.615463
1041.714552,-5181.441594,-1762.019645,8586.388927
1041.714881,-3034.844362,229.828649,7920.203579
1041.715211,-1258.350101,2451.505594,7476.080014
1041.715541,0.000000,3294.210641,8290.306550
1041.715870,-296.082377,4979.620737,8290.306550
1041.716200,-1184.329507,6052.154434,8956.491898
1041.716530,-1554.432478,5975.544884,9770.718434
1041.716859,-2516.700203,4826.401637,10066.800811
1041.717189,-3404.947333,3447.429741,9918.759623
1041.717519,-3478.967927,1762.019645,9178.553681
1041.717849,-2960.823768,-229.828649,8882.471304
1041.718178,-2516.700203,-612.876398,8734.430116
1041.718508,-2442.679609,306.438199,8290.306550
1041.718838,-2146.597232,2604.724693,9104.533087
1041.719167,-2516.700203,4749.792088,10288.862594
1041.719497,-2738.761985,5132.839837,10584.944971
1041.719827,-2368.659014,5515.887586,10362.883188
1041.720156,-1776.494261,5669.106685,9918.759623
1041.720486,-1332.370696,4903.011187,9992.780217
1041.720816,-1332.370696,3217.601092,9622.677246
1041.721145,-1036.288319,2145.067394,9178.553681
1041.721475,-814.226536,2221.676944,8956.491898
1041.721805,-1332.370696,2451.505594,9030.512492
1041.722134,-1184.329507,2757.943793,9252.574275
1041.722464,-814.226536,4290.134789,10584.944971
1041.722794,-1184.329507,5362.668486,11103.089130
1041.723123,-2442.679609,6971.469032,11103.089130
1041.723453,-3478.967927,7048.078582,10658.965565
1041.723783,-3182.885551,5592.497135,9844.739029
1041.724112,-3330.926739,4673.182538,8290.306550
1041.724442,-2368.659014,2757.943793,6735.874072
1041.724772,-1036.288319,1378.971896,5403.503377
1041.725101,74.020594,229.828649,5329.482782
1041.725431,0.000000,1149.143247,6365.771101
1041.725761,-814.226536,2451.505594,7920.203579
1041.726090,-1924.535449,4290.134789,9400.615463
1041.726420,-2368.659014,5898.935335,10955.047942
1041.726750,-2294.638420,6281.983084,11695.253884
1041.727079,-1776.494261,6205.373534,11547.212695
1041.727409,-1184.329507,5592.497135,10732.986159
1041.727739,-370.102971,4213.525239,10584.944971
1041.728068,0.000000,3524.039291,10510.924376
1041.728398,-592.164754,3140.991542,9918.759623
1041.728728,-814.226536,3140.991542,8808.450710
1041.729057,0.000000,2757.943793,8586.388927
1041.729387,444.123565,2681.334243,8660.409521
1041.729717,1332.370696,2681.334243,8956.491898
1041.730046,296.082377,2757.943793,9696.697840
1041.730376,-1184.329507,3983.696590,10214.842000
1041.730706,-2442.679609,5056.230287,10881.027347
1041.731035,-2220.617826,4826.401637,11547.212695
1041.731365,-1998.556043,4596.572988,11769.274478
1041.731695,-1702.473667,3830.477490,11177.109724
1041.732024,-1406.391290,3753.867940,10214.842000
1041.732354,-814.226536,4136.915689,9992.780217
1041.732684,0.000000,4903.011187,9696.697840
1041.733013,444.123565,5592.497135,9252.574275
1041.733343,370.102971,5132.839837,7550.100608
1041.733673,592.164754,3677.258390,6365.771101
1041.734002,518.144159,2451.505594,6143.709319
1041.734332,148.041188,1991.848295,6957.935855
1041.734662,-1480.411884,2145.067394,8142.265362
1041.734991,-3034.844362,2451.505594,9252.574275
1041.735321,-3775.050304,2987.772442,10066.800811
1041.735651,-3034.844362,3524.039291,10955.047942
1041.735980,-1776.494261,4136.915689,11473.192101
1041.736310,-1406.391290,5745.716235,10436.903782
1041.736640,-444.123565,6741.640382,10066.800811
1041.736969,444.123565,7124.688131,10066.800811
1041.737299,814.226536,6971.469032,9992.780217
1041.737629,-296.082377,7048.078582,8882.471304
1041.737958,-888.247130,5822.325785,7550.100608
1041.738288,-1702.473667,3524.039291,6587.832884
1041.738618,-1924.535449,1685.410096,6513.812290
1041.738947,-2146.597232,153.219100,6587.832884
1041.739277,-2590.720797,-919.314598,6661.853478
1041.739607,-2812.782580,-1072.533697,8216.285956
1041.739936,-2368.659014,842.705048,10066.800811
1041.740266,-1554.432478,3140.991542,11917.315666
1041.740596,-962.267725,5286.058936,12879.583391
1041.740925,-148.041188,6511.811733,13249.686362
1041.741255,0.000000,7124.688131,12879.583391
1041.741585,592.164754,7277.907231,11843.295072
1041.741914,1036.288319,5592.497135,11547.212695
1041.742244,592.164754,4903.011187,10732.986159
1041.742574,-444.123565,3983.696590,9474.636058
1041.742903,-1332.370696,2911.162892,8142.265362
1041.743233,-1702.473667,2068.457845,7994.224174
1041.743563,-1998.556043,919.314598,7402.059420
1041.743892,-1554.432478,612.876398,7105.977043
1041.744222,-1110.308913,1302.362347,7476.080014
1041.744552,-370.102971,1532.190996,8660.409521
1041.744881,0.000000,3447.429741,10214.842000
1041.745211,-1406.391290,5515.887586,11399.171507
1041.745541,-2294.638420,7048.078582,11325.150913
1041.745870,-1850.514855,7048.078582,12361.439231
1041.746200,-1258.350101,6511.811733,12879.583391
1041.746530,-2294.638420,6894.859482,11251.130318
1041.746859,-3108.864956,5669.106685,9030.512492
1041.747189,-2368.659014,4136.915689,6143.709319
1041.747519,0.000000,2681.334243,4589.276840
1041.747848,2368.659014,2221.676944,4293.194464
1041.748178,3627.009116,1762.019645,4737.318029
1041.748508,2664.741391,2451.505594,5477.523971
1041.748837,-148.041188,4366.744339,7402.059420
1041.749167,-2664.741391,5822.325785,9918.759623
1041.749497,-3997.112087,6741.640382,13619.789333
1041.749826,-4737.318029,6358.592633,15322.262999
1041.750156,-5625.565159,5515.887586,14359.995275
1041.750486,-5773.606348,4366.744339,12583.501014
1041.750815,-4589.276840,2911.162892,10510.924376
1041.751145,-2072.576638,2068.457845,8808.450710
1041.751475,592.164754,1915.238745,6513.812290
1041.751804,3627.009116,2528.115143,5477.523971
1041.752134,5329.482782,3524.039291,5329.482782
1041.752464,4737.318029,4290.134789,6439.791695
1041.752793,1776.494261,5209.449386,8808.450710
1041.753123,-2146.597232,7507.735880,11843.295072
1041.753453,-4589.276840,9193.145976,14063.912898
1041.753782,-4737.318029,7814.174080,14804.118840
1041.754112,-3997.112087,4213.525239,13027.624579
1041.754442,-2368.659014,536.266849,10288.862594
1041.754771,-1332.370696,-766.095498,7254.018232
1041.755101,-814.226536,0.000000,5995.668130
1041.755431,74.020594,1915.238745,6735.874072
1041.755760,-518.144159,4060.306139,7920.203579
1041.756090,-1036.288319,5132.839837,8068.244768
1041.756420,-1184.329507,4979.620737,6735.874072
1041.756749,-296.082377,3064.381992,6809.894666
1041.757079,296.082377,2145.067394,8734.430116
1041.757409,-1184.329507,3064.381992,11621.233289
1041.757738,-3108.864956,4979.620737,13101.645173
1041.758068,-3701.029710,5439.278036,13767.830521
1041.758398,-2960.823768,4826.401637,12879.583391
1041.758728,-2220.617826,3983.696590,10658.965565
1041.759057,-592.164754,2528.115143,6957.935855
1041.759387,1702.473667,-229.828649,4293.194464
1041.759717,3627.009116,-2298.286494,4441.235652
1041.760046,2960.823768,-919.314598,5477.523971
1041.760376,962.267725,1378.971896,6809.894666
1041.760706,-370.102971,2221.676944,9918.759623
1041.761035,-2516.700203,2681.334243,13323.706956
1041.761365,-4145.153275,4749.792088,14582.057057
1041.761695,-3923.091493,4826.401637,14508.036463
1041.762024,-2220.617826,2221.676944,13693.809927
1041.762354,-1554.432478,1149.143247,12731.542202
1041.762684,-1628.453072,1991.848295,11695.253884
1041.763013,-1110.308913,2987.772442,9622.677246
1041.763343,-666.185348,4213.525239,8512.368333
1041.763673,-370.102971,5132.839837,7476.080014
1041.764002,518.144159,4596.572988,6661.853478
1041.764332,1924.535449,1455.581446,4811.338623
1041.764662,2294.638420,-1302.362347,3701.029710
1041.764991,518.144159,-1838.629195,5551.544565
1041.765321,-2220.617826,-536.266849,9696.697840
1041.765651,-4367.215058,1302.362347,13989.892304
1041.765980,-6069.688724,3753.867940,15766.386565
1041.766310,-6661.853478,5132.839837,14730.098246
1041.766640,-4071.132681,3907.087040,13101.645173
1041.766969,-592.164754,1455.581446,11843.295072
1041.767299,740.205942,1915.238745,9030.512492
1041.767629,444.123565,3370.820191,5995.668130
1041.767958,1036.288319,3753.867940,4959.379811
1041.768288,1702.473667,3600.648841,6217.729913
1041.768618,740.205942,4903.011187,6587.832884
1041.768947,296.082377,4136.915689,5255.462188
1041.769277,1184.329507,383.047749,5107.421000
1041.769607,962.267725,-1532.190996,6365.771101
1041.769936,-666.185348,-1378.971896,9178.553681
1041.770266,-3330.926739,-1225.752797,12213.398043
1041.770596,-4811.338623,842.705048,14211.954086
1041.770925,-5107.421000,3370.820191,14063.912898
1041.771255,-3849.070898,2451.505594,13027.624579
1041.771585,-1258.350101,1608.800546,12583.501014
1041.771914,-148.041188,2068.457845,10658.965565
1041.772244,74.020594,2604.724693,7476.080014
1041.772574,1332.370696,1302.362347,5921.647536
1041.772903,2294.638420,1685.410096,6439.791695
1041.773233,1332.370696,2604.724693,6661.853478
1041.773563,222.061783,1685.410096,6143.709319
1041.773892,74.020594,-919.314598,6291.750507
1041.774222,518.144159,-2451.505594,8364.327145
1041.774552,-222.061783,-2604.724693,11325.150913
1041.774881,-3034.844362,-1685.410096,13397.727550
1041.775211,-5477.523971,-919.314598,14211.954086
1041.775541,-5403.503377,536.266849,14434.015869
1041.775870,-3478.967927,1149.143247,13693.809927
1041.776200,-1850.514855,229.828649,13175.665768
1041.776530,-518.144159,383.047749,11695.253884
1041.776859,0.000000,612.876398,8956.491898
1041.777189,740.205942,229.828649,7031.956449
1041.777519,1332.370696,0.000000,6291.750507
1041.777848,1702.473667,229.828649,6143.709319
1041.778178,1850.514855,-766.095498,6735.874072
1041.778508,962.267725,-1225.752797,8216.285956
1041.778837,-518.144159,-536.266849,9696.697840
1041.779167,-1184.329507,-383.047749,11695.253884
1041.779497,-2812.782580,-229.828649,13767.830521
1041.779826,-4293.194464,2298.286494,14211.954086
1041.780156,-4219.173869,3064.381992,12657.521608
1041.780486,-1850.514855,612.876398,10881.027347
1041.780815,-296.082377,-306.438199,9548.656652
1041.781145,-888.247130,1225.752797,8660.409521
1041.781475,-814.226536,2145.067394,7402.059420
1041.781804,-370.102971,1532.190996,5699.585753
1041.782134,-666.185348,1302.362347,4737.318029
1041.782464,-592.164754,1149.143247,4811.338623
1041.782793,0.000000,0.000000,5773.606348
1041.783123,0.000000,-306.438199,7476.080014
1041.783453,-518.144159,1072.533697,9030.512492
1041.783782,-1406.391290,1685.410096,11103.089130
1041.784112,-2368.659014,2834.553343,13545.768739
1041.784442,-3775.050304,4366.744339,14211.954086
1041.784771,-3478.967927,4749.792088,12953.603985
1041.785101,-1258.350101,2834.553343,10955.047942
1041.785431,0.000000,842.705048,9548.656652
1041.785760,-296.082377,153.219100,7920.203579
1041.786090,-1110.308913,-536.266849,7105.977043
1041.786420,-1406.391290,-383.047749,7105.977043
1041.786749,-1998.556043,1225.752797,6735.874072
1041.787079,-1776.494261,1072.533697,5995.668130
1041.787409,-296.082377,76.609550,7031.956449
1041.787738,1776.494261,0.000000,9104.533087
1041.788068,2664.741391,1072.533697,10214.842000
1041.788398,2812.782580,1532.190996,12139.377449
1041.788727,222.061783,2757.943793,13767.830521
1041.789057,-2886.803174,4749.792088,14804.118840
1041.789387,-3404.947333,4903.011187,14952.160028
1041.789716,-2738.761985,2681.334243,13397.727550
1041.790046,-1850.514855,-306.438199,10807.006753
1041.790376,-1406.391290,-1762.019645,8438.347739
1041.790705,-1258.350101,-3064.381992,6735.874072
1041.791035,-1332.370696,-2451.505594,5551.544565
1041.791365,-888.247130,-459.657299,5329.482782
1041.791694,592.164754,536.266849,5699.585753
1041.792024,1184.329507,229.828649,6217.729913
1041.792354,1480.411884,842.705048,8216.285956
1041.792683,1554.432478,1378.971896,10288.862594
1041.793013,370.102971,2221.676944,12213.398043
1041.793343,-1998.556043,3217.601092,13397.727550
1041.793672,-2960.823768,3907.087040,13841.851115
1041.794002,-3034.844362,1532.190996,12953.603985
1041.794332,-2294.638420,-689.485948,11399.171507
1041.794662,-2738.761985,-1608.800546,9474.636058
1041.794991,-2960.823768,-1225.752797,7846.182985
1041.795321,-2516.700203,-919.314598,7105.977043
1041.795651,-1332.370696,-153.219100,6809.894666
1041.795980,0.000000,919.314598,6217.729913
1041.796310,592.164754,1302.362347,5403.503377
1041.796640,1776.494261,76.609550,5847.626942
1041.796969,2220.617826,229.828649,7846.182985
1041.797299,1406.391290,1378.971896,10584.944971
1041.797629,-740.205942,1608.800546,12805.562797
1041.797959,-3034.844362,2374.896044,14285.974681
1041.798288,-4367.215058,2374.896044,13989.892304
1041.798618,-3849.070898,766.095498,12879.583391
1041.798948,-1924.535449,-995.924147,12065.356855
1041.799277,-1480.411884,-1455.581446,9548.656652
1041.799607,-1850.514855,-1302.362347,8216.285956
1041.799937,-1628.453072,-689.485948,7328.038826
1041.800266,-1480.411884,919.314598,7476.080014
1041.800596,-1184.329507,1991.848295,7105.977043
1041.800926,0.000000,2374.896044,6661.853478
1041.801256,1480.411884,1225.752797,6217.729913
1041.801585,2886.803174,229.828649,7105.977043
1041.801915,3108.864956,-306.438199,9474.636058
1041.802245,1184.329507,-229.828649,12213.398043
1041.802574,-2590.720797,1072.533697,13545.768739
1041.802904,-4959.379811,2604.724693,14063.912898
1041.803234,-4737.318029,2451.505594,13767.830521
1041.803563,-3478.967927,1072.533697,12657.521608
1041.803893,-1924.535449,-536.266849,10214.842000
1041.804223,-814.226536,-1762.019645,7105.977043
1041.804553,222.061783,-2374.896044,5625.565159
1041.804882,666.185348,0.000000,5921.647536
1041.805212,1332.370696,2298.286494,6661.853478
1041.805542,1776.494261,2145.067394,7105.977043
1041.805871,2146.597232,1685.410096,7624.121203
1041.806201,2368.659014,842.705048,9252.574275
1041.806531,1776.494261,1225.752797,11843.295072
1041.806860,-814.226536,1532.190996,13767.830521
1041.807190,-3849.070898,2911.162892,14878.139434
1041.807520,-5107.421000,3140.991542,14285.974681
1041.807850,-4367.215058,1838.629195,12583.501014
1041.808179,-3552.988522,-306.438199,10288.862594
1041.808509,-2664.741391,-1302.362347,7994.224174
1041.808839,-2072.576638,-1532.190996,6217.729913
1041.809168,-1258.350101,0.000000,5773.606348
1041.809498,0.000000,1838.629195,5921.647536
1041.809828,1554.432478,2528.115143,5847.626942
1041.810157,1480.411884,2451.505594,4515.256246
1041.810487,2146.597232,689.485948,5625.565159
1041.810817,2220.617826,995.924147,8660.409521
1041.811147,296.082377,2298.286494,11695.253884
1041.811476,-2368.659014,3294.210641,13101.645173
1041.811806,-4515.256246,3294.210641,13471.748144
1041.812136,-4663.297435,2068.457845,12953.603985
1041.812465,-3034.844362,229.828649,11473.192101
1041.812795,-1702.473667,-1838.629195,9104.533087
1041.813125,-1332.370696,-1838.629195,6661.853478
1041.813454,-814.226536,-919.314598,6661.853478
1041.813784,-666.185348,536.266849,7476.080014
1041.814114,-888.247130,2374.896044,7994.224174
1041.814444,-1036.288319,2221.676944,7254.018232
1041.814773,0.000000,1302.362347,6587.832884
1041.815103,666.185348,-536.266849,7476.080014
1041.815433,888.247130,-1532.190996,9918.759623
1041.815762,222.061783,-995.924147,12065.356855
1041.816092,-2072.576638,-919.314598,13841.851115
1041.816422,-3923.091493,1302.362347,14434.015869
1041.816751,-3701.029710,1455.581446,14285.974681
1041.817081,-2146.597232,-306.438199,13545.768739
1041.817411,-370.102971,-536.266849,11399.171507
1041.817741,222.061783,-1072.533697,8734.430116
1041.818070,962.267725,-1762.019645,7550.100608
1041.818400,1480.411884,-1532.190996,8142.265362
1041.818730,740.205942,1532.190996,8734.430116
1041.819059,-148.041188,2374.896044,7772.162391
1041.819389,370.102971,153.219100,7254.018232
1041.819719,1628.453072,-1608.800546,8142.265362
1041.820048,1850.514855,-1378.971896,10362.883188
1041.820378,148.041188,-383.047749,11769.274478
1041.820708,-2368.659014,1378.971896,12583.501014
1041.821038,-4441.235652,2987.772442,12731.542202
1041.821367,-4219.173869,3217.601092,12583.501014
1041.821697,-2738.761985,1915.238745,11695.253884
1041.822027,-2146.597232,229.828649,9030.512492
1041.822356,-2146.597232,383.047749,7179.997637
1041.822686,-2294.638420,-689.485948,5551.544565
1041.823016,-1702.473667,153.219100,5699.585753
1041.823345,-1406.391290,1378.971896,6291.750507
1041.823675,-518.144159,1532.190996,5551.544565
1041.824005,0.000000,459.657299,5625.565159
1041.824335,1036.288319,76.609550,7179.997637
1041.824664,1628.453072,459.657299,9326.594869
1041.824994,222.061783,1378.971896,11621.233289
1041.825324,-1628.453072,3600.648841,13693.809927
1041.825653,-2664.741391,4903.011187,13619.789333
1041.825983,-2516.700203,3677.258390,12287.418637
1041.826313,-1184.329507,1149.143247,11029.068536
1041.826642,-222.061783,229.828649,9992.780217
1041.826972,-148.041188,842.705048,8808.450710
1041.827302,0.000000,995.924147,7550.100608
1041.827632,-888.247130,1072.533697,6883.915261
1041.827961,-1258.350101,1378.971896,6957.935855
1041.828291,-1480.411884,1302.362347,7105.977043
1041.828621,-740.205942,1149.143247,7772.162391
1041.828950,0.000000,1455.581446,8142.265362
1041.829280,1110.308913,383.047749,9474.636058
1041.829610,666.185348,-229.828649,10436.903782
1041.829939,-888.247130,153.219100,12879.583391
1041.830269,-3108.864956,2451.505594,13841.851115
1041.830599,-3849.070898,2681.334243,12509.480420
1041.830929,-3108.864956,1149.143247,11547.212695
1041.831258,-2072.576638,-153.219100,11473.192101
1041.831588,-814.226536,-842.705048,10362.883188
1041.831918,0.000000,-766.095498,7698.141797
1041.832247,740.205942,-229.828649,5921.647536
1041.832577,1258.350101,995.924147,5699.585753
1041.832907,2072.576638,1455.581446,6957.935855
1041.833236,2442.679609,689.485948,7994.224174
1041.833566,2368.659014,459.657299,9030.512492
1041.833896,1850.514855,842.705048,10436.903782
1041.834226,0.000000,1378.971896,12139.377449
1041.834555,-2516.700203,1685.410096,14211.954086
1041.834885,-4737.318029,1532.190996,14063.912898
1041.835215,-4885.359217,1225.752797,12879.583391
1041.835544,-3997.112087,383.047749,11769.274478
1041.835874,-3627.009116,-689.485948,9770.718434
1041.836204,-3256.906145,-1455.581446,7105.977043
1041.836533,-2368.659014,-1915.238745,5773.606348
1041.836863,-888.247130,-153.219100,5255.462188
1041.837193,296.082377,1915.238745,5255.462188
1041.837523,1628.453072,1838.629195,5181.441594
1041.837852,2738.761985,459.657299,7031.956449
1041.838182,1998.556043,1072.533697,8438.347739
1041.838512,666.185348,1915.238745,10658.965565
1041.838841,-666.185348,2068.457845,13101.645173
1041.839171,-2294.638420,2681.334243,14508.036463
1041.839501,-3256.906145,3447.429741,14211.954086
1041.839830,-3256.906145,2221.676944,13027.624579
1041.840160,-1850.514855,153.219100,10732.986159
1041.840490,-1480.411884,-229.828649,9030.512492
1041.840820,-1554.432478,459.657299,7328.038826
1041.841149,-1258.350101,766.095498,5921.647536
1041.841479,-592.164754,842.705048,5329.482782
1041.841809,0.000000,1455.581446,5329.482782
1041.842138,148.041188,1302.362347,5477.523971
1041.842468,518.144159,459.657299,7031.956449
1041.842798,148.041188,689.485948,9474.636058
1041.843128,-518.144159,1762.019645,11399.171507
1041.843457,-2072.576638,1149.143247,13249.686362
1041.843787,-3627.009116,1838.629195,14582.057057
1041.844117,-4367.215058,3370.820191,14359.995275
1041.844446,-3108.864956,2145.067394,12879.583391
1041.844776,-1258.350101,689.485948,11029.068536
1041.845106,-444.123565,0.000000,8660.409521
1041.845435,74.020594,-229.828649,7920.203579
1041.845765,296.082377,766.095498,7328.038826
1041.846095,370.102971,2221.676944,6439.791695
1041.846425,1184.329507,2834.553343,5329.482782
1041.846754,2516.700203,-919.314598,5921.647536
1041.847084,2442.679609,-612.876398,8142.265362
1041.847414,1110.308913,1302.362347,11103.089130
1041.847743,-592.164754,1455.581446,12805.562797
1041.848073,-2886.803174,2987.772442,13545.768739
1041.848403,-4663.297435,3140.991542,13693.809927
1041.848732,-4071.132681,1915.238745,13619.789333
1041.849062,-2590.720797,1072.533697,12065.356855
1041.849392,-2146.597232,76.609550,9178.553681
1041.849722,-2220.617826,-536.266849,6735.874072
1041.850051,-1702.473667,-842.705048,6661.853478
1041.850381,-1332.370696,383.047749,7698.141797
1041.850711,-962.267725,2834.553343,7179.997637
1041.851040,-296.082377,2451.505594,5773.606348
1041.851370,1480.411884,383.047749,5255.462188
1041.851700,2294.638420,-459.657299,6957.935855
1041.852029,592.164754,766.095498,9844.739029
1041.852359,-1036.288319,2987.772442,11843.295072
1041.852689,-2738.761985,3600.648841,13249.686362
1041.853019,-3775.050304,3524.039291,13323.706956
1041.853348,-3330.926739,2757.943793,12213.398043
1041.853678,-2442.679609,153.219100,10658.965565
1041.854008,-1702.473667,-1225.752797,8660.409521
1041.854337,-2146.597232,-689.485948,7328.038826
1041.854667,-2220.617826,229.828649,6883.915261
1041.854997,-1554.432478,1149.143247,7402.059420
1041.855326,-1406.391290,1685.410096,6957.935855
1041.855656,0.000000,2145.067394,5921.647536
1041.855986,1258.350101,689.485948,6143.709319
1041.856316,2072.576638,-153.219100,7994.224174
1041.856645,1628.453072,383.047749,10807.006753
1041.856975,-814.226536,1762.019645,12953.603985
1041.857305,-2886.803174,1762.019645,13915.871710
1041.857634,-3404.947333,3294.210641,14508.036463
1041.857964,-2590.720797,2451.505594,13841.851115
1041.858294,-1628.453072,306.438199,11843.295072
1041.858623,-518.144159,-1225.752797,9844.739029
1041.858953,148.041188,-1225.752797,8142.265362
1041.859283,-444.123565,0.000000,7254.018232
1041.859613,-666.185348,1149.143247,7105.977043
1041.859942,-148.041188,1532.190996,7031.956449
1041.860272,518.144159,919.314598,6661.853478
1041.860602,1332.370696,229.828649,7476.080014
1041.860931,1628.453072,-459.657299,9030.512492
1041.861261,222.061783,459.657299,10955.047942
1041.861591,-1702.473667,1072.533697,12657.521608
1041.861920,-3256.906145,1991.848295,14211.954086
1041.862250,-3701.029710,3370.820191,13619.789333
1041.862580,-2960.823768,1532.190996,11769.274478
1041.862910,-1998.556043,229.828649,10658.965565
1041.863239,-1628.453072,459.657299,9770.718434
1041.863569,-1702.473667,1455.581446,8512.368333
1041.863899,-1628.453072,1302.362347,6809.894666
1041.864228,-1406.391290,1685.410096,5773.606348
1041.864558,-592.164754,1685.410096,5699.585753
1041.864888,296.082377,1149.143247,5995.668130
1041.865217,1776.494261,153.219100,6883.915261
1041.865547,888.247130,459.657299,8438.347739
1041.865877,-888.247130,1685.410096,9770.718434
1041.866207,-1998.556043,2451.505594,12139.377449
1041.866536,-3108.864956,2757.943793,13619.789333
1041.866866,-3330.926739,3524.039291,13175.665768
1041.867196,-2812.782580,2987.772442,11251.130318
1041.867525,-2146.597232,919.314598,9326.594869
1041.867855,-1480.411884,-306.438199,8660.409521
1041.868185,-1480.411884,1378.971896,8438.347739
1041.868514,-1332.370696,2451.505594,7105.977043
1041.868844,-962.267725,1762.019645,5921.647536
1041.869174,-296.082377,919.314598,5477.523971
1041.869504,1406.391290,919.314598,5995.668130
1041.869833,2442.679609,0.000000,7179.997637
1041.870163,2294.638420,0.000000,8882.471304
1041.870493,592.164754,1838.629195,10584.944971
1041.870822,-1702.473667,2451.505594,12879.583391
1041.871152,-3701.029710,3677.258390,14211.954086
1041.871482,-4071.132681,3370.820191,14285.974681
1041.871811,-2960.823768,1685.410096,12583.501014
1041.872141,-2146.597232,-459.657299,10362.883188
1041.872471,-1554.432478,-1838.629195,8586.388927
1041.872801,-1184.329507,-1685.410096,7698.141797
1041.873130,-1258.350101,-459.657299,7105.977043
1041.873460,-1406.391290,689.485948,6735.874072
1041.873790,-740.205942,1378.971896,7254.018232
1041.874119,370.102971,842.705048,7624.121203
1041.874449,1702.473667,-1302.362347,7994.224174
1041.874779,962.267725,-1991.848295,9474.636058
1041.875108,0.000000,-536.266849,11769.274478
1041.875438,-1776.494261,995.924147,14211.954086
1041.875768,-3256.906145,2528.115143,15248.242405
1041.876098,-3552.988522,2681.334243,14137.933492
1041.876427,-2146.597232,766.095498,12657.521608
1041.876757,-888.247130,-459.657299,11029.068536
1041.877087,-814.226536,-459.657299,9104.533087
1041.877416,-592.164754,-919.314598,7105.977043
1041.877746,-666.185348,-766.095498,6143.709319
1041.878076,-592.164754,919.314598,6143.709319
1041.878405,-148.041188,1225.752797,6365.771101
1041.878735,222.061783,995.924147,6957.935855
1041.879065,296.082377,-229.828649,7476.080014
1041.879395,-370.102971,-306.438199,9104.533087
1041.879724,-1332.370696,76.609550,11473.192101
1041.880054,-2886.803174,1915.238745,12805.562797
1041.880384,-4737.318029,3064.381992,13027.624579
1041.880713,-4737.318029,2528.115143,12139.377449
1041.881043,-3256.906145,1685.410096,11325.150913
1041.881373,-2146.597232,306.438199,9400.615463
1041.881702,-1406.391290,-306.438199,7328.038826
1041.882032,-740.205942,229.828649,5995.668130
1041.882362,-444.123565,612.876398,6513.812290
1041.882692,0.000000,2528.115143,6365.771101
1041.883021,0.000000,2681.334243,5847.626942
1041.883351,1036.288319,306.438199,5551.544565
1041.883681,2664.741391,-229.828649,8290.306550
1041.884010,1998.556043,1072.533697,11473.192101
1041.884340,-740.205942,2604.724693,12805.562797
1041.884670,-3108.864956,2911.162892,12953.603985
1041.884999,-3404.947333,2911.162892,13471.748144
1041.885329,-2664.741391,2987.772442,12805.562797
1041.885659,-1776.494261,1532.190996,12065.356855
1041.885989,-962.267725,459.657299,10140.821405
1041.886318,-962.267725,0.000000,7328.038826
1041.886648,-1184.329507,0.000000,6217.729913
1041.886978,-814.226536,766.095498,6809.894666
1041.887307,-888.247130,1608.800546,7772.162391
1041.887637,-740.205942,2145.067394,7254.018232
1041.887967,-296.082377,536.266849,7105.977043
1041.888296,296.082377,-1762.019645,8734.430116
1041.888626,518.144159,-459.657299,11399.171507
1041.888956,-1628.453072,0.000000,13027.624579
1041.889286,-3256.906145,2145.067394,14285.974681
1041.889615,-3701.029710,3524.039291,14063.912898
1041.889945,-2664.741391,2451.505594,12731.542202
1041.890275,-814.226536,383.047749,10436.903782
1041.890604,74.020594,-612.876398,8882.471304
1041.890934,370.102971,0.000000,7328.038826
1041.891264,148.041188,842.705048,6735.874072
1041.891593,0.000000,1762.019645,6439.791695
1041.891923,-370.102971,2298.286494,6069.688724
1041.892253,0.000000,229.828649,5995.668130
1041.892583,148.041188,-1225.752797,7476.080014
1041.892912,-296.082377,-1149.143247,9400.615463
1041.893242,-1776.494261,0.000000,10955.047942
1041.893572,-3108.864956,459.657299,12139.377449
1041.893901,-3182.885551,0.000000,13397.727550
1041.894231,-3627.009116,2145.067394,13027.624579
1041.894561,-3256.906145,2681.334243,12139.377449
1041.894890,-2368.659014,1225.752797,10066.800811
1041.895220,-1480.411884,-153.219100,7994.224174
1041.895550,-370.102971,-383.047749,7328.038826
1041.895880,296.082377,0.000000,7254.018232
1041.896209,222.061783,153.219100,7402.059420
1041.896539,-518.144159,1149.143247,6809.894666
1041.896869,0.000000,1149.143247,7105.977043
1041.897198,1036.288319,-153.219100,8586.388927
1041.897528,1110.308913,-689.485948,10436.903782
1041.897858,0.000000,766.095498,11473.192101
1041.898187,-1850.514855,766.095498,12065.356855
1041.898517,-2590.720797,1455.581446,12805.562797
1041.898847,-3034.844362,2145.067394,12361.439231
1041.899177,-1998.556043,1149.143247,10807.006753
1041.899506,-962.267725,-536.266849,9844.739029
1041.899836,-814.226536,0.000000,8586.388927
1041.900166,-1184.329507,76.609550,7179.997637
1041.900495,-666.185348,-842.705048,6809.894666
1041.900825,0.000000,229.828649,7402.059420
1041.901155,-222.061783,1762.019645,8142.265362
1041.901484,-296.082377,2145.067394,8364.327145
1041.901814,148.041188,689.485948,9326.594869
1041.902144,74.020594,-919.314598,10066.800811
1041.902473,-444.123565,229.828649,11547.212695
1041.902803,-740.205942,1455.581446,13323.706956
1041.903133,-2442.679609,1915.238745,13249.686362
1041.903462,-3182.885551,2604.724693,11621.233289
1041.903792,-2220.617826,1072.533697,10658.965565
1041.904122,-1110.308913,-766.095498,9770.718434
1041.904452,-1036.288319,0.000000,9030.512492
1041.904781,-962.267725,1302.362347,7994.224174
1041.905111,-740.205942,1378.971896,7031.956449
1041.905441,-740.205942,1225.752797,6735.874072
1041.905770,-222.061783,1991.848295,7179.997637
1041.906100,740.205942,1072.533697,7624.121203
1041.906430,592.164754,0.000000,8290.306550
1041.906759,-222.061783,1072.533697,9400.615463
1041.907089,-1332.370696,919.314598,11251.130318
1041.907419,-2442.679609,1225.752797,12953.603985
1041.907748,-3552.988522,3140.991542,12583.501014
1041.908078,-3478.967927,2757.943793,11547.212695
1041.908408,-1998.556043,1455.581446,10066.800811
1041.908737,-1110.308913,-306.438199,9326.594869
1041.909067,-1258.350101,229.828649,8734.430116
1041.909397,-1480.411884,1225.752797,7920.203579
1041.909726,-1628.453072,1991.848295,7698.141797
1041.910056,-962.267725,2834.553343,7031.956449
1041.910386,0.000000,2298.286494,6217.729913
1041.910716,1702.473667,0.000000,5921.647536
1041.911045,2664.741391,-1302.362347,7105.977043
1041.911375,1628.453072,306.438199,8660.409521
1041.911705,-666.185348,1915.238745,10288.862594
1041.912034,-2738.761985,2298.286494,12361.439231
1041.912364,-3478.967927,2681.334243,13175.665768
1041.912694,-3701.029710,2451.505594,12287.418637
1041.913023,-2590.720797,459.657299,11029.068536
1041.913353,-1850.514855,-689.485948,10066.800811
1041.913683,-1924.535449,0.000000,9030.512492
1041.914012,-2146.597232,-153.219100,7550.100608
1041.914342,-1702.473667,-766.095498,7105.977043
1041.914672,-962.267725,-229.828649,7402.059420
1041.915001,-444.123565,1838.629195,7402.059420
1041.915331,666.185348,-229.828649,7698.141797
1041.915661,1554.432478,-1685.410096,8956.491898
1041.915990,1184.329507,-1302.362347,10584.944971
1041.916320,-148.041188,-536.266849,12805.562797
1041.916650,-2220.617826,689.485948,14359.995275
1041.916980,-2886.803174,2298.286494,15322.262999
1041.917309,-3034.844362,2451.505594,13767.830521
1041.917639,-1554.432478,76.609550,11251.130318
1041.917969,-444.123565,-2451.505594,9770.718434
1041.918298,-592.164754,-1685.410096,8364.327145
1041.918628,-1184.329507,536.266849,7402.059420
1041.918958,-1258.350101,306.438199,6439.791695
1041.919287,-370.102971,-306.438199,6143.709319
1041.919617,444.123565,-612.876398,6587.832884
1041.919947,666.185348,-1225.752797,7550.100608
1041.920276,1036.288319,-1302.362347,9252.574275
1041.920606,0.000000,1149.143247,10584.944971
1041.920936,-1628.453072,2145.067394,12361.439231
1041.921265,-2812.782580,2145.067394,13767.830521
1041.921595,-3552.988522,3217.601092,14063.912898
1041.921925,-3034.844362,3524.039291,12805.562797
1041.922254,-1628.453072,1608.800546,10066.800811
1041.922584,-1184.329507,-306.438199,7772.162391
1041.922914,-1406.391290,229.828649,7624.121203
1041.923244,-1332.370696,1608.800546,6661.853478
1041.923573,-1332.370696,2451.505594,6439.791695
1041.923903,-370.102971,3370.820191,5403.503377
1041.924233,444.123565,1608.800546,4441.235652
1041.924562,1776.494261,-919.314598,5477.523971
1041.924892,2220.617826,-153.219100,7994.224174
1041.925222,740.205942,1762.019645,10362.883188
1041.925551,-1554.432478,3140.991542,12287.418637
1041.925881,-3478.967927,4673.182538,14285.974681
1041.926211,-4293.194464,5056.230287,14656.077652
1041.926540,-3256.906145,3753.867940,12805.562797
1041.926870,-1554.432478,1149.143247,10658.965565
1041.927200,-370.102971,0.000000,7920.203579
1041.927529,-740.205942,689.485948,6809.894666
1041.927859,-888.247130,612.876398,6513.812290
1041.928189,-740.205942,995.924147,6957.935855
1041.928518,-592.164754,2298.286494,7105.977043
1041.928848,0.000000,2528.115143,6513.812290
1041.929178,1110.308913,689.485948,6809.894666
1041.929508,2220.617826,-1532.190996,8512.368333
1041.929837,1332.370696,-612.876398,10732.986159
1041.930167,-888.247130,1455.581446,12731.542202
1041.930497,-3330.926739,3064.381992,13989.892304
1041.930826,-4293.194464,3294.210641,13989.892304
1041.931156,-3627.009116,1685.410096,12287.418637
1041.931486,-1554.432478,-995.924147,11325.150913
1041.931815,-296.082377,-2834.553343,9252.574275
1041.932145,-296.082377,-1455.581446,7772.162391
1041.932475,-740.205942,0.000000,6661.853478
1041.932804,-444.123565,1608.800546,7254.018232
1041.933134,222.061783,842.705048,7846.182985
1041.933464,814.226536,842.705048,8290.306550
1041.933793,1184.329507,459.657299,8734.430116
1041.934123,888.247130,-1302.362347,9696.697840
1041.934453,148.041188,-919.314598,11695.253884
1041.934782,-1850.514855,689.485948,13545.768739
1041.935112,-3404.947333,1838.629195,14063.912898
1041.935442,-3849.070898,2681.334243,13545.768739
1041.935772,-3108.864956,1685.410096,11991.336260
1041.936101,-1406.391290,689.485948,10436.903782
1041.936431,-1036.288319,-536.266849,8142.265362
1041.936761,-1702.473667,-536.266849,6291.750507
1041.937090,-962.267725,383.047749,5625.565159
1041.937420,-740.205942,612.876398,5773.606348
1041.937750,-592.164754,1915.238745,5995.668130
1041.938079,0.000000,1915.238745,6143.709319
1041.938409,962.267725,-229.828649,7254.018232
1041.938739,888.247130,153.219100,9104.533087
1041.939068,-296.082377,1991.848295,11399.171507
1041.939398,-1702.473667,2911.162892,13027.624579
1041.939728,-2886.803174,3217.601092,13767.830521
1041.940057,-3108.864956,3907.087040,12509.480420
1041.940387,-2368.659014,2987.772442,11029.068536
1041.940717,-1258.350101,1149.143247,9474.636058
1041.941046,-666.185348,0.000000,8216.285956
1041.941376,-444.123565,76.609550,6883.915261
1041.941706,-444.123565,1149.143247,6365.771101
1041.942036,-222.061783,1838.629195,5847.626942
1041.942365,-444.123565,1762.019645,5995.668130
1041.942695,370.102971,689.485948,6513.812290
1041.943025,1406.391290,153.219100,7994.224174
1041.943354,1628.453072,689.485948,10140.821405
1041.943684,74.020594,1991.848295,12139.377449
1041.944014,-1554.432478,2298.286494,13323.706956
1041.944343,-2960.823768,2757.943793,13767.830521
1041.944673,-2960.823768,3370.820191,13101.645173
1041.945003,-1850.514855,1378.971896,11399.171507
1041.945332,-888.247130,0.000000,10584.944971
1041.945662,-1036.288319,76.609550,9326.594869
1041.945992,-1480.411884,76.609550,7846.182985
1041.946321,-962.267725,229.828649,7105.977043
1041.946651,-592.164754,766.095498,6809.894666
1041.946981,370.102971,1378.971896,7105.977043
1041.947310,962.267725,383.047749,7402.059420
1041.947640,1332.370696,-995.924147,9030.512492
1041.947970,518.144159,76.609550,10510.924376
1041.948300,-1110.308913,459.657299,11843.295072
1041.948629,-1776.494261,1838.629195,13619.789333
1041.948959,-2738.761985,2681.334243,13545.768739
1041.949289,-2368.659014,2374.896044,12213.398043
1041.949618,-1554.432478,919.314598,10510.924376
1041.949948,-1184.329507,0.000000,9104.533087
1041.950278,-1184.329507,0.000000,8438.347739
1041.950607,-1998.556043,76.609550,7402.059420
1041.950937,-2072.576638,-153.219100,7105.977043
1041.951267,-1628.453072,1532.190996,6587.832884
1041.951596,-666.185348,1762.019645,6069.688724
1041.951926,1110.308913,229.828649,5773.606348
1041.952256,1702.473667,-919.314598,7550.100608
1041.952585,888.247130,153.219100,9770.718434
1041.952915,-740.205942,1991.848295,11695.253884
1041.953245,-2294.638420,2528.115143,13619.789333
1041.953574,-3034.844362,3140.991542,13545.768739
1041.953904,-3330.926739,3600.648841,12065.356855
1041.954234,-2072.576638,766.095498,11325.150913
1041.954564,-1554.432478,0.000000,9992.780217
1041.954893,-1924.535449,1072.533697,8586.388927
1041.955223,-1554.432478,766.095498,7179.997637
1041.955553,-888.247130,612.876398,5995.668130
1041.955882,-296.082377,766.095498,5995.668130
1041.956212,444.123565,1455.581446,6143.709319
1041.956542,962.267725,919.314598,6587.832884
1041.956871,1554.432478,306.438199,8142.265362
1041.957201,1110.308913,919.314598,10214.842000
1041.957531,-444.123565,1532.190996,13027.624579
1041.957860,-2294.638420,2834.553343,14434.015869
1041.958190,-3330.926739,3907.087040,14211.954086
1041.958520,-2886.803174,3064.381992,12287.418637
1041.958849,-1776.494261,76.609550,10732.986159
1041.959179,-518.144159,-995.924147,9474.636058
1041.959509,-740.205942,0.000000,8734.430116
1041.959838,-1036.288319,689.485948,7328.038826
1041.960168,-962.267725,1455.581446,6809.894666
1041.960498,0.000000,1532.190996,6661.853478
1041.960828,888.247130,1685.410096,6883.915261
1041.961157,1258.350101,689.485948,7994.224174
1041.961487,1184.329507,612.876398,8882.471304
1041.961817,444.123565,536.266849,10658.965565
1041.962146,-1110.308913,919.314598,12657.521608
1041.962476,-2886.803174,2221.676944,13841.851115
1041.962806,-3775.050304,3064.381992,13693.809927
1041.963135,-2886.803174,2451.505594,12139.377449
1041.963465,-1850.514855,1072.533697,9992.780217
1041.963795,-1628.453072,0.000000,8956.491898
1041.964124,-888.247130,-459.657299,8068.244768
1041.964454,-962.267725,842.705048,6661.853478
1041.964784,-814.226536,1991.848295,6069.688724
1041.965113,-444.123565,1608.800546,5329.482782
1041.965443,666.185348,612.876398,5995.668130
1041.965773,1480.411884,-842.705048,7254.018232
1041.966102,1110.308913,-306.438199,8882.471304
1041.966432,-222.061783,689.485948,10436.903782
1041.966762,-1480.411884,1762.019645,12583.501014
1041.967091,-2960.823768,2451.505594,13989.892304
1041.967421,-3923.091493,3294.210641,13175.665768
1041.967751,-2664.741391,1532.190996,10881.027347
1041.968081,-1258.350101,-153.219100,9548.656652
1041.968410,-888.247130,0.000000,8438.347739
1041.968740,-1184.329507,766.095498,7772.162391
1041.969070,-1554.432478,459.657299,6809.894666
1041.969399,-518.144159,536.266849,6143.709319
1041.969729,-1110.308913,-306.438199,5773.606348
1041.970059,0.000000,-459.657299,6883.915261
1041.970388,518.144159,-766.095498,8290.306550
1041.970718,666.185348,-766.095498,9622.677246
1041.971048,0.000000,-229.828649,10955.047942
1041.971377,-1406.391290,153.219100,13101.645173
1041.971707,-2812.782580,1838.629195,15174.221811
1041.972037,-3330.926739,3140.991542,14656.077652
1041.972366,-2072.576638,1302.362347,12731.542202
1041.972696,-444.123565,-842.705048,10584.944971
1041.973026,1036.288319,-1915.238745,9178.553681
1041.973355,148.041188,-689.485948,8512.368333
1041.973685,-444.123565,153.219100,7476.080014
1041.974015,-296.082377,689.485948,7476.080014
1041.974345,-148.041188,1532.190996,7402.059420
1041.974674,296.082377,459.657299,7328.038826
1041.975004,222.061783,-1149.143247,7920.203579
1041.975334,370.102971,-1685.410096,9474.636058
1041.975663,-740.205942,-689.485948,11251.130318
1041.975993,-2590.720797,612.876398,12805.562797
1041.976323,-3849.070898,2374.896044,13693.809927
1041.976652,-4219.173869,3447.429741,12953.603985
1041.976982,-2738.761985,1991.848295,10955.047942
1041.977312,-740.205942,612.876398,9326.594869
1041.977641,-148.041188,229.828649,7476.080014
1041.977971,-370.102971,383.047749,6587.832884
1041.978301,-444.123565,1072.533697,6069.688724
1041.978630,-444.123565,2374.896044,6217.729913
1041.978960,0.000000,2451.505594,6661.853478
1041.979290,666.185348,1072.533697,7105.977043
1041.979619,814.226536,76.609550,7920.203579
1041.979949,370.102971,153.219100,9844.739029
1041.980279,-222.061783,1302.362347,11547.212695
1041.980609,-2516.700203,3064.381992,12805.562797
1041.980938,-3701.029710,4060.306139,13175.665768
1041.981268,-3775.050304,3524.039291,12435.459826
1041.981598,-2368.659014,2145.067394,10658.965565
1041.981927,-1554.432478,536.266849,8660.409521
1041.982257,-1258.350101,76.609550,7772.162391
1041.982587,-1480.411884,919.314598,6809.894666
1041.982916,-1406.391290,1455.581446,6661.853478
1041.983246,-518.144159,1149.143247,6661.853478
1041.983576,-222.061783,1991.848295,6217.729913
1041.983905,814.226536,612.876398,6883.915261
1041.984235,1480.411884,-536.266849,8660.409521
1041.984565,1258.350101,536.266849,10955.047942
1041.984894,-296.082377,1378.971896,12361.439231
1041.985224,-1924.535449,1149.143247,13545.768739
1041.985554,-2886.803174,1838.629195,14211.954086
1041.985883,-3034.844362,3064.381992,14137.933492
1041.986213,-2220.617826,1838.629195,12213.398043
1041.986543,-814.226536,-1072.533697,9252.574275
1041.986873,296.082377,-2298.286494,7476.080014
1041.987202,-296.082377,-919.314598,6365.771101
1041.987532,-370.102971,229.828649,6957.935855
1041.987862,-1036.288319,1685.410096,7031.956449
1041.988191,-1332.370696,612.876398,6143.709319
1041.988521,-962.267725,-919.314598,6439.791695
1041.988851,222.061783,-1838.629195,9030.512492
1041.989180,740.205942,-1838.629195,11103.089130
1041.989510,-296.082377,-842.705048,12805.562797
1041.989840,-2738.761985,153.219100,13249.686362
1041.990169,-4737.318029,1302.362347,14211.954086
1041.990499,-4219.173869,2145.067394,15100.201217
1041.990829,-2590.720797,1838.629195,13471.748144
1041.991158,-962.267725,459.657299,10140.821405
1041.991488,0.000000,-1608.800546,7476.080014
1041.991818,814.226536,-1685.410096,6735.874072
1041.992147,740.205942,0.000000,6809.894666
1041.992477,592.164754,1685.410096,6809.894666
1041.992807,296.082377,1455.581446,6587.832884
1041.993137,814.226536,76.609550,7624.121203
1041.993466,1036.288319,-229.828649,9622.677246
1041.993796,-296.082377,0.000000,10362.883188
1041.994126,-1480.411884,459.657299,11325.150913
1041.994455,-2738.761985,1225.752797,12065.356855
1041.994785,-3923.091493,2911.162892,12657.521608
1041.995115,-4071.132681,2681.334243,12435.459826
1041.995444,-3182.885551,995.924147,10732.986159
1041.995774,-2664.741391,0.000000,7994.224174
1041.996104,-1850.514855,229.828649,6735.874072
1041.996433,-740.205942,919.314598,6513.812290
1041.996763,-296.082377,1685.410096,6143.709319
1041.997093,-148.041188,2221.676944,5329.482782
1041.997422,222.061783,2145.067394,5033.400406
1041.997752,1258.350101,766.095498,6291.750507
1041.998082,1776.494261,459.657299,8734.430116
1041.998411,740.205942,995.924147,10955.047942
1041.998741,-1184.329507,1532.190996,12065.356855
1041.999071,-2442.679609,2221.676944,13101.645173
1041.999400,-2960.823768,2604.724693,12953.603985
1041.999730,-2664.741391,2757.943793,12583.501014
1042.000060,-1702.473667,766.095498,11103.089130
1042.000389,-1036.288319,-306.438199,9400.615463
1042.000719,-444.123565,-229.828649,7994.224174
1042.001049,-888.247130,766.095498,7476.080014
1042.001378,-444.123565,1378.971896,7846.182985
1042.001708,-962.267725,1608.800546,7105.977043
1042.002038,-740.205942,1149.143247,7254.018232
1042.002367,-148.041188,0.000000,8512.368333
1042.002697,-222.061783,0.000000,10436.903782
1042.003027,-222.061783,-459.657299,11843.295072
1042.003356,-2220.617826,-229.828649,12805.562797
1042.003686,-3108.864956,919.314598,13693.809927
1042.004016,-3552.988522,2145.067394,13767.830521
1042.004345,-2738.761985,1149.143247,12509.480420
1042.004675,-1924.535449,536.266849,10955.047942
1042.005005,-888.247130,229.828649,9696.697840
1042.005334,-148.041188,612.876398,7920.203579
1042.005664,666.185348,0.000000,6735.874072
1042.005994,740.205942,383.047749,6291.750507
1042.006323,888.247130,2298.286494,6513.812290
1042.006653,888.247130,1762.019645,6365.771101
1042.006983,1036.288319,766.095498,7254.018232
1042.007312,592.164754,153.219100,8734.430116
1042.007642,-1036.288319,76.609550,10362.883188
1042.007972,-2590.720797,153.219100,11843.295072
1042.008301,-3404.947333,1072.533697,13027.624579
1042.008631,-4589.276840,3064.381992,12583.501014
1042.008961,-3923.091493,2145.067394,10436.903782
1042.009290,-3330.926739,-153.219100,9326.594869
1042.009620,-2368.659014,-766.095498,8438.347739
1042.009950,-1554.432478,689.485948,8364.327145
1042.010279,-740.205942,1532.190996,6883.915261
1042.010609,-370.102971,1072.533697,5995.668130
1042.010939,148.041188,766.095498,6365.771101
1042.011268,592.164754,689.485948,7254.018232
1042.011598,1036.288319,919.314598,8364.327145
1042.011928,814.226536,1072.533697,10510.924376
1042.012257,-222.061783,1302.362347,11769.274478
1042.012587,-1924.535449,1225.752797,12953.603985
1042.012917,-2516.700203,1762.019645,13693.809927
1042.013246,-2516.700203,1455.581446,12953.603985
1042.013576,-1924.535449,1225.752797,11325.150913
1042.013906,-1332.370696,689.485948,9622.677246
1042.014235,-1258.350101,0.000000,8660.409521
1042.014565,-962.267725,-153.219100,7920.203579
1042.014895,-962.267725,229.828649,7105.977043
1042.015224,-370.102971,459.657299,6809.894666
1042.015554,-592.164754,1455.581446,6735.874072
1042.015884,0.000000,459.657299,7402.059420
1042.016213,296.082377,-689.485948,8882.471304
1042.016543,74.020594,0.000000,10584.944971
1042.016873,-814.226536,766.095498,12509.480420
1042.017202,-2590.720797,1685.410096,13841.851115
1042.017532,-3404.947333,2451.505594,13841.851115
1042.017862,-3182.885551,2298.286494,12583.501014
1042.018191,-1480.411884,1302.362347,10955.047942
1042.018521,-296.082377,229.828649,9622.677246
1042.018851,-370.102971,0.000000,8512.368333
1042.019180,-1036.288319,536.266849,7402.059420
1042.019510,-814.226536,995.924147,7179.997637
1042.019840,-666.185348,1455.581446,6883.915261
1042.020169,-296.082377,1762.019645,6365.771101
1042.020499,592.164754,153.219100,6365.771101
1042.020829,1628.453072,-689.485948,9030.512492
1042.021158,370.102971,766.095498,10881.027347
1042.021488,-1184.329507,2068.457845,11843.295072
1042.021818,-2886.803174,2911.162892,13027.624579
1042.022147,-3256.906145,3064.381992,13027.624579
1042.022477,-3256.906145,3830.477490,12509.480420
1042.022807,-2146.597232,2528.115143,11029.068536
1042.023136,-1258.350101,766.095498,8512.368333
1042.023466,-1924.535449,536.266849,7179.997637
1042.023796,-1406.391290,842.705048,6513.812290
1042.024125,-1850.514855,1302.362347,6365.771101
1042.024455,-1480.411884,1762.019645,6809.894666
1042.024785,-1110.308913,1991.848295,6143.709319
1042.025114,0.000000,689.485948,6291.750507
1042.025444,1332.370696,-1072.533697,8142.265362
1042.025774,1258.350101,383.047749,10362.883188
1042.026103,-444.123565,2068.457845,11843.295072
1042.026433,-2368.659014,2681.334243,12805.562797
1042.026763,-3404.947333,3140.991542,13397.727550
1042.027092,-2812.782580,2911.162892,13397.727550
1042.027422,-1258.350101,1915.238745,11547.212695
1042.027752,-592.164754,-229.828649,9178.553681
1042.028081,0.000000,-536.266849,7698.141797
1042.028411,-296.082377,-229.828649,7031.956449
1042.028741,-518.144159,153.219100,7105.977043
1042.029070,-740.205942,1532.190996,7624.121203
1042.029400,-444.123565,1838.629195,7328.038826
1042.029730,-222.061783,612.876398,7105.977043
1042.030059,592.164754,-536.266849,8364.327145
1042.030389,1258.350101,-995.924147,10584.944971
1042.030719,-222.061783,-689.485948,12139.377449
1042.031048,-2960.823768,536.266849,13397.727550
1042.031378,-4885.359217,2451.505594,14359.995275
1042.031708,-5403.503377,2604.724693,13619.789333
1042.032037,-3701.029710,1072.533697,12287.418637
