#time,accel_x,accel_y,accel_z
1099.677626,-740.205942,995.924147,9622.677246
1099.677956,-962.267725,919.314598,9474.636058
1099.678286,-740.205942,842.705048,9474.636058
1099.678615,-1110.308913,1072.533697,9400.615463
1099.678945,-962.267725,842.705048,9474.636058
1099.679275,-962.267725,1149.143247,9400.615463
1099.679605,-1036.288319,1072.533697,9326.594869
1099.679934,-962.267725,1149.143247,9622.677246
1099.680264,-1036.288319,1149.143247,9770.718434
1099.680594,-1184.329507,919.314598,9622.677246
1099.680924,-1110.308913,1072.533697,9770.718434
1099.681254,-962.267725,1149.143247,9178.553681
1099.681583,-1110.308913,766.095498,9622.677246
1099.681913,-1110.308913,842.705048,9548.656652
1099.682243,-1110.308913,1072.533697,9548.656652
1099.682573,-1184.329507,536.266849,9474.636058
1099.682902,-1184.329507,995.924147,9474.636058
1099.683232,-1184.329507,842.705048,9622.677246
1099.683562,-1110.308913,995.924147,9548.656652
1099.683892,-1110.308913,919.314598,9474.636058
1099.684221,-962.267725,1072.533697,9548.656652
1099.684551,-962.267725,995.924147,9400.615463
1099.684881,-814.226536,842.705048,9622.677246
1099.685211,-1036.288319,1072.533697,9474.636058
1099.685541,-962.267725,1072.533697,9548.656652
1099.685870,-962.267725,689.485948,9622.677246
1099.686200,-962.267725,689.485948,9548.656652
1099.686530,-1258.350101,1225.752797,9474.636058
1099.686860,-1110.308913,689.485948,9400.615463
1099.687189,-962.267725,995.924147,9474.636058
1099.687519,-1110.308913,919.314598,9474.636058
1099.687849,-1110.308913,842.705048,9474.636058
1099.688179,-962.267725,383.047749,9178.553681
1099.688509,-1036.288319,995.924147,9548.656652
1099.688838,-1036.288319,842.705048,9474.636058
1099.689168,-1110.308913,995.924147,9548.656652
1099.689498,-1110.308913,1072.533697,9548.656652
1099.689828,-740.205942,842.705048,9104.533087
1099.690157,-1036.288319,842.705048,9326.594869
1099.690487,-1110.308913,766.095498,9622.677246
1099.690817,-1036.288319,1149.143247,9474.636058
1099.691147,-962.267725,1072.533697,9696.697840
1099.691477,-1184.329507,995.924147,9474.636058
1099.691806,-1110.308913,1149.143247,9474.636058
1099.692136,-962.267725,919.314598,9474.636058
1099.692466,-1036.288319,766.095498,9622.677246
1099.692796,-1110.308913,919.314598,9548.656652
1099.693125,-1036.288319,1072.533697,9622.677246
1099.693455,-666.185348,919.314598,9622.677246
1099.693785,-962.267725,1072.533697,9326.594869
1099.694115,-962.267725,1149.143247,9696.697840
1099.694445,-1258.350101,1072.533697,9474.636058
1099.694774,-1110.308913,766.095498,9474.636058
1099.695104,-740.205942,995.924147,9474.636058
1099.695434,-1036.288319,995.924147,9474.636058
1099.695764,-1036.288319,689.485948,9548.656652
1099.696093,-888.247130,689.485948,9622.677246
1099.696423,-1110.308913,459.657299,9400.615463
1099.696753,-1110.308913,1378.971896,9326.594869
1099.697083,-1332.370696,689.485948,9104.533087
1099.697413,-962.267725,919.314598,9474.636058
1099.697742,-1110.308913,995.924147,9400.615463
1099.698072,-962.267725,689.485948,9474.636058
1099.698402,-888.247130,689.485948,9474.636058
1099.698732,-740.205942,842.705048,9400.615463
1099.699061,-1258.350101,842.705048,9252.574275
1099.699391,-1110.308913,842.705048,9622.677246
1099.699721,-962.267725,919.314598,9474.636058
1099.700051,-962.267725,919.314598,9696.697840
1099.700380,-1406.391290,689.485948,9474.636058
1099.700710,-592.164754,1072.533697,9844.739029
1099.701040,-888.247130,919.314598,9622.677246
1099.701370,-1184.329507,919.314598,9400.615463
1099.701700,-1036.288319,919.314598,9474.636058
1099.702029,-888.247130,1072.533697,9326.594869
1099.702359,0.000000,536.266849,8956.491898
1099.702689,592.164754,536.266849,9252.574275
1099.703019,888.247130,689.485948,8956.491898
1099.703348,888.247130,383.047749,9104.533087
1099.703678,592.164754,459.657299,10066.800811
1099.704008,-370.102971,1072.533697,10214.842000
1099.704338,-1258.350101,1225.752797,10288.862594
1099.704668,-1036.288319,459.657299,10881.027347
1099.704997,-666.185348,306.438199,10362.883188
1099.705327,148.041188,306.438199,9474.636058
1099.705657,1480.411884,-306.438199,9252.574275
1099.705987,2368.659014,76.609550,8660.409521
1099.706316,3034.844362,612.876398,8438.347739
1099.706646,3478.967927,1685.410096,8808.450710
1099.706976,3627.009116,2068.457845,9178.553681
1099.707306,3849.070898,2221.676944,9622.677246
1099.707636,3552.988522,1685.410096,9622.677246
1099.707965,2590.720797,1302.362347,10066.800811
1099.708295,1850.514855,842.705048,10140.821405
1099.708625,1480.411884,229.828649,10807.006753
1099.708955,1036.288319,0.000000,10584.944971
1099.709284,1554.432478,153.219100,9992.780217
1099.709614,1924.535449,-306.438199,9326.594869
1099.709944,2886.803174,-229.828649,9104.533087
1099.710274,3552.988522,612.876398,8882.471304
1099.710604,4145.153275,1378.971896,8882.471304
1099.710933,3997.112087,2298.286494,9622.677246
1099.711263,2812.782580,3524.039291,9770.718434
1099.711593,1628.453072,2987.772442,10288.862594
1099.711923,-296.082377,2528.115143,10066.800811
1099.712252,-1628.453072,1991.848295,9548.656652
1099.712582,-1702.473667,995.924147,8734.430116
1099.712912,-444.123565,-383.047749,7772.162391
1099.713242,1110.308913,-1302.362347,7031.956449
1099.713572,2960.823768,-1072.533697,6587.832884
1099.713901,3701.029710,-383.047749,6957.935855
1099.714231,4145.153275,1225.752797,8364.327145
1099.714561,3330.926739,3370.820191,10436.903782
1099.714891,1924.535449,4596.572988,11843.295072
1099.715220,666.185348,4213.525239,12657.521608
1099.715550,-222.061783,2757.943793,12953.603985
1099.715880,-740.205942,612.876398,12213.398043
1099.716210,-1036.288319,-1225.752797,11621.233289
1099.716540,-1332.370696,-1762.019645,10066.800811
1099.716869,0.000000,-2374.896044,8660.409521
1099.717199,1480.411884,-2068.457845,7994.224174
1099.717529,3034.844362,-919.314598,7550.100608
1099.717859,4219.173869,306.438199,7105.977043
1099.718188,4589.276840,1838.629195,7105.977043
1099.718518,4367.215058,2911.162892,7624.121203
1099.718848,3849.070898,3447.429741,9030.512492
1099.719178,3182.885551,3447.429741,10584.944971
1099.719507,2294.638420,3140.991542,11695.253884
1099.719837,1258.350101,2298.286494,11547.212695
1099.720167,296.082377,76.609550,11399.171507
1099.720497,-814.226536,-1149.143247,11251.130318
1099.720827,-1184.329507,-1685.410096,10807.006753
1099.721156,-1184.329507,-1608.800546,10807.006753
1099.721486,0.000000,-1685.410096,10436.903782
1099.721816,1850.514855,-766.095498,9770.718434
1099.722146,2442.679609,383.047749,8734.430116
1099.722475,3330.926739,842.705048,7920.203579
1099.722805,4737.318029,1378.971896,7846.182985
1099.723135,5921.647536,1455.581446,7920.203579
1099.723465,5625.565159,1685.410096,8142.265362
1099.723795,4737.318029,1991.848295,8586.388927
1099.724124,3256.906145,1378.971896,8882.471304
1099.724454,1628.453072,1149.143247,9770.718434
1099.724784,0.000000,1608.800546,10584.944971
1099.725114,-592.164754,1302.362347,11621.233289
1099.725443,-888.247130,689.485948,11103.089130
1099.725773,-592.164754,306.438199,10140.821405
1099.726103,666.185348,0.000000,8734.430116
1099.726433,2146.597232,-536.266849,7624.121203
1099.726763,3552.988522,-766.095498,7402.059420
1099.727092,3256.906145,1072.533697,7994.224174
1099.727422,2812.782580,1838.629195,9252.574275
1099.727752,2368.659014,1991.848295,10140.821405
1099.728082,1628.453072,1685.410096,10807.006753
1099.728411,592.164754,1608.800546,10658.965565
1099.728741,592.164754,919.314598,11399.171507
1099.729071,296.082377,0.000000,11325.150913
1099.729401,0.000000,-229.828649,10436.903782
1099.729731,0.000000,0.000000,9696.697840
1099.730060,962.267725,153.219100,9252.574275
1099.730390,2442.679609,459.657299,9030.512492
1099.730720,4737.318029,1991.848295,8438.347739
1099.731050,6661.853478,2757.943793,8068.244768
1099.731379,7624.121203,2911.162892,7994.224174
1099.731709,7254.018232,2987.772442,9030.512492
1099.732039,5625.565159,4060.306139,10214.842000
1099.732369,2368.659014,3677.258390,10881.027347
1099.732699,0.000000,2451.505594,12805.562797
1099.733028,-3182.885551,919.314598,13693.809927
1099.733358,-5699.585753,0.000000,13027.624579
1099.733688,-7105.977043,-1991.848295,10955.047942
1099.734018,-6513.812290,-2834.553343,8512.368333
1099.734347,-3256.906145,-3907.087040,5033.400406
1099.734677,1924.535449,-3294.210641,3034.844362
1099.735007,7031.956449,-2528.115143,3034.844362
1099.735337,9992.780217,919.314598,4219.173869
1099.735666,10658.965565,4826.401637,5551.544565
1099.735996,9622.677246,6588.421283,7476.080014
1099.736326,7846.182985,7507.735880,11695.253884
1099.736656,4441.235652,8963.317327,14582.057057
1099.736986,0.000000,5975.544884,16432.571912
1099.737315,-3478.967927,0.000000,17098.757260
1099.737645,-6217.729913,-1838.629195,15988.448347
1099.737975,-7031.956449,-2834.553343,13471.748144
1099.738305,-3849.070898,-5745.716235,10881.027347
1099.738634,814.226536,-6511.811733,7105.977043
1099.738964,4885.359217,-5439.278036,2812.782580
1099.739294,9474.636058,-4136.915689,-0.000000
1099.739624,11917.315666,-995.924147,2738.761985
1099.739954,11177.109724,4749.792088,7476.080014
1099.740283,6735.874072,8656.879127,11103.089130
1099.740613,1036.288319,9346.365076,13175.665768
1099.740943,-2294.638420,7737.564530,14211.954086
1099.741273,-3256.906145,3140.991542,14730.098246
1099.741602,-2516.700203,-1225.752797,13397.727550
1099.741932,-1480.411884,-4903.011187,10436.903782
1099.742262,148.041188,-7431.126331,7105.977043
1099.742592,1850.514855,-7124.688131,5255.462188
1099.742922,2738.761985,-4596.572988,6587.832884
1099.743251,2960.823768,-306.438199,8512.368333
1099.743581,2368.659014,3217.601092,9696.697840
1099.743911,3108.864956,5439.278036,10732.986159
1099.744241,3923.091493,5822.325785,12139.377449
1099.744570,3034.844362,3830.477490,11991.336260
1099.744900,2220.617826,1149.143247,11325.150913
1099.745230,0.000000,-1072.533697,10881.027347
1099.745560,-1924.535449,-1455.581446,11029.068536
1099.745890,-2516.700203,-1608.800546,9770.718434
1099.746219,-1998.556043,-3064.381992,7105.977043
1099.746549,888.247130,-4060.306139,5625.565159
1099.746879,4663.297435,-3064.381992,5107.421000
1099.747209,8512.368333,76.609550,6291.750507
1099.747538,9918.759623,3677.258390,7105.977043
1099.747868,8142.265362,5822.325785,8586.388927
1099.748198,4959.379811,7124.688131,10807.006753
1099.748527,1776.494261,7660.954980,12879.583391
1099.748857,-592.164754,6052.154434,15026.180623
1099.749187,-2664.741391,2451.505594,16728.654289
1099.749516,-5329.482782,-1685.410096,15026.180623
1099.749846,-6957.935855,-3447.429741,11621.233289
1099.750176,-5773.606348,-6205.373534,9770.718434
1099.750505,-4367.215058,-5822.325785,8660.409521
1099.750835,-2886.803174,-3064.381992,5033.400406
1099.751165,592.164754,-919.314598,1850.514855
1099.751494,6291.750507,76.609550,1850.514855
1099.751824,10584.944971,2528.115143,5255.462188
1099.752154,10955.047942,7431.126331,8586.388927
1099.752483,9696.697840,9346.365076,9548.656652
1099.752813,7476.080014,9116.536426,10288.862594
1099.753143,5773.606348,8503.660028,11547.212695
1099.753472,4071.132681,4136.915689,15174.221811
1099.753802,1998.556043,153.219100,16728.654289
1099.754131,-1480.411884,612.876398,14359.995275
1099.754461,-3404.947333,-612.876398,11473.192101
1099.754791,-2960.823768,-3294.210641,10955.047942
1099.755120,-2812.782580,-3064.381992,9474.636058
1099.755450,-2590.720797,-842.705048,7328.038826
1099.755780,-148.041188,-919.314598,4145.153275
1099.756109,4219.173869,612.876398,1110.308913
1099.756439,8882.471304,2528.115143,1110.308913
1099.756769,11843.295072,766.095498,4885.359217
1099.757098,9844.739029,2834.553343,7328.038826
1099.757428,6291.750507,7201.297681,8068.244768
1099.757758,4737.318029,5592.497135,10658.965565
1099.758087,3034.844362,3140.991542,14730.098246
1099.758417,-1480.411884,2298.286494,16580.613101
1099.758747,-4219.173869,0.000000,15988.448347
1099.759076,-5477.523971,-5209.449386,13915.871710
1099.759406,-6439.791695,-4903.011187,12953.603985
1099.759736,-7476.080014,-2221.676944,12953.603985
1099.760065,-5181.441594,-3140.991542,11177.109724
1099.760395,370.102971,-4366.744339,4293.194464
1099.760725,7254.018232,-3677.258390,1850.514855
1099.761054,12583.501014,-2145.067394,3552.988522
1099.761384,12805.562797,2911.162892,6439.791695
1099.761714,9030.512492,7354.516781,8586.388927
1099.762043,7031.956449,8197.221829,10510.924376
1099.762373,5403.503377,8197.221829,13915.871710
1099.762702,1258.350101,7660.954980,18061.024985
1099.763032,-4441.235652,4290.134789,15988.448347
1099.763362,-8956.491898,-2987.772442,12731.542202
1099.763691,-10214.842000,-5822.325785,11769.274478
1099.764021,-9918.759623,-5362.668486,10214.842000
1099.764351,-6957.935855,-6818.249932,8882.471304
1099.764680,-4145.153275,-6052.154434,6439.791695
1099.765010,-592.164754,-3830.477490,2960.823768
1099.765340,5181.441594,-2068.457845,2294.638420
1099.765669,9992.780217,2298.286494,5107.421000
1099.765999,10436.903782,8350.440928,7994.224174
1099.766329,7846.182985,11874.480219,10584.944971
1099.766658,3330.926739,9806.022374,12731.542202
1099.766988,-444.123565,9193.145976,13027.624579
1099.767318,-3552.988522,5286.058936,13767.830521
1099.767647,-5255.462188,-612.876398,14137.933492
1099.767977,-6365.771101,-2757.943793,12287.418637
1099.768307,-6365.771101,-6435.202183,8290.306550
1099.768636,-3256.906145,-8044.002729,3775.050304
1099.768966,888.247130,-7277.907231,1258.350101
1099.769296,5329.482782,-4213.525239,2220.617826
1099.769625,8660.409521,0.000000,5625.565159
1099.769955,7624.121203,6435.202183,9326.594869
1099.770284,4885.359217,11568.042020,10955.047942
1099.770614,1332.370696,11108.384721,12361.439231
1099.770944,-1702.473667,9806.022374,14063.912898
1099.771273,-3034.844362,5056.230287,15914.427753
1099.771603,-5181.441594,-2221.676944,14952.160028
1099.771933,-9474.636058,-2604.724693,11325.150913
1099.772262,-10140.821405,-4826.401637,7328.038826
1099.772592,-6217.729913,-9422.974625,5625.565159
1099.772922,-1110.308913,-8810.098227,6957.935855
1099.773251,1998.556043,-3983.696590,7328.038826
1099.773581,1924.535449,1378.971896,6661.853478
1099.773911,222.061783,5132.839837,7328.038826
1099.774240,1850.514855,9882.631924,10140.821405
1099.774570,2294.638420,9806.022374,14952.160028
1099.774900,1776.494261,7431.126331,16728.654289
1099.775229,-370.102971,6435.202183,15174.221811
1099.775559,-2664.741391,2528.115143,11029.068536
1099.775889,-3256.906145,-2604.724693,8438.347739
1099.776218,-1184.329507,-6128.763984,8142.265362
1099.776548,444.123565,-6818.249932,9326.594869
1099.776878,296.082377,-3830.477490,7328.038826
1099.777207,-1332.370696,-1838.629195,5995.668130
1099.777537,-1110.308913,1149.143247,7624.121203
1099.777867,814.226536,5592.497135,8882.471304
1099.778196,1628.453072,6435.202183,9474.636058
1099.778526,1036.288319,5439.278036,8956.491898
1099.778855,-1924.535449,3677.258390,8808.450710
1099.779185,-4071.132681,2451.505594,9474.636058
1099.779515,-4367.215058,1072.533697,9178.553681
1099.779844,-3404.947333,-2604.724693,8438.347739
1099.780174,-2664.741391,-5439.278036,7698.141797
1099.780504,-3256.906145,-4903.011187,7476.080014
1099.780833,-3478.967927,-3753.867940,7550.100608
1099.781163,-3034.844362,-2451.505594,7550.100608
1099.781493,-2368.659014,459.657299,9992.780217
1099.781822,-592.164754,3524.039291,11103.089130
1099.782152,1184.329507,3830.477490,11103.089130
1099.782482,2220.617826,2451.505594,9844.739029
1099.782811,2220.617826,4060.306139,8438.347739
1099.783141,2886.803174,2221.676944,7846.182985
1099.783471,3923.091493,76.609550,9622.677246
1099.783800,3108.864956,-612.876398,11991.336260
1099.784130,-1628.453072,-536.266849,12435.459826
1099.784460,-6735.874072,-612.876398,11991.336260
1099.784789,-8142.265362,-306.438199,13397.727550
1099.785119,-4959.379811,1149.143247,13915.871710
1099.785449,-2664.741391,-459.657299,11399.171507
1099.785778,-2220.617826,-2145.067394,8808.450710
1099.786108,-1702.473667,-842.705048,7846.182985
1099.786438,74.020594,1532.190996,8882.471304
1099.786767,2516.700203,3830.477490,9400.615463
1099.787097,2886.803174,3600.648841,9326.594869
1099.787426,2590.720797,4060.306139,8808.450710
1099.787756,518.144159,2681.334243,8586.388927
1099.788086,-1554.432478,766.095498,10066.800811
1099.788415,-1702.473667,3370.820191,11251.130318
1099.788745,-1924.535449,3677.258390,10881.027347
1099.789075,-2368.659014,536.266849,8290.306550
1099.789404,-2664.741391,-1532.190996,6587.832884
1099.789734,-1332.370696,-1378.971896,6217.729913
1099.790064,1036.288319,919.314598,6217.729913
1099.790393,3108.864956,1378.971896,6661.853478
1099.790723,3256.906145,2451.505594,6957.935855
1099.791053,1628.453072,3447.429741,7328.038826
1099.791382,-1776.494261,2374.896044,7772.162391
1099.791712,-2664.741391,3294.210641,9474.636058
1099.792042,-3552.988522,2528.115143,10658.965565
1099.792371,-3923.091493,1378.971896,11177.109724
1099.792701,-4145.153275,-1991.848295,9548.656652
1099.793031,-4219.173869,-4213.525239,8290.306550
1099.793360,-3330.926739,-2528.115143,7550.100608
1099.793690,-1702.473667,-229.828649,8142.265362
1099.794020,1184.329507,-229.828649,10732.986159
1099.794349,2072.576638,2911.162892,10436.903782
1099.794679,148.041188,2987.772442,10436.903782
1099.795009,-962.267725,919.314598,12287.418637
1099.795338,-1702.473667,4136.915689,14730.098246
1099.795668,-2812.782580,5286.058936,14804.118840
1099.795997,-3108.864956,1838.629195,13619.789333
1099.796327,-3404.947333,-2298.286494,11325.150913
1099.796657,-2442.679609,-3140.991542,9104.533087
1099.796986,0.000000,-3524.039291,8512.368333
1099.797316,1776.494261,-2757.943793,9770.718434
1099.797646,2664.741391,766.095498,10214.842000
1099.797975,1924.535449,2757.943793,9400.615463
1099.798305,-370.102971,3677.258390,9030.512492
1099.798635,-2368.659014,4519.963438,8808.450710
1099.798964,-2738.761985,4060.306139,10584.944971
1099.799294,-1924.535449,3983.696590,11621.233289
1099.799624,-3182.885551,3830.477490,9178.553681
1099.799953,-3701.029710,-1608.800546,5921.647536
1099.800283,-3182.885551,-5209.449386,4811.338623
1099.800613,-1554.432478,-2528.115143,6513.812290
1099.800942,296.082377,-1608.800546,7846.182985
1099.801272,0.000000,-919.314598,7698.141797
1099.801602,-2368.659014,2451.505594,7179.997637
1099.801931,-3108.864956,4290.134789,7772.162391
1099.802261,-1406.391290,3294.210641,9622.677246
1099.802591,592.164754,2681.334243,10584.944971
1099.802920,148.041188,3907.087040,9178.553681
1099.803250,-666.185348,1072.533697,7105.977043
1099.803579,-1184.329507,-2221.676944,6809.894666
1099.803909,148.041188,-919.314598,7846.182985
1099.804239,888.247130,-1225.752797,9104.533087
1099.804568,222.061783,-919.314598,11177.109724
1099.804898,-1850.514855,842.705048,12213.398043
1099.805228,-3701.029710,2451.505594,12213.398043
1099.805557,-4441.235652,2911.162892,13027.624579
1099.805887,-3552.988522,2451.505594,14063.912898
1099.806217,-2220.617826,2298.286494,14211.954086
1099.806546,-2146.597232,995.924147,12509.480420
1099.806876,-2442.679609,-612.876398,9844.739029
1099.807206,-1258.350101,-1225.752797,8882.471304
1099.807535,740.205942,-842.705048,8882.471304
1099.807865,1850.514855,306.438199,10214.842000
1099.808195,1628.453072,919.314598,11029.068536
1099.808524,666.185348,1685.410096,10214.842000
1099.808854,-1406.391290,3294.210641,10288.862594
1099.809184,-1998.556043,4136.915689,11473.192101
1099.809513,-1258.350101,4673.182538,11621.233289
1099.809843,-740.205942,2604.724693,10066.800811
1099.810173,-296.082377,1225.752797,7846.182985
1099.810502,-518.144159,383.047749,5995.668130
1099.810832,296.082377,306.438199,5329.482782
1099.811162,2072.576638,0.000000,5847.626942
1099.811491,2368.659014,536.266849,6809.894666
1099.811821,814.226536,1991.848295,6217.729913
1099.812150,-1480.411884,1455.581446,6217.729913
1099.812480,-2960.823768,1991.848295,7772.162391
1099.812810,-3108.864956,3447.429741,9178.553681
1099.813139,-2812.782580,1685.410096,9696.697840
1099.813469,-3330.926739,76.609550,8216.285956
1099.813799,-4293.194464,-1072.533697,7031.956449
1099.814128,-3849.070898,-2834.553343,7179.997637
1099.814458,-814.226536,-1608.800546,9918.759623
1099.814788,1036.288319,-383.047749,10732.986159
1099.815117,888.247130,919.314598,9992.780217
1099.815447,-592.164754,1302.362347,9178.553681
1099.815777,-592.164754,842.705048,10955.047942
1099.816106,0.000000,1762.019645,13249.686362
1099.816436,-1036.288319,2681.334243,13841.851115
1099.816766,-1406.391290,1838.629195,13693.809927
1099.817095,-1850.514855,-536.266849,12435.459826
1099.817425,-1850.514855,-2221.676944,11177.109724
1099.817755,-814.226536,-2604.724693,10807.006753
1099.818084,1628.453072,-2528.115143,11991.336260
1099.818414,2812.782580,229.828649,12509.480420
1099.818744,2146.597232,2298.286494,11251.130318
1099.819073,0.000000,1608.800546,10510.924376
1099.819403,-2590.720797,2834.553343,11029.068536
1099.819733,-4293.194464,4673.182538,12361.439231
1099.820062,-3182.885551,4443.353888,12065.356855
1099.820392,-2738.761985,1685.410096,9104.533087
1099.820721,-2960.823768,-2528.115143,6661.853478
1099.821051,-3404.947333,-3830.477490,5995.668130
1099.821381,-1998.556043,-2145.067394,6587.832884
1099.821710,74.020594,-459.657299,7105.977043
1099.822040,1258.350101,-229.828649,6513.812290
1099.822370,-370.102971,2681.334243,6513.812290
1099.822699,-2368.659014,4443.353888,6661.853478
1099.823029,-1628.453072,3217.601092,8068.244768
1099.823359,-296.082377,5209.449386,8364.327145
1099.823688,0.000000,4903.011187,7920.203579
1099.824018,-2368.659014,1991.848295,6439.791695
1099.824348,-2442.679609,-1302.362347,6143.709319
1099.824677,-666.185348,-2834.553343,6957.935855
1099.825007,0.000000,-1532.190996,7920.203579
1099.825337,-666.185348,-383.047749,8734.430116
1099.825666,-592.164754,689.485948,9844.739029
1099.825996,-1702.473667,766.095498,9992.780217
1099.826326,-3627.009116,1532.190996,11917.315666
1099.826655,-4145.153275,4749.792088,13841.851115
1099.826985,-3108.864956,4366.744339,13989.892304
1099.827315,-2590.720797,1072.533697,12805.562797
1099.827644,-3182.885551,-383.047749,11177.109724
1099.827974,-2146.597232,-2451.505594,10510.924376
1099.828303,0.000000,-2528.115143,10140.821405
1099.828633,1184.329507,-1532.190996,10955.047942
1099.828963,1998.556043,306.438199,12065.356855
1099.829292,592.164754,1455.581446,11473.192101
1099.829622,-666.185348,2068.457845,11029.068536
1099.829952,-1110.308913,2757.943793,11843.295072
1099.830281,-740.205942,4443.353888,12731.542202
1099.830611,-296.082377,4366.744339,11769.274478
1099.830941,148.041188,2298.286494,9622.677246
1099.831270,222.061783,-1225.752797,7550.100608
1099.831600,0.000000,-536.266849,6439.791695
1099.831930,1036.288319,995.924147,7105.977043
1099.832259,2368.659014,153.219100,7920.203579
1099.832589,1406.391290,1072.533697,7328.038826
1099.832919,-1702.473667,1838.629195,6587.832884
1099.833248,-3108.864956,2374.896044,6735.874072
1099.833578,-3034.844362,2451.505594,7698.141797
1099.833908,-2516.700203,2987.772442,8586.388927
1099.834237,-3478.967927,2987.772442,8290.306550
1099.834567,-4515.256246,766.095498,6069.688724
1099.834897,-3330.926739,-1608.800546,5107.421000
1099.835226,-666.185348,-2757.943793,6069.688724
1099.835556,1036.288319,-842.705048,7476.080014
1099.835886,1036.288319,689.485948,8364.327145
1099.836215,0.000000,919.314598,9178.553681
1099.836545,-2220.617826,1915.238745,10140.821405
1099.836874,-3404.947333,3677.258390,11843.295072
1099.837204,-2590.720797,3600.648841,13027.624579
1099.837534,-1850.514855,1838.629195,13545.768739
1099.837863,-2072.576638,-306.438199,12139.377449
1099.838193,-2664.741391,-2221.676944,10436.903782
1099.838523,-666.185348,-2987.772442,10510.924376
1099.838852,1332.370696,-2068.457845,11991.336260
1099.839182,2072.576638,-383.047749,12435.459826
1099.839512,444.123565,306.438199,11843.295072
1099.839841,-1998.556043,1378.971896,12213.398043
1099.840171,-2960.823768,2987.772442,13397.727550
1099.840501,-2960.823768,4136.915689,12879.583391
1099.840830,-2368.659014,2451.505594,12953.603985
1099.841160,-1998.556043,919.314598,11177.109724
1099.841490,-1258.350101,-1532.190996,9178.553681
1099.841819,-962.267725,-2528.115143,7031.956449
1099.842149,-444.123565,-1762.019645,6439.791695
1099.842479,1406.391290,459.657299,8068.244768
1099.842808,2664.741391,2068.457845,8512.368333
1099.843138,1406.391290,2681.334243,7920.203579
1099.843468,-740.205942,3677.258390,6439.791695
1099.843797,-1628.453072,4519.963438,6587.832884
1099.844127,-740.205942,3524.039291,8216.285956
1099.844457,-1184.329507,2145.067394,9474.636058
1099.844786,-2812.782580,1685.410096,7550.100608
1099.845116,-4737.318029,-689.485948,4737.318029
1099.845445,-3552.988522,-3064.381992,4071.132681
1099.845775,-1110.308913,-2374.896044,6587.832884
1099.846105,1110.308913,76.609550,7772.162391
1099.846434,1036.288319,229.828649,7550.100608
1099.846764,-1258.350101,76.609550,7328.038826
1099.847094,-3256.906145,3753.867940,9474.636058
1099.847423,-3108.864956,4903.011187,11843.295072
1099.847753,-1702.473667,3447.429741,13249.686362
1099.848083,-1850.514855,2604.724693,12731.542202
1099.848412,-2960.823768,1225.752797,10584.944971
1099.848742,-2738.761985,-2298.286494,9622.677246
1099.849072,-592.164754,-3370.820191,11029.068536
1099.849401,888.247130,-995.924147,12879.583391
1099.849731,888.247130,306.438199,12657.521608
1099.850061,-518.144159,1072.533697,12065.356855
1099.850390,-1554.432478,1915.238745,12139.377449
1099.850720,-1850.514855,3294.210641,13175.665768
1099.851050,-2072.576638,3830.477490,13323.706956
1099.851379,-1554.432478,3753.867940,13175.665768
1099.851709,-1036.288319,1838.629195,11473.192101
1099.852039,-1332.370696,153.219100,9400.615463
1099.852368,-1480.411884,-919.314598,7402.059420
1099.852698,592.164754,-995.924147,7624.121203
1099.853028,2294.638420,0.000000,8216.285956
1099.853357,2220.617826,2604.724693,7624.121203
1099.853687,222.061783,2451.505594,6513.812290
1099.854017,-1554.432478,2451.505594,6809.894666
1099.854346,-2664.741391,3983.696590,7698.141797
1099.854676,-2368.659014,4903.011187,9770.718434
1099.855006,-1628.453072,3217.601092,10066.800811
1099.855335,-2368.659014,1762.019645,7402.059420
1099.855665,-3256.906145,-459.657299,4663.297435
1099.855995,-1850.514855,-2834.553343,3552.988522
1099.856324,1110.308913,-2681.334243,5255.462188
1099.856654,3330.926739,153.219100,7624.121203
1099.856984,1480.411884,2068.457845,7105.977043
1099.857313,-1628.453072,2451.505594,6957.935855
1099.857643,-2738.761985,2145.067394,9326.594869
1099.857973,-2220.617826,3217.601092,12361.439231
1099.858303,-1924.535449,3140.991542,13175.665768
1099.858632,-2442.679609,842.705048,11769.274478
1099.858962,-2664.741391,-1302.362347,9770.718434
1099.859292,-2516.700203,-3140.991542,8216.285956
1099.859621,-1776.494261,-3907.087040,9178.553681
1099.859951,-592.164754,-2451.505594,12139.377449
1099.860281,666.185348,1072.533697,13693.809927
1099.860610,-592.164754,1149.143247,12065.356855
1099.860940,-2368.659014,0.000000,11917.315666
1099.861270,-2738.761985,2145.067394,13619.789333
1099.861599,-1628.453072,3600.648841,14952.160028
1099.861929,0.000000,1225.752797,14359.995275
1099.862259,-518.144159,229.828649,12287.418637
1099.862588,-1702.473667,229.828649,10436.903782
1099.862918,-962.267725,-842.705048,10066.800811
1099.863248,1628.453072,-2068.457845,9770.718434
1099.863578,3108.864956,306.438199,9178.553681
1099.863907,2590.720797,1608.800546,7105.977043
1099.864237,2294.638420,1302.362347,7105.977043
1099.864567,740.205942,2451.505594,7920.203579
1099.864896,-666.185348,4826.401637,9104.533087
1099.865226,-1258.350101,4443.353888,9326.594869
1099.865556,-1554.432478,3140.991542,8512.368333
1099.865885,-2368.659014,1378.971896,6365.771101
1099.866215,-2368.659014,-1302.362347,4737.318029
1099.866545,-1554.432478,-2221.676944,4515.256246
1099.866874,-370.102971,-919.314598,5329.482782
1099.867204,370.102971,0.000000,7328.038826
1099.867534,-1406.391290,1685.410096,7105.977043
1099.867863,-4515.256246,3140.991542,7328.038826
1099.868193,-4811.338623,3064.381992,8586.388927
1099.868523,-3627.009116,2528.115143,9918.759623
1099.868853,-2368.659014,2604.724693,10584.944971
1099.869182,-2146.597232,689.485948,8364.327145
1099.869512,-1998.556043,-2221.676944,7328.038826
1099.869842,-1258.350101,-2451.505594,7994.224174
1099.870171,0.000000,-995.924147,10288.862594
1099.870501,962.267725,-536.266849,12139.377449
1099.870831,888.247130,919.314598,12287.418637
1099.871160,-518.144159,1838.629195,12731.542202
1099.871490,-1850.514855,2911.162892,13397.727550
1099.871820,-1480.411884,3524.039291,14285.974681
1099.872149,-888.247130,2757.943793,15248.242405
1099.872479,-1480.411884,2298.286494,13767.830521
1099.872809,-2368.659014,306.438199,12731.542202
1099.873139,-1554.432478,-1225.752797,10436.903782
1099.873468,148.041188,-1532.190996,9474.636058
1099.873798,1036.288319,-1915.238745,8586.388927
1099.874128,1850.514855,-766.095498,7846.182985
1099.874457,1776.494261,229.828649,8438.347739
1099.874787,0.000000,1608.800546,9326.594869
1099.875117,-2738.761985,4136.915689,10732.986159
1099.875446,-3627.009116,4749.792088,11695.253884
1099.875776,-2960.823768,3140.991542,11473.192101
1099.876106,-3034.844362,1685.410096,9178.553681
1099.876435,-3108.864956,-919.314598,5477.523971
1099.876765,-1776.494261,-2298.286494,3478.967927
1099.877095,888.247130,-2834.553343,3849.070898
1099.877424,2590.720797,-1915.238745,5477.523971
1099.877754,1406.391290,689.485948,5773.606348
1099.878084,0.000000,2145.067394,6513.812290
1099.878414,-1924.535449,2451.505594,7920.203579
1099.878743,-1702.473667,2911.162892,11177.109724
1099.879073,-1406.391290,3907.087040,11103.089130
1099.879403,-2220.617826,3600.648841,8956.491898
1099.879732,-2368.659014,-153.219100,7105.977043
1099.880062,-2146.597232,-1991.848295,6365.771101
1099.880392,-148.041188,-2528.115143,7031.956449
1099.880721,2220.617826,-3294.210641,9992.780217
1099.881051,1850.514855,-1149.143247,11843.295072
1099.881381,-814.226536,2068.457845,10955.047942
1099.881710,-1924.535449,1455.581446,11325.150913
1099.882040,-1184.329507,-612.876398,12879.583391
1099.882370,-518.144159,2451.505594,15840.407159
1099.882699,-1110.308913,4213.525239,16580.613101
1099.883029,-1332.370696,1302.362347,14804.118840
1099.883359,-1776.494261,-612.876398,11769.274478
1099.883689,-2220.617826,-1991.848295,8512.368333
1099.884018,814.226536,-2528.115143,8882.471304
1099.884348,3330.926739,-2145.067394,10732.986159
1099.884678,3404.947333,383.047749,10807.006753
1099.885007,-296.082377,2374.896044,9696.697840
1099.885337,-2886.803174,3294.210641,9770.718434
1099.885667,-3034.844362,4519.963438,11917.315666
1099.885996,-2072.576638,4519.963438,13249.686362
1099.886326,-2146.597232,3830.477490,11621.233289
1099.886656,-1850.514855,2298.286494,7772.162391
1099.886985,-2960.823768,-1378.971896,4589.276840
1099.887315,-1184.329507,-2834.553343,3923.091493
1099.887645,666.185348,-1915.238745,5699.585753
1099.887974,1332.370696,689.485948,7624.121203
1099.888304,-592.164754,3294.210641,7476.080014
1099.888634,-3404.947333,4443.353888,6217.729913
1099.888964,-3404.947333,3907.087040,6661.853478
1099.889293,-888.247130,2451.505594,7476.080014
1099.889623,444.123565,2451.505594,9104.533087
1099.889953,-666.185348,3370.820191,8660.409521
1099.890282,-2886.803174,1685.410096,5403.503377
1099.890612,-2664.741391,-306.438199,4885.359217
1099.890942,148.041188,-2298.286494,7179.997637
1099.891271,1258.350101,-1532.190996,10510.924376
1099.891601,296.082377,1072.533697,11695.253884
1099.891931,-1998.556043,2604.724693,10881.027347
1099.892260,-3775.050304,1915.238745,11029.068536
1099.892590,-3627.009116,2298.286494,12953.603985
1099.892920,-2590.720797,1915.238745,14952.160028
1099.893250,-2146.597232,383.047749,15988.448347
1099.893579,-2516.700203,1149.143247,12953.603985
1099.893909,-2960.823768,-383.047749,9844.739029
1099.894239,-814.226536,-2834.553343,8586.388927
1099.894568,1924.535449,-3907.087040,9474.636058
1099.894898,2812.782580,-1915.238745,11325.150913
1099.895228,2072.576638,2451.505594,11621.233289
1099.895557,-444.123565,3677.258390,10807.006753
1099.895887,-2294.638420,4060.306139,12953.603985
1099.896217,-1924.535449,3064.381992,14359.995275
1099.896546,-1480.411884,3753.867940,13989.892304
1099.896876,-1406.391290,2451.505594,10955.047942
1099.897206,-1850.514855,-153.219100,8216.285956
1099.897535,-1480.411884,-306.438199,5773.606348
1099.897865,-296.082377,-842.705048,4515.256246
1099.898195,814.226536,-2604.724693,4737.318029
1099.898525,1554.432478,0.000000,6217.729913
1099.898854,-666.185348,2604.724693,5995.668130
1099.899184,-2738.761985,1532.190996,6735.874072
1099.899514,-3627.009116,1838.629195,8364.327145
1099.899843,-3404.947333,4136.915689,8142.265362
1099.900173,-2886.803174,2911.162892,6069.688724
1099.900503,-2590.720797,-229.828649,4663.297435
1099.900832,-1998.556043,-1455.581446,5773.606348
1099.901162,-1406.391290,-1072.533697,6957.935855
1099.901492,-370.102971,-1838.629195,7846.182985
1099.901821,370.102971,306.438199,9548.656652
1099.902151,0.000000,1378.971896,11029.068536
1099.902481,-814.226536,766.095498,11991.336260
1099.902810,-2812.782580,1762.019645,12287.418637
1099.903140,-2294.638420,3140.991542,13323.706956
1099.903470,-370.102971,1608.800546,14582.057057
1099.903800,222.061783,0.000000,14359.995275
1099.904129,-1406.391290,153.219100,10955.047942
1099.904459,-1110.308913,-2221.676944,7624.121203
1099.904789,2072.576638,-4060.306139,8290.306550
1099.905118,5107.421000,-842.705048,10807.006753
1099.905448,5773.606348,1455.581446,12509.480420
1099.905778,1998.556043,1532.190996,11621.233289
1099.906107,-888.247130,3064.381992,13101.645173
1099.906437,-2220.617826,4749.792088,14359.995275
1099.906767,-1702.473667,4749.792088,14804.118840
1099.907096,-1628.453072,2068.457845,13693.809927
1099.907426,-1776.494261,459.657299,10140.821405
1099.907756,-2072.576638,-919.314598,5921.647536
1099.908086,-296.082377,-2834.553343,4811.338623
1099.908415,1924.535449,-2221.676944,5773.606348
1099.908745,2146.597232,536.266849,7402.059420
1099.909075,518.144159,3217.601092,7031.956449
1099.909404,-1258.350101,3524.039291,6661.853478
1099.909734,-2146.597232,4136.915689,7031.956449
1099.910064,-2072.576638,3983.696590,8068.244768
1099.910393,-2220.617826,3140.991542,9474.636058
1099.910723,-2738.761985,2834.553343,8216.285956
1099.911053,-3034.844362,1225.752797,4811.338623
1099.911382,-1702.473667,-1991.848295,3330.926739
1099.911712,148.041188,-3600.648841,4293.194464
1099.912042,1258.350101,-1991.848295,7179.997637
1099.912371,1110.308913,229.828649,8438.347739
1099.912701,74.020594,1762.019645,8660.409521
1099.913031,-2146.597232,2604.724693,10584.944971
1099.913361,-3182.885551,3907.087040,12657.521608
1099.913690,-3478.967927,4136.915689,14582.057057
1099.914020,-2368.659014,2681.334243,14508.036463
1099.914350,-3182.885551,689.485948,11991.336260
1099.914679,-2812.782580,-1149.143247,9400.615463
1099.915009,-2294.638420,-2604.724693,8808.450710
1099.915339,-370.102971,-3983.696590,10288.862594
1099.915668,814.226536,-1838.629195,11843.295072
1099.915998,148.041188,995.924147,12139.377449
1099.916328,-2072.576638,1991.848295,12213.398043
1099.916657,-3775.050304,3217.601092,12361.439231
1099.916987,-3330.926739,3524.039291,12879.583391
1099.917317,-1554.432478,1532.190996,13249.686362
1099.917646,-666.185348,383.047749,13249.686362
1099.917976,-1480.411884,1455.581446,11917.315666
1099.918306,-2368.659014,0.000000,8512.368333
1099.918636,-740.205942,-1915.238745,6883.915261
1099.918965,2442.679609,-842.705048,8142.265362
1099.919295,4515.256246,536.266849,9104.533087
1099.919625,2664.741391,612.876398,8438.347739
1099.919954,370.102971,2604.724693,7254.018232
1099.920284,-1554.432478,5898.935335,7476.080014
1099.920614,-1702.473667,5056.230287,6291.750507
1099.920943,-962.267725,2145.067394,6291.750507
1099.921273,-740.205942,459.657299,5921.647536
1099.921603,-1998.556043,0.000000,4589.276840
1099.921932,-1850.514855,-2604.724693,4367.215058
1099.922262,-1332.370696,-2374.896044,5625.565159
1099.922592,0.000000,612.876398,7476.080014
1099.922921,666.185348,-383.047749,8512.368333
1099.923251,-1184.329507,153.219100,9622.677246
1099.923581,-3034.844362,2911.162892,10510.924376
1099.923911,-4367.215058,3907.087040,12805.562797
1099.924240,-2886.803174,1762.019645,14656.077652
1099.924570,-2738.761985,2451.505594,13767.830521
1099.924900,-3256.906145,306.438199,8882.471304
1099.925229,-814.226536,-4366.744339,6883.915261
1099.925559,2442.679609,-3830.477490,7994.224174
1099.925889,4441.235652,-766.095498,10510.924376
1099.926218,4071.132681,-383.047749,12139.377449
1099.926548,1702.473667,2451.505594,12065.356855
1099.926878,0.000000,4826.401637,12509.480420
1099.927207,-148.041188,2757.943793,15026.180623
1099.927537,-1258.350101,2834.553343,16876.695478
1099.927867,-2516.700203,4596.572988,15692.365970
1099.928197,-2738.761985,459.657299,13027.624579
1099.928526,-2220.617826,-2528.115143,10140.821405
1099.928856,-2442.679609,-1378.971896,8364.327145
1099.929186,-1110.308913,-1915.238745,7698.141797
1099.929515,1554.432478,-2068.457845,7105.977043
1099.929845,2146.597232,1991.848295,6439.791695
1099.930175,1110.308913,3600.648841,5699.585753
1099.930504,-888.247130,3524.039291,7179.997637
1099.930834,-3034.844362,5362.668486,8808.450710
1099.931164,-3849.070898,6741.640382,9030.512492
1099.931493,-3108.864956,4519.963438,7402.059420
1099.931823,-2812.782580,76.609550,5921.647536
1099.932153,-3182.885551,-2374.896044,5033.400406
1099.932482,-3256.906145,-2757.943793,4663.297435
1099.932812,-1850.514855,-1378.971896,5255.462188
1099.933142,592.164754,0.000000,6883.915261
1099.933472,1480.411884,76.609550,7920.203579
1099.933801,-1110.308913,1991.848295,8290.306550
1099.934131,-3034.844362,3907.087040,9548.656652
1099.934461,-1924.535449,4903.011187,11251.130318
1099.934790,-296.082377,4749.792088,12435.459826
1099.935120,-1184.329507,3524.039291,11251.130318
1099.935450,-2368.659014,153.219100,9474.636058
1099.935779,-1850.514855,-2834.553343,7920.203579
1099.936109,-370.102971,-2911.162892,8586.388927
1099.936439,814.226536,-1225.752797,11103.089130
1099.936768,222.061783,-689.485948,12583.501014
1099.937098,-1554.432478,153.219100,12953.603985
1099.937428,-3552.988522,1072.533697,13397.727550
1099.937757,-4071.132681,2068.457845,15248.242405
1099.938087,-2812.782580,3294.210641,16062.468941
1099.938417,-2294.638420,2911.162892,15026.180623
1099.938747,-1998.556043,612.876398,11251.130318
1099.939076,-888.247130,-1378.971896,8660.409521
1099.939406,1850.514855,-2451.505594,8142.265362
1099.939736,3775.050304,-919.314598,9326.594869
1099.940065,3701.029710,459.657299,10214.842000
1099.940395,2516.700203,2068.457845,10510.924376
1099.940725,148.041188,5132.839837,8438.347739
1099.941054,-2146.597232,4903.011187,6661.853478
1099.941384,-1924.535449,2528.115143,7402.059420
1099.941714,-1258.350101,1991.848295,9178.553681
1099.942043,-2072.576638,1302.362347,8216.285956
1099.942373,-3849.070898,-1149.143247,5403.503377
1099.942703,-4293.194464,-1455.581446,4145.153275
1099.943032,-2960.823768,-1685.410096,3849.070898
1099.943362,0.000000,-2451.505594,5921.647536
1099.943692,1184.329507,-1149.143247,7328.038826
1099.944022,-740.205942,3447.429741,6587.832884
1099.944351,-2220.617826,3907.087040,7624.121203
1099.944681,-2368.659014,2757.943793,10732.986159
1099.945011,-3478.967927,4903.011187,11843.295072
1099.945340,-2812.782580,3524.039291,11399.171507
1099.945670,-1480.411884,-383.047749,9400.615463
1099.946000,-962.267725,-1532.190996,7550.100608
1099.946329,0.000000,-2221.676944,7550.100608
1099.946659,888.247130,-3294.210641,9696.697840
1099.946989,2368.659014,-689.485948,12213.398043
1099.947318,1702.473667,2221.676944,12583.501014
1099.947648,0.000000,2145.067394,13027.624579
1099.947978,-1998.556043,1532.190996,13841.851115
1099.948308,-2516.700203,3140.991542,15248.242405
1099.948637,-2294.638420,1685.410096,15914.427753
1099.948967,-1406.391290,1302.362347,14730.098246
1099.949297,-1850.514855,842.705048,11843.295072
1099.949626,-2220.617826,-1762.019645,8734.430116
1099.949956,-814.226536,-3217.601092,7846.182985
1099.950286,1480.411884,-766.095498,8438.347739
1099.950616,3478.967927,766.095498,9030.512492
1099.950945,2590.720797,2068.457845,8734.430116
1099.951275,-592.164754,3677.258390,8956.491898
1099.951605,-2590.720797,5439.278036,9844.739029
1099.951935,-2590.720797,4903.011187,9696.697840
1099.952264,-1332.370696,3753.867940,10140.821405
1099.952594,-1776.494261,1608.800546,8290.306550
1099.952924,-3330.926739,0.000000,5551.544565
1099.953253,-2812.782580,-1991.848295,3701.029710
1099.953583,-444.123565,-2528.115143,4663.297435
1099.953913,1332.370696,-1072.533697,5699.585753
1099.954243,592.164754,1378.971896,6291.750507
1099.954572,-1258.350101,2298.286494,7031.956449
1099.954902,-3404.947333,3217.601092,7402.059420
1099.955232,-3330.926739,4749.792088,9030.512492
1099.955562,-2516.700203,3140.991542,10140.821405
1099.955891,-1776.494261,2221.676944,10066.800811
1099.956221,-3330.926739,536.266849,7179.997637
1099.956551,-2516.700203,-1225.752797,6809.894666
1099.956881,-222.061783,-2834.553343,8512.368333
1099.957210,1184.329507,-1302.362347,11029.068536
1099.957540,888.247130,536.266849,11843.295072
1099.957870,0.000000,-229.828649,12657.521608
1099.958199,-1628.453072,1149.143247,13915.871710
1099.958529,-2886.803174,3294.210641,15470.304188
1099.958859,-3108.864956,3217.601092,15618.345376
1099.959189,-2368.659014,2911.162892,14730.098246
1099.959518,-1628.453072,0.000000,12879.583391
1099.959848,-1036.288319,-1991.848295,10955.047942
1099.960178,-222.061783,-2374.896044,9474.636058
1099.960508,1554.432478,-1991.848295,8882.471304
1099.960837,2664.741391,229.828649,8364.327145
1099.961167,2664.741391,1532.190996,7698.141797
1099.961497,1258.350101,1455.581446,8586.388927
1099.961826,-592.164754,2528.115143,9770.718434
1099.962156,-2812.782580,5209.449386,11621.233289
1099.962486,-3108.864956,4596.572988,12287.418637
1099.962816,-2590.720797,2911.162892,12065.356855
1099.963145,-3182.885551,919.314598,8808.450710
1099.963475,-3182.885551,-2145.067394,5773.606348
1099.963805,-2368.659014,-3294.210641,3849.070898
1099.964135,0.000000,0.000000,4811.338623
1099.964464,1406.391290,766.095498,5921.647536
1099.964794,1776.494261,153.219100,6735.874072
1099.965124,-1776.494261,2911.162892,5847.626942
1099.965454,-3923.091493,4213.525239,5477.523971
1099.965783,-2886.803174,2604.724693,7328.038826
1099.966113,-814.226536,2834.553343,9918.759623
1099.966443,-1924.535449,2681.334243,9918.759623
1099.966772,-4071.132681,-612.876398,7772.162391
1099.967102,-4219.173869,-2298.286494,7105.977043
1099.967432,-1702.473667,-1455.581446,8216.285956
1099.967762,1036.288319,-1608.800546,10658.965565
1099.968091,1480.411884,-995.924147,12213.398043
1099.968421,-296.082377,1685.410096,12139.377449
1099.968751,-2072.576638,1915.238745,12435.459826
1099.969081,-1702.473667,2221.676944,13989.892304
1099.969410,-962.267725,3677.258390,15618.345376
1099.969740,-1036.288319,3294.210641,14952.160028
1099.970070,-1184.329507,229.828649,12065.356855
1099.970400,-1036.288319,-2451.505594,9178.553681
1099.970729,148.041188,-2834.553343,9030.512492
1099.971059,1628.453072,-1685.410096,9696.697840
1099.971389,1776.494261,-383.047749,10955.047942
1099.971718,1258.350101,1225.752797,10436.903782
1099.972048,-962.267725,2221.676944,10066.800811
1099.972378,-2664.741391,2911.162892,10510.924376
1099.972708,-2516.700203,2987.772442,11547.212695
1099.973037,-1998.556043,2987.772442,12213.398043
1099.973367,-1998.556043,3140.991542,10436.903782
1099.973697,-2738.761985,689.485948,7105.977043
1099.974027,-2146.597232,-1532.190996,4885.359217
1099.974356,-962.267725,-1915.238745,5181.441594
1099.974686,740.205942,-536.266849,5699.585753
1099.975016,1628.453072,689.485948,6513.812290
1099.975345,1332.370696,1072.533697,5921.647536
1099.975675,-1184.329507,2681.334243,5847.626942
1099.976005,-2960.823768,4366.744339,7328.038826
1099.976335,-2368.659014,3140.991542,9104.533087
1099.976664,-592.164754,3064.381992,9918.759623
1099.976994,-1628.453072,2145.067394,8216.285956
1099.977324,-2738.761985,612.876398,7105.977043
1099.977654,-2368.659014,-2298.286494,6661.853478
1099.977983,-444.123565,-2757.943793,8734.430116
1099.978313,444.123565,-459.657299,10584.944971
1099.978643,0.000000,1072.533697,10584.944971
1099.978973,-1258.350101,919.314598,9992.780217
1099.979302,-1998.556043,1302.362347,12361.439231
1099.979632,-2368.659014,1915.238745,14211.954086
1099.979962,-1924.535449,3064.381992,15026.180623
1099.980291,-814.226536,1149.143247,14582.057057
1099.980621,-1184.329507,383.047749,12805.562797
1099.980951,-2294.638420,612.876398,8808.450710
1099.981281,0.000000,-2145.067394,7179.997637
1099.981610,2960.823768,-3217.601092,9326.594869
1099.981940,3404.947333,-153.219100,11843.295072
1099.982270,0.000000,2221.676944,11547.212695
1099.982600,-2960.823768,1608.800546,11473.192101
1099.982929,-3478.967927,2987.772442,13175.665768
1099.983259,-2590.720797,4213.525239,13915.871710
1099.983589,-1110.308913,1455.581446,12139.377449
1099.983919,-444.123565,0.000000,8586.388927
1099.984248,-740.205942,995.924147,6069.688724
1099.984578,-444.123565,-306.438199,5255.462188
1099.984908,1702.473667,-383.047749,6143.709319
1099.985237,2516.700203,1532.190996,6143.709319
1099.985567,1850.514855,1225.752797,6069.688724
1099.985897,-666.185348,1378.971896,6513.812290
1099.986227,-3849.070898,3907.087040,7105.977043
1099.986556,-4737.318029,3064.381992,8660.409521
1099.986886,-5033.400406,1991.848295,9178.553681
1099.987216,-4367.215058,3140.991542,8808.450710
1099.987546,-3923.091493,842.705048,7402.059420
1099.987875,-3552.988522,-3140.991542,5551.544565
1099.988205,-3404.947333,-1991.848295,5699.585753
1099.988535,-1998.556043,-842.705048,7328.038826
1099.988865,518.144159,-153.219100,10807.006753
1099.989194,0.000000,1685.410096,11547.212695
1099.989524,-2886.803174,3294.210641,11547.212695
1099.989854,-3701.029710,2451.505594,10955.047942
1099.990183,-2072.576638,1455.581446,12213.398043
1099.990513,0.000000,1532.190996,13989.892304
1099.990843,666.185348,766.095498,13397.727550
1099.991173,-518.144159,0.000000,10214.842000
1099.991502,0.000000,-2068.457845,8660.409521
1099.991832,1628.453072,-2681.334243,9178.553681
1099.992162,3404.947333,-459.657299,11621.233289
1099.992492,3849.070898,995.924147,13101.645173
1099.992821,814.226536,1991.848295,12879.583391
1099.993151,-2664.741391,2834.553343,11843.295072
1099.993481,-3923.091493,2681.334243,12361.439231
1099.993810,-1628.453072,689.485948,13249.686362
1099.994140,-1480.411884,842.705048,11399.171507
1099.994470,-1924.535449,306.438199,8512.368333
1099.994800,-1554.432478,-1378.971896,5625.565159
1099.995129,222.061783,-1991.848295,5033.400406
1099.995459,2220.617826,-689.485948,5699.585753
1099.995789,2886.803174,995.924147,7624.121203
1099.996119,2072.576638,2451.505594,7402.059420
1099.996448,-1036.288319,4213.525239,7031.956449
1099.996778,-2590.720797,3140.991542,8068.244768
1099.997108,-2590.720797,3064.381992,10362.883188
1099.997438,-1924.535449,2834.553343,10510.924376
1099.997767,-2220.617826,1455.581446,8808.450710
1099.998097,-2960.823768,-1685.410096,5995.668130
1099.998427,-2738.761985,-2374.896044,5403.503377
1099.998756,-1554.432478,-1915.238745,5847.626942
1099.999086,1332.370696,-1149.143247,6587.832884
1099.999416,1776.494261,153.219100,8068.244768
1099.999746,0.000000,2834.553343,9104.533087
1100.000075,-2368.659014,2834.553343,10955.047942
1100.000405,-3478.967927,2145.067394,13175.665768
1100.000735,-3256.906145,3983.696590,15174.221811
1100.001065,-3478.967927,4826.401637,13619.789333
1100.001394,-3775.050304,1762.019645,9770.718434
1100.001724,-2368.659014,-3983.696590,7920.203579
1100.002054,-444.123565,-4290.134789,8660.409521
1100.002384,666.185348,-1915.238745,10362.883188
1100.002713,296.082377,-995.924147,12361.439231
1100.003043,-1036.288319,2221.676944,13027.624579
1100.003373,-3330.926739,4903.011187,12953.603985
1100.003702,-3108.864956,1915.238745,13101.645173
1100.004032,-1850.514855,842.705048,13471.748144
1100.004362,-1184.329507,4290.134789,12361.439231
1100.004692,-740.205942,3370.820191,10362.883188
1100.005021,74.020594,-1378.971896,8216.285956
1100.005351,0.000000,-842.705048,7031.956449
1100.005681,444.123565,-229.828649,6513.812290
1100.006011,2368.659014,-536.266849,7179.997637
1100.006340,3108.864956,1762.019645,7846.182985
1100.006670,1628.453072,2221.676944,7254.018232
1100.007000,-1184.329507,1225.752797,7772.162391
1100.007330,-3923.091493,3064.381992,8808.450710
1100.007659,-3627.009116,4979.620737,9326.594869
1100.007989,-2664.741391,2681.334243,9696.697840
1100.008319,-2368.659014,612.876398,7550.100608
1100.008648,-3182.885551,-306.438199,4589.276840
1100.008978,-1702.473667,-3677.258390,4071.132681
1100.009308,1406.391290,-3294.210641,6587.832884
1100.009638,2738.761985,1072.533697,8216.285956
1100.009967,814.226536,1838.629195,8734.430116
1100.010297,-1776.494261,1838.629195,9326.594869
1100.010627,-3182.885551,3217.601092,11103.089130
1100.010957,-2886.803174,3600.648841,12435.459826
1100.011286,-814.226536,1762.019645,13545.768739
1100.011616,-222.061783,229.828649,12213.398043
1100.011946,-1258.350101,-689.485948,10436.903782
1100.012275,-1776.494261,-2451.505594,8660.409521
1100.012605,666.185348,-2298.286494,9696.697840
1100.012935,3330.926739,0.000000,11177.109724
1100.013265,3849.070898,1072.533697,12435.459826
1100.013594,814.226536,1838.629195,12287.418637
1100.013924,-1924.535449,2451.505594,12879.583391
1100.014254,-2812.782580,2604.724693,13767.830521
1100.014584,-3108.864956,3600.648841,13767.830521
1100.014913,-3108.864956,3524.039291,13249.686362
1100.015243,-2442.679609,0.000000,10807.006753
1100.015573,-1998.556043,-2911.162892,7254.018232
1100.015903,-1258.350101,-2374.896044,6143.709319
1100.016232,370.102971,-1532.190996,6143.709319
1100.016562,2220.617826,612.876398,7402.059420
1100.016892,1776.494261,2757.943793,8216.285956
1100.017221,-1480.411884,3983.696590,7920.203579
1100.017551,-4145.153275,3600.648841,7328.038826
1100.017881,-4367.215058,4826.401637,8660.409521
1100.018211,-2368.659014,3907.087040,10510.924376
1100.018540,-1036.288319,1685.410096,10881.027347
1100.018870,-3182.885551,-1302.362347,6883.915261
1100.019200,-4219.173869,-2528.115143,4367.215058
1100.019530,-2590.720797,-2374.896044,4737.318029
1100.019859,0.000000,-995.924147,6661.853478
1100.020189,1998.556043,2451.505594,8216.285956
1100.020519,1850.514855,1915.238745,7550.100608
1100.020849,-888.247130,1685.410096,7105.977043
1100.021178,-2590.720797,2604.724693,9844.739029
1100.021508,-2590.720797,3753.867940,13471.748144
1100.021838,-1480.411884,3830.477490,14434.015869
1100.022167,-2368.659014,1915.238745,11843.295072
1100.022497,-2442.679609,229.828649,7179.997637
1100.022827,-444.123565,-3983.696590,6291.750507
1100.023157,2516.700203,-5669.106685,9474.636058
1100.023486,3330.926739,-306.438199,12583.501014
1100.023816,1702.473667,1838.629195,12953.603985
1100.024146,-1850.514855,2911.162892,13323.706956
1100.024476,-3923.091493,3217.601092,13471.748144
1100.024805,-3034.844362,2681.334243,14434.015869
1100.025135,-1110.308913,1072.533697,14063.912898
1100.025465,-296.082377,1685.410096,12139.377449
1100.025794,-740.205942,1608.800546,9400.615463
1100.026124,222.061783,-2911.162892,7624.121203
1100.026454,1184.329507,-3830.477490,7254.018232
1100.026784,1628.453072,-919.314598,7402.059420
1100.027113,3330.926739,0.000000,8734.430116
1100.027443,2072.576638,1838.629195,8216.285956
1100.027773,-666.185348,4136.915689,8586.388927
1100.028103,-2960.823768,3600.648841,9474.636058
1100.028432,-3997.112087,2834.553343,10362.883188
1100.028762,-3182.885551,4519.963438,10140.821405
1100.029092,-2516.700203,2451.505594,7476.080014
1100.029422,-2590.720797,-2145.067394,4589.276840
1100.029751,-2368.659014,-3830.477490,2368.659014
1100.030081,-592.164754,-3677.258390,5107.421000
1100.030411,1554.432478,-1532.190996,7476.080014
1100.030740,0.000000,2528.115143,9104.533087
1100.031070,-3404.947333,3753.867940,10362.883188
1100.031400,-7476.080014,2987.772442,10955.047942
1100.031730,-9252.574275,2451.505594,12361.439231
1100.032059,-8438.347739,2374.896044,13101.645173
1100.032389,-6439.791695,1378.971896,11325.150913
1100.032719,-5699.585753,-1532.190996,8290.306550
1100.033049,-4737.318029,-5286.058936,5921.647536
1100.033378,-2442.679609,-6511.811733,7105.977043
1100.033708,0.000000,-2451.505594,9770.718434
1100.034038,1998.556043,1991.848295,11103.089130
1100.034368,1924.535449,4903.011187,11325.150913
1100.034697,-296.082377,5209.449386,11251.130318
1100.035027,-3034.844362,4213.525239,12731.542202
1100.035357,-5847.626942,4060.306139,15618.345376
1100.035686,-8142.265362,5362.668486,15988.448347
1100.036016,-9030.512492,4366.744339,14582.057057
1100.036346,-8956.491898,-536.266849,12287.418637
1100.036676,-7476.080014,-5669.106685,8216.285956
1100.037005,-4811.338623,-7967.393179,4811.338623
1100.037335,-1628.453072,-5592.497135,4737.318029
1100.037665,740.205942,-459.657299,5255.462188
1100.037995,1258.350101,3524.039291,7698.141797
1100.038324,-888.247130,4903.011187,10881.027347
1100.038654,-4737.318029,6818.249932,10732.986159
1100.038984,-7920.203579,9576.193725,10658.965565
1100.039314,-7994.224174,7584.345430,10881.027347
1100.039643,-5995.668130,3524.039291,10510.924376
1100.039973,-5403.503377,-919.314598,7698.141797
1100.040303,-5773.606348,-6128.763984,5329.482782
1100.040632,-5477.523971,-7124.688131,3775.050304
1100.040962,-4737.318029,-3830.477490,4811.338623
1100.041292,-2368.659014,536.266849,6291.750507
1100.041622,518.144159,2374.896044,7328.038826
1100.041951,2368.659014,4519.963438,8364.327145
1100.042281,2960.823768,6741.640382,8586.388927
1100.042611,1332.370696,7507.735880,8808.450710
1100.042941,-2812.782580,6205.373534,11325.150913
1100.043270,-8290.306550,2834.553343,15174.221811
1100.043600,-12509.480420,2604.724693,16654.633695
1100.043930,-12435.459826,842.705048,12509.480420
1100.044259,-8364.327145,-5056.230287,6513.812290
1100.044589,-2516.700203,-10189.070123,2960.823768
1100.044919,1406.391290,-11338.213370,3923.091493
1100.045249,2590.720797,-5822.325785,6513.812290
1100.045578,1258.350101,2451.505594,9992.780217
1100.045908,0.000000,10035.851024,14063.912898
1100.046238,-222.061783,13789.718964,16062.468941
1100.046568,-518.144159,11031.775171,16580.613101
1100.046897,-2220.617826,7354.516781,14434.015869
1100.047227,-5107.421000,1532.190996,12509.480420
1100.047557,-9474.636058,-1762.019645,12731.542202
1100.047887,-12731.542202,-3983.696590,14285.974681
1100.048216,-13841.851115,-6358.592633,11843.295072
1100.048546,-11843.295072,-8963.317327,6735.874072
1100.048876,-5773.606348,-10342.289223,2812.782580
1100.049205,1776.494261,-6435.202183,2072.576638
1100.049535,6735.874072,-1455.581446,4145.153275
1100.049865,7920.203579,3677.258390,6809.894666
1100.050195,4367.215058,11261.603821,9770.718434
1100.050524,1036.288319,17083.929605,12213.398043
1100.050854,-2442.679609,14709.033562,12879.583391
1100.051184,-4663.297435,7814.174080,13101.645173
1100.051513,-6587.832884,1991.848295,11769.274478
1100.051843,-7772.162391,-2911.162892,9474.636058
1100.052173,-8808.450710,-8656.879127,7846.182985
1100.052503,-10140.821405,-9346.365076,5995.668130
1100.052832,-10807.006753,-7660.954980,4145.153275
1100.053162,-8438.347739,-5975.544884,3849.070898
1100.053492,-3849.070898,-2298.286494,5181.441594
1100.053821,-296.082377,3370.820191,6957.935855
1100.054151,1628.453072,8273.831378,7772.162391
1100.054481,2442.679609,10265.679673,9474.636058
1100.054810,592.164754,9346.365076,12287.418637
1100.055140,-3108.864956,8427.050478,13989.892304
1100.055470,-8512.368333,6052.154434,12953.603985
1100.055799,-11177.109724,2145.067394,11695.253884
1100.056129,-11251.130318,-3370.820191,10955.047942
1100.056459,-9548.656652,-7737.564530,10658.965565
1100.056788,-6513.812290,-7584.345430,8734.430116
1100.057118,-3182.885551,-7124.688131,5255.462188
1100.057448,-370.102971,-3983.696590,5107.421000
1100.057777,1258.350101,76.609550,7994.224174
1100.058107,370.102971,5056.230287,12583.501014
1100.058437,-1628.453072,9499.584175,14434.015869
1100.058766,-4589.276840,10648.727422,14804.118840
1100.059096,-5847.626942,8427.050478,15248.242405
1100.059426,-6069.688724,4290.134789,14434.015869
1100.059755,-5995.668130,-1532.190996,11769.274478
1100.060085,-5625.565159,-6818.249932,7328.038826
1100.060415,-4811.338623,-8350.440928,4515.256246
1100.060745,-3478.967927,-6435.202183,5255.462188
1100.061074,-1480.411884,-3983.696590,7328.038826
1100.061404,-1332.370696,-612.876398,8216.285956
1100.061734,-2664.741391,3217.601092,7994.224174
1100.062063,-3182.885551,6971.469032,8512.368333
1100.062393,-2590.720797,9576.193725,11177.109724
1100.062723,-2738.761985,7737.564530,12361.439231
1100.063052,-4145.153275,4596.572988,11103.089130
1100.063382,-4441.235652,689.485948,8660.409521
1100.063712,-3404.947333,-2145.067394,7328.038826
1100.064041,-2886.803174,-4290.134789,7550.100608
1100.064371,-3330.926739,-4366.744339,7476.080014
1100.064701,-3108.864956,-2681.334243,7624.121203
1100.065030,-3034.844362,-842.705048,7698.141797
1100.065360,-3627.009116,1838.629195,8808.450710
1100.065690,-4071.132681,4596.572988,10658.965565
1100.066019,-4441.235652,5669.106685,11029.068536
1100.066349,-4219.173869,5515.887586,11177.109724
1100.066679,-4071.132681,4366.744339,10436.903782
1100.067008,-2738.761985,1455.581446,9030.512492
1100.067338,-1480.411884,-1532.190996,7994.224174
1100.067668,-1480.411884,-2374.896044,7550.100608
1100.067997,-2368.659014,-2068.457845,7698.141797
1100.068327,-2220.617826,-1532.190996,7994.224174
1100.068657,-1702.473667,-536.266849,9400.615463
1100.068986,-3923.091493,1455.581446,11621.233289
1100.069316,-7105.977043,4060.306139,13175.665768
1100.069646,-8586.388927,4826.401637,14211.954086
1100.069976,-8512.368333,4443.353888,14656.077652
1100.070305,-8438.347739,2834.553343,12953.603985
1100.070635,-7402.059420,459.657299,10288.862594
1100.070965,-4515.256246,-2604.724693,7698.141797
1100.071294,-1184.329507,-4519.963438,6217.729913
1100.071624,0.000000,-2987.772442,5255.462188
1100.071954,592.164754,-842.705048,5773.606348
1100.072283,666.185348,1072.533697,7328.038826
1100.072613,-518.144159,3600.648841,9548.656652
1100.072943,-2812.782580,5898.935335,11251.130318
1100.073272,-4367.215058,6741.640382,11473.192101
1100.073602,-5403.503377,4136.915689,11473.192101
1100.073932,-7402.059420,1225.752797,12213.398043
1100.074261,-9178.553681,229.828649,11991.336260
1100.074591,-9918.759623,-153.219100,10362.883188
1100.074921,-8216.285956,-2451.505594,8142.265362
1100.075250,-5921.647536,-4136.915689,6069.688724
1100.075580,-3404.947333,-3064.381992,5107.421000
1100.075910,-444.123565,-1225.752797,5181.441594
1100.076239,740.205942,1225.752797,5033.400406
1100.076569,0.000000,3907.087040,7179.997637
1100.076899,-2146.597232,6052.154434,9696.697840
1100.077228,-4663.297435,7124.688131,12065.356855
1100.077558,-7254.018232,5132.839837,13397.727550
1100.077888,-9770.718434,2451.505594,12435.459826
1100.078218,-9918.759623,-383.047749,11251.130318
1100.078547,-8068.244768,-4136.915689,10658.965565
1100.078877,-6661.853478,-6128.763984,9770.718434
1100.079207,-4589.276840,-5592.497135,8364.327145
1100.079536,-1998.556043,-3217.601092,7105.977043
1100.079866,222.061783,-306.438199,7105.977043
1100.080196,1850.514855,2298.286494,9326.594869
1100.080525,1850.514855,4979.620737,10881.027347
1100.080855,666.185348,7201.297681,11399.171507
1100.081185,-518.144159,5592.497135,11991.336260
1100.081514,-3034.844362,2681.334243,14730.098246
1100.081844,-7179.997637,1838.629195,15100.201217
1100.082174,-10066.800811,612.876398,12731.542202
1100.082503,-9474.636058,-2528.115143,9252.574275
1100.082833,-6513.812290,-5132.839837,6439.791695
1100.083163,-2590.720797,-5056.230287,4737.318029
1100.083492,148.041188,-3600.648841,4589.276840
1100.083822,962.267725,-919.314598,4737.318029
1100.084152,0.000000,4443.353888,6365.771101
1100.084481,-1702.473667,8197.221829,9400.615463
1100.084811,-3182.885551,9806.022374,11843.295072
1100.085141,-5847.626942,8350.440928,13101.645173
1100.085470,-7179.997637,4903.011187,13249.686362
1100.085800,-7476.080014,919.314598,12583.501014
1100.086130,-7624.121203,-919.314598,11621.233289
1100.086459,-8142.265362,-2757.943793,9844.739029
1100.086789,-6513.812290,-2911.162892,7105.977043
1100.087119,-4441.235652,-2068.457845,5551.544565
1100.087449,-740.205942,-229.828649,4885.359217
1100.087778,1998.556043,1838.629195,5699.585753
1100.088108,2368.659014,4673.182538,7402.059420
1100.088438,962.267725,8120.612279,8808.450710
1100.088767,-370.102971,8886.707777,10288.862594
1100.089097,-1924.535449,7124.688131,12065.356855
1100.089427,-3923.091493,4749.792088,12583.501014
1100.089756,-5181.441594,2068.457845,11917.315666
1100.090086,-5551.544565,-229.828649,10288.862594
1100.090416,-4737.318029,-1838.629195,8734.430116
1100.090745,-3552.988522,-2451.505594,8808.450710
1100.091075,-2738.761985,-383.047749,8512.368333
1100.091405,-2590.720797,1991.848295,8660.409521
1100.091734,-2442.679609,3753.867940,8882.471304
1100.092064,-2220.617826,5209.449386,9622.677246
1100.092394,-1924.535449,7124.688131,10881.027347
1100.092723,-2072.576638,6358.592633,11325.150913
1100.093053,-2664.741391,4903.011187,11769.274478
1100.093383,-2368.659014,3830.477490,11325.150913
1100.093712,-1332.370696,2298.286494,9548.656652
1100.094042,-1258.350101,1685.410096,8586.388927
1100.094372,-1480.411884,842.705048,8290.306550
1100.094701,-666.185348,1532.190996,8882.471304
1100.095031,370.102971,3907.087040,9622.677246
1100.095361,-444.123565,6358.592633,10214.842000
1100.095691,-1184.329507,8197.221829,10362.883188
1100.096020,-2368.659014,7967.393179,9770.718434
1100.096350,-2960.823768,7048.078582,9474.636058
1100.096680,-3256.906145,5669.106685,8660.409521
1100.097009,-2738.761985,3294.210641,6883.915261
1100.097339,-1332.370696,842.705048,5477.523971
1100.097669,-222.061783,-306.438199,5255.462188
1100.097998,-296.082377,-229.828649,6513.812290
1100.098328,-1406.391290,1455.581446,7624.121203
1100.098658,-2442.679609,4136.915689,8882.471304
1100.098987,-3330.926739,6281.983084,10584.944971
1100.099317,-3552.988522,7967.393179,11621.233289
1100.099647,-2368.659014,7354.516781,11843.295072
1100.099976,-962.267725,5975.544884,10732.986159
1100.100306,-370.102971,4366.744339,10140.821405
1100.100636,-148.041188,3677.258390,9474.636058
1100.100965,-592.164754,2987.772442,9252.574275
1100.101295,-740.205942,2528.115143,9178.553681
1100.101625,-370.102971,2374.896044,8882.471304
1100.101954,296.082377,2451.505594,8956.491898
1100.102284,1258.350101,2451.505594,9548.656652
1100.102614,1036.288319,3064.381992,10288.862594
1100.102943,-1110.308913,4290.134789,10955.047942
1100.103273,-2368.659014,5592.497135,12065.356855
1100.103603,-2590.720797,6205.373534,12583.501014
1100.103932,-2294.638420,5669.106685,12509.480420
1100.104262,-1924.535449,4366.744339,10955.047942
1100.104592,-1776.494261,2911.162892,9178.553681
1100.104922,-518.144159,2987.772442,8734.430116
1100.105251,-222.061783,3983.696590,8882.471304
1100.105581,0.000000,4749.792088,8734.430116
1100.105911,-370.102971,5132.839837,7624.121203
1100.106240,-148.041188,4290.134789,6143.709319
1100.106570,-444.123565,2604.724693,6513.812290
1100.106900,-962.267725,2451.505594,7624.121203
1100.107229,-2146.597232,2757.943793,8956.491898
1100.107559,-3478.967927,3217.601092,9326.594869
1100.107889,-3478.967927,3064.381992,9770.718434
1100.108218,-2960.823768,3370.820191,10436.903782
1100.108548,-1850.514855,4060.306139,10288.862594
1100.108878,-740.205942,4673.182538,9622.677246
1100.109207,0.000000,5132.839837,8956.491898
1100.109537,888.247130,5822.325785,9252.574275
1100.109867,1036.288319,6435.202183,8956.491898
1100.110196,666.185348,6358.592633,8734.430116
1100.110526,0.000000,5592.497135,8216.285956
1100.110856,-740.205942,3907.087040,7846.182985
1100.111185,-1480.411884,2145.067394,7179.997637
1100.111515,-2146.597232,766.095498,7476.080014
1100.111845,-2886.803174,0.000000,8438.347739
1100.112174,-2960.823768,-76.609550,9400.615463
1100.112504,-2368.659014,1225.752797,10362.883188
1100.112834,-1554.432478,2374.896044,11621.233289
1100.113164,-666.185348,3140.991542,11991.336260
1100.113493,-666.185348,5745.716235,13027.624579
1100.113823,-518.144159,7354.516781,13027.624579
1100.114153,-370.102971,7201.297681,12287.418637
1100.114482,0.000000,5592.497135,11399.171507
1100.114812,0.000000,4596.572988,10288.862594
1100.115142,-1036.288319,3217.601092,9474.636058
1100.115471,-1850.514855,2451.505594,8586.388927
1100.115801,-2146.597232,2145.067394,8290.306550
1100.116131,-1776.494261,1685.410096,8142.265362
1100.116460,-888.247130,1838.629195,7920.203579
1100.116790,-222.061783,2374.896044,7402.059420
1100.117120,296.082377,2451.505594,8216.285956
1100.117449,148.041188,3830.477490,9104.533087
1100.117779,-296.082377,5898.935335,10140.821405
1100.118109,-888.247130,7124.688131,11103.089130
1100.118438,-1184.329507,6741.640382,11917.315666
1100.118768,-2072.576638,7124.688131,12139.377449
1100.119098,-3256.906145,7201.297681,11029.068536
1100.119427,-3478.967927,6281.983084,8216.285956
1100.119757,-1924.535449,3600.648841,5255.462188
1100.120087,666.185348,1532.190996,3552.988522
1100.120416,2368.659014,459.657299,4145.153275
1100.120746,2368.659014,1225.752797,4737.318029
1100.121076,814.226536,3447.429741,6513.812290
1100.121405,-1184.329507,4903.011187,8882.471304
1100.121735,-2960.823768,6052.154434,11325.150913
1100.122065,-3849.070898,7354.516781,14137.933492
1100.122395,-4515.256246,7201.297681,15692.365970
1100.122724,-4515.256246,6281.983084,14730.098246
1100.123054,-4663.297435,4673.182538,12287.418637
1100.123384,-3478.967927,3370.820191,9992.780217
1100.123713,-888.247130,1532.190996,8216.285956
1100.124043,1554.432478,842.705048,6439.791695
1100.124373,3923.091493,2068.457845,5477.523971
1100.124702,4737.318029,2528.115143,5625.565159
1100.125032,3552.988522,3600.648841,6587.832884
1100.125362,740.205942,5286.058936,9474.636058
1100.125691,-2294.638420,7354.516781,12287.418637
1100.126021,-4293.194464,8197.221829,14137.933492
1100.126351,-4663.297435,6741.640382,13989.892304
1100.126680,-3478.967927,3600.648841,13101.645173
1100.127010,-1924.535449,459.657299,10955.047942
1100.127340,-814.226536,383.047749,8882.471304
1100.127669,-1036.288319,995.924147,7328.038826
1100.127999,-1110.308913,2528.115143,8216.285956
1100.128329,-1628.453072,4903.011187,8882.471304
1100.128658,-1554.432478,5745.716235,8512.368333
1100.128988,-592.164754,4213.525239,6217.729913
1100.129318,-222.061783,2145.067394,6217.729913
1100.129647,-814.226536,1991.848295,8512.368333
1100.129977,-1776.494261,3524.039291,10807.006753
1100.130307,-2738.761985,4749.792088,11695.253884
1100.130637,-2812.782580,5592.497135,11843.295072
1100.130966,-1628.453072,5362.668486,11325.150913
1100.131296,-740.205942,4443.353888,9400.615463
1100.131626,444.123565,2604.724693,7031.956449
1100.131955,1628.453072,1302.362347,5477.523971
1100.132285,2368.659014,1838.629195,5847.626942
1100.132615,2590.720797,3830.477490,7624.121203
1100.132944,1924.535449,4903.011187,9252.574275
1100.133274,296.082377,4596.572988,10881.027347
1100.133604,-2220.617826,5132.839837,11843.295072
1100.133933,-3552.988522,6128.763984,11991.336260
1100.134263,-2368.659014,4519.963438,11843.295072
1100.134593,-1850.514855,2681.334243,12213.398043
1100.134922,-2368.659014,2451.505594,11769.274478
1100.135252,-3108.864956,2911.162892,10140.821405
1100.135582,-2664.741391,2911.162892,8364.327145
1100.135911,-1776.494261,3983.696590,7402.059420
1100.136241,-1036.288319,5286.058936,7179.997637
1100.136571,1628.453072,3830.477490,6883.915261
1100.136900,2442.679609,2145.067394,6365.771101
1100.137230,1776.494261,2528.115143,6809.894666
1100.137560,518.144159,4290.134789,9030.512492
1100.137889,-1110.308913,5286.058936,13101.645173
1100.138219,-2812.782580,7048.078582,15100.201217
1100.138549,-4293.194464,8733.488677,15026.180623
1100.138878,-3404.947333,7201.297681,13545.768739
1100.139208,-1702.473667,4366.744339,11621.233289
1100.139538,-1332.370696,2834.553343,9326.594869
1100.139868,-1332.370696,2834.553343,7105.977043
1100.140197,-1554.432478,2834.553343,4959.379811
1100.140527,-444.123565,2834.553343,3330.926739
1100.140857,1110.308913,2987.772442,3849.070898
1100.141186,1998.556043,3217.601092,5107.421000
1100.141516,2072.576638,5822.325785,5921.647536
1100.141846,888.247130,7354.516781,6735.874072
1100.142175,888.247130,5822.325785,9622.677246
1100.142505,-592.164754,5745.716235,12879.583391
1100.142835,-3478.967927,7431.126331,14359.995275
1100.143164,-4145.153275,6511.811733,14211.954086
1100.143494,-4071.132681,3753.867940,13471.748144
1100.143824,-4589.276840,3447.429741,11769.274478
1100.144153,-4515.256246,1991.848295,9252.574275
1100.144483,-3701.029710,-842.705048,7105.977043
1100.144813,-2442.679609,-995.924147,4737.318029
1100.145142,0.000000,153.219100,3404.947333
1100.145472,2960.823768,-536.266849,3330.926739
1100.145802,4219.173869,995.924147,5477.523971
1100.146131,3478.967927,3907.087040,8512.368333
1100.146461,2886.803174,5822.325785,12509.480420
1100.146791,1554.432478,6894.859482,15766.386565
1100.147120,-444.123565,8580.269578,18505.148550
1100.147450,-2220.617826,7967.393179,18061.024985
1100.147780,-3552.988522,3524.039291,15766.386565
1100.148110,-3701.029710,612.876398,12065.356855
1100.148439,-3034.844362,-1838.629195,7920.203579
1100.148769,-1480.411884,-4060.306139,5033.400406
1100.149099,444.123565,-4673.182538,3775.050304
1100.149428,1776.494261,-3217.601092,3849.070898
1100.149758,2368.659014,-459.657299,4219.173869
1100.150086,2220.617826,3217.601092,5995.668130
1100.150415,1924.535449,6588.421283,8956.491898
1100.150745,1628.453072,7354.516781,12065.356855
1100.151075,370.102971,8580.269578,15100.201217
1100.151404,-2294.638420,9193.145976,15914.427753
1100.151734,-4811.338623,7890.783629,14434.015869
1100.152063,-6661.853478,4366.744339,11177.109724
1100.152393,-6291.750507,-1149.143247,6661.853478
1100.152723,-4663.297435,-6052.154434,4219.173869
1100.153052,-2220.617826,-7507.735880,2960.823768
1100.153382,-1332.370696,-5515.887586,1332.370696
1100.153711,-148.041188,-4136.915689,-0.000000
1100.154041,1554.432478,-2451.505594,2886.803174
1100.154371,2590.720797,919.314598,9548.656652
1100.154700,888.247130,6128.763984,16580.613101
1100.155030,-2738.761985,12180.918418,18357.107362
1100.155359,-4663.297435,12257.527968,17838.963202
1100.155689,-2886.803174,7124.688131,16802.674883
1100.156019,-370.102971,2298.286494,14804.118840
1100.156348,1258.350101,-1532.190996,10214.842000
1100.156678,888.247130,-3753.867940,5033.400406
1100.157007,0.000000,-4673.182538,962.267725
1100.157337,740.205942,-4979.620737,1776.494261
1100.157667,2664.741391,-5669.106685,5329.482782
1100.157996,3182.885551,-2834.553343,8216.285956
1100.158326,74.020594,995.924147,9844.739029
1100.158655,-2738.761985,2298.286494,11621.233289
1100.158985,-3478.967927,3370.820191,15470.304188
1100.159315,-3256.906145,4213.525239,18875.251521
1100.159644,-3034.844362,5209.449386,19393.395680
1100.159974,-3108.864956,3983.696590,15396.283594
1100.160303,-1998.556043,1225.752797,9770.718434
1100.160633,1258.350101,-2987.772442,4589.276840
1100.160963,3849.070898,-5209.449386,2812.782580
1100.161292,4737.318029,-3907.087040,3997.112087
1100.161622,3775.050304,-153.219100,6291.750507
1100.161951,-296.082377,3217.601092,7772.162391
1100.162281,-4367.215058,4826.401637,8734.430116
1100.162611,-5551.544565,3370.820191,11325.150913
1100.162940,-3849.070898,2757.943793,14508.036463
1100.163270,-1998.556043,2528.115143,15618.345376
1100.163599,-2220.617826,2757.943793,12805.562797
1100.163929,-1850.514855,1915.238745,7994.224174
1100.164259,-222.061783,-1991.848295,3849.070898
1100.164588,1924.535449,-3753.867940,4219.173869
1100.164918,2664.741391,76.609550,6217.729913
1100.165247,1776.494261,3753.867940,7105.977043
1100.165577,-1110.308913,3753.867940,4737.318029
1100.165907,-2960.823768,1072.533697,3923.091493
1100.166236,-2664.741391,-995.924147,6883.915261
1100.166566,-1702.473667,-689.485948,11029.068536
1100.166895,-2294.638420,2604.724693,13323.706956
1100.167225,-3849.070898,3524.039291,11843.295072
1100.167555,-3256.906145,0.000000,10584.944971
1100.167884,-444.123565,-1685.410096,10362.883188
1100.168214,1406.391290,-2528.115143,11103.089130
1100.168543,2072.576638,-1225.752797,11473.192101
1100.168873,0.000000,1685.410096,10732.986159
1100.169203,-1776.494261,2911.162892,9696.697840
1100.169532,-1998.556043,229.828649,10362.883188
1100.169862,-962.267725,-1455.581446,11029.068536
1100.170191,0.000000,306.438199,11547.212695
1100.170521,0.000000,1072.533697,10955.047942
1100.170851,0.000000,919.314598,10214.842000
1100.171180,666.185348,0.000000,9844.739029
1100.171510,1776.494261,0.000000,11103.089130
1100.171839,1924.535449,1455.581446,12361.439231
1100.172169,740.205942,3830.477490,13101.645173
1100.172499,-1554.432478,5362.668486,12213.398043
1100.172828,-2812.782580,3370.820191,9770.718434
1100.173158,-2738.761985,-153.219100,7920.203579
1100.173487,-1554.432478,-2221.676944,7328.038826
1100.173817,-962.267725,-1532.190996,8068.244768
1100.174147,-2664.741391,689.485948,6661.853478
1100.174476,-3775.050304,689.485948,4145.153275
1100.174806,-1110.308913,-1608.800546,4811.338623
1100.175135,1702.473667,-1302.362347,9178.553681
1100.175465,1554.432478,3524.039291,11843.295072
1100.175795,-1924.535449,6588.421283,11103.089130
1100.176124,-4515.256246,5439.278036,8882.471304
1100.176454,-3849.070898,2911.162892,8216.285956
1100.176783,-2368.659014,1149.143247,9770.718434
1100.177113,-370.102971,-153.219100,10066.800811
1100.177443,-814.226536,-1225.752797,7550.100608
1100.177772,-2368.659014,-995.924147,4515.256246
1100.178102,-1332.370696,-2374.896044,4071.132681
1100.178431,1924.535449,-2528.115143,7105.977043
1100.178761,3775.050304,-842.705048,9992.780217
1100.179091,3108.864956,2528.115143,11769.274478
1100.179420,-148.041188,5362.668486,12287.418637
1100.179750,-1628.453072,4060.306139,12583.501014
1100.180079,-1554.432478,1915.238745,13175.665768
1100.180409,-1258.350101,842.705048,13471.748144
1100.180739,-666.185348,1762.019645,12657.521608
1100.181068,-666.185348,536.266849,9696.697840
1100.181398,-296.082377,-2451.505594,6143.709319
1100.181727,518.144159,-5515.887586,5255.462188
1100.182057,1406.391290,-4519.963438,8438.347739
1100.182387,1628.453072,536.266849,12583.501014
1100.182716,-666.185348,4290.134789,13619.789333
1100.183046,-3849.070898,4443.353888,12361.439231
1100.183375,-4293.194464,1608.800546,11769.274478
1100.183705,-3256.906145,766.095498,12953.603985
1100.184035,-1554.432478,2221.676944,14137.933492
1100.184364,-1184.329507,2451.505594,11695.253884
1100.184694,-2146.597232,1149.143247,7179.997637
1100.185023,-1258.350101,-2221.676944,4441.235652
1100.185353,296.082377,-3830.477490,5699.585753
1100.185683,1184.329507,-612.876398,7550.100608
1100.186012,518.144159,2451.505594,8734.430116
1100.186342,-2368.659014,3830.477490,7846.182985
1100.186671,-4071.132681,3524.039291,7772.162391
1100.187001,-3330.926739,229.828649,9030.512492
1100.187331,-1184.329507,-612.876398,9178.553681
1100.187660,-370.102971,459.657299,8216.285956
1100.187990,-888.247130,1149.143247,7550.100608
1100.188319,-1258.350101,229.828649,6513.812290
1100.188649,-518.144159,-1072.533697,6365.771101
1100.188979,1110.308913,-1455.581446,7698.141797
1100.189308,2442.679609,383.047749,9844.739029
1100.189638,1332.370696,3140.991542,11251.130318
1100.189967,-1776.494261,2987.772442,10732.986159
1100.190297,-3478.967927,919.314598,10362.883188
1100.190627,-3404.947333,306.438199,11251.130318
1100.190956,-2294.638420,919.314598,12435.459826
1100.191286,-888.247130,919.314598,12805.562797
1100.191615,-1628.453072,76.609550,9918.759623
1100.191945,-666.185348,-1838.629195,7179.997637
1100.192275,2072.576638,-3064.381992,7698.141797
1100.192604,3478.967927,-766.095498,11325.150913
1100.192934,2590.720797,2757.943793,13249.686362
1100.193263,-888.247130,5056.230287,12879.583391
1100.193593,-3182.885551,3907.087040,11917.315666
1100.193923,-2664.741391,2068.457845,12361.439231
1100.194252,-1776.494261,995.924147,12583.501014
1100.194582,0.000000,1149.143247,11473.192101
1100.194911,-592.164754,0.000000,8068.244768
1100.195241,-1258.350101,-995.924147,5995.668130
1100.195571,-888.247130,-1915.238745,5625.565159
1100.195900,444.123565,-612.876398,8068.244768
1100.196230,0.000000,2145.067394,10362.883188
1100.196559,-2294.638420,4749.792088,10510.924376
1100.196889,-5181.441594,4060.306139,8438.347739
1100.197219,-5033.400406,842.705048,7846.182985
1100.197548,-3330.926739,-1378.971896,8216.285956
1100.197878,-2220.617826,-919.314598,8438.347739
1100.198207,-1480.411884,0.000000,7994.224174
1100.198537,-2220.617826,76.609550,6957.935855
1100.198867,-1628.453072,-612.876398,5699.585753
1100.199196,0.000000,-612.876398,5921.647536
1100.199526,2220.617826,-229.828649,8068.244768
1100.199855,3775.050304,1838.629195,10807.006753
1100.200185,1110.308913,3677.258390,10881.027347
1100.200515,-1554.432478,3064.381992,10140.821405
1100.200844,-2220.617826,76.609550,10214.842000
1100.201174,-1776.494261,-1225.752797,11843.295072
1100.201503,-592.164754,842.705048,12879.583391
1100.201833,-888.247130,229.828649,10436.903782
1100.202163,-518.144159,-2451.505594,7105.977043
1100.202492,1110.308913,-3983.696590,7105.977043
1100.202822,1924.535449,-1991.848295,9178.553681
1100.203151,2368.659014,1762.019645,12361.439231
1100.203481,296.082377,4290.134789,13397.727550
1100.203811,-2220.617826,4749.792088,12657.521608
1100.204140,-3552.988522,2604.724693,12583.501014
1100.204470,-3108.864956,0.000000,13175.665768
1100.204799,-2960.823768,459.657299,12953.603985
1100.205129,-2220.617826,1225.752797,11251.130318
1100.205459,-3330.926739,919.314598,7846.182985
1100.205788,-2368.659014,-1072.533697,5625.565159
1100.206118,0.000000,-3217.601092,6513.812290
1100.206447,1480.411884,-689.485948,8438.347739
1100.206777,74.020594,3064.381992,9030.512492
1100.207107,-1702.473667,5515.887586,9326.594869
1100.207436,-2812.782580,4826.401637,8660.409521
1100.207766,-2294.638420,2298.286494,8882.471304
1100.208095,-888.247130,1455.581446,9474.636058
1100.208425,-518.144159,1762.019645,8882.471304
1100.208755,-1036.288319,1608.800546,7476.080014
1100.209084,-1554.432478,1302.362347,5477.523971
1100.209414,-518.144159,-842.705048,4663.297435
1100.209743,740.205942,-2834.553343,5033.400406
1100.210073,1702.473667,-153.219100,8068.244768
1100.210403,74.020594,2757.943793,9326.594869
1100.210732,-2294.638420,3294.210641,9252.574275
1100.211062,-3404.947333,1225.752797,9918.759623
1100.211391,-3182.885551,153.219100,10881.027347
1100.211721,-1702.473667,306.438199,11991.336260
1100.212051,-740.205942,306.438199,12139.377449
1100.212380,-1258.350101,153.219100,9770.718434
1100.212710,-888.247130,-1149.143247,8364.327145
1100.213039,370.102971,-1991.848295,9326.594869
1100.213369,1554.432478,-383.047749,12139.377449
1100.213699,1702.473667,2451.505594,13397.727550
1100.214028,-888.247130,4136.915689,13323.706956
1100.214358,-3034.844362,3370.820191,11991.336260
1100.214687,-2664.741391,1149.143247,11695.253884
1100.215017,-1776.494261,-919.314598,12361.439231
1100.215347,-962.267725,-153.219100,12361.439231
1100.215676,-2146.597232,1685.410096,10881.027347
1100.216006,-2738.761985,1455.581446,8068.244768
1100.216335,-1184.329507,-306.438199,6291.750507
1100.216665,814.226536,-1685.410096,6809.894666
1100.216995,2072.576638,536.266849,8956.491898
1100.217324,0.000000,4519.963438,9918.759623
1100.217654,-3627.009116,5439.278036,8956.491898
1100.217983,-4737.318029,4060.306139,7920.203579
1100.218313,-3849.070898,1302.362347,8068.244768
1100.218643,-1480.411884,-459.657299,8512.368333
1100.218972,-1036.288319,383.047749,8068.244768
1100.219302,-2368.659014,459.657299,6735.874072
1100.219631,-2146.597232,612.876398,5329.482782
1100.219961,-740.205942,-306.438199,5995.668130
1100.220291,962.267725,153.219100,7254.018232
1100.220620,1480.411884,2145.067394,9696.697840
1100.220950,74.020594,3140.991542,10436.903782
1100.221279,-2294.638420,4136.915689,9474.636058
1100.221609,-3034.844362,2145.067394,8438.347739
1100.221939,-1776.494261,-842.705048,9030.512492
1100.222268,592.164754,-919.314598,11473.192101
1100.222598,296.082377,612.876398,11917.315666
1100.222927,-1184.329507,1455.581446,9622.677246
1100.223257,-518.144159,-995.924147,7698.141797
1100.223587,1110.308913,-1915.238745,8956.491898
1100.223916,2812.782580,-612.876398,11991.336260
1100.224246,1924.535449,2298.286494,14359.995275
1100.224575,-1924.535449,4673.182538,13323.706956
1100.224905,-4367.215058,3753.867940,11325.150913
1100.225235,-4145.153275,0.000000,11325.150913
1100.225564,-2072.576638,-1915.238745,12435.459826
1100.225894,-1628.453072,-306.438199,12435.459826
1100.226223,-2590.720797,919.314598,9770.718434
1100.226553,-2886.803174,0.000000,7105.977043
1100.226883,-1258.350101,-2451.505594,6661.853478
1100.227212,1184.329507,-2068.457845,9030.512492
1100.227542,814.226536,2374.896044,11621.233289
1100.227871,-1702.473667,5669.106685,11547.212695
1100.228201,-4071.132681,5975.544884,9696.697840
1100.228531,-3627.009116,2987.772442,8808.450710
1100.228860,-1850.514855,0.000000,8882.471304
1100.229190,-370.102971,0.000000,8438.347739
1100.229519,-592.164754,1455.581446,7105.977043
1100.229849,-1702.473667,1455.581446,5551.544565
1100.230179,-1850.514855,306.438199,4959.379811
1100.230508,-518.144159,0.000000,6143.709319
1100.230838,1258.350101,612.876398,7476.080014
1100.231167,1110.308913,2528.115143,8290.306550
1100.231497,-814.226536,4213.525239,8586.388927
1100.231827,-2664.741391,3370.820191,8734.430116
1100.232156,-3108.864956,919.314598,9326.594869
1100.232486,-2516.700203,459.657299,10066.800811
1100.232815,-1850.514855,1915.238745,10436.903782
1100.233145,-1036.288319,1149.143247,10436.903782
1100.233475,-1480.411884,-153.219100,8512.368333
1100.233804,-1184.329507,-1608.800546,7698.141797
1100.234134,518.144159,-1608.800546,9622.677246
1100.234463,1998.556043,1608.800546,13027.624579
1100.234793,592.164754,4443.353888,13693.809927
1100.235123,-2220.617826,4443.353888,12435.459826
1100.235452,-2960.823768,1838.629195,11695.253884
1100.235782,-1480.411884,-153.219100,12361.439231
1100.236111,296.082377,842.705048,12657.521608
1100.236441,444.123565,1762.019645,11991.336260
1100.236771,-814.226536,1225.752797,9326.594869
1100.237100,-1036.288319,-536.266849,7476.080014
1100.237430,0.000000,-1149.143247,8808.450710
1100.237759,1110.308913,1225.752797,10881.027347
1100.238089,444.123565,3907.087040,11029.068536
1100.238419,-1776.494261,4903.011187,9474.636058
1100.238748,-3108.864956,2221.676944,8290.306550
1100.239078,-3108.864956,612.876398,8734.430116
1100.239407,-2442.679609,1532.190996,9252.574275
1100.239737,-1998.556043,842.705048,7550.100608
1100.240067,-2368.659014,0.000000,6587.832884
1100.240396,-2812.782580,0.000000,6513.812290
1100.240726,-1924.535449,-306.438199,6957.935855
1100.241055,-740.205942,-536.266849,7031.956449
1100.241385,-518.144159,1072.533697,7994.224174
1100.241715,-1406.391290,2298.286494,9696.697840
1100.242044,-3330.926739,3753.867940,10288.862594
1100.242374,-3701.029710,2145.067394,9918.759623
1100.242703,-2516.700203,229.828649,9474.636058
1100.243033,-740.205942,76.609550,8586.388927
1100.243363,666.185348,0.000000,9252.574275
1100.243692,666.185348,-995.924147,8586.388927
1100.244022,518.144159,-1225.752797,7476.080014
1100.244351,1110.308913,-612.876398,8290.306550
1100.244681,1998.556043,689.485948,11399.171507
1100.245011,1776.494261,1608.800546,13249.686362
1100.245340,-592.164754,3600.648841,14063.912898
1100.245670,-2516.700203,3217.601092,12361.439231
1100.245999,-2294.638420,1455.581446,11325.150913
1100.246329,-962.267725,-612.876398,11695.253884
1100.246659,-222.061783,-459.657299,12065.356855
1100.246988,-1332.370696,1149.143247,10658.965565
1100.247318,-2220.617826,842.705048,7994.224174
1100.247647,-296.082377,459.657299,7698.141797
1100.247977,370.102971,-459.657299,9178.553681
1100.248307,0.000000,919.314598,10436.903782
1100.248636,-1628.453072,3677.258390,11547.212695
1100.248966,-3701.029710,4519.963438,11029.068536
1100.249295,-4219.173869,4136.915689,10288.862594
1100.249625,-4219.173869,1685.410096,9474.636058
1100.249955,-2738.761985,229.828649,9548.656652
1100.250284,-1480.411884,919.314598,9030.512492
1100.250614,-1924.535449,2681.334243,6661.853478
1100.250943,-740.205942,2451.505594,4145.153275
1100.251273,1702.473667,-612.876398,4663.297435
1100.251603,2590.720797,0.000000,6809.894666
1100.251932,1776.494261,3524.039291,8660.409521
1100.252262,-1036.288319,4673.182538,9622.677246
1100.252591,-3256.906145,4673.182538,9252.574275
1100.252921,-3775.050304,2911.162892,9178.553681
1100.253251,-2590.720797,-306.438199,9030.512492
1100.253580,-962.267725,-2374.896044,9252.574275
1100.253910,-740.205942,-1378.971896,8438.347739
1100.254239,-1702.473667,459.657299,6735.874072
1100.254569,-1332.370696,-1378.971896,5995.668130
1100.254898,444.123565,-3064.381992,7994.224174
1100.255228,2146.597232,-306.438199,11917.315666
1100.255558,1184.329507,2374.896044,13545.768739
1100.255887,-2220.617826,3983.696590,12065.356855
1100.256217,-3701.029710,1149.143247,11399.171507
1100.256546,-2072.576638,-1608.800546,13545.768739
1100.256876,-888.247130,-459.657299,15470.304188
1100.257206,-740.205942,1762.019645,14211.954086
1100.257535,-1776.494261,612.876398,10214.842000
1100.257865,-1184.329507,-2145.067394,7402.059420
1100.258194,814.226536,-3370.820191,8438.347739
1100.258524,1850.514855,-1532.190996,11621.233289
1100.258853,518.144159,1685.410096,11547.212695
1100.259183,-2072.576638,4290.134789,10658.965565
1100.259513,-3997.112087,3524.039291,9696.697840
1100.259842,-3330.926739,689.485948,10436.903782
1100.260172,-2368.659014,-842.705048,10807.006753
1100.260501,-1924.535449,229.828649,9400.615463
1100.260831,-1924.535449,2451.505594,7254.018232
1100.261160,-2072.576638,1915.238745,6069.688724
1100.261490,-296.082377,-536.266849,5107.421000
1100.261820,814.226536,-2298.286494,5625.565159
1100.262149,1332.370696,919.314598,7698.141797
1100.262479,0.000000,4979.620737,9548.656652
1100.262808,-3034.844362,5056.230287,9178.553681
1100.263138,-4071.132681,3064.381992,8586.388927
1100.263468,-3034.844362,0.000000,8512.368333
1100.263797,-1480.411884,-229.828649,9326.594869
1100.264127,0.000000,1685.410096,9178.553681
1100.264456,-666.185348,1225.752797,7994.224174
1100.264786,-1110.308913,0.000000,5995.668130
1100.265115,0.000000,-1685.410096,6217.729913
1100.265445,2368.659014,-1532.190996,9178.553681
1100.265775,3182.885551,1149.143247,11399.171507
1100.266104,962.267725,3600.648841,11843.295072
1100.266434,-2738.761985,3370.820191,11325.150913
1100.266763,-3182.885551,1072.533697,11917.315666
1100.267093,-1924.535449,-383.047749,13841.851115
1100.267422,-148.041188,1149.143247,14359.995275
1100.267752,-888.247130,1072.533697,11843.295072
1100.268082,-1332.370696,-459.657299,9030.512492
1100.268411,0.000000,-1532.190996,8068.244768
1100.268741,1184.329507,-1302.362347,9178.553681
1100.269070,1258.350101,1302.362347,10955.047942
1100.269400,0.000000,3677.258390,11695.253884
1100.269730,-2368.659014,4290.134789,11399.171507
1100.270059,-3997.112087,2145.067394,10066.800811
1100.270389,-3997.112087,-536.266849,9770.718434
1100.270718,-3256.906145,-1608.800546,10066.800811
1100.271048,-2960.823768,0.000000,10066.800811
1100.271377,-3256.906145,1225.752797,8956.491898
1100.271707,-3108.864956,1072.533697,6735.874072
1100.272037,-296.082377,-919.314598,6217.729913
1100.272366,1554.432478,-459.657299,7105.977043
1100.272696,2220.617826,2528.115143,8290.306550
1100.273025,888.247130,3907.087040,8512.368333
1100.273355,-1924.535449,3830.477490,8512.368333
1100.273685,-2960.823768,3217.601092,8216.285956
1100.274014,-2442.679609,1378.971896,9178.553681
1100.274344,-666.185348,0.000000,9622.677246
1100.274673,148.041188,-766.095498,9030.512492
1100.275003,-1628.453072,-612.876398,6957.935855
1100.275332,-1406.391290,-1302.362347,5477.523971
1100.275662,0.000000,-2834.553343,6291.750507
1100.275992,1776.494261,-766.095498,8882.471304
1100.276321,1998.556043,1455.581446,10955.047942
1100.276651,-666.185348,3830.477490,11843.295072
1100.276980,-3108.864956,2911.162892,10955.047942
1100.277310,-2886.803174,0.000000,10658.965565
1100.277639,-888.247130,-1915.238745,12287.418637
1100.277969,444.123565,-306.438199,13249.686362
1100.278299,-740.205942,536.266849,11325.150913
1100.278628,-1332.370696,0.000000,9252.574275
1100.278958,-296.082377,-2298.286494,9104.533087
1100.279287,814.226536,-1762.019645,11695.253884
1100.279617,1554.432478,1685.410096,14508.036463
1100.279947,296.082377,3907.087040,13915.871710
1100.280276,-1998.556043,3447.429741,10732.986159
1100.280606,-2738.761985,1378.971896,9844.739029
1100.280935,-2072.576638,-842.705048,10732.986159
1100.281265,-1924.535449,-459.657299,11769.274478
1100.281594,-2368.659014,1991.848295,10288.862594
1100.281924,-3108.864956,2068.457845,7105.977043
1100.282254,-2072.576638,-383.047749,5255.462188
1100.282583,592.164754,-1838.629195,5625.565159
1100.282913,2220.617826,0.000000,6809.894666
1100.283242,1554.432478,2604.724693,7328.038826
1100.283572,-962.267725,4060.306139,7846.182985
1100.283901,-3478.967927,4979.620737,9030.512492
1100.284231,-3775.050304,3064.381992,9918.759623
1100.284561,-3404.947333,1225.752797,9770.718434
1100.284890,-1924.535449,76.609550,8586.388927
1100.285220,-592.164754,-383.047749,7105.977043
1100.285549,-1184.329507,-689.485948,6217.729913
1100.285879,-814.226536,-1455.581446,5847.626942
1100.286209,148.041188,-1378.971896,7328.038826
1100.286538,962.267725,306.438199,9918.759623
1100.286868,888.247130,3524.039291,11769.274478
1100.287197,-1924.535449,3907.087040,11769.274478
1100.287527,-2738.761985,2068.457845,10214.842000
1100.287856,-2368.659014,-383.047749,9992.780217
1100.288186,-370.102971,-995.924147,11325.150913
1100.288516,1258.350101,229.828649,12583.501014
1100.288845,0.000000,1149.143247,11177.109724
1100.289175,-518.144159,306.438199,9326.594869
1100.289504,518.144159,-995.924147,8586.388927
1100.289834,2664.741391,-995.924147,11103.089130
1100.290163,3256.906145,1149.143247,11991.336260
1100.290493,222.061783,3370.820191,12509.480420
1100.290823,-2590.720797,3524.039291,11843.295072
1100.291152,-3478.967927,2528.115143,11399.171507
1100.291482,-3034.844362,536.266849,11325.150913
1100.291811,-1776.494261,-306.438199,10955.047942
1100.292141,-1184.329507,229.828649,9696.697840
1100.292471,-2664.741391,229.828649,6735.874072
1100.292800,-1702.473667,0.000000,5033.400406
1100.293130,0.000000,-1225.752797,6513.812290
1100.293459,222.061783,995.924147,8956.491898
1100.293789,-1258.350101,4673.182538,9844.739029
1100.294118,-2812.782580,4596.572988,9622.677246
1100.294448,-4071.132681,2374.896044,8216.285956
1100.294778,-3108.864956,-229.828649,8216.285956
1100.295107,-1702.473667,-995.924147,9178.553681
1100.295437,-592.164754,-459.657299,9252.574275
1100.295766,-1258.350101,612.876398,7994.224174
1100.296096,-2146.597232,842.705048,5773.606348
1100.296426,-296.082377,-919.314598,5625.565159
1100.296755,1776.494261,-1532.190996,8364.327145
1100.297085,3701.029710,1762.019645,10510.924376
1100.297414,2368.659014,3294.210641,10881.027347
1100.297744,-888.247130,2528.115143,8956.491898
1100.298073,-2294.638420,229.828649,9178.553681
1100.298403,-1406.391290,-1455.581446,12065.356855
1100.298733,-740.205942,76.609550,13841.851115
1100.299062,-592.164754,1838.629195,12509.480420
1100.299392,-1258.350101,459.657299,8956.491898
1100.299721,-888.247130,-3370.820191,7031.956449
1100.300051,814.226536,-4826.401637,8882.471304
1100.300380,1480.411884,-689.485948,12287.418637
1100.300710,888.247130,2681.334243,13397.727550
1100.301040,-2220.617826,4136.915689,11399.171507
1100.301369,-3627.009116,1532.190996,10584.944971
1100.301699,-2590.720797,-1455.581446,11991.336260
1100.302028,-1036.288319,-766.095498,13841.851115
1100.302358,-962.267725,2604.724693,12435.459826
1100.302688,-1702.473667,3447.429741,8660.409521
1100.303017,-1480.411884,229.828649,6661.853478
1100.303347,0.000000,-1685.410096,7994.224174
1100.303676,1184.329507,306.438199,9104.533087
1100.304006,814.226536,2451.505594,8956.491898
1100.304335,-592.164754,3064.381992,7920.203579
1100.304665,-2590.720797,2911.162892,8216.285956
1100.304995,-3108.864956,1149.143247,8512.368333
1100.305324,-2368.659014,-306.438199,8956.491898
1100.305654,-1406.391290,689.485948,8364.327145
1100.305983,-1480.411884,2298.286494,7254.018232
1100.306313,-2072.576638,1149.143247,6365.771101
1100.306642,-1998.556043,0.000000,6069.688724
1100.306972,-222.061783,459.657299,6069.688724
1100.307302,1554.432478,842.705048,7105.977043
1100.307631,2294.638420,3140.991542,8956.491898
1100.307961,0.000000,3907.087040,9992.780217
1100.308290,-2590.720797,2528.115143,9474.636058
1100.308620,-3330.926739,536.266849,9622.677246
1100.308950,-2072.576638,-612.876398,10955.047942
1100.309279,-518.144159,612.876398,12361.439231
1100.309609,-666.185348,919.314598,11695.253884
1100.309938,-1850.514855,-306.438199,9178.553681
1100.310268,-962.267725,-995.924147,7698.141797
1100.310597,1628.453072,-1149.143247,9474.636058
1100.310927,3478.967927,1225.752797,12213.398043
1100.311257,2294.638420,2681.334243,13397.727550
1100.311586,-518.144159,3447.429741,12435.459826
1100.311916,-2590.720797,3064.381992,11843.295072
1100.312245,-1924.535449,1149.143247,11843.295072
1100.312575,-962.267725,1072.533697,12583.501014
1100.312904,74.020594,1225.752797,12731.542202
1100.313234,-592.164754,1685.410096,9696.697840
1100.313564,-814.226536,995.924147,6735.874072
1100.313893,444.123565,-1532.190996,6069.688724
1100.314223,1184.329507,-995.924147,7698.141797
1100.314552,148.041188,2068.457845,10436.903782
1100.314882,-2664.741391,4903.011187,10807.006753
1100.315212,-4293.194464,4060.306139,8882.471304
1100.315541,-4367.215058,459.657299,7698.141797
1100.315871,-3034.844362,-612.876398,8438.347739
1100.316200,-1628.453072,0.000000,9770.718434
1100.316530,-1480.411884,2221.676944,8808.450710
1100.316859,-2146.597232,2528.115143,5921.647536
1100.317189,-1332.370696,0.000000,4367.215058
1100.317519,666.185348,-1991.848295,6143.709319
1100.317848,1776.494261,-306.438199,9178.553681
1100.318178,962.267725,2834.553343,10658.965565
1100.318507,-1036.288319,2911.162892,9548.656652
1100.318837,-2516.700203,1685.410096,8956.491898
1100.319167,-2294.638420,-612.876398,9992.780217
1100.319496,-370.102971,-2221.676944,12065.356855
1100.319826,444.123565,-383.047749,12361.439231
1100.320155,148.041188,1532.190996,10362.883188
1100.320485,-1480.411884,229.828649,7476.080014
1100.320814,0.000000,-2528.115143,8290.306550
1100.321144,1702.473667,-2528.115143,10584.944971
1100.321474,2220.617826,995.924147,12065.356855
1100.321803,148.041188,3064.381992,11695.253884
1100.322133,-2294.638420,2911.162892,11177.109724
1100.322462,-3330.926739,612.876398,11251.130318
1100.322792,-2294.638420,-766.095498,12805.562797
1100.323121,-518.144159,459.657299,13397.727550
1100.323451,-888.247130,1915.238745,11843.295072
1100.323781,-2220.617826,1915.238745,8290.306550
1100.324110,-2294.638420,0.000000,7550.100608
1100.324440,0.000000,-1455.581446,8956.491898
1100.324769,0.000000,1838.629195,10658.965565
1100.325099,-962.267725,4596.572988,10288.862594
1100.325429,-3108.864956,3447.429741,8438.347739
1100.325758,-3849.070898,1762.019645,8142.265362
1100.326088,-3034.844362,383.047749,8660.409521
1100.326417,-1776.494261,1225.752797,8956.491898
1100.326747,0.000000,2451.505594,8142.265362
1100.327076,-592.164754,2911.162892,6883.915261
1100.327406,-592.164754,3140.991542,5477.523971
1100.327736,148.041188,612.876398,5551.544565
1100.328065,1480.411884,1072.533697,6809.894666
1100.328395,2294.638420,3064.381992,8808.450710
1100.328724,148.041188,3983.696590,9474.636058
1100.329054,-2812.782580,3447.429741,9622.677246
1100.329383,-3923.091493,1608.800546,9326.594869
1100.329713,-2590.720797,-612.876398,9622.677246
1100.330043,-962.267725,-383.047749,10214.842000
1100.330372,-666.185348,1149.143247,10288.862594
1100.330702,-370.102971,995.924147,9104.533087
1100.331031,-296.082377,-383.047749,7179.997637
1100.331361,518.144159,-1072.533697,8290.306550
1100.331691,1776.494261,536.266849,10658.965565
1100.332020,1184.329507,2757.943793,13471.748144
1100.332350,-1850.514855,3677.258390,13619.789333
1100.332679,-3701.029710,2145.067394,11843.295072
1100.333009,-3108.864956,-766.095498,11547.212695
1100.333338,-1036.288319,-1915.238745,12731.542202
1100.333668,0.000000,229.828649,13397.727550
1100.333998,-1036.288319,1991.848295,11547.212695
1100.334327,-962.267725,1838.629195,8142.265362
1100.334657,444.123565,0.000000,7402.059420
1100.334986,1480.411884,0.000000,9030.512492
1100.335316,1332.370696,2145.067394,10214.842000
1100.335645,-962.267725,3140.991542,10066.800811
1100.335975,-2812.782580,3370.820191,8808.450710
1100.336305,-3997.112087,1225.752797,8068.244768
1100.336634,-4071.132681,-459.657299,8956.491898
1100.336964,-3182.885551,-612.876398,9474.636058
1100.337293,-2442.679609,612.876398,8808.450710
1100.337623,-2220.617826,2451.505594,7550.100608
1100.337953,-2220.617826,1455.581446,5033.400406
1100.338282,-370.102971,-306.438199,4959.379811
1100.338612,1036.288319,229.828649,6587.832884
1100.338941,1258.350101,3217.601092,8808.450710
1100.339271,-222.061783,4290.134789,8882.471304
1100.339600,-1776.494261,2834.553343,7920.203579
1100.339930,-2220.617826,-612.876398,7698.141797
1100.340260,-1776.494261,-2145.067394,9992.780217
1100.340589,-888.247130,-1302.362347,11251.130318
1100.340919,-1332.370696,689.485948,10584.944971
1100.341248,-2220.617826,842.705048,7994.224174
1100.341578,-444.123565,-1455.581446,7772.162391
1100.341908,1702.473667,-1915.238745,10362.883188
1100.342237,3108.864956,842.705048,12509.480420
1100.342567,1628.453072,2528.115143,12139.377449
1100.342896,-592.164754,2604.724693,11547.212695
1100.343226,-2886.803174,229.828649,11325.150913
1100.343555,-2664.741391,-919.314598,13397.727550
1100.343885,-1924.535449,0.000000,14434.015869
1100.344215,-1184.329507,919.314598,13101.645173
1100.344544,-1776.494261,1072.533697,10140.821405
1100.344874,-1480.411884,-1072.533697,8068.244768
1100.345203,592.164754,-2451.505594,9474.636058
1100.345533,888.247130,-536.266849,9844.739029
1100.345862,370.102971,3217.601092,9992.780217
1100.346192,-1332.370696,3830.477490,9474.636058
1100.346522,-2960.823768,3447.429741,9696.697840
1100.346851,-3330.926739,1072.533697,9770.718434
1100.347181,-2664.741391,1072.533697,8660.409521
1100.347510,-1036.288319,229.828649,7920.203579
1100.347840,-444.123565,995.924147,7476.080014
1100.348170,-1332.370696,1762.019645,7105.977043
1100.348499,-1924.535449,919.314598,6513.812290
1100.348829,-1406.391290,842.705048,6513.812290
1100.349158,-444.123565,2068.457845,8438.347739
1100.349488,-888.247130,3983.696590,10288.862594
1100.349817,-3330.926739,4290.134789,9548.656652
1100.350147,-4293.194464,1455.581446,7402.059420
1100.350477,-2664.741391,76.609550,6809.894666
1100.350806,-962.267725,-766.095498,7920.203579
1100.351136,-296.082377,459.657299,9548.656652
1100.351465,-1184.329507,1608.800546,8882.471304
1100.351795,-1702.473667,1225.752797,6661.853478
1100.352124,444.123565,0.000000,6365.771101
1100.352454,3108.864956,0.000000,9474.636058
1100.352784,4219.173869,2528.115143,12879.583391
1100.353113,1258.350101,4213.525239,12583.501014
1100.353443,-1850.514855,3830.477490,10732.986159
1100.353772,-2146.597232,2298.286494,10881.027347
1100.354102,-1480.411884,995.924147,12139.377449
1100.354431,-666.185348,1762.019645,12805.562797
1100.354761,-962.267725,995.924147,11029.068536
1100.355091,-1554.432478,-842.705048,7402.059420
1100.355420,-592.164754,-1762.019645,6809.894666
1100.355750,148.041188,-1915.238745,9474.636058
1100.356079,296.082377,229.828649,11621.233289
1100.356409,-888.247130,2145.067394,12139.377449
1100.356738,-3182.885551,3677.258390,12213.398043
1100.357068,-3997.112087,3907.087040,12213.398043
1100.357397,-3478.967927,1072.533697,12361.439231
1100.357727,-2368.659014,306.438199,12065.356855
1100.358056,-1628.453072,1072.533697,10214.842000
1100.358386,-1258.350101,1149.143247,8216.285956
1100.358715,-962.267725,1149.143247,5995.668130
1100.359045,-296.082377,0.000000,5255.462188
1100.359375,740.205942,-1225.752797,6661.853478
1100.359704,814.226536,1302.362347,8808.450710
1100.360034,-1036.288319,3064.381992,9622.677246
1100.360363,-3404.947333,2681.334243,8142.265362
1100.360693,-4293.194464,-919.314598,7105.977043
1100.361022,-2886.803174,-1685.410096,8438.347739
1100.361352,-1480.411884,-1225.752797,9696.697840
1100.361681,-1628.453072,459.657299,9696.697840
1100.362011,-2664.741391,536.266849,7031.956449
1100.362340,-2664.741391,-1838.629195,5033.400406
1100.362670,-74.020594,-3217.601092,7179.997637
1100.362999,1554.432478,-306.438199,9918.759623
1100.363329,1850.514855,1608.800546,11177.109724
1100.363658,0.000000,1838.629195,10881.027347
1100.363988,-2294.638420,842.705048,11621.233289
1100.364318,-2886.803174,-153.219100,13101.645173
1100.364647,-1924.535449,-153.219100,14730.098246
1100.364977,-666.185348,536.266849,14285.974681
1100.365306,-592.164754,842.705048,11769.274478
1100.365636,-740.205942,-842.705048,9326.594869
1100.365965,740.205942,-2604.724693,8364.327145
1100.366295,1110.308913,-2068.457845,9474.636058
1100.366624,1554.432478,1302.362347,11177.109724
1100.366954,740.205942,4213.525239,12139.377449
1100.367283,-1332.370696,4826.401637,11251.130318
1100.367613,-1850.514855,2451.505594,9104.533087
1100.367942,-1406.391290,153.219100,8364.327145
1100.368272,0.000000,536.266849,9696.697840
1100.368602,-592.164754,3217.601092,10066.800811
1100.368931,-2368.659014,3907.087040,8882.471304
1100.369261,-2960.823768,2298.286494,6587.832884
1100.369590,-2738.761985,-766.095498,5847.626942
1100.369920,-1776.494261,-612.876398,7031.956449
1100.370249,-1184.329507,1915.238745,9474.636058
1100.370579,-2960.823768,3753.867940,9326.594869
1100.370908,-4959.379811,3524.039291,7624.121203
1100.371238,-4293.194464,1072.533697,7402.059420
1100.371567,-2812.782580,153.219100,8882.471304
1100.371897,-1036.288319,1762.019645,9992.780217
1100.372226,-1332.370696,2681.334243,8734.430116
1100.372556,-1480.411884,2298.286494,6513.812290
1100.372885,-518.144159,612.876398,6439.791695
1100.373215,1776.494261,229.828649,7846.182985
1100.373545,2368.659014,1378.971896,9696.697840
1100.373874,1702.473667,2221.676944,11325.150913
1100.374204,-888.247130,2757.943793,10881.027347
1100.374533,-1998.556043,2298.286494,10584.944971
1100.374863,-1110.308913,-1455.581446,11325.150913
1100.375192,-370.102971,-2298.286494,11991.336260
1100.375522,-296.082377,459.657299,12583.501014
1100.375851,-1702.473667,1838.629195,11695.253884
1100.376181,-1924.535449,536.266849,9622.677246
1100.376510,-888.247130,-459.657299,8068.244768
1100.376840,1036.288319,-1762.019645,9548.656652
1100.377169,1702.473667,612.876398,12583.501014
1100.377499,-1258.350101,2834.553343,12509.480420
1100.377829,-3997.112087,2987.772442,10658.965565
1100.378158,-3923.091493,-689.485948,10066.800811
1100.378488,-2960.823768,-1378.971896,11917.315666
1100.378817,-2072.576638,0.000000,12805.562797
1100.379147,-2368.659014,842.705048,10584.944971
1100.379476,-2590.720797,459.657299,6957.935855
1100.379806,-2072.576638,-459.657299,5625.565159
1100.380135,592.164754,-919.314598,6883.915261
1100.380465,1924.535449,689.485948,8734.430116
1100.380794,370.102971,2451.505594,8956.491898
1100.381124,-1924.535449,3677.258390,7402.059420
1100.381453,-2664.741391,1991.848295,7254.018232
1100.381783,-1850.514855,0.000000,8364.327145
1100.382112,-740.205942,0.000000,8956.491898
1100.382442,-444.123565,766.095498,8734.430116
1100.382772,-1554.432478,1455.581446,7254.018232
1100.383101,-2516.700203,1455.581446,5625.565159
1100.383431,-1924.535449,-612.876398,5625.565159
1100.383760,1110.308913,-1532.190996,7476.080014
1100.384090,1924.535449,-536.266849,10066.800811
1100.384419,-370.102971,1991.848295,10732.986159
1100.384749,-2590.720797,1302.362347,10658.965565
1100.385078,-3997.112087,-995.924147,10214.842000
1100.385408,-2960.823768,-2221.676944,12065.356855
1100.385737,-1480.411884,-306.438199,14952.160028
1100.386067,-962.267725,1608.800546,15544.324782
1100.386396,-2220.617826,1762.019645,11843.295072
1100.386726,-1850.514855,-919.314598,8142.265362
1100.387056,1628.453072,-2911.162892,8660.409521
1100.387385,3552.988522,-459.657299,12065.356855
1100.387715,2664.741391,4673.182538,13693.809927
1100.388044,-740.205942,5362.668486,11399.171507
1100.388374,-2590.720797,2145.067394,10214.842000
1100.388703,-1924.535449,153.219100,10732.986159
1100.389033,-296.082377,1149.143247,11843.295072
1100.389362,518.144159,995.924147,11103.089130
1100.389692,-1258.350101,1532.190996,7994.224174
1100.390021,-2590.720797,1532.190996,5773.606348
1100.390351,-2368.659014,-306.438199,7105.977043
1100.390680,-1554.432478,0.000000,7179.997637
1100.391010,-814.226536,2374.896044,7550.100608
1100.391339,-1480.411884,3524.039291,7698.141797
1100.391669,-2516.700203,3830.477490,7476.080014
1100.391999,-3775.050304,2681.334243,6957.935855
1100.392328,-2368.659014,76.609550,6587.832884
1100.392658,-1332.370696,153.219100,7698.141797
1100.392987,-1406.391290,2068.457845,9548.656652
1100.393317,-2960.823768,3217.601092,9696.697840
1100.393646,-3775.050304,1762.019645,7328.038826
1100.393976,-1924.535449,-1149.143247,6143.709319
1100.394305,1480.411884,-536.266849,7476.080014
1100.394635,2812.782580,1072.533697,10732.986159
1100.394964,1258.350101,2145.067394,10807.006753
1100.395294,-1480.411884,1762.019645,9474.636058
1100.395623,-2146.597232,383.047749,9548.656652
1100.395953,-740.205942,1378.971896,11843.295072
1100.396283,666.185348,842.705048,12657.521608
1100.396612,370.102971,842.705048,11621.233289
1100.396942,-370.102971,0.000000,9030.512492
1100.397271,-222.061783,-1532.190996,8142.265362
1100.397601,1332.370696,-1072.533697,10214.842000
1100.397930,1776.494261,76.609550,12805.562797
1100.398260,-518.144159,1915.238745,13397.727550
1100.398589,-3478.967927,2834.553343,12065.356855
1100.398919,-4219.173869,1225.752797,11695.253884
1100.399248,-2664.741391,-842.705048,11399.171507
1100.399578,-1406.391290,-842.705048,11399.171507
1100.399907,-962.267725,-229.828649,11251.130318
1100.400237,-1850.514855,612.876398,9696.697840
1100.400566,-2442.679609,919.314598,8586.388927
1100.400896,-2072.576638,76.609550,7698.141797
1100.401226,-518.144159,153.219100,8142.265362
1100.401555,370.102971,1072.533697,9104.533087
1100.401885,-296.082377,3217.601092,9400.615463
1100.402214,-1702.473667,3600.648841,7105.977043
1100.402544,-1998.556043,1225.752797,6439.791695
1100.402873,-518.144159,919.314598,7624.121203
1100.403203,888.247130,1532.190996,9104.533087
1100.403532,0.000000,2528.115143,7920.203579
1100.403862,-1924.535449,536.266849,5625.565159
1100.404191,-1924.535449,-459.657299,5403.503377
1100.404521,-740.205942,689.485948,7846.182985
1100.404850,74.020594,1991.848295,9918.759623
1100.405180,-296.082377,2528.115143,9474.636058
1100.405510,-1850.514855,1302.362347,7624.121203
1100.405839,-2590.720797,383.047749,8660.409521
1100.406169,-2442.679609,612.876398,10807.006753
1100.406498,-1702.473667,1378.971896,11325.150913
1100.406828,-1480.411884,1685.410096,11177.109724
1100.407157,-2442.679609,766.095498,10732.986159
1100.407487,-2886.803174,689.485948,10584.944971
1100.407816,-1850.514855,0.000000,11251.130318
1100.408146,740.205942,-612.876398,11029.068536
1100.408475,1776.494261,612.876398,11251.130318
1100.408805,444.123565,1532.190996,11843.295072
1100.409134,-740.205942,2068.457845,12065.356855
1100.409464,-1110.308913,1225.752797,11917.315666
1100.409793,-222.061783,842.705048,11769.274478
1100.410123,1110.308913,2298.286494,12213.398043
1100.410453,1332.370696,2298.286494,11769.274478
1100.410782,0.000000,1838.629195,7920.203579
1100.411112,370.102971,0.000000,5699.585753
1100.411441,2294.638420,-1149.143247,5995.668130
1100.411771,1554.432478,1072.533697,7846.182985
1100.412100,-518.144159,3064.381992,9252.574275
1100.412430,-3552.988522,2451.505594,9030.512492
1100.412759,-4811.338623,383.047749,7994.224174
1100.413089,-4367.215058,-536.266849,8216.285956
1100.413418,-2738.761985,-383.047749,9252.574275
1100.413748,-2368.659014,-1378.971896,8512.368333
1100.414077,-3404.947333,-536.266849,7476.080014
1100.414407,-4145.153275,536.266849,7105.977043
1100.414736,-2886.803174,842.705048,7254.018232
1100.415066,0.000000,-153.219100,7624.121203
1100.415396,2072.576638,-1532.190996,7254.018232
1100.415725,2072.576638,-3064.381992,7920.203579
1100.416055,0.000000,-2834.553343,8586.388927
1100.416384,-1628.453072,-1532.190996,9992.780217
1100.416714,-1998.556043,-919.314598,11769.274478
1100.417043,-1110.308913,-1225.752797,13027.624579
1100.417373,-666.185348,-919.314598,13915.871710
1100.417702,0.000000,-1302.362347,12805.562797
1100.418032,-222.061783,-2145.067394,8660.409521
1100.418361,296.082377,-4366.744339,6143.709319
1100.418691,2960.823768,-5439.278036,6883.915261
1100.419020,3701.029710,-3217.601092,11029.068536
1100.419350,888.247130,-766.095498,13693.809927
1100.419680,-3627.009116,459.657299,12139.377449
1100.420009,-5625.565159,-1991.848295,10881.027347
1100.420339,-4663.297435,-4903.011187,11769.274478
1100.420668,-2220.617826,-4136.915689,13915.871710
1100.420998,-1110.308913,-3370.820191,13545.768739
1100.421327,-1924.535449,-2911.162892,9992.780217
1100.421657,-2516.700203,-3524.039291,7476.080014
1100.421986,-1776.494261,-2834.553343,8364.327145
1100.422316,444.123565,-995.924147,10288.862594
1100.422645,2072.576638,612.876398,10584.944971
1100.422975,2442.679609,459.657299,8882.471304
1100.423304,666.185348,-1685.410096,7624.121203
1100.423634,-1184.329507,-2834.553343,8216.285956
1100.423963,-1998.556043,-1762.019645,9622.677246
1100.424293,-2368.659014,-919.314598,10214.842000
1100.424623,-2072.576638,-459.657299,9474.636058
1100.424952,-1628.453072,-2145.067394,7846.182985
1100.425282,-740.205942,-3830.477490,7254.018232
1100.425611,222.061783,-1991.848295,5847.626942
1100.425941,962.267725,-383.047749,4737.318029
1100.426270,3108.864956,306.438199,5033.400406
1100.426600,2812.782580,0.000000,7328.038826
1100.426929,592.164754,0.000000,10362.883188
1100.427259,-2886.803174,-153.219100,10955.047942
1100.427588,-4811.338623,-459.657299,10658.965565
1100.427918,-4885.359217,-2451.505594,11103.089130
1100.428247,-5033.400406,-3830.477490,11621.233289
1100.428577,-4589.276840,-4826.401637,10881.027347
1100.428907,-2664.741391,-6894.859482,9252.574275
1100.429236,-1184.329507,-6665.030833,7624.121203
1100.429566,-222.061783,-2604.724693,7698.141797
1100.429895,888.247130,-229.828649,10807.006753
1100.430225,1480.411884,0.000000,13693.809927
1100.430554,962.267725,1762.019645,13471.748144
1100.430884,1110.308913,1455.581446,12435.459826
1100.431213,1554.432478,-1991.848295,12583.501014
1100.431543,592.164754,-3600.648841,14063.912898
1100.431872,-1480.411884,-2681.334243,14804.118840
1100.432202,-3330.926739,-2604.724693,13767.830521
1100.432531,-3775.050304,-2604.724693,10955.047942
1100.432861,-3552.988522,-2528.115143,7698.141797
1100.433190,-740.205942,-4213.525239,5921.647536
1100.433520,2072.576638,-5286.058936,4219.173869
1100.433850,3775.050304,-4443.353888,3552.988522
1100.434179,3701.029710,-2604.724693,4293.194464
1100.434509,2294.638420,-306.438199,7550.100608
1100.434838,444.123565,1532.190996,11991.336260
1100.435168,-2368.659014,3447.429741,15322.262999
1100.435497,-4515.256246,4290.134789,15100.201217
1100.435827,-5477.523971,2528.115143,12657.521608
1100.436156,-4515.256246,-1225.752797,10732.986159
1100.436486,-3330.926739,-4519.963438,8142.265362
1100.436815,-3034.844362,-4596.572988,5847.626942
1100.437145,-2294.638420,-3753.867940,3923.091493
1100.437474,-1332.370696,-2451.505594,3923.091493
1100.437804,-1036.288319,-1608.800546,4367.215058
1100.438134,-666.185348,-1915.238745,4441.235652
1100.438463,1110.308913,-1838.629195,4737.318029
1100.438793,3775.050304,-2298.286494,6587.832884
1100.439122,4145.153275,-1991.848295,9548.656652
1100.439452,2220.617826,-842.705048,13397.727550
1100.439781,-1036.288319,0.000000,16432.571912
1100.440111,-3182.885551,1455.581446,17616.901420
1100.440440,-4219.173869,1685.410096,16950.716072
1100.440770,-4071.132681,842.705048,14804.118840
1100.441099,-3034.844362,-2681.334243,10732.986159
1100.441429,-962.267725,-6511.811733,6513.812290
1100.441758,1036.288319,-7967.393179,4441.235652
1100.442088,2294.638420,-6205.373534,5255.462188
1100.442417,1924.535449,-3370.820191,7402.059420
1100.442747,148.041188,-1225.752797,10140.821405
1100.443077,-1628.453072,76.609550,12213.398043
1100.443406,-2368.659014,766.095498,14063.912898
1100.443736,-2812.782580,-612.876398,13545.768739
1100.444065,-3034.844362,-2298.286494,12509.480420
1100.444395,-2960.823768,-4673.182538,11473.192101
1100.444724,-2664.741391,-5822.325785,10510.924376
1100.445054,-2220.617826,-6588.421283,8956.491898
1100.445383,-1702.473667,-6128.763984,7476.080014
1100.445713,-1110.308913,-4826.401637,6883.915261
1100.446042,0.000000,-2987.772442,7105.977043
1100.446372,1776.494261,-2451.505594,7476.080014
1100.446701,2294.638420,-1302.362347,7994.224174
1100.447031,1036.288319,-306.438199,9326.594869
1100.447361,-1036.288319,1762.019645,10510.924376
1100.447690,-2220.617826,1225.752797,11547.212695
1100.448020,-2368.659014,-766.095498,11325.150913
1100.448349,-1850.514855,-2834.553343,9474.636058
1100.448679,-592.164754,-5132.839837,7698.141797
1100.449008,148.041188,-7124.688131,6143.709319
1100.449338,888.247130,-7354.516781,6143.709319
1100.449667,1036.288319,-5669.106685,7328.038826
1100.449997,-222.061783,-2681.334243,8882.471304
1100.450326,-1776.494261,766.095498,10658.965565
1100.450656,-2072.576638,2298.286494,12509.480420
1100.450985,-1480.411884,2374.896044,12879.583391
1100.451315,-1110.308913,1149.143247,12065.356855
1100.451644,-1332.370696,-459.657299,10140.821405
1100.451974,-740.205942,-2604.724693,9030.512492
1100.452304,-666.185348,-3830.477490,9104.533087
1100.452633,-1110.308913,-3600.648841,9178.553681
1100.452963,-2368.659014,-3294.210641,8808.450710
1100.453292,-2516.700203,-3140.991542,9252.574275
1100.453622,-2368.659014,-3524.039291,9474.636058
1100.453951,-2368.659014,-2451.505594,9844.739029
1100.454281,-1628.453072,-2221.676944,10658.965565
1100.454610,-962.267725,-1225.752797,11547.212695
1100.454940,-370.102971,306.438199,12583.501014
1100.455269,-370.102971,1991.848295,13027.624579
1100.455599,-444.123565,3524.039291,11991.336260
1100.455928,0.000000,2911.162892,9770.718434
1100.456258,1036.288319,1302.362347,7254.018232
1100.456587,2442.679609,-1915.238745,5329.482782
1100.456917,2960.823768,-4596.572988,4293.194464
1100.457246,2368.659014,-4519.963438,4959.379811
1100.457576,-1036.288319,-4443.353888,6957.935855
1100.457906,-3849.070898,-2911.162892,9696.697840
1100.458235,-4959.379811,-1915.238745,12361.439231
1100.458565,-4737.318029,-1225.752797,13841.851115
1100.458894,-3701.029710,-766.095498,14137.933492
1100.459224,-3330.926739,-229.828649,11769.274478
1100.459553,-2590.720797,-842.705048,9474.636058
1100.459883,-1258.350101,-1072.533697,7772.162391
1100.460212,0.000000,-383.047749,7254.018232
1100.460542,592.164754,-153.219100,7179.997637
1100.460871,296.082377,-1455.581446,6217.729913
1100.461201,74.020594,-3983.696590,5625.565159
1100.461530,-666.185348,-5362.668486,5921.647536
1100.461860,-962.267725,-6205.373534,7846.182985
1100.462189,-666.185348,-5898.935335,10584.944971
1100.462519,-666.185348,-5669.106685,12065.356855
1100.462848,-1184.329507,-3830.477490,13471.748144
1100.463178,-1258.350101,-2451.505594,14211.954086
1100.463508,-1184.329507,-1302.362347,14285.974681
1100.463837,-296.082377,-842.705048,13471.748144
1100.464167,740.205942,-1149.143247,11177.109724
1100.464496,592.164754,-1378.971896,9622.677246
1100.464826,-370.102971,-2834.553343,8660.409521
1100.465155,-1554.432478,-3983.696590,8364.327145
1100.465485,-2590.720797,-4673.182538,7772.162391
1100.465814,-3627.009116,-5132.839837,7624.121203
1100.466144,-3404.947333,-4903.011187,8216.285956
1100.466473,-2960.823768,-5286.058936,9104.533087
1100.466803,-1480.411884,-5669.106685,9178.553681
1100.467132,-148.041188,-5822.325785,9178.553681
1100.467462,0.000000,-4136.915689,10362.883188
1100.467791,-740.205942,-1838.629195,11991.336260
1100.468121,-1332.370696,-689.485948,12583.501014
1100.468450,-1924.535449,-536.266849,12361.439231
1100.468780,-1924.535449,-1378.971896,11103.089130
1100.469110,-1406.391290,-1762.019645,10066.800811
1100.469439,-518.144159,-2451.505594,8734.430116
1100.469769,74.020594,-2298.286494,7550.100608
1100.470098,0.000000,-1302.362347,7476.080014
1100.470428,148.041188,0.000000,7698.141797
1100.470757,148.041188,306.438199,8216.285956
1100.471087,-148.041188,919.314598,8808.450710
1100.471416,-592.164754,689.485948,8882.471304
1100.471746,-1554.432478,-229.828649,9474.636058
1100.472075,-2960.823768,-1149.143247,10214.842000
1100.472405,-4663.297435,-1378.971896,11473.192101
1100.472734,-5773.606348,-995.924147,12065.356855
1100.473064,-6217.729913,-612.876398,11177.109724
1100.473393,-5921.647536,0.000000,9992.780217
1100.473723,-5255.462188,-229.828649,8956.491898
1100.474052,-3997.112087,536.266849,8142.265362
1100.474382,-1998.556043,1225.752797,7476.080014
1100.474711,-592.164754,1762.019645,7179.997637
1100.475041,0.000000,2834.553343,7031.956449
1100.475371,-592.164754,2451.505594,7994.224174
1100.475700,-1332.370696,1532.190996,9252.574275
1100.476030,-2368.659014,919.314598,10732.986159
1100.476359,-3923.091493,229.828649,11547.212695
1100.476689,-5625.565159,-306.438199,11399.171507
1100.477018,-7105.977043,-766.095498,11621.233289
1100.477348,-7179.997637,-1378.971896,10584.944971
1100.477677,-6217.729913,-766.095498,8882.471304
1100.478007,-4145.153275,-766.095498,6957.935855
1100.478336,-2294.638420,-1149.143247,5847.626942
1100.478666,-888.247130,0.000000,6217.729913
1100.478995,-814.226536,536.266849,7328.038826
1100.479325,-1850.514855,1378.971896,8586.388927
1100.479654,-3404.947333,2145.067394,9918.759623
1100.479984,-5181.441594,1838.629195,11251.130318
1100.480313,-6957.935855,1378.971896,12879.583391
1100.480643,-7402.059420,-229.828649,13989.892304
1100.480973,-8068.244768,-1225.752797,13175.665768
1100.481302,-7254.018232,-1378.971896,12139.377449
1100.481632,-5847.626942,-995.924147,10955.047942
1100.481961,-4145.153275,-1225.752797,8956.491898
1100.482291,-2442.679609,-1455.581446,7920.203579
1100.482620,-1702.473667,-1302.362347,6587.832884
1100.482950,-1480.411884,-689.485948,6883.915261
1100.483279,-2294.638420,-229.828649,7698.141797
1100.483609,-3108.864956,-536.266849,8734.430116
1100.483938,-4071.132681,-689.485948,9548.656652
1100.484268,-5255.462188,-1378.971896,10214.842000
1100.484597,-5773.606348,-1378.971896,10732.986159
1100.484927,-5847.626942,-1072.533697,11177.109724
1100.485256,-5033.400406,0.000000,11621.233289
1100.485586,-4293.194464,1455.581446,10955.047942
1100.485915,-3182.885551,2757.943793,9696.697840
1100.486245,-2220.617826,3524.039291,8438.347739
1100.486574,-814.226536,3370.820191,7328.038826
1100.486904,-296.082377,3140.991542,7179.997637
1100.487234,-1480.411884,2068.457845,7624.121203
1100.487563,-3034.844362,536.266849,8068.244768
1100.487893,-5033.400406,-612.876398,9326.594869
1100.488222,-7402.059420,-1302.362347,10362.883188
1100.488552,-8808.450710,-1532.190996,11251.130318
