#time,accel_x,accel_y,accel_z
1112.103425,-1258.350101,612.876398,9474.636058
1112.103755,-814.226536,536.266849,9696.697840
1112.104085,-1036.288319,766.095498,9474.636058
1112.104414,-814.226536,459.657299,9548.656652
1112.104744,-1258.350101,842.705048,9326.594869
1112.105073,-1036.288319,842.705048,9474.636058
1112.105403,-1184.329507,766.095498,9474.636058
1112.105733,-1036.288319,995.924147,9474.636058
1112.106062,-666.185348,1302.362347,9474.636058
1112.106392,-888.247130,842.705048,9474.636058
1112.106721,-888.247130,766.095498,9474.636058
1112.107051,-1036.288319,689.485948,9474.636058
1112.107381,-962.267725,919.314598,9326.594869
1112.107710,-1110.308913,1455.581446,9474.636058
1112.108040,-518.144159,689.485948,9326.594869
1112.108369,-740.205942,842.705048,9696.697840
1112.108699,-1036.288319,919.314598,9696.697840
1112.109029,-1036.288319,919.314598,9622.677246
1112.109358,-962.267725,995.924147,9474.636058
1112.109688,-1184.329507,612.876398,9178.553681
1112.110017,-962.267725,1072.533697,9400.615463
1112.110347,-1036.288319,1225.752797,9770.718434
1112.110677,-1036.288319,995.924147,9622.677246
1112.111006,-962.267725,919.314598,9696.697840
1112.111336,-592.164754,612.876398,9400.615463
1112.111665,-888.247130,1072.533697,9252.574275
1112.111995,-888.247130,995.924147,9622.677246
1112.112325,-1036.288319,842.705048,9474.636058
1112.112654,-1184.329507,995.924147,9548.656652
1112.112984,-962.267725,842.705048,9474.636058
1112.113313,-1036.288319,919.314598,9548.656652
1112.113643,-740.205942,842.705048,9474.636058
1112.113973,-1036.288319,689.485948,9474.636058
1112.114302,-1036.288319,995.924147,9474.636058
1112.114632,-888.247130,919.314598,9474.636058
1112.114961,-1110.308913,995.924147,9770.718434
1112.115291,-1036.288319,689.485948,9474.636058
1112.115621,-888.247130,919.314598,9400.615463
1112.115950,-962.267725,919.314598,9548.656652
1112.116280,-962.267725,995.924147,9400.615463
1112.116609,-814.226536,1072.533697,9474.636058
1112.116939,-592.164754,1608.800546,9474.636058
1112.117269,-888.247130,995.924147,9474.636058
1112.117598,-888.247130,919.314598,9474.636058
1112.117928,-888.247130,842.705048,9622.677246
1112.118257,-1036.288319,1225.752797,9474.636058
1112.118587,-1184.329507,1225.752797,9252.574275
1112.118917,-1036.288319,919.314598,9622.677246
1112.119246,-1258.350101,766.095498,9548.656652
1112.119576,-1110.308913,766.095498,9548.656652
1112.119905,-888.247130,919.314598,9844.739029
1112.120235,-1110.308913,689.485948,9696.697840
1112.120565,-888.247130,919.314598,9622.677246
1112.120894,-962.267725,1072.533697,9622.677246
1112.121224,-1036.288319,995.924147,9770.718434
1112.121553,-1110.308913,995.924147,9770.718434
1112.121883,-962.267725,919.314598,9548.656652
1112.122213,-1184.329507,766.095498,9474.636058
1112.122542,-1110.308913,842.705048,9622.677246
1112.122872,-1036.288319,919.314598,9696.697840
1112.123201,-1110.308913,842.705048,9474.636058
1112.123531,-1110.308913,689.485948,9474.636058
1112.123861,-814.226536,1302.362347,9326.594869
1112.124190,-814.226536,1072.533697,9622.677246
1112.124520,-814.226536,1149.143247,9474.636058
1112.124849,-1110.308913,1072.533697,9400.615463
1112.125179,-1036.288319,919.314598,9400.615463
1112.125509,-814.226536,919.314598,9326.594869
1112.125838,-666.185348,919.314598,9178.553681
1112.126168,-370.102971,995.924147,8956.491898
1112.126498,444.123565,612.876398,9030.512492
1112.126827,1036.288319,229.828649,8956.491898
1112.127157,962.267725,766.095498,9030.512492
1112.127486,1036.288319,1149.143247,9474.636058
1112.127816,148.041188,1072.533697,10140.821405
1112.128146,-370.102971,1608.800546,10214.842000
1112.128475,-1036.288319,1072.533697,10436.903782
1112.128805,-296.082377,459.657299,10288.862594
1112.129134,74.020594,0.000000,9326.594869
1112.129464,740.205942,-229.828649,9252.574275
1112.129794,1776.494261,0.000000,9326.594869
1112.130123,2516.700203,536.266849,8956.491898
1112.130453,3182.885551,689.485948,8734.430116
1112.130782,3627.009116,1378.971896,9104.533087
1112.131112,3701.029710,1915.238745,9474.636058
1112.131442,3552.988522,1608.800546,9844.739029
1112.131771,2960.823768,919.314598,10436.903782
1112.132101,2072.576638,1149.143247,10658.965565
1112.132430,1406.391290,689.485948,10658.965565
1112.132760,1184.329507,-306.438199,11103.089130
1112.133090,1184.329507,-306.438199,10658.965565
1112.133419,1702.473667,-306.438199,9474.636058
1112.133749,2886.803174,-689.485948,9178.553681
1112.134078,3627.009116,0.000000,8734.430116
1112.134408,4367.215058,1072.533697,8734.430116
1112.134738,4219.173869,1991.848295,9326.594869
1112.135067,3478.967927,2834.553343,9918.759623
1112.135397,2072.576638,3217.601092,10584.944971
1112.135726,0.000000,2757.943793,10362.883188
1112.136056,-1406.391290,2451.505594,9770.718434
1112.136386,-1702.473667,1225.752797,8956.491898
1112.136715,-1110.308913,-689.485948,8068.244768
1112.137045,444.123565,-1378.971896,7254.018232
1112.137374,2220.617826,-1532.190996,6439.791695
1112.137704,3182.885551,-919.314598,6291.750507
1112.138034,4589.276840,383.047749,7698.141797
1112.138363,3997.112087,2757.943793,9252.574275
1112.138693,2738.761985,4673.182538,11103.089130
1112.139022,1406.391290,4749.792088,12065.356855
1112.139352,666.185348,4136.915689,12435.459826
1112.139682,-148.041188,1608.800546,12435.459826
1112.140011,-962.267725,-383.047749,11843.295072
1112.140341,-1184.329507,-1532.190996,10955.047942
1112.140670,-740.205942,-2145.067394,9474.636058
1112.141000,444.123565,-2221.676944,8216.285956
1112.141330,2220.617826,-1225.752797,7105.977043
1112.141659,4071.132681,-766.095498,6883.915261
1112.141989,4959.379811,919.314598,6957.935855
1112.142318,4811.338623,2451.505594,7624.121203
1112.142648,4515.256246,3907.087040,8438.347739
1112.142978,3997.112087,4290.134789,9770.718434
1112.143307,2812.782580,3983.696590,11177.109724
1112.143637,1702.473667,2604.724693,11843.295072
1112.143966,666.185348,1149.143247,11843.295072
1112.144296,-592.164754,-536.266849,11547.212695
1112.144626,-1406.391290,-766.095498,10955.047942
1112.144955,-1480.411884,-1455.581446,11251.130318
1112.145285,-888.247130,-1608.800546,10584.944971
1112.145614,0.000000,-842.705048,9918.759623
1112.145944,1332.370696,229.828649,8882.471304
1112.146274,2886.803174,766.095498,7772.162391
1112.146603,4737.318029,919.314598,7105.977043
1112.146933,5699.585753,919.314598,7328.038826
1112.147262,5995.668130,1455.581446,7698.141797
1112.147592,5181.441594,1915.238745,8660.409521
1112.147922,4071.132681,1991.848295,9548.656652
1112.148251,2886.803174,1608.800546,10140.821405
1112.148581,1702.473667,1532.190996,10584.944971
1112.148910,740.205942,1532.190996,11399.171507
1112.149240,518.144159,1915.238745,11177.109724
1112.149570,370.102971,1455.581446,10362.883188
1112.149899,962.267725,842.705048,9178.553681
1112.150229,1480.411884,-306.438199,7920.203579
1112.150558,1850.514855,0.000000,7105.977043
1112.150888,2294.638420,306.438199,7550.100608
1112.151218,2072.576638,459.657299,8660.409521
1112.151547,1184.329507,1072.533697,9326.594869
1112.151877,-518.144159,1072.533697,9252.574275
1112.152206,-1332.370696,612.876398,10436.903782
1112.152536,-1036.288319,229.828649,11769.274478
1112.152866,-888.247130,153.219100,12361.439231
1112.153195,-814.226536,306.438199,12139.377449
1112.153525,-370.102971,153.219100,10288.862594
1112.153854,962.267725,-383.047749,9252.574275
1112.154184,3034.844362,459.657299,8438.347739
1112.154514,5477.523971,1685.410096,8068.244768
1112.154843,7846.182985,2834.553343,7550.100608
1112.155173,8956.491898,2757.943793,7328.038826
1112.155502,8808.450710,3140.991542,7920.203579
1112.155832,7402.059420,4213.525239,9548.656652
1112.156162,5033.400406,4903.011187,11473.192101
1112.156491,1998.556043,3677.258390,12731.542202
1112.156821,-1258.350101,1532.190996,13915.871710
1112.157150,-4737.318029,153.219100,13397.727550
1112.157480,-7846.182985,-1072.533697,11917.315666
1112.157810,-8290.306550,-2757.943793,9770.718434
1112.158139,-6365.771101,-2987.772442,7328.038826
1112.158469,-1776.494261,-3983.696590,4145.153275
1112.158798,4071.132681,-4519.963438,2146.597232
1112.159128,8882.471304,-2528.115143,1850.514855
1112.159458,10584.944971,1991.848295,4145.153275
1112.159787,9696.697840,6358.592633,6365.771101
1112.160117,8512.368333,7890.783629,10288.862594
1112.160446,5699.585753,8810.098227,14137.933492
1112.160776,1554.432478,9193.145976,16358.551318
1112.161106,-2664.741391,4443.353888,16950.716072
1112.161435,-5033.400406,0.000000,16654.633695
1112.161765,-5403.503377,-2298.286494,14582.057057
1112.162094,-3182.885551,-5132.839837,10658.965565
1112.162424,222.061783,-7201.297681,8364.327145
1112.162754,3404.947333,-6818.249932,4959.379811
1112.163083,6809.894666,-3447.429741,2294.638420
1112.163413,10066.800811,-1838.629195,2886.803174
1112.163742,11251.130318,3294.210641,6439.791695
1112.164072,8438.347739,8044.002729,9178.553681
1112.164402,4071.132681,7431.126331,11473.192101
1112.164731,-740.205942,7354.516781,12805.562797
1112.165061,-2812.782580,5132.839837,14434.015869
1112.165390,-3108.864956,1455.581446,14063.912898
1112.165720,-3182.885551,-2911.162892,11547.212695
1112.166050,-2072.576638,-5669.106685,7994.224174
1112.166379,1036.288319,-6818.249932,5625.565159
1112.166709,3182.885551,-6665.030833,6069.688724
1112.167038,3108.864956,-2451.505594,7624.121203
1112.167368,2664.741391,2374.896044,8660.409521
1112.167698,2368.659014,5132.839837,9992.780217
1112.168027,3330.926739,7124.688131,11325.150913
1112.168357,3701.029710,4366.744339,12213.398043
1112.168686,3552.988522,1915.238745,11991.336260
1112.169016,1406.391290,-689.485948,11843.295072
1112.169346,-962.267725,-612.876398,11843.295072
1112.169675,-2812.782580,-612.876398,10955.047942
1112.170005,-2664.741391,-2221.676944,8586.388927
1112.170334,370.102971,-3447.429741,5477.523971
1112.170664,4219.173869,-4596.572988,3849.070898
1112.170994,7624.121203,-2911.162892,5329.482782
1112.171323,8734.430116,2451.505594,7105.977043
1112.171653,7846.182985,6128.763984,9400.615463
1112.171982,5477.523971,7124.688131,10510.924376
1112.172312,2368.659014,6818.249932,11843.295072
1112.172642,148.041188,4519.963438,15618.345376
1112.172971,-1924.535449,2451.505594,16802.674883
1112.173301,-4293.194464,306.438199,15544.324782
1112.173630,-5921.647536,-2145.067394,12583.501014
1112.173960,-5477.523971,-5132.839837,10732.986159
1112.174290,-3923.091493,-6281.983084,8734.430116
1112.174619,-2664.741391,-4136.915689,4885.359217
1112.174949,222.061783,-1072.533697,2368.659014
1112.175279,5403.503377,689.485948,2516.700203
1112.175608,9992.780217,2681.334243,5255.462188
1112.175938,10955.047942,4673.182538,7179.997637
1112.176267,10584.944971,7660.954980,7994.224174
1112.176597,7772.162391,8886.707777,10066.800811
1112.176926,5403.503377,10035.851024,12435.459826
1112.177256,3701.029710,7201.297681,14063.912898
1112.177585,1924.535449,-459.657299,15914.427753
1112.177915,-1110.308913,-766.095498,14359.995275
1112.178244,-5107.421000,612.876398,10362.883188
1112.178574,-4737.318029,-1915.238745,10140.821405
1112.178903,-4293.194464,-3830.477490,10510.924376
1112.179233,-5255.462188,-3064.381992,8734.430116
1112.179562,-2664.741391,-1378.971896,5995.668130
1112.179892,1776.494261,-1532.190996,2664.741391
1112.180221,7550.100608,2681.334243,1332.370696
1112.180551,11843.295072,2451.505594,2220.617826
1112.180880,13249.686362,-1455.581446,5403.503377
1112.181210,9844.739029,4826.401637,7994.224174
1112.181539,6217.729913,10035.851024,11177.109724
1112.181869,5477.523971,7660.954980,14582.057057
1112.182198,2516.700203,3677.258390,17024.736666
1112.182528,-1110.308913,919.314598,16654.633695
1112.182857,-2886.803174,-3600.648841,14063.912898
1112.183187,-4589.276840,-5822.325785,12435.459826
1112.183516,-6957.935855,-3600.648841,12435.459826
1112.183846,-7105.977043,-1991.848295,12213.398043
1112.184176,-3923.091493,-3677.258390,7328.038826
1112.184505,2664.741391,-3447.429741,3182.885551
1112.184835,9030.512492,-3447.429741,2368.659014
1112.185164,10881.027347,-689.485948,4145.153275
1112.185494,8216.285956,4519.963438,6439.791695
1112.185823,5107.421000,6205.373534,10288.862594
1112.186153,4219.173869,8886.707777,14211.954086
1112.186482,1406.391290,9269.755526,17098.757260
1112.186812,-3182.885551,4979.620737,15174.221811
1112.187141,-6217.729913,-2451.505594,12361.439231
1112.187471,-7476.080014,-5439.278036,12287.418637
1112.187800,-6439.791695,-4443.353888,11251.130318
1112.188130,-2146.597232,-5669.106685,9252.574275
1112.188459,666.185348,-6281.983084,6439.791695
1112.188789,2220.617826,-3217.601092,3997.112087
1112.189118,5773.606348,-383.047749,3701.029710
1112.189448,10584.944971,2604.724693,5995.668130
1112.189777,11991.336260,6971.469032,9548.656652
1112.190107,7254.018232,10648.727422,12139.377449
1112.190436,666.185348,10265.679673,13101.645173
1112.190766,-3256.906145,5592.497135,14285.974681
1112.191095,-4367.215058,3600.648841,13693.809927
1112.191425,-4367.215058,1685.410096,10807.006753
1112.191754,-3404.947333,-3294.210641,6143.709319
1112.192084,592.164754,-8733.488677,3478.967927
1112.192413,3775.050304,-8350.440928,1628.453072
1112.192743,5033.400406,-4749.792088,962.267725
1112.193072,5255.462188,0.000000,3478.967927
1112.193402,4589.276840,4903.011187,8660.409521
1112.193731,1406.391290,9652.803275,12213.398043
1112.194061,-2220.617826,9806.022374,14804.118840
1112.194391,-3108.864956,5822.325785,16950.716072
1112.194720,-3404.947333,3907.087040,17394.839637
1112.195050,-4219.173869,995.924147,15100.201217
1112.195379,-5477.523971,-3370.820191,11251.130318
1112.195709,-4367.215058,-5592.497135,6513.812290
1112.196038,-1110.308913,-7277.907231,2664.741391
1112.196368,2812.782580,-7201.297681,3330.926739
1112.196697,5921.647536,-2834.553343,8216.285956
1112.197027,5625.565159,2681.334243,10807.006753
1112.197356,2294.638420,6511.811733,8956.491898
1112.197686,-1036.288319,8273.831378,8882.471304
1112.198015,222.061783,9652.803275,11917.315666
1112.198345,2294.638420,6741.640382,15396.283594
1112.198674,1258.350101,919.314598,14656.077652
1112.199004,-4589.276840,153.219100,12065.356855
1112.199333,-7476.080014,-536.266849,10214.842000
1112.199663,-5477.523971,-3140.991542,9918.759623
1112.199992,-2516.700203,-5515.887586,10140.821405
1112.200322,-2368.659014,-4596.572988,8660.409521
1112.200651,-2738.761985,-2145.067394,6735.874072
1112.200981,-1776.494261,536.266849,7105.977043
1112.201310,-296.082377,2221.676944,7550.100608
1112.201640,296.082377,2757.943793,9178.553681
1112.201969,-222.061783,4673.182538,10066.800811
1112.202299,-666.185348,4443.353888,10288.862594
1112.202628,592.164754,2374.896044,7994.224174
1112.202958,2072.576638,1532.190996,6365.771101
1112.203287,2442.679609,-2528.115143,6957.935855
1112.203617,1406.391290,-3600.648841,8142.265362
1112.203947,-888.247130,-1378.971896,8364.327145
1112.204276,-2664.741391,229.828649,8882.471304
1112.204606,-3923.091493,1302.362347,9474.636058
1112.204935,-4885.359217,2298.286494,11325.150913
1112.205265,-3997.112087,1532.190996,10955.047942
1112.205594,-2220.617826,-459.657299,9696.697840
1112.205924,-1850.514855,612.876398,8068.244768
1112.206253,-814.226536,1378.971896,7698.141797
1112.206583,444.123565,-689.485948,10584.944971
1112.206912,-592.164754,-689.485948,11547.212695
1112.207242,-2738.761985,1532.190996,10584.944971
1112.207571,-4441.235652,842.705048,9992.780217
1112.207901,-3627.009116,383.047749,10955.047942
1112.208230,-2516.700203,459.657299,12953.603985
1112.208560,-1628.453072,612.876398,12435.459826
1112.208889,-814.226536,-689.485948,9548.656652
1112.209219,666.185348,0.000000,8364.327145
1112.209548,2590.720797,2068.457845,8660.409521
1112.209878,3552.988522,2145.067394,10658.965565
1112.210207,3256.906145,2451.505594,11547.212695
1112.210537,2368.659014,4136.915689,10362.883188
1112.210866,1332.370696,3907.087040,9326.594869
1112.211196,444.123565,3677.258390,10362.883188
1112.211525,-444.123565,2528.115143,11029.068536
1112.211855,-1850.514855,1302.362347,9400.615463
1112.212184,-2886.803174,-766.095498,6587.832884
1112.212514,-2812.782580,-612.876398,6439.791695
1112.212843,-1776.494261,919.314598,7846.182985
1112.213173,-1480.411884,-229.828649,8290.306550
1112.213502,-2146.597232,-1685.410096,7920.203579
1112.213832,-2664.741391,689.485948,7105.977043
1112.214162,-2368.659014,2451.505594,7179.997637
1112.214491,-1998.556043,1915.238745,8142.265362
1112.214821,-740.205942,1685.410096,10066.800811
1112.215150,-592.164754,1455.581446,9622.677246
1112.215480,-1184.329507,306.438199,7328.038826
1112.215809,-740.205942,-459.657299,8216.285956
1112.216139,1406.391290,612.876398,9918.759623
1112.216468,2072.576638,995.924147,11103.089130
1112.216798,1480.411884,-229.828649,10436.903782
1112.217127,888.247130,689.485948,10510.924376
1112.217457,-444.123565,2681.334243,9992.780217
1112.217786,-1036.288319,2145.067394,11843.295072
1112.218116,-2738.761985,1378.971896,13693.809927
1112.218445,-3775.050304,2298.286494,12953.603985
1112.218775,-3849.070898,1072.533697,9844.739029
1112.219104,-3256.906145,-2374.896044,9178.553681
1112.219434,-1628.453072,-1685.410096,9104.533087
1112.219763,74.020594,-766.095498,10436.903782
1112.220093,444.123565,-2911.162892,10584.944971
1112.220422,-1480.411884,-1225.752797,10510.924376
1112.220752,-4811.338623,3983.696590,10362.883188
1112.221081,-3849.070898,4443.353888,11695.253884
1112.221411,-814.226536,1838.629195,12583.501014
1112.221740,222.061783,1072.533697,10214.842000
1112.222070,0.000000,995.924147,6809.894666
1112.222399,0.000000,-995.924147,5699.585753
1112.222729,1036.288319,-306.438199,7624.121203
1112.223058,1776.494261,1455.581446,9400.615463
1112.223388,-518.144159,1149.143247,8956.491898
1112.223718,-2738.761985,1762.019645,8438.347739
1112.224047,-3701.029710,2221.676944,7846.182985
1112.224377,-2664.741391,2451.505594,7846.182985
1112.224706,-1924.535449,1685.410096,8290.306550
1112.225036,-2886.803174,-229.828649,8512.368333
1112.225365,-3775.050304,-153.219100,6735.874072
1112.225695,-3404.947333,-229.828649,6883.915261
1112.226024,-1184.329507,-766.095498,7772.162391
1112.226354,666.185348,0.000000,8808.450710
1112.226683,-296.082377,689.485948,8956.491898
1112.227013,-1332.370696,1608.800546,9474.636058
1112.227342,-1554.432478,2145.067394,11325.150913
1112.227672,-1258.350101,3677.258390,12361.439231
1112.228001,-1406.391290,4290.134789,13175.665768
1112.228331,-2442.679609,2145.067394,13101.645173
1112.228660,-2442.679609,1302.362347,10807.006753
1112.228990,-1258.350101,-459.657299,9400.615463
1112.229319,1554.432478,-919.314598,10214.842000
1112.229649,2294.638420,919.314598,11103.089130
1112.229978,1110.308913,76.609550,11177.109724
1112.230308,0.000000,689.485948,10214.842000
1112.230637,-1036.288319,1915.238745,10436.903782
1112.230967,-592.164754,3907.087040,11103.089130
1112.231296,518.144159,4443.353888,11399.171507
1112.231626,518.144159,1532.190996,10214.842000
1112.231955,-296.082377,995.924147,8438.347739
1112.232285,-444.123565,459.657299,7698.141797
1112.232614,0.000000,1378.971896,8808.450710
1112.232944,0.000000,2068.457845,8808.450710
1112.233273,-888.247130,383.047749,7772.162391
1112.233603,-1110.308913,153.219100,6883.915261
1112.233933,-1110.308913,919.314598,7328.038826
1112.234262,-1110.308913,689.485948,7402.059420
1112.234592,-1554.432478,2298.286494,7402.059420
1112.234921,-2294.638420,1149.143247,7476.080014
1112.235251,-2442.679609,-153.219100,6883.915261
1112.235580,-1628.453072,-306.438199,7624.121203
1112.235910,0.000000,0.000000,7476.080014
1112.236239,1406.391290,459.657299,8808.450710
1112.236569,888.247130,-842.705048,9104.533087
1112.236898,0.000000,842.705048,9474.636058
1112.237228,-2220.617826,1378.971896,9622.677246
1112.237557,-3849.070898,536.266849,11399.171507
1112.237887,-4071.132681,2145.067394,13175.665768
1112.238216,-3330.926739,1378.971896,13027.624579
1112.238546,-1554.432478,-1149.143247,9992.780217
1112.238875,-1036.288319,-2911.162892,8808.450710
1112.239205,518.144159,-2298.286494,9696.697840
1112.239534,2812.782580,0.000000,11917.315666
1112.239864,3034.844362,-919.314598,13175.665768
1112.240193,0.000000,766.095498,12583.501014
1112.240523,-3330.926739,3983.696590,12213.398043
1112.240852,-2812.782580,3370.820191,13841.851115
1112.241182,-148.041188,2604.724693,14063.912898
1112.241511,-962.267725,766.095498,11621.233289
1112.241841,-1998.556043,-153.219100,7624.121203
1112.242170,-2220.617826,-1762.019645,6809.894666
1112.242500,0.000000,-1685.410096,8660.409521
1112.242829,222.061783,766.095498,9326.594869
1112.243159,-1036.288319,1378.971896,8068.244768
1112.243489,-2812.782580,995.924147,6291.750507
1112.243818,-2886.803174,1991.848295,6217.729913
1112.244148,-2220.617826,2681.334243,8142.265362
1112.244477,-1628.453072,3524.039291,9252.574275
1112.244807,-2516.700203,1608.800546,7994.224174
1112.245136,-3701.029710,1302.362347,5773.606348
1112.245466,-3701.029710,0.000000,5773.606348
1112.245795,-1184.329507,-842.705048,6661.853478
1112.246125,222.061783,-153.219100,7846.182985
1112.246454,-148.041188,842.705048,7920.203579
1112.246784,-1776.494261,1455.581446,7846.182985
1112.247113,-2368.659014,1685.410096,8734.430116
1112.247443,-1406.391290,2681.334243,10658.965565
1112.247772,-666.185348,3524.039291,11843.295072
1112.248102,-1554.432478,2451.505594,11695.253884
1112.248431,-2146.597232,1225.752797,10214.842000
1112.248761,-962.267725,459.657299,9992.780217
1112.249090,1036.288319,0.000000,10732.986159
1112.249420,1554.432478,306.438199,11843.295072
1112.249749,74.020594,689.485948,12213.398043
1112.250079,-962.267725,1225.752797,11029.068536
1112.250408,-1702.473667,1455.581446,10658.965565
1112.250738,-814.226536,1762.019645,12065.356855
1112.251067,-148.041188,2528.115143,13397.727550
1112.251397,-1332.370696,2374.896044,13397.727550
1112.251726,-1554.432478,2528.115143,11103.089130
1112.252056,-962.267725,2374.896044,9252.574275
1112.252385,1110.308913,0.000000,7698.141797
1112.252715,2960.823768,-919.314598,9104.533087
1112.253044,2516.700203,-689.485948,10658.965565
1112.253374,74.020594,1762.019645,9474.636058
1112.253704,-3478.967927,2681.334243,7920.203579
1112.254033,-3182.885551,2604.724693,8882.471304
1112.254363,-2146.597232,3064.381992,8512.368333
1112.254692,-1332.370696,0.000000,7105.977043
1112.255022,-148.041188,-1685.410096,5255.462188
1112.255351,148.041188,-612.876398,3627.009116
1112.255681,962.267725,-153.219100,3849.070898
1112.256010,1554.432478,76.609550,7031.956449
1112.256340,0.000000,1302.362347,9030.512492
1112.256669,-3478.967927,3677.258390,9030.512492
1112.256999,-5181.441594,2298.286494,9474.636058
1112.257328,-4219.173869,1915.238745,9844.739029
1112.257658,-2960.823768,1455.581446,10140.821405
1112.257987,-2812.782580,-2987.772442,10584.944971
1112.258317,-3182.885551,-2604.724693,10881.027347
1112.258646,-3108.864956,0.000000,10436.903782
1112.258976,-518.144159,-995.924147,9918.759623
1112.259305,1110.308913,-1915.238745,10584.944971
1112.259635,666.185348,-383.047749,11843.295072
1112.259964,148.041188,1302.362347,12065.356855
1112.260294,148.041188,1149.143247,12361.439231
1112.260623,518.144159,3140.991542,13249.686362
1112.260953,-888.247130,3830.477490,13471.748144
1112.261282,-1258.350101,1149.143247,13249.686362
1112.261612,-1554.432478,-612.876398,12583.501014
1112.261941,-888.247130,-306.438199,11251.130318
1112.262271,0.000000,306.438199,9918.759623
1112.262600,1258.350101,612.876398,9252.574275
1112.262930,1184.329507,-1149.143247,9400.615463
1112.263259,-296.082377,536.266849,8364.327145
1112.263589,-2294.638420,2374.896044,8216.285956
1112.263919,-2368.659014,2834.553343,8956.491898
1112.264248,-2664.741391,2834.553343,9992.780217
1112.264578,-4219.173869,2374.896044,9104.533087
1112.264907,-4515.256246,1378.971896,6587.832884
1112.265237,-3330.926739,-1532.190996,4737.318029
1112.265566,-222.061783,-1149.143247,4885.359217
1112.265896,814.226536,842.705048,5773.606348
1112.266225,0.000000,-536.266849,6069.688724
1112.266555,-1702.473667,76.609550,6735.874072
1112.266884,-3404.947333,4213.525239,7476.080014
1112.267214,-2886.803174,5132.839837,8808.450710
1112.267543,-1628.453072,2528.115143,9622.677246
1112.267873,-370.102971,1149.143247,9548.656652
1112.268202,-518.144159,1378.971896,8290.306550
1112.268532,-296.082377,-766.095498,7920.203579
1112.268861,740.205942,-612.876398,9622.677246
1112.269191,1036.288319,2451.505594,10955.047942
1112.269520,370.102971,1072.533697,11769.274478
1112.269850,-1036.288319,459.657299,11621.233289
1112.270179,-2294.638420,2834.553343,12065.356855
1112.270509,-2442.679609,4290.134789,14211.954086
1112.270838,-2368.659014,2681.334243,14063.912898
1112.271168,-3108.864956,1455.581446,13175.665768
1112.271497,-2738.761985,-229.828649,11547.212695
1112.271827,-1332.370696,-1991.848295,10584.944971
1112.272156,74.020594,-1149.143247,10584.944971
1112.272486,1850.514855,919.314598,10732.986159
1112.272815,1332.370696,0.000000,9622.677246
1112.273145,666.185348,766.095498,9252.574275
1112.273475,518.144159,2604.724693,9844.739029
1112.273804,814.226536,3677.258390,10732.986159
1112.274134,1036.288319,4290.134789,10955.047942
1112.274463,-444.123565,2834.553343,10066.800811
1112.274793,-1332.370696,2451.505594,7476.080014
1112.275122,-1480.411884,689.485948,5329.482782
1112.275452,-370.102971,-383.047749,5181.441594
1112.275781,-888.247130,-306.438199,6291.750507
1112.276111,-2220.617826,0.000000,6291.750507
1112.276440,-3330.926739,76.609550,5477.523971
1112.276770,-4219.173869,-1225.752797,5699.585753
1112.277099,-4589.276840,459.657299,7624.121203
1112.277429,-3923.091493,2451.505594,10140.821405
1112.277758,-3256.906145,153.219100,10584.944971
1112.278088,-3182.885551,-842.705048,8364.327145
1112.278417,-3330.926739,-306.438199,7105.977043
1112.278747,-1184.329507,-229.828649,8586.388927
1112.279076,1628.453072,-1378.971896,10140.821405
1112.279406,1776.494261,-229.828649,10584.944971
1112.279735,518.144159,-153.219100,9992.780217
1112.280065,-444.123565,0.000000,10510.924376
1112.280394,-592.164754,1455.581446,12583.501014
1112.280724,-296.082377,2528.115143,14285.974681
1112.281053,-444.123565,995.924147,14137.933492
1112.281383,-1036.288319,153.219100,12583.501014
1112.281712,74.020594,229.828649,11843.295072
1112.282042,1702.473667,-306.438199,11177.109724
1112.282371,2294.638420,-612.876398,11843.295072
1112.282701,1110.308913,76.609550,12213.398043
1112.283030,-518.144159,1455.581446,12065.356855
1112.283360,-1998.556043,1072.533697,11177.109724
1112.283689,-1998.556043,1532.190996,10584.944971
1112.284019,-518.144159,2374.896044,9844.739029
1112.284348,-518.144159,-153.219100,8512.368333
1112.284678,-1258.350101,-1915.238745,7105.977043
1112.285007,-814.226536,919.314598,6069.688724
1112.285337,296.082377,2451.505594,5329.482782
1112.285666,1184.329507,459.657299,7179.997637
1112.285996,-444.123565,1072.533697,8364.327145
1112.286325,-2886.803174,3524.039291,7031.956449
1112.286655,-4219.173869,1838.629195,6291.750507
1112.286985,-3330.926739,1225.752797,7624.121203
1112.287314,-2960.823768,3064.381992,9030.512492
1112.287644,-4145.153275,1685.410096,8216.285956
1112.287973,-4145.153275,-2451.505594,6513.812290
1112.288303,-2886.803174,-1072.533697,6069.688724
1112.288632,0.000000,1225.752797,5699.585753
1112.288962,2590.720797,-689.485948,7402.059420
1112.289291,2590.720797,-536.266849,8586.388927
1112.289621,814.226536,2987.772442,9844.739029
1112.289950,-1702.473667,4290.134789,11621.233289
1112.290280,-1998.556043,4749.792088,13471.748144
1112.290609,-2516.700203,5745.716235,14211.954086
1112.290939,-2368.659014,2298.286494,13767.830521
1112.291268,-2294.638420,-2757.943793,12139.377449
1112.291598,-1702.473667,-3447.429741,11399.171507
1112.291927,0.000000,-383.047749,10510.924376
1112.292257,666.185348,-1149.143247,9844.739029
1112.292586,518.144159,-1685.410096,11843.295072
1112.292916,0.000000,1149.143247,12361.439231
1112.293245,-1036.288319,2757.943793,11917.315666
1112.293575,0.000000,2374.896044,12139.377449
1112.293904,814.226536,3064.381992,12953.603985
1112.294234,-1110.308913,3983.696590,9918.759623
1112.294563,-3775.050304,766.095498,7105.977043
1112.294893,-3182.885551,-2604.724693,6513.812290
1112.295222,-1258.350101,0.000000,7624.121203
1112.295552,148.041188,306.438199,7846.182985
1112.295881,-1332.370696,-3600.648841,8586.388927
1112.296211,-3849.070898,-766.095498,7994.224174
1112.296540,-4441.235652,1838.629195,6587.832884
1112.296870,-2146.597232,-1072.533697,6809.894666
1112.297199,-962.267725,229.828649,9030.512492
1112.297529,-1998.556043,4136.915689,9474.636058
1112.297858,-2146.597232,2068.457845,8512.368333
1112.298188,-962.267725,-766.095498,6661.853478
1112.298517,1850.514855,919.314598,5995.668130
1112.298847,3552.988522,306.438199,5921.647536
1112.299176,3701.029710,-2221.676944,7254.018232
1112.299506,2516.700203,-612.876398,9104.533087
1112.299835,296.082377,2221.676944,10288.862594
1112.300165,-1702.473667,2987.772442,11917.315666
1112.300494,-1702.473667,2834.553343,13619.789333
1112.300824,-1924.535449,1915.238745,14804.118840
1112.301154,-1776.494261,-383.047749,12805.562797
1112.301483,-1850.514855,-1072.533697,10140.821405
1112.301813,0.000000,-1991.848295,9400.615463
1112.302142,1184.329507,-1149.143247,10732.986159
1112.302472,518.144159,-306.438199,12731.542202
1112.302801,-1332.370696,0.000000,12953.603985
1112.303131,-3182.885551,2834.553343,11843.295072
1112.303460,-3182.885551,4060.306139,10807.006753
1112.303790,-592.164754,2374.896044,11769.274478
1112.304119,592.164754,0.000000,12509.480420
1112.304449,-518.144159,842.705048,9326.594869
1112.304778,-1406.391290,1378.971896,6587.832884
1112.305108,-148.041188,-306.438199,6957.935855
1112.305437,1184.329507,1225.752797,9030.512492
1112.305767,74.020594,1838.629195,10288.862594
1112.306096,-1702.473667,1302.362347,9548.656652
1112.306426,-3997.112087,2757.943793,7328.038826
1112.306755,-4145.153275,3600.648841,6661.853478
1112.307085,-2220.617826,1225.752797,8512.368333
1112.307414,-1702.473667,0.000000,9622.677246
1112.307744,-3552.988522,1225.752797,6069.688724
1112.308073,-3627.009116,2374.896044,3108.864956
1112.308403,-444.123565,-229.828649,3775.050304
1112.308732,1776.494261,0.000000,6217.729913
1112.309062,1332.370696,536.266849,8142.265362
1112.309391,-518.144159,1455.581446,8660.409521
1112.309721,-1628.453072,3983.696590,8512.368333
1112.310050,-2590.720797,4826.401637,10510.924376
1112.310380,-1998.556043,4366.744339,13175.665768
1112.310709,-2664.741391,2298.286494,13397.727550
1112.311039,-2886.803174,536.266849,11177.109724
1112.311368,-2294.638420,0.000000,9992.780217
1112.311698,-444.123565,-995.924147,10214.842000
1112.312027,148.041188,-2145.067394,11399.171507
1112.312357,-148.041188,-2528.115143,12657.521608
1112.312686,-1406.391290,-1915.238745,12213.398043
1112.313016,-1406.391290,1685.410096,12731.542202
1112.313345,-296.082377,2911.162892,12731.542202
1112.313675,74.020594,3753.867940,11251.130318
1112.314004,-592.164754,1608.800546,9622.677246
1112.314334,0.000000,-383.047749,8512.368333
1112.314664,1110.308913,1378.971896,8364.327145
1112.314993,1480.411884,1991.848295,8586.388927
1112.315323,-888.247130,76.609550,9844.739029
1112.315652,-2516.700203,1302.362347,11325.150913
1112.315982,-3330.926739,1378.971896,9400.615463
1112.316311,-2812.782580,-1225.752797,8142.265362
1112.316641,-3701.029710,-766.095498,7994.224174
1112.316970,-4441.235652,3294.210641,8882.471304
1112.317300,-4293.194464,-842.705048,9548.656652
1112.317629,-3627.009116,-2604.724693,7772.162391
1112.317959,-3034.844362,995.924147,5033.400406
1112.318288,-1332.370696,0.000000,4071.132681
1112.318618,1924.535449,-1685.410096,4959.379811
1112.318947,2590.720797,-689.485948,7254.018232
1112.319277,1110.308913,919.314598,7994.224174
1112.319606,-1258.350101,2298.286494,8586.388927
1112.319936,-2072.576638,4213.525239,9474.636058
1112.320265,148.041188,3983.696590,12287.418637
1112.320595,740.205942,-995.924147,13545.768739
1112.320924,-888.247130,-995.924147,11769.274478
1112.321254,-1554.432478,306.438199,9918.759623
1112.321583,148.041188,-995.924147,10510.924376
1112.321913,2812.782580,0.000000,12139.377449
1112.322242,2664.741391,0.000000,12879.583391
1112.322572,1554.432478,0.000000,11547.212695
1112.322901,-666.185348,1838.629195,9992.780217
1112.323231,0.000000,3294.210641,11325.150913
1112.323560,1628.453072,3370.820191,12879.583391
1112.323890,1554.432478,2298.286494,11917.315666
1112.324219,-740.205942,459.657299,9400.615463
1112.324549,-518.144159,-306.438199,7624.121203
1112.324878,1036.288319,536.266849,8364.327145
1112.325208,1850.514855,842.705048,9696.697840
1112.325537,592.164754,-229.828649,10584.944971
1112.325867,-2220.617826,1149.143247,9770.718434
1112.326196,-4663.297435,2757.943793,9252.574275
1112.326526,-3997.112087,1838.629195,9696.697840
1112.326855,-2516.700203,2911.162892,10436.903782
1112.327185,-2812.782580,2911.162892,8882.471304
1112.327514,-3034.844362,766.095498,6217.729913
1112.327844,-2368.659014,0.000000,3552.988522
1112.328174,0.000000,1149.143247,3849.070898
1112.328503,1776.494261,0.000000,4885.359217
1112.328833,1406.391290,-459.657299,6809.894666
1112.329162,-296.082377,2145.067394,7105.977043
1112.329492,-1850.514855,2987.772442,7920.203579
1112.329821,-2590.720797,2604.724693,10362.883188
1112.330151,-2812.782580,4060.306139,12657.521608
1112.330480,-2960.823768,2757.943793,13471.748144
1112.330810,-3404.947333,0.000000,11621.233289
1112.331139,-3701.029710,-153.219100,9844.739029
1112.331469,-1924.535449,0.000000,9770.718434
1112.331798,1406.391290,-2298.286494,10288.862594
1112.332128,888.247130,-2681.334243,11621.233289
1112.332457,-518.144159,-919.314598,12583.501014
1112.332787,-1924.535449,2068.457845,11991.336260
1112.333116,-2220.617826,3907.087040,10436.903782
1112.333446,-1258.350101,3370.820191,9548.656652
1112.333775,518.144159,-229.828649,10807.006753
1112.334105,1480.411884,-689.485948,10362.883188
1112.334434,0.000000,1072.533697,8734.430116
1112.334764,0.000000,0.000000,10288.862594
1112.335093,-518.144159,2451.505594,12287.418637
1112.335423,-592.164754,3600.648841,12657.521608
1112.335752,-1184.329507,-1838.629195,11251.130318
1112.336082,-1924.535449,-1149.143247,8882.471304
1112.336411,-3108.864956,3600.648841,9326.594869
1112.336741,-2886.803174,1225.752797,10066.800811
1112.337070,-2368.659014,-1532.190996,10066.800811
1112.337400,-3108.864956,689.485948,6661.853478
1112.337729,-2442.679609,612.876398,2738.761985
1112.338059,444.123565,-2834.553343,2294.638420
1112.338388,3552.988522,0.000000,4367.215058
1112.338718,3627.009116,766.095498,7105.977043
1112.339047,962.267725,-766.095498,7402.059420
1112.339377,-2146.597232,4060.306139,7772.162391
1112.339706,-2886.803174,5898.935335,10214.842000
1112.340036,-1850.514855,2604.724693,13175.665768
1112.340365,-2368.659014,1302.362347,13915.871710
1112.340695,-3330.926739,153.219100,11769.274478
1112.341024,-2220.617826,-1915.238745,8882.471304
1112.341354,0.000000,-2681.334243,8512.368333
1112.341683,1480.411884,-1378.971896,10066.800811
1112.342013,1110.308913,-1302.362347,11325.150913
1112.342343,-148.041188,0.000000,10658.965565
1112.342672,-888.247130,2221.676944,10362.883188
1112.343002,-148.041188,3370.820191,11325.150913
1112.343331,666.185348,3983.696590,11843.295072
1112.343661,148.041188,2068.457845,12435.459826
1112.343990,222.061783,229.828649,10658.965565
1112.344320,222.061783,1225.752797,8956.491898
1112.344649,1110.308913,383.047749,9474.636058
1112.344979,2442.679609,383.047749,11621.233289
1112.345308,444.123565,1608.800546,12065.356855
1112.345638,-1036.288319,1149.143247,11251.130318
1112.345967,-1406.391290,1455.581446,11473.192101
1112.346297,-1998.556043,3140.991542,10510.924376
1112.346626,-2294.638420,4903.011187,10066.800811
1112.346956,-2886.803174,1302.362347,9844.739029
1112.347285,-3182.885551,459.657299,8142.265362
1112.347615,-3478.967927,2221.676944,5329.482782
1112.347944,-2516.700203,459.657299,2960.823768
1112.348274,370.102971,-919.314598,3478.967927
1112.348603,1036.288319,-842.705048,5699.585753
1112.348933,-814.226536,-229.828649,6587.832884
1112.349262,-3997.112087,1838.629195,6883.915261
1112.349592,-5477.523971,4060.306139,8882.471304
1112.349921,-4219.173869,4366.744339,11029.068536
1112.350251,-2960.823768,1685.410096,11695.253884
1112.350580,-2886.803174,0.000000,10066.800811
1112.350910,-592.164754,-995.924147,8142.265362
1112.351239,1184.329507,-1455.581446,7550.100608
1112.351569,2072.576638,-995.924147,9918.759623
1112.351898,1702.473667,-383.047749,13323.706956
1112.352228,0.000000,2374.896044,13545.768739
1112.352557,-2072.576638,4596.572988,9918.759623
1112.352887,-1480.411884,2451.505594,8808.450710
1112.353216,1184.329507,459.657299,10807.006753
1112.353546,1332.370696,766.095498,12065.356855
1112.353875,-962.267725,-1149.143247,11177.109724
1112.354205,-2738.761985,-1225.752797,10510.924376
1112.354534,-2294.638420,1838.629195,11399.171507
1112.354864,74.020594,153.219100,12287.418637
1112.355193,962.267725,-2604.724693,12731.542202
1112.355523,-814.226536,-766.095498,10214.842000
1112.355853,-2516.700203,2681.334243,10732.986159
1112.356182,-2368.659014,1838.629195,12657.521608
1112.356512,-2220.617826,3677.258390,13915.871710
1112.356841,-3775.050304,4366.744339,10732.986159
1112.357171,-3552.988522,-766.095498,5329.482782
1112.357500,-296.082377,-3447.429741,3034.844362
1112.357830,2368.659014,-1072.533697,4367.215058
1112.358159,2812.782580,306.438199,6735.874072
1112.358489,444.123565,536.266849,7254.018232
1112.358818,-2072.576638,2451.505594,6291.750507
1112.359148,-2812.782580,3524.039291,7105.977043
1112.359477,-1776.494261,2145.067394,9844.739029
1112.359807,-1406.391290,2145.067394,11547.212695
1112.360136,-2812.782580,1991.848295,10510.924376
1112.360466,-3997.112087,-306.438199,8660.409521
1112.360795,-2368.659014,-919.314598,8142.265362
1112.361125,-962.267725,-229.828649,8512.368333
1112.361454,592.164754,0.000000,8438.347739
1112.361784,1554.432478,-536.266849,8956.491898
1112.362113,2072.576638,229.828649,8660.409521
1112.362443,1850.514855,3217.601092,8068.244768
1112.362772,888.247130,2604.724693,9918.759623
1112.363102,592.164754,3064.381992,13027.624579
1112.363431,-888.247130,3524.039291,13989.892304
1112.363761,-2294.638420,1915.238745,12953.603985
1112.364090,-2072.576638,153.219100,11399.171507
1112.364420,-1110.308913,-689.485948,10362.883188
1112.364749,0.000000,-1225.752797,10510.924376
1112.365079,888.247130,-2374.896044,11991.336260
1112.365408,222.061783,-612.876398,12287.418637
1112.365738,-1406.391290,2757.943793,10066.800811
1112.366067,-2590.720797,2987.772442,9104.533087
1112.366397,-1924.535449,2834.553343,10881.027347
1112.366726,-740.205942,3217.601092,12139.377449
1112.367056,-1258.350101,2068.457845,7920.203579
1112.367385,-1332.370696,766.095498,4737.318029
1112.367715,222.061783,-383.047749,4885.359217
1112.368044,1628.453072,76.609550,7920.203579
1112.368374,-296.082377,-612.876398,9474.636058
1112.368703,-3627.009116,-383.047749,9844.739029
1112.369033,-5847.626942,2757.943793,8734.430116
1112.369363,-5403.503377,2987.772442,8660.409521
1112.369692,-2738.761985,842.705048,9622.677246
1112.370022,-592.164754,-383.047749,9400.615463
1112.370351,-1184.329507,-766.095498,5551.544565
1112.370681,-1702.473667,-1378.971896,4145.153275
1112.371010,0.000000,-536.266849,7254.018232
1112.371340,962.267725,1378.971896,10288.862594
1112.371669,962.267725,2451.505594,9992.780217
1112.371999,-666.185348,383.047749,8142.265362
1112.372328,-888.247130,842.705048,8660.409521
1112.372658,-814.226536,1991.848295,10658.965565
1112.372987,-592.164754,612.876398,12805.562797
1112.373317,-2516.700203,153.219100,14359.995275
1112.373646,-4293.194464,1762.019645,13175.665768
1112.373976,-3182.885551,766.095498,10807.006753
1112.374305,222.061783,-2528.115143,9622.677246
1112.374635,2516.700203,-1838.629195,8660.409521
1112.374964,2442.679609,-306.438199,10732.986159
1112.375294,1628.453072,-306.438199,12583.501014
1112.375623,-666.185348,3064.381992,12213.398043
1112.375953,-3404.947333,5132.839837,11843.295072
1112.376282,-2516.700203,3753.867940,11325.150913
1112.376612,-1036.288319,1149.143247,11399.171507
1112.376941,0.000000,-383.047749,8882.471304
1112.377271,-666.185348,-229.828649,6365.771101
1112.377600,-222.061783,-1225.752797,5995.668130
1112.377929,296.082377,689.485948,7105.977043
1112.378259,0.000000,1149.143247,8882.471304
1112.378588,-1850.514855,383.047749,9918.759623
1112.378918,-3478.967927,2451.505594,8956.491898
1112.379247,-4071.132681,2987.772442,8364.327145
1112.379577,-2886.803174,2221.676944,8882.471304
1112.379906,-2442.679609,306.438199,10214.842000
1112.380236,-2960.823768,229.828649,8290.306550
1112.380565,-3330.926739,536.266849,5255.462188
1112.380895,-1850.514855,-995.924147,5181.441594
1112.381224,1036.288319,0.000000,7476.080014
1112.381554,1850.514855,1378.971896,8512.368333
1112.381883,370.102971,766.095498,8068.244768
1112.382213,-962.267725,2068.457845,8290.306550
1112.382542,-1184.329507,3677.258390,10510.924376
1112.382871,-592.164754,4290.134789,12361.439231
1112.383201,-1258.350101,689.485948,13027.624579
1112.383530,-2294.638420,-306.438199,12361.439231
1112.383860,-2738.761985,612.876398,10066.800811
1112.384189,-296.082377,-842.705048,10510.924376
1112.384519,2146.597232,-1762.019645,12287.418637
1112.384848,1776.494261,383.047749,12879.583391
1112.385178,-888.247130,1072.533697,10658.965565
1112.385507,-1776.494261,1608.800546,10140.821405
1112.385837,-2072.576638,2681.334243,11843.295072
1112.386166,-814.226536,4903.011187,12139.377449
1112.386496,-814.226536,2221.676944,10955.047942
1112.386825,-1110.308913,-842.705048,8956.491898
1112.387155,-1480.411884,-306.438199,6365.771101
1112.387484,-814.226536,-383.047749,6957.935855
1112.387813,888.247130,-1455.581446,9252.574275
1112.388143,-666.185348,306.438199,10732.986159
1112.388472,-3108.864956,1608.800546,9474.636058
1112.388802,-3552.988522,842.705048,8142.265362
1112.389131,-2294.638420,842.705048,8734.430116
1112.389461,-740.205942,2834.553343,9918.759623
1112.389790,-1110.308913,1072.533697,9770.718434
1112.390120,-1554.432478,-459.657299,8660.409521
1112.390449,-2368.659014,2221.676944,4885.359217
1112.390779,-1554.432478,2145.067394,2960.823768
1112.391108,1628.453072,-2068.457845,4737.318029
1112.391438,3108.864956,-1532.190996,7624.121203
1112.391767,1184.329507,1378.971896,7920.203579
1112.392097,-1702.473667,1302.362347,8364.327145
1112.392426,-3701.029710,1991.848295,10658.965565
1112.392755,-3552.988522,5209.449386,14063.912898
1112.393085,-1702.473667,1915.238745,15248.242405
1112.393414,-1554.432478,-2298.286494,12731.542202
1112.393744,-1554.432478,536.266849,9178.553681
1112.394073,74.020594,689.485948,8586.388927
1112.394403,2812.782580,-1915.238745,11399.171507
1112.394732,2146.597232,383.047749,12731.542202
1112.395062,-666.185348,2528.115143,11251.130318
1112.395391,-1554.432478,2374.896044,9770.718434
1112.395721,-962.267725,2528.115143,10214.842000
1112.396050,296.082377,2374.896044,11843.295072
1112.396380,-148.041188,1302.362347,11473.192101
1112.396709,-1332.370696,0.000000,9252.574275
1112.397039,-1776.494261,1072.533697,8068.244768
1112.397368,-1554.432478,1149.143247,8142.265362
1112.397697,-592.164754,0.000000,9992.780217
1112.398027,-1036.288319,-229.828649,11177.109724
1112.398356,-2812.782580,383.047749,10584.944971
1112.398686,-3923.091493,1838.629195,8808.450710
1112.399015,-3923.091493,2145.067394,8142.265362
1112.399345,-3108.864956,1991.848295,8586.388927
1112.399674,-2368.659014,306.438199,8364.327145
1112.400004,-2886.803174,153.219100,7254.018232
1112.400333,-2368.659014,1302.362347,5181.441594
1112.400663,-814.226536,1225.752797,4293.194464
1112.400992,1036.288319,536.266849,6291.750507
1112.401322,1184.329507,612.876398,8068.244768
1112.401651,-222.061783,919.314598,8808.450710
1112.401981,-1850.514855,2451.505594,8882.471304
1112.402310,-2812.782580,2987.772442,10214.842000
1112.402639,-3182.885551,2604.724693,11695.253884
1112.402969,-2738.761985,459.657299,12583.501014
1112.403298,-1850.514855,-1225.752797,11399.171507
1112.403628,-814.226536,-536.266849,8586.388927
1112.403957,1184.329507,-1455.581446,8068.244768
1112.404287,2516.700203,-1378.971896,9844.739029
1112.404616,2072.576638,689.485948,11843.295072
1112.404946,370.102971,536.266849,12213.398043
1112.405275,-1110.308913,2451.505594,12065.356855
1112.405605,-1628.453072,4826.401637,11991.336260
1112.405934,-592.164754,2987.772442,11991.336260
1112.406264,0.000000,-689.485948,11769.274478
1112.406593,-444.123565,-1762.019645,9844.739029
1112.406923,-666.185348,-153.219100,8290.306550
1112.407252,-518.144159,-612.876398,8808.450710
1112.407581,-296.082377,383.047749,9770.718434
1112.407911,148.041188,995.924147,11103.089130
1112.408240,0.000000,-1149.143247,9770.718434
1112.408570,-1776.494261,306.438199,8660.409521
1112.408899,-2146.597232,2451.505594,9918.759623
1112.409229,-1702.473667,2987.772442,11029.068536
1112.409558,-2146.597232,1762.019645,9400.615463
1112.409888,-3701.029710,1225.752797,5329.482782
1112.410217,-2516.700203,-842.705048,3552.988522
1112.410547,740.205942,-1302.362347,4663.297435
1112.410876,2590.720797,-306.438199,6957.935855
1112.411206,1036.288319,153.219100,8660.409521
1112.411535,-2220.617826,766.095498,8290.306550
1112.411865,-3849.070898,3064.381992,9030.512492
1112.412194,-2886.803174,2451.505594,11769.274478
1112.412523,-2738.761985,2298.286494,12435.459826
1112.412853,-4145.153275,2374.896044,11769.274478
1112.413182,-4071.132681,306.438199,9622.677246
1112.413512,-2072.576638,-1072.533697,8068.244768
1112.413841,-222.061783,-842.705048,8142.265362
1112.414171,1406.391290,-1225.752797,9696.697840
1112.414500,1332.370696,306.438199,10658.965565
1112.414830,-592.164754,1762.019645,10881.027347
1112.415159,-2072.576638,3217.601092,10362.883188
1112.415489,-2442.679609,3064.381992,11547.212695
1112.415818,-962.267725,3983.696590,12287.418637
1112.416148,-296.082377,2221.676944,12805.562797
1112.416477,-888.247130,229.828649,11177.109724
1112.416807,-1702.473667,1149.143247,8956.491898
1112.417136,-518.144159,-536.266849,8216.285956
1112.417465,962.267725,-1072.533697,10510.924376
1112.417795,0.000000,1225.752797,12953.603985
1112.418124,-1850.514855,1762.019645,11917.315666
1112.418454,-3478.967927,2221.676944,8438.347739
1112.418783,-3404.947333,1532.190996,7698.141797
1112.419113,-1850.514855,1762.019645,8956.491898
1112.419442,-666.185348,1532.190996,9548.656652
1112.419772,-1110.308913,689.485948,7105.977043
1112.420101,-1184.329507,383.047749,4367.215058
1112.420431,-740.205942,0.000000,3775.050304
1112.420760,1406.391290,919.314598,5773.606348
1112.421090,2368.659014,0.000000,9622.677246
1112.421419,592.164754,536.266849,10584.944971
1112.421749,-3330.926739,4366.744339,8734.430116
1112.422078,-4811.338623,2604.724693,9400.615463
1112.422407,-1850.514855,383.047749,11843.295072
1112.422737,-962.267725,689.485948,12731.542202
1112.423066,-1406.391290,0.000000,9622.677246
1112.423396,-1110.308913,-919.314598,6883.915261
1112.423725,962.267725,-919.314598,6735.874072
1112.424055,3034.844362,0.000000,8660.409521
1112.424384,3256.906145,-383.047749,11843.295072
1112.424714,1036.288319,1378.971896,12435.459826
1112.425043,-1924.535449,4519.963438,11177.109724
1112.425373,-3330.926739,2528.115143,11547.212695
1112.425702,-2442.679609,1378.971896,13397.727550
1112.426032,-2368.659014,1838.629195,13693.809927
1112.426361,-3256.906145,-612.876398,11325.150913
1112.426691,-2664.741391,-1072.533697,8956.491898
1112.427020,-1776.494261,-612.876398,8956.491898
1112.427349,0.000000,459.657299,9400.615463
1112.427679,814.226536,-842.705048,9400.615463
1112.428008,222.061783,-459.657299,9548.656652
1112.428338,-1036.288319,2834.553343,9326.594869
1112.428667,-2072.576638,2451.505594,10214.842000
1112.428997,-2146.597232,3140.991542,11917.315666
1112.429326,-2146.597232,3907.087040,10658.965565
1112.429656,-3997.112087,2068.457845,6513.812290
1112.429985,-2368.659014,-766.095498,4737.318029
1112.430315,74.020594,-1915.238745,5699.585753
1112.430644,1406.391290,229.828649,7476.080014
1112.430974,-444.123565,229.828649,7772.162391
1112.431303,-2146.597232,766.095498,7254.018232
1112.431632,-3108.864956,3294.210641,7179.997637
1112.431962,-2738.761985,2451.505594,8660.409521
1112.432291,-2294.638420,1072.533697,10362.883188
1112.432621,-2368.659014,3140.991542,11029.068536
1112.432950,-2368.659014,689.485948,9622.677246
1112.433280,-2442.679609,-1378.971896,7846.182985
1112.433609,-2368.659014,-612.876398,7920.203579
1112.433939,-1036.288319,-306.438199,10658.965565
1112.434268,148.041188,-306.438199,12953.603985
1112.434598,-740.205942,1532.190996,11547.212695
1112.434927,-2368.659014,2298.286494,10066.800811
1112.435257,-2146.597232,1838.629195,10807.006753
1112.435586,-1184.329507,1838.629195,11547.212695
1112.435916,-518.144159,2298.286494,11991.336260
1112.436245,-296.082377,1378.971896,10732.986159
1112.436574,-222.061783,306.438199,8364.327145
1112.436904,0.000000,-689.485948,8586.388927
1112.437233,296.082377,-1608.800546,11621.233289
1112.437563,-888.247130,995.924147,14063.912898
1112.437892,-2886.803174,1455.581446,13323.706956
1112.438222,-5847.626942,1762.019645,11547.212695
1112.438551,-6661.853478,2681.334243,9992.780217
1112.438881,-4589.276840,1915.238745,9992.780217
1112.439210,-1406.391290,-689.485948,9326.594869
1112.439540,-444.123565,0.000000,6587.832884
1112.439869,-962.267725,995.924147,2886.803174
1112.440199,444.123565,-459.657299,2812.782580
1112.440528,1406.391290,-1149.143247,5921.647536
1112.440858,296.082377,2221.676944,8734.430116
1112.441187,-2812.782580,3370.820191,9622.677246
1112.441516,-6069.688724,3447.429741,8660.409521
1112.441846,-8438.347739,2374.896044,10362.883188
1112.442175,-9104.533087,1225.752797,13101.645173
1112.442505,-9104.533087,919.314598,12509.480420
1112.442834,-7846.182985,-689.485948,9474.636058
1112.443164,-5699.585753,-2451.505594,6809.894666
1112.443493,-3701.029710,-2528.115143,5403.503377
1112.443823,-2368.659014,-3064.381992,5995.668130
1112.444152,148.041188,-1302.362347,8512.368333
1112.444482,1036.288319,3064.381992,10436.903782
1112.444811,0.000000,6588.421283,11325.150913
1112.445141,-2146.597232,4903.011187,10658.965565
1112.445470,-3330.926739,2451.505594,10807.006753
1112.445800,-4663.297435,1762.019645,12361.439231
1112.446129,-5255.462188,1532.190996,13471.748144
1112.446458,-5255.462188,842.705048,12731.542202
1112.446788,-6513.812290,-842.705048,11103.089130
1112.447117,-8438.347739,-3217.601092,10362.883188
1112.447447,-7920.203579,-2145.067394,10510.924376
1112.447776,-5551.544565,-229.828649,10807.006753
1112.448106,-2368.659014,1149.143247,10066.800811
1112.448435,-1332.370696,2987.772442,8882.471304
1112.448765,-2368.659014,2834.553343,8512.368333
1112.449094,-3404.947333,2451.505594,8882.471304
1112.449424,-5181.441594,2681.334243,9400.615463
1112.449753,-6587.832884,4443.353888,9400.615463
1112.450083,-6735.874072,2221.676944,9178.553681
1112.450412,-5847.626942,-766.095498,8586.388927
1112.450742,-5181.441594,-3064.381992,6587.832884
1112.451071,-5033.400406,-3983.696590,5255.462188
1112.451400,-3034.844362,-2068.457845,5329.482782
1112.451730,-666.185348,1532.190996,7254.018232
1112.452059,296.082377,3447.429741,9400.615463
1112.452389,148.041188,5592.497135,9474.636058
1112.452718,-444.123565,5745.716235,9030.512492
1112.453048,-1998.556043,4596.572988,8882.471304
1112.453377,-5255.462188,3600.648841,10214.842000
1112.453707,-8586.388927,2068.457845,11769.274478
1112.454036,-9474.636058,1302.362347,11399.171507
1112.454366,-7772.162391,-2221.676944,8438.347739
1112.454695,-5403.503377,-4979.620737,5773.606348
1112.455025,-2294.638420,-6588.421283,4885.359217
1112.455354,888.247130,-6052.154434,5773.606348
1112.455684,1184.329507,-1149.143247,7994.224174
1112.456013,74.020594,5132.839837,11473.192101
1112.456342,-296.082377,9039.926876,14063.912898
1112.456672,-740.205942,9193.145976,14952.160028
1112.457001,-2442.679609,6894.859482,14656.077652
1112.457331,-4367.215058,3064.381992,14211.954086
1112.457660,-7105.977043,-1378.971896,14804.118840
1112.457990,-10140.821405,-2451.505594,14804.118840
1112.458319,-11843.295072,-2757.943793,11399.171507
1112.458649,-9400.615463,-6358.592633,7846.182985
1112.458978,-4589.276840,-8503.660028,5255.462188
1112.459308,740.205942,-6358.592633,3923.091493
1112.459637,4293.194464,-1915.238745,5107.421000
1112.459967,4959.379811,3600.648841,7550.100608
1112.460296,3330.926739,9576.193725,10584.944971
1112.460626,592.164754,13023.623466,11843.295072
1112.460955,-2664.741391,11568.042020,11917.315666
1112.461284,-5477.523971,8120.612279,11769.274478
1112.461614,-5995.668130,3600.648841,11473.192101
1112.461943,-7328.038826,-1455.581446,9474.636058
1112.462273,-8438.347739,-5439.278036,6883.915261
1112.462602,-8956.491898,-8656.879127,5847.626942
1112.462932,-8882.471304,-8733.488677,5551.544565
1112.463261,-7994.224174,-4749.792088,5403.503377
1112.463591,-5551.544565,-842.705048,6069.688724
1112.463920,-2664.741391,2451.505594,7179.997637
1112.464250,-148.041188,6052.154434,7920.203579
1112.464579,1998.556043,7660.954980,8290.306550
1112.464909,2220.617826,7507.735880,10658.965565
1112.465238,-296.082377,6052.154434,12509.480420
1112.465568,-5181.441594,5515.887586,12435.459826
1112.465897,-9326.594869,3140.991542,11177.109724
1112.466226,-9918.759623,-766.095498,10510.924376
1112.466556,-8956.491898,-4826.401637,10510.924376
1112.466885,-6957.935855,-6128.763984,9770.718434
1112.467215,-4737.318029,-5362.668486,7846.182985
1112.467544,-2220.617826,-3830.477490,6365.771101
1112.467874,-518.144159,-842.705048,6883.915261
1112.468203,-296.082377,2757.943793,10436.903782
1112.468533,-1702.473667,6358.592633,13175.665768
1112.468862,-3923.091493,8273.831378,14137.933492
1112.469192,-6143.709319,6971.469032,14137.933492
1112.469521,-7254.018232,3983.696590,13989.892304
1112.469851,-6809.894666,1149.143247,13101.645173
1112.470180,-6661.853478,-3217.601092,9770.718434
1112.470510,-5699.585753,-6665.030833,6069.688724
1112.470839,-3775.050304,-6588.421283,5329.482782
1112.471168,-1554.432478,-3447.429741,6291.750507
1112.471498,0.000000,-459.657299,7698.141797
1112.471827,-1258.350101,1762.019645,8290.306550
1112.472157,-2886.803174,5362.668486,9178.553681
1112.472486,-3552.988522,8273.831378,11177.109724
1112.472816,-3182.885551,7814.174080,12509.480420
1112.473145,-3775.050304,5209.449386,11547.212695
1112.473475,-3404.947333,1149.143247,9178.553681
1112.473804,-2516.700203,-2451.505594,7698.141797
1112.474134,-2368.659014,-4366.744339,7105.977043
1112.474463,-2294.638420,-3677.258390,7105.977043
1112.474793,-2368.659014,-1838.629195,7476.080014
1112.475122,-2368.659014,0.000000,8290.306550
1112.475452,-2812.782580,1455.581446,9326.594869
1112.475781,-4145.153275,3370.820191,10510.924376
1112.476110,-4589.276840,4596.572988,10955.047942
1112.476440,-5033.400406,5132.839837,10732.986159
1112.476769,-5255.462188,4136.915689,10140.821405
1112.477099,-4367.215058,1762.019645,9030.512492
1112.477428,-2442.679609,-1072.533697,7698.141797
1112.477758,-1850.514855,-2757.943793,6587.832884
1112.478087,-2072.576638,-2145.067394,6957.935855
1112.478417,-1628.453072,-229.828649,7624.121203
1112.478747,-740.205942,459.657299,8512.368333
1112.479076,-2294.638420,2911.162892,10436.903782
1112.479406,-4737.318029,4060.306139,13027.624579
1112.479735,-7328.038826,4749.792088,14508.036463
1112.480065,-9252.574275,5209.449386,14804.118840
1112.480395,-9696.697840,2987.772442,13989.892304
1112.480724,-9178.553681,0.000000,12287.418637
1112.481054,-7105.977043,-1838.629195,9696.697840
1112.481383,-3923.091493,-4290.134789,7179.997637
1112.481713,-888.247130,-5056.230287,5329.482782
1112.482043,888.247130,-1991.848295,4959.379811
1112.482372,1776.494261,766.095498,5921.647536
1112.482702,1628.453072,2757.943793,7994.224174
1112.483031,0.000000,5592.497135,10436.903782
1112.483361,-2442.679609,8044.002729,11547.212695
1112.483690,-4145.153275,6435.202183,11843.295072
1112.484020,-5995.668130,2987.772442,12139.377449
1112.484350,-8290.306550,612.876398,12361.439231
1112.484679,-9548.656652,-842.705048,11843.295072
1112.485009,-9326.594869,-2374.896044,9474.636058
1112.485338,-7402.059420,-3447.429741,6957.935855
1112.485668,-4737.318029,-4366.744339,4737.318029
1112.485998,-1554.432478,-2528.115143,4737.318029
1112.486327,592.164754,229.828649,5181.441594
1112.486657,444.123565,3524.039291,6513.812290
1112.486986,-1184.329507,5975.544884,8438.347739
1112.487316,-3108.864956,7277.907231,9992.780217
1112.487646,-5625.565159,5822.325785,11769.274478
1112.487975,-7772.162391,2374.896044,13471.748144
1112.488305,-9474.636058,-612.876398,13397.727550
1112.488634,-10066.800811,-2298.286494,11843.295072
1112.488964,-9252.574275,-5362.668486,9918.759623
1112.489294,-6365.771101,-6665.030833,9104.533087
1112.489623,-3034.844362,-4596.572988,7550.100608
1112.489953,296.082377,-2068.457845,6439.791695
1112.490282,2738.761985,306.438199,7105.977043
1112.490612,3478.967927,3753.867940,8734.430116
1112.490942,2442.679609,7507.735880,11103.089130
1112.491271,666.185348,6894.859482,13249.686362
1112.491601,-2738.761985,4903.011187,14211.954086
1112.491930,-6069.688724,3677.258390,15026.180623
1112.492260,-8734.430116,1072.533697,13915.871710
1112.492590,-9622.677246,-2068.457845,10807.006753
1112.492919,-8586.388927,-4903.011187,8290.306550
1112.493249,-5699.585753,-6435.202183,6217.729913
1112.493578,-2738.761985,-4826.401637,5107.421000
1112.493908,-814.226536,-1532.190996,4959.379811
1112.494238,74.020594,1532.190996,5403.503377
1112.494567,-296.082377,5056.230287,7105.977043
1112.494897,-1332.370696,9116.536426,9178.553681
1112.495226,-2516.700203,9422.974625,11473.192101
1112.495556,-4737.318029,7201.297681,12583.501014
1112.495886,-6217.729913,4213.525239,12879.583391
1112.496215,-7624.121203,689.485948,12583.501014
1112.496545,-8512.368333,-1762.019645,11695.253884
1112.496874,-8512.368333,-2681.334243,9548.656652
1112.497204,-6439.791695,-3140.991542,7772.162391
1112.497533,-3330.926739,-2068.457845,6365.771101
1112.497863,0.000000,76.609550,5921.647536
1112.498193,1702.473667,2528.115143,6587.832884
1112.498522,1924.535449,5822.325785,7254.018232
1112.498852,740.205942,8503.660028,8660.409521
1112.499181,-592.164754,8273.831378,9992.780217
1112.499511,-2516.700203,6128.763984,11843.295072
1112.499841,-4145.153275,4749.792088,11991.336260
1112.500170,-4885.359217,1991.848295,11177.109724
1112.500500,-5033.400406,0.000000,9622.677246
1112.500829,-4737.318029,-2068.457845,8734.430116
1112.501159,-3404.947333,-2145.067394,8956.491898
1112.501489,-2812.782580,0.000000,8734.430116
1112.501818,-2664.741391,2681.334243,9178.553681
1112.502148,-2812.782580,4060.306139,9548.656652
1112.502477,-2442.679609,5669.106685,10584.944971
1112.502807,-2368.659014,6588.421283,11103.089130
1112.503137,-2220.617826,6052.154434,11843.295072
1112.503466,-2368.659014,4596.572988,11325.150913
1112.503796,-1628.453072,3370.820191,10436.903782
1112.504125,-888.247130,2068.457845,9474.636058
1112.504455,-370.102971,1225.752797,8808.450710
1112.504785,-222.061783,842.705048,8512.368333
1112.505114,296.082377,2604.724693,9326.594869
1112.505444,444.123565,5132.839837,9696.697840
1112.505773,-740.205942,7354.516781,10584.944971
1112.506103,-1924.535449,7277.907231,10214.842000
1112.506433,-2072.576638,7048.078582,9548.656652
1112.506762,-2146.597232,6281.983084,8808.450710
1112.507092,-2220.617826,4903.011187,7772.162391
1112.507421,-1702.473667,2451.505594,6661.853478
1112.507751,-1036.288319,766.095498,5847.626942
1112.508081,-1184.329507,153.219100,6217.729913
1112.508410,-1850.514855,842.705048,6883.915261
1112.508740,-2664.741391,2911.162892,8142.265362
1112.509069,-3182.885551,5132.839837,9326.594869
1112.509399,-3256.906145,5975.544884,10362.883188
1112.509729,-3034.844362,6435.202183,10658.965565
1112.510058,-1924.535449,5669.106685,10140.821405
1112.510388,-1480.411884,5515.887586,10140.821405
1112.510717,-592.164754,4749.792088,10140.821405
1112.511047,-740.205942,3907.087040,10362.883188
1112.511376,-888.247130,2911.162892,9474.636058
1112.511706,-740.205942,2221.676944,8734.430116
1112.512036,-296.082377,2834.553343,9030.512492
1112.512365,444.123565,2451.505594,9474.636058
1112.512695,666.185348,2528.115143,10214.842000
1112.513024,-148.041188,3294.210641,10584.944971
1112.513354,-1184.329507,4826.401637,10881.027347
1112.513684,-1554.432478,5745.716235,11473.192101
1112.514013,-888.247130,5132.839837,12139.377449
1112.514343,-962.267725,4979.620737,11769.274478
1112.514672,-1036.288319,4366.744339,10584.944971
1112.515002,-962.267725,4366.744339,9844.739029
1112.515332,-592.164754,4903.011187,9770.718434
1112.515661,-222.061783,5669.106685,9252.574275
1112.515991,-370.102971,5056.230287,8290.306550
1112.516320,-148.041188,4136.915689,7105.977043
1112.516650,-222.061783,2604.724693,5921.647536
1112.516980,-148.041188,1072.533697,5995.668130
1112.517309,-888.247130,1608.800546,7550.100608
1112.517639,-2738.761985,2604.724693,8586.388927
1112.517968,-3701.029710,3753.867940,9400.615463
1112.518298,-3330.926739,3830.477490,10436.903782
1112.518628,-2442.679609,4749.792088,11251.130318
1112.518957,-1776.494261,5822.325785,10288.862594
1112.519287,-962.267725,6205.373534,9918.759623
1112.519616,0.000000,6588.421283,9548.656652
1112.519946,888.247130,6128.763984,9252.574275
1112.520276,444.123565,6128.763984,9178.553681
1112.520605,-296.082377,6435.202183,7994.224174
1112.520935,-1480.411884,4366.744339,6661.853478
1112.521264,-1406.391290,2451.505594,5995.668130
1112.521594,-1184.329507,306.438199,6069.688724
1112.521924,-1480.411884,-459.657299,6661.853478
1112.522253,-1924.535449,-1072.533697,8068.244768
1112.522583,-2368.659014,536.266849,9770.718434
1112.522912,-2516.700203,2987.772442,12065.356855
1112.523242,-2220.617826,4749.792088,13101.645173
1112.523571,-1258.350101,5286.058936,13841.851115
1112.523901,-444.123565,6281.983084,13989.892304
1112.524231,-444.123565,7354.516781,13027.624579
1112.524560,-222.061783,6741.640382,11769.274478
1112.524890,0.000000,4903.011187,10140.821405
1112.525219,148.041188,3447.429741,9104.533087
1112.525549,-592.164754,2451.505594,8216.285956
1112.525879,-1406.391290,2145.067394,7772.162391
1112.526208,-1850.514855,1991.848295,7179.997637
1112.526538,-1332.370696,995.924147,7254.018232
1112.526867,-444.123565,1149.143247,7920.203579
1112.527197,74.020594,1915.238745,9326.594869
1112.527527,-370.102971,2911.162892,10288.862594
1112.527856,-666.185348,4979.620737,11103.089130
1112.528186,-1480.411884,6511.811733,11103.089130
1112.528515,-1258.350101,6971.469032,11991.336260
1112.528845,-1184.329507,6435.202183,12731.542202
1112.529175,-1998.556043,6894.859482,11991.336260
1112.529504,-3182.885551,6511.811733,9770.718434
1112.529834,-3108.864956,5592.497135,6809.894666
1112.530163,-1110.308913,3447.429741,3997.112087
1112.530493,1776.494261,1225.752797,3478.967927
1112.530823,3478.967927,612.876398,4219.173869
1112.531152,2294.638420,2298.286494,5255.462188
1112.531482,0.000000,4749.792088,7105.977043
1112.531811,-2738.761985,5286.058936,8512.368333
1112.532141,-4145.153275,5362.668486,12065.356855
1112.532471,-4959.379811,6128.763984,14804.118840
1112.532800,-5403.503377,6205.373534,15322.262999
1112.533130,-5773.606348,4213.525239,13471.748144
1112.533459,-4959.379811,3524.039291,10881.027347
1112.533789,-2664.741391,2068.457845,9178.553681
1112.534119,518.144159,919.314598,8068.244768
1112.534448,3108.864956,2068.457845,6513.812290
1112.534778,4441.235652,4136.915689,5921.647536
1112.535107,4959.379811,4519.963438,5477.523971
1112.535437,4145.153275,4903.011187,8216.285956
1112.535767,962.267725,6665.030833,11769.274478
1112.536096,-2664.741391,8963.317327,14063.912898
1112.536426,-4885.359217,8886.707777,13841.851115
1112.536755,-4663.297435,6205.373534,13693.809927
1112.537085,-2590.720797,2145.067394,12065.356855
1112.537414,-1036.288319,-1149.143247,9474.636058
1112.537744,-518.144159,-689.485948,6957.935855
1112.538074,-1036.288319,1225.752797,6439.791695
1112.538403,-1110.308913,3907.087040,7846.182985
1112.538733,-1554.432478,5209.449386,8586.388927
1112.539062,-1406.391290,5132.839837,7402.059420
1112.539392,-370.102971,4290.134789,6217.729913
1112.539722,592.164754,2374.896044,7920.203579
1112.540051,-296.082377,3294.210641,10288.862594
1112.540381,-2664.741391,5132.839837,11547.212695
1112.540710,-3923.091493,5669.106685,12731.542202
1112.541040,-3404.947333,6281.983084,12879.583391
1112.541370,-2664.741391,5515.887586,11399.171507
1112.541699,-1406.391290,4060.306139,7698.141797
1112.542029,740.205942,0.000000,5033.400406
1112.542358,2220.617826,-1378.971896,4663.297435
1112.542688,1998.556043,459.657299,5699.585753
1112.543018,1554.432478,3140.991542,7698.141797
1112.543347,444.123565,4979.620737,9992.780217
1112.543677,-1554.432478,4903.011187,11991.336260
1112.544006,-2812.782580,5515.887586,13323.706956
1112.544336,-2664.741391,4903.011187,12731.542202
1112.544666,-1406.391290,2834.553343,12509.480420
1112.544995,-518.144159,2374.896044,12509.480420
1112.545325,-1554.432478,2987.772442,11769.274478
1112.545654,-2072.576638,2911.162892,10288.862594
1112.545984,-1628.453072,3983.696590,9252.574275
1112.546314,-962.267725,5745.716235,8216.285956
1112.546643,444.123565,5592.497135,6735.874072
1112.546973,2368.659014,2221.676944,5403.503377
1112.547302,2812.782580,306.438199,4515.256246
1112.547632,1776.494261,1915.238745,6439.791695
1112.547962,-444.123565,4060.306139,10288.862594
1112.548291,-2812.782580,6971.469032,13619.789333
1112.548621,-4737.318029,7660.954980,14285.974681
1112.548950,-4737.318029,7431.126331,13175.665768
1112.549280,-2886.803174,5822.325785,12953.603985
1112.549610,-1480.411884,3524.039291,11621.233289
1112.549939,-1850.514855,3140.991542,9104.533087
1112.550269,-2664.741391,2757.943793,6439.791695
1112.550598,-3034.844362,3370.820191,5255.462188
1112.550928,-1110.308913,3524.039291,5033.400406
1112.551257,740.205942,3830.477490,5033.400406
1112.551587,2368.659014,4596.572988,4737.318029
1112.551917,2516.700203,6052.154434,4885.359217
1112.552246,2220.617826,6435.202183,6513.812290
1112.552576,1110.308913,5822.325785,9844.739029
1112.552905,-1406.391290,7277.907231,13027.624579
1112.553235,-3552.988522,8963.317327,14804.118840
1112.553565,-3923.091493,6971.469032,14730.098246
1112.553894,-3478.967927,5056.230287,12879.583391
1112.554224,-3997.112087,3830.477490,10288.862594
1112.554553,-3182.885551,536.266849,7994.224174
1112.554883,-2368.659014,-995.924147,6291.750507
1112.555213,-1332.370696,-306.438199,4589.276840
1112.555542,888.247130,306.438199,4219.173869
1112.555872,2590.720797,1302.362347,4959.379811
1112.556201,3034.844362,3140.991542,6809.894666
1112.556531,2886.803174,5515.887586,9548.656652
1112.556861,2294.638420,6281.983084,12805.562797
1112.557190,962.267725,7201.297681,15914.427753
1112.557520,-1332.370696,8963.317327,17690.922014
1112.557849,-2738.761985,7354.516781,17616.901420
1112.558179,-3923.091493,4443.353888,14508.036463
1112.558509,-4589.276840,1608.800546,11029.068536
1112.558838,-3256.906145,-1685.410096,7994.224174
1112.559168,0.000000,-2068.457845,7254.018232
1112.559497,1406.391290,-842.705048,5625.565159
1112.559827,1406.391290,536.266849,2590.720797
1112.560157,2368.659014,0.000000,1184.329507
1112.560486,3701.029710,229.828649,4589.276840
1112.560816,3552.988522,3753.867940,9474.636058
1112.561145,74.020594,7201.297681,13397.727550
1112.561475,-2960.823768,8656.879127,15840.407159
1112.561805,-4737.318029,7431.126331,16136.489536
1112.562134,-5995.668130,5515.887586,15618.345376
1112.562464,-6735.874072,3064.381992,13249.686362
1112.562793,-5551.544565,536.266849,9252.574275
1112.563123,-3182.885551,-2298.286494,5995.668130
1112.563453,-1110.308913,-2451.505594,2590.720797
1112.563782,1258.350101,-1838.629195,1184.329507
1112.564112,3330.926739,-1149.143247,1258.350101
1112.564441,4367.215058,1532.190996,3330.926739
1112.564771,2590.720797,4673.182538,7698.141797
1112.565100,-1036.288319,8044.002729,12287.418637
1112.565430,-4145.153275,9116.536426,14137.933492
1112.565760,-5107.421000,6052.154434,14656.077652
1112.566089,-3849.070898,1378.971896,14434.015869
1112.566419,-2960.823768,-995.924147,13323.706956
1112.566748,-2220.617826,-1762.019645,9622.677246
1112.567078,-1776.494261,-3370.820191,5107.421000
1112.567408,148.041188,-4826.401637,3701.029710
1112.567737,2960.823768,-2757.943793,6365.771101
1112.568067,5033.400406,459.657299,9844.739029
1112.568396,3404.947333,3830.477490,9918.759623
1112.568726,592.164754,5209.449386,9400.615463
1112.569056,-444.123565,3677.258390,12213.398043
1112.569385,-592.164754,3830.477490,16802.674883
1112.569715,-1776.494261,5898.935335,19467.416275
1112.570044,-3849.070898,5286.058936,16950.716072
1112.570374,-3404.947333,3064.381992,11843.295072
1112.570704,222.061783,-2374.896044,7994.224174
1112.571033,2886.803174,-5515.887586,6069.688724
1112.571363,2590.720797,-3677.258390,5329.482782
1112.571692,296.082377,229.828649,5255.462188
1112.572022,-1850.514855,2221.676944,5625.565159
1112.572352,-3256.906145,2528.115143,7328.038826
1112.572681,-3478.967927,1455.581446,8660.409521
1112.573011,-2590.720797,-306.438199,10658.965565
1112.573340,-2590.720797,1149.143247,11103.089130
1112.573670,-2812.782580,3830.477490,10584.944971
1112.574000,-1924.535449,2298.286494,10214.842000
1112.574329,0.000000,0.000000,9696.697840
1112.574659,0.000000,229.828649,10066.800811
1112.574988,-666.185348,2604.724693,8956.491898
1112.575318,-1628.453072,3677.258390,6587.832884
1112.575648,-1628.453072,459.657299,5033.400406
1112.575977,-962.267725,-1762.019645,4885.359217
1112.576307,-592.164754,-3140.991542,6587.832884
1112.576636,-740.205942,-2145.067394,7328.038826
1112.576966,-1110.308913,-689.485948,7105.977043
1112.577296,-444.123565,-1225.752797,9622.677246
1112.577625,148.041188,-919.314598,12213.398043
1112.577955,-518.144159,689.485948,14434.015869
1112.578285,-740.205942,2757.943793,14434.015869
1112.578614,-592.164754,4290.134789,12731.542202
1112.578944,-148.041188,3830.477490,11251.130318
1112.579274,1110.308913,1762.019645,10140.821405
1112.579603,1776.494261,-2528.115143,9326.594869
1112.579933,888.247130,-4213.525239,7920.203579
1112.580262,-296.082377,-229.828649,7254.018232
1112.580592,-962.267725,0.000000,8808.450710
1112.580922,-222.061783,-766.095498,10140.821405
1112.581251,-518.144159,-1225.752797,12657.521608
1112.581581,-1998.556043,612.876398,14211.954086
1112.581911,-4293.194464,6281.983084,14434.015869
1112.582240,-4885.359217,5822.325785,14211.954086
1112.582570,-3108.864956,4673.182538,13175.665768
1112.582900,-2072.576638,2298.286494,10510.924376
1112.583229,-814.226536,-842.705048,7105.977043
1112.583559,-148.041188,-612.876398,3701.029710
1112.583889,-148.041188,-229.828649,3182.885551
1112.584218,370.102971,76.609550,4367.215058
1112.584548,518.144159,229.828649,6809.894666
1112.584878,370.102971,766.095498,8142.265362
1112.585207,-1110.308913,3600.648841,8660.409521
1112.585537,-2146.597232,4366.744339,9770.718434
1112.585867,-1924.535449,4290.134789,10658.965565
1112.586196,-1776.494261,3600.648841,10807.006753
1112.586526,-1184.329507,1838.629195,9844.739029
1112.586856,-444.123565,1608.800546,7624.121203
1112.587185,74.020594,-842.705048,7105.977043
1112.587515,592.164754,-766.095498,6365.771101
1112.587844,-296.082377,0.000000,6809.894666
1112.588174,-222.061783,-1225.752797,7846.182985
1112.588504,-592.164754,919.314598,8438.347739
1112.588833,-1332.370696,1455.581446,9474.636058
1112.589163,-1036.288319,1149.143247,11177.109724
1112.589493,-962.267725,0.000000,13101.645173
1112.589822,-1480.411884,995.924147,13767.830521
1112.590152,-1480.411884,3524.039291,12509.480420
1112.590482,0.000000,459.657299,12213.398043
1112.590811,1776.494261,-153.219100,12361.439231
1112.591141,666.185348,459.657299,12657.521608
1112.591471,-666.185348,536.266849,10584.944971
1112.591800,-1184.329507,1149.143247,9030.512492
1112.592130,-666.185348,0.000000,9252.574275
1112.592460,-444.123565,0.000000,8808.450710
1112.592789,-1184.329507,-459.657299,8882.471304
1112.593119,-1776.494261,-1455.581446,8660.409521
1112.593449,-1110.308913,-536.266849,7476.080014
1112.593778,-962.267725,-1302.362347,8808.450710
1112.594108,-888.247130,229.828649,11177.109724
1112.594438,-2220.617826,919.314598,12139.377449
1112.594767,-3330.926739,1225.752797,11399.171507
1112.595097,-3034.844362,2911.162892,9918.759623
1112.595426,-2368.659014,1302.362347,9400.615463
1112.595756,-1480.411884,612.876398,8956.491898
1112.596086,-1998.556043,-306.438199,8142.265362
1112.596415,-2368.659014,-1225.752797,7105.977043
1112.596745,-2368.659014,1302.362347,4737.318029
1112.597075,-296.082377,-306.438199,4367.215058
1112.597404,2220.617826,-2221.676944,6217.729913
1112.597734,2220.617826,-919.314598,9548.656652
1112.598064,0.000000,1838.629195,11251.130318
1112.598393,-2368.659014,4596.572988,10288.862594
1112.598723,-3330.926739,2604.724693,10362.883188
1112.599053,-1924.535449,1608.800546,11547.212695
1112.599382,0.000000,1225.752797,12583.501014
1112.599712,444.123565,0.000000,10362.883188
1112.600042,0.000000,0.000000,5995.668130
1112.600371,222.061783,-1608.800546,4959.379811
1112.600701,2368.659014,-2451.505594,8808.450710
1112.601031,2368.659014,766.095498,13027.624579
1112.601360,-444.123565,4519.963438,13249.686362
1112.601690,-2590.720797,4979.620737,11103.089130
1112.602020,-3034.844362,2145.067394,12065.356855
1112.602349,-2368.659014,1915.238745,14211.954086
1112.602679,-2220.617826,3064.381992,14878.139434
1112.603008,-1776.494261,1991.848295,11473.192101
1112.603338,-1480.411884,1072.533697,7476.080014
1112.603668,-518.144159,-612.876398,6883.915261
1112.603997,518.144159,-1838.629195,7772.162391
1112.604327,296.082377,0.000000,9326.594869
1112.604657,-962.267725,2528.115143,9178.553681
1112.604986,-1702.473667,5132.839837,7994.224174
1112.605316,-2812.782580,2145.067394,7179.997637
1112.605646,-1258.350101,-612.876398,7994.224174
1112.605975,-148.041188,-229.828649,8956.491898
1112.606305,-1258.350101,1225.752797,8364.327145
1112.606635,-1406.391290,2834.553343,7105.977043
1112.606964,-444.123565,153.219100,7846.182985
1112.607294,888.247130,-1149.143247,8364.327145
1112.607624,0.000000,-1302.362347,8586.388927
1112.607953,-888.247130,-306.438199,8586.388927
1112.608283,-1554.432478,2221.676944,8364.327145
1112.608613,-2146.597232,1762.019645,9104.533087
1112.608942,-1628.453072,0.000000,10732.986159
1112.609272,-1184.329507,-612.876398,11547.212695
1112.609601,-888.247130,-612.876398,10362.883188
1112.609931,-1036.288319,459.657299,8290.306550
1112.610261,-518.144159,-1302.362347,8660.409521
1112.610590,296.082377,-1608.800546,10807.006753
1112.610920,-444.123565,153.219100,12361.439231
1112.611250,-1480.411884,995.924147,12731.542202
1112.611579,-1702.473667,2451.505594,11843.295072
1112.611909,-1628.453072,1302.362347,11769.274478
1112.612239,-1332.370696,-612.876398,10732.986159
1112.612568,-1332.370696,-1532.190996,10288.862594
1112.612898,-1110.308913,-1685.410096,10362.883188
1112.613228,-962.267725,1532.190996,9400.615463
1112.613557,-222.061783,995.924147,8956.491898
1112.613887,0.000000,-919.314598,9548.656652
1112.614217,-740.205942,-459.657299,10436.903782
1112.614546,-1628.453072,2298.286494,11103.089130
1112.614876,-2220.617826,4596.572988,10732.986159
1112.615206,-2516.700203,3140.991542,9252.574275
1112.615535,-1924.535449,1608.800546,8364.327145
1112.615865,-962.267725,76.609550,8142.265362
1112.616195,-666.185348,-1532.190996,7624.121203
1112.616524,-888.247130,1685.410096,6365.771101
1112.616854,-740.205942,1455.581446,5699.585753
1112.617183,444.123565,-919.314598,6217.729913
1112.617513,444.123565,0.000000,8586.388927
1112.617843,-740.205942,1685.410096,9474.636058
1112.618172,-1702.473667,4060.306139,9104.533087
1112.618502,-2146.597232,3064.381992,9548.656652
1112.618832,-1554.432478,1915.238745,9474.636058
1112.619161,-962.267725,919.314598,10362.883188
1112.619491,0.000000,-153.219100,9474.636058
1112.619821,-296.082377,1685.410096,7179.997637
1112.620150,0.000000,1072.533697,7476.080014
1112.620480,1184.329507,-306.438199,9178.553681
1112.620810,222.061783,76.609550,11399.171507
1112.621139,-1480.411884,766.095498,11621.233289
1112.621469,-2738.761985,3294.210641,11695.253884
1112.621799,-2886.803174,1838.629195,11843.295072
1112.622128,-1776.494261,995.924147,12213.398043
1112.622458,-1184.329507,229.828649,12065.356855
1112.622788,-1702.473667,-459.657299,11843.295072
1112.623117,-1850.514855,2604.724693,10288.862594
1112.623447,-1406.391290,2681.334243,10214.842000
1112.623777,0.000000,612.876398,9844.739029
1112.624106,-370.102971,842.705048,10066.800811
1112.624436,-962.267725,1149.143247,9918.759623
1112.624765,-2072.576638,3064.381992,9030.512492
1112.625095,-2886.803174,1608.800546,8734.430116
1112.625425,-1776.494261,766.095498,9400.615463
1112.625754,-1628.453072,0.000000,9252.574275
1112.626084,-1480.411884,-612.876398,8068.244768
1112.626414,-1702.473667,1608.800546,6661.853478
1112.626743,-740.205942,1072.533697,7105.977043
1112.627073,444.123565,1149.143247,8142.265362
1112.627403,-666.185348,1915.238745,8734.430116
1112.627732,-1850.514855,919.314598,7698.141797
1112.628062,-1924.535449,2068.457845,7179.997637
1112.628392,-1998.556043,1072.533697,8216.285956
1112.628721,-1184.329507,536.266849,8364.327145
1112.629051,-888.247130,-689.485948,8808.450710
1112.629381,-296.082377,-1225.752797,8808.450710
1112.629710,-148.041188,1225.752797,8068.244768
1112.630040,0.000000,612.876398,9104.533087
1112.630370,1480.411884,229.828649,10881.027347
1112.630699,814.226536,919.314598,12509.480420
1112.631029,-888.247130,1608.800546,12879.583391
1112.631359,-2368.659014,4060.306139,12065.356855
1112.631688,-2886.803174,2068.457845,12065.356855
1112.632018,-1850.514855,612.876398,11621.233289
1112.632347,-1480.411884,-459.657299,11251.130318
1112.632677,-1110.308913,-1991.848295,9844.739029
1112.633007,-1184.329507,-766.095498,7994.224174
1112.633336,-1036.288319,0.000000,8364.327145
1112.633666,74.020594,76.609550,9918.759623
1112.633996,-222.061783,842.705048,11621.233289
1112.634325,-1776.494261,2221.676944,11843.295072
1112.634655,-2664.741391,4673.182538,10658.965565
1112.634985,-2886.803174,2451.505594,10436.903782
1112.635314,-2072.576638,459.657299,9770.718434
1112.635644,-1554.432478,0.000000,9992.780217
1112.635974,-1702.473667,-842.705048,9104.533087
1112.636303,-1554.432478,1991.848295,6809.894666
1112.636633,-666.185348,766.095498,6883.915261
1112.636963,444.123565,0.000000,7920.203579
1112.637292,-222.061783,1378.971896,9178.553681
1112.637622,-1554.432478,2145.067394,9252.574275
1112.637952,-2368.659014,4443.353888,8438.347739
1112.638281,-2220.617826,2451.505594,7846.182985
1112.638611,-1332.370696,612.876398,8586.388927
1112.638941,-1332.370696,-306.438199,9178.553681
1112.639270,-1184.329507,-1378.971896,8734.430116
1112.639600,-962.267725,766.095498,7920.203579
1112.639929,-666.185348,536.266849,7994.224174
1112.640259,592.164754,1608.800546,9992.780217
1112.640589,740.205942,1532.190996,10658.965565
1112.640918,-148.041188,2145.067394,10881.027347
1112.641248,-888.247130,4749.792088,10140.821405
1112.641578,-1258.350101,3370.820191,9992.780217
1112.641907,-1184.329507,229.828649,9918.759623
1112.642237,-962.267725,0.000000,11177.109724
1112.642567,-1036.288319,0.000000,11177.109724
1112.642896,-1184.329507,1608.800546,9474.636058
1112.643226,-1258.350101,1072.533697,8808.450710
1112.643556,-370.102971,-229.828649,9918.759623
1112.643885,-592.164754,842.705048,12287.418637
1112.644215,-1850.514855,3600.648841,12657.521608
1112.644545,-2664.741391,5822.325785,10807.006753
1112.644874,-2590.720797,2681.334243,9474.636058
1112.645204,-1480.411884,612.876398,8734.430116
1112.645534,-1184.329507,153.219100,9178.553681
1112.645863,-888.247130,0.000000,9178.553681
1112.646193,-1110.308913,1838.629195,7328.038826
1112.646522,-1110.308913,1455.581446,7105.977043
1112.646852,-370.102971,0.000000,8142.265362
1112.647182,-740.205942,76.609550,9326.594869
1112.647511,-1480.411884,1225.752797,9918.759623
1112.647841,-2220.617826,4443.353888,8882.471304
1112.648171,-2590.720797,3447.429741,7994.224174
1112.648500,-1184.329507,0.000000,8068.244768
1112.648830,-370.102971,-1532.190996,9400.615463
1112.649160,-592.164754,-1762.019645,8956.491898
1112.649489,-1406.391290,1149.143247,7179.997637
1112.649819,-740.205942,-229.828649,7772.162391
1112.650149,370.102971,-1455.581446,9622.677246
1112.650478,370.102971,536.266849,11843.295072
1112.650808,-888.247130,2298.286494,12583.501014
1112.651138,-1406.391290,3600.648841,11399.171507
1112.651467,-1110.308913,1991.848295,10510.924376
1112.651797,-370.102971,-383.047749,10658.965565
1112.652127,-518.144159,-689.485948,11621.233289
1112.652456,-1406.391290,-995.924147,11473.192101
1112.652786,-1850.514855,2757.943793,9326.594869
1112.653116,-1184.329507,1149.143247,8956.491898
1112.653445,1036.288319,-1685.410096,10140.821405
1112.653775,962.267725,76.609550,11621.233289
1112.654104,-814.226536,2145.067394,11399.171507
1112.654434,-2368.659014,4060.306139,9770.718434
1112.654764,-3330.926739,3600.648841,9622.677246
1112.655093,-2738.761985,2298.286494,10140.821405
1112.655423,-2960.823768,689.485948,9918.759623
1112.655753,-2368.659014,-766.095498,8290.306550
1112.656082,-2146.597232,1532.190996,6513.812290
1112.656412,-1184.329507,995.924147,6365.771101
1112.656742,-666.185348,-612.876398,6809.894666
1112.657071,-740.205942,229.828649,8660.409521
1112.657401,-1628.453072,306.438199,9548.656652
1112.657731,-2368.659014,4903.011187,8734.430116
1112.658060,-3256.906145,4826.401637,8364.327145
1112.658390,-1480.411884,1072.533697,8586.388927
1112.658720,0.000000,-536.266849,8956.491898
1112.659049,74.020594,-995.924147,8438.347739
1112.659379,0.000000,2451.505594,7105.977043
1112.659709,296.082377,1225.752797,7550.100608
1112.660038,1110.308913,0.000000,8734.430116
1112.660368,666.185348,766.095498,10658.965565
1112.660698,-222.061783,842.705048,11621.233289
1112.661027,-814.226536,2757.943793,10066.800811
1112.661357,-1258.350101,3064.381992,10510.924376
1112.661686,-888.247130,1225.752797,11251.130318
1112.662016,-666.185348,1225.752797,10955.047942
1112.662346,-370.102971,-766.095498,10955.047942
1112.662675,-222.061783,459.657299,9400.615463
1112.663005,-814.226536,689.485948,9622.677246
1112.663335,-1406.391290,-995.924147,11029.068536
1112.663664,-1702.473667,842.705048,12509.480420
1112.663994,-3034.844362,1608.800546,12509.480420
1112.664324,-3849.070898,3907.087040,11473.192101
1112.664653,-3330.926739,2834.553343,10658.965565
1112.664983,-2738.761985,0.000000,10436.903782
1112.665313,-2368.659014,-383.047749,9326.594869
1112.665642,-1776.494261,-919.314598,7994.224174
1112.665972,-370.102971,1302.362347,6513.812290
1112.666302,592.164754,459.657299,6587.832884
1112.666631,444.123565,-689.485948,7846.182985
1112.666961,148.041188,689.485948,9696.697840
1112.667291,-962.267725,1838.629195,10436.903782
1112.667620,-1776.494261,4519.963438,9030.512492
1112.667950,-1850.514855,3447.429741,8142.265362
1112.668280,-1110.308913,-229.828649,8216.285956
1112.668609,-74.020594,-1225.752797,9104.533087
1112.668939,-1332.370696,-612.876398,7772.162391
1112.669268,-1628.453072,919.314598,5329.482782
1112.669598,-148.041188,-995.924147,6365.771101
1112.669928,444.123565,-1915.238745,9474.636058
1112.670257,0.000000,0.000000,10881.027347
1112.670587,-1480.411884,459.657299,10881.027347
1112.670917,-2368.659014,1838.629195,9400.615463
1112.671246,-2220.617826,2145.067394,10362.883188
1112.671576,-1258.350101,306.438199,11769.274478
1112.671906,-370.102971,0.000000,12583.501014
1112.672235,0.000000,-153.219100,11843.295072
1112.672565,-370.102971,1838.629195,9844.739029
1112.672895,0.000000,842.705048,9030.512492
1112.673224,1258.350101,-1762.019645,10658.965565
1112.673554,1554.432478,-1608.800546,12139.377449
1112.673884,-740.205942,2451.505594,13249.686362
1112.674213,-2590.720797,5669.106685,11399.171507
1112.674543,-2590.720797,3217.601092,10066.800811
1112.674873,-1184.329507,-1072.533697,9844.739029
1112.675202,-1406.391290,-306.438199,10584.944971
1112.675532,-2368.659014,1455.581446,9622.677246
1112.675861,-2220.617826,3677.258390,7105.977043
1112.676191,-1332.370696,1608.800546,5921.647536
1112.676521,0.000000,-1072.533697,6883.915261
1112.676850,-666.185348,459.657299,9178.553681
1112.677180,-2072.576638,2068.457845,10214.842000
1112.677509,-4071.132681,4596.572988,8512.368333
1112.677839,-4589.276840,3370.820191,7920.203579
1112.678168,-2960.823768,842.705048,8882.471304
1112.678498,-1480.411884,-153.219100,9326.594869
1112.678827,-1110.308913,-1302.362347,8142.265362
1112.679157,-888.247130,689.485948,5477.523971
1112.679487,74.020594,0.000000,5403.503377
1112.679816,1332.370696,-1378.971896,8290.306550
1112.680146,1850.514855,1225.752797,11473.192101
1112.680475,740.205942,2451.505594,12139.377449
1112.680805,-740.205942,5209.449386,10140.821405
1112.681134,-740.205942,2528.115143,9474.636058
1112.681464,222.061783,-1378.971896,10436.903782
1112.681793,814.226536,-1685.410096,11325.150913
1112.682123,296.082377,-766.095498,11473.192101
1112.682452,296.082377,2298.286494,9770.718434
1112.682782,-1258.350101,766.095498,8216.285956
1112.683112,-518.144159,-2528.115143,9474.636058
1112.683441,-444.123565,-1762.019645,12953.603985
1112.683771,-1850.514855,1225.752797,13471.748144
1112.684100,-3108.864956,3907.087040,10584.944971
1112.684430,-3478.967927,1532.190996,10066.800811
1112.684759,-2368.659014,-1838.629195,11991.336260
1112.685089,-2812.782580,-306.438199,13175.665768
1112.685418,-3701.029710,919.314598,10658.965565
1112.685748,-2442.679609,2145.067394,7328.038826
1112.686078,-1406.391290,-383.047749,6439.791695
1112.686407,74.020594,-1608.800546,8216.285956
1112.686737,296.082377,-229.828649,9770.718434
1112.687066,-222.061783,459.657299,9844.739029
1112.687396,-1776.494261,4903.011187,7698.141797
1112.687725,-2368.659014,3830.477490,7624.121203
1112.688055,-1480.411884,-689.485948,9474.636058
1112.688384,0.000000,-766.095498,10510.924376
1112.688714,-518.144159,1378.971896,8216.285956
1112.689044,0.000000,3370.820191,5181.441594
1112.689373,740.205942,0.000000,5181.441594
1112.689703,1406.391290,-1378.971896,7328.038826
1112.690032,592.164754,919.314598,9770.718434
1112.690362,-1184.329507,2451.505594,9770.718434
1112.690691,-2516.700203,4443.353888,8216.285956
1112.691021,-2590.720797,1915.238745,8660.409521
1112.691350,-1924.535449,-1762.019645,10436.903782
1112.691680,-1480.411884,-2068.457845,11473.192101
1112.692010,-1702.473667,-842.705048,10510.924376
1112.692339,-1406.391290,1685.410096,8734.430116
1112.692669,-1036.288319,689.485948,9326.594869
1112.692998,370.102971,-1149.143247,12287.418637
1112.693328,666.185348,842.705048,13545.768739
1112.693657,-370.102971,2221.676944,13027.624579
1112.693987,-1258.350101,4519.963438,11177.109724
1112.694316,-1480.411884,2834.553343,10214.842000
1112.694646,-592.164754,-536.266849,11695.253884
1112.694976,-370.102971,-1302.362347,12139.377449
1112.695305,-888.247130,76.609550,10436.903782
1112.695635,-1258.350101,2681.334243,7476.080014
1112.695964,-222.061783,766.095498,6883.915261
1112.696294,592.164754,-1378.971896,8068.244768
1112.696623,0.000000,153.219100,9770.718434
1112.696953,-1110.308913,2068.457845,9844.739029
1112.697282,-2886.803174,4826.401637,8586.388927
1112.697612,-3923.091493,3064.381992,7920.203579
1112.697942,-2738.761985,-536.266849,8142.265362
1112.698271,-1924.535449,-2451.505594,8808.450710
1112.698601,-1924.535449,-1378.971896,8660.409521
1112.698930,-2960.823768,2451.505594,6143.709319
1112.699260,-2220.617826,459.657299,5625.565159
1112.699589,296.082377,-2528.115143,7402.059420
1112.699919,888.247130,-1302.362347,10066.800811
1112.700248,0.000000,1915.238745,11029.068536
1112.700578,-1480.411884,4596.572988,9474.636058
1112.700907,-1776.494261,2604.724693,9474.636058
1112.701237,-1036.288319,306.438199,10288.862594
1112.701567,740.205942,0.000000,11843.295072
1112.701896,444.123565,-1378.971896,11029.068536
1112.702226,296.082377,383.047749,8364.327145
1112.702555,148.041188,76.609550,8068.244768
1112.702885,1406.391290,-1838.629195,9770.718434
1112.703214,2146.597232,-1378.971896,11621.233289
1112.703544,1110.308913,995.924147,11843.295072
1112.703873,-1036.288319,4596.572988,10288.862594
1112.704203,-2220.617826,3600.648841,9770.718434
1112.704533,-1184.329507,536.266849,11399.171507
1112.704862,-592.164754,-612.876398,11917.315666
1112.705192,-1998.556043,-383.047749,10362.883188
1112.705521,-2516.700203,1915.238745,8216.285956
1112.705851,-2442.679609,0.000000,8068.244768
1112.706180,-1850.514855,-2221.676944,9178.553681
1112.706510,-1924.535449,306.438199,11029.068536
1112.706839,-3182.885551,842.705048,10807.006753
1112.707169,-3108.864956,4213.525239,9844.739029
1112.707499,-3330.926739,2451.505594,8882.471304
1112.707828,-1702.473667,229.828649,9400.615463
1112.708158,-1184.329507,-689.485948,8734.430116
1112.708487,-1480.411884,-766.095498,7772.162391
1112.708817,-1258.350101,1838.629195,7105.977043
1112.709146,-1184.329507,1685.410096,7179.997637
1112.709476,222.061783,689.485948,7624.121203
1112.709805,888.247130,-153.219100,8290.306550
1112.710135,888.247130,0.000000,8290.306550
1112.710465,370.102971,2374.896044,8068.244768
1112.710794,-222.061783,2145.067394,8882.471304
1112.711124,-296.082377,766.095498,9548.656652
1112.711453,-592.164754,-306.438199,9844.739029
1112.711783,-814.226536,-612.876398,10066.800811
1112.712112,-444.123565,1225.752797,9104.533087
1112.712442,-592.164754,766.095498,9178.553681
1112.712771,814.226536,-536.266849,9770.718434
1112.713101,1036.288319,-383.047749,11547.212695
1112.713431,148.041188,306.438199,11991.336260
1112.713760,-2072.576638,3677.258390,11843.295072
1112.714090,-2960.823768,3830.477490,11843.295072
1112.714419,-2220.617826,1072.533697,11917.315666
1112.714749,-1480.411884,919.314598,11917.315666
1112.715078,-1332.370696,153.219100,11473.192101
1112.715408,-296.082377,1302.362347,8882.471304
1112.715737,-814.226536,0.000000,7624.121203
1112.716067,0.000000,-612.876398,8808.450710
1112.716397,-370.102971,842.705048,10436.903782
1112.716726,-1036.288319,1455.581446,11325.150913
1112.717056,-1628.453072,4749.792088,9918.759623
1112.717385,-2146.597232,3677.258390,8660.409521
1112.717715,-370.102971,1149.143247,8660.409521
1112.718044,0.000000,919.314598,8290.306550
1112.718374,-222.061783,1225.752797,7846.182985
1112.718703,-962.267725,2987.772442,6291.750507
1112.719033,-1628.453072,1991.848295,5773.606348
1112.719362,-962.267725,-153.219100,6587.832884
1112.719692,-1036.288319,-1149.143247,8438.347739
1112.720022,-1776.494261,-229.828649,9474.636058
1112.720351,-2664.741391,2145.067394,8364.327145
1112.720681,-2516.700203,459.657299,7920.203579
1112.721010,-1628.453072,-1915.238745,8882.471304
1112.721340,-592.164754,-1302.362347,11251.130318
1112.721669,-740.205942,0.000000,12805.562797
1112.721999,-962.267725,2604.724693,9696.697840
1112.722328,0.000000,1302.362347,8142.265362
1112.722658,1998.556043,-2451.505594,9696.697840
1112.722988,2146.597232,0.000000,12583.501014
1112.723317,740.205942,1838.629195,13841.851115
1112.723647,-740.205942,4366.744339,11621.233289
1112.723976,-962.267725,2221.676944,9992.780217
1112.724306,-148.041188,-995.924147,10288.862594
1112.724635,74.020594,-1608.800546,12213.398043
1112.724965,-518.144159,-1225.752797,11843.295072
1112.725294,-1702.473667,2681.334243,8956.491898
1112.725624,-1924.535449,1532.190996,7550.100608
1112.725954,-444.123565,-1532.190996,8882.471304
1112.726283,-296.082377,-153.219100,11547.212695
1112.726613,-2146.597232,2145.067394,11473.192101
1112.726942,-3256.906145,4903.011187,8660.409521
1112.727272,-3034.844362,2528.115143,7105.977043
1112.727601,-1702.473667,-689.485948,7772.162391
1112.727931,-962.267725,0.000000,9474.636058
1112.728260,-1628.453072,383.047749,9770.718434
1112.728590,-1924.535449,4060.306139,7105.977043
1112.728920,-1924.535449,2987.772442,6069.688724
1112.729249,-444.123565,-229.828649,7846.182985
1112.729579,-148.041188,0.000000,10066.800811
1112.729908,-1258.350101,1762.019645,10140.821405
1112.730238,-1628.453072,3983.696590,7624.121203
1112.730567,-1480.411884,1991.848295,6513.812290
1112.730897,-296.082377,-842.705048,7846.182985
1112.731226,0.000000,-919.314598,9474.636058
1112.731556,-740.205942,842.705048,9474.636058
1112.731886,0.000000,2681.334243,7698.141797
1112.732215,962.267725,1685.410096,8068.244768
1112.732545,1702.473667,-919.314598,9696.697840
1112.732874,1480.411884,-995.924147,11473.192101
1112.733204,-148.041188,76.609550,12065.356855
1112.733533,-1702.473667,3294.210641,11399.171507
1112.733863,-2590.720797,3830.477490,12435.459826
1112.734192,-1924.535449,1915.238745,13323.706956
1112.734522,-962.267725,153.219100,13027.624579
1112.734852,-370.102971,-536.266849,11473.192101
1112.735181,0.000000,2145.067394,8734.430116
1112.735511,74.020594,1991.848295,8586.388927
1112.735840,888.247130,153.219100,10214.842000
1112.736170,0.000000,1149.143247,11399.171507
1112.736499,-2146.597232,3677.258390,11029.068536
1112.736829,-3627.009116,5286.058936,8956.491898
1112.737158,-3552.988522,2987.772442,8364.327145
1112.737488,-2664.741391,-306.438199,8512.368333
1112.737817,-2146.597232,-2068.457845,8808.450710
1112.738147,-1628.453072,-1302.362347,8734.430116
1112.738477,-2368.659014,2221.676944,7031.956449
1112.738806,-2368.659014,2451.505594,6587.832884
1112.739136,-888.247130,766.095498,8216.285956
1112.739465,666.185348,1762.019645,10658.965565
1112.739795,-148.041188,3370.820191,10807.006753
1112.740124,-1110.308913,6281.983084,8438.347739
1112.740454,-1036.288319,3064.381992,6217.729913
1112.740783,222.061783,-1685.410096,7105.977043
1112.741113,518.144159,-2145.067394,9474.636058
1112.741443,-518.144159,-383.047749,10140.821405
1112.741772,-1480.411884,2911.162892,8586.388927
1112.742102,-1924.535449,1532.190996,7254.018232
1112.742431,370.102971,-1532.190996,9030.512492
1112.742761,1554.432478,-1915.238745,10658.965565
1112.743090,962.267725,-689.485948,10732.986159
1112.743420,-518.144159,2374.896044,9400.615463
1112.743749,-2072.576638,2681.334243,10732.986159
1112.744079,-1554.432478,306.438199,11843.295072
1112.744409,-814.226536,-689.485948,12953.603985
1112.744738,-296.082377,-1991.848295,12139.377449
1112.745068,-888.247130,-229.828649,9918.759623
1112.745397,-1036.288319,459.657299,9326.594869
1112.745727,222.061783,-1455.581446,11473.192101
1112.746056,0.000000,-306.438199,13027.624579
1112.746386,-1924.535449,2221.676944,13101.645173
1112.746715,-2960.823768,4826.401637,11621.233289
1112.747045,-3034.844362,3064.381992,9992.780217
1112.747375,-2072.576638,1225.752797,9252.574275
1112.747704,-1110.308913,-459.657299,9030.512492
1112.748034,-888.247130,-1072.533697,8364.327145
1112.748363,-1258.350101,1149.143247,6587.832884
1112.748693,-2368.659014,1225.752797,5329.482782
1112.749022,-1184.329507,-1378.971896,6143.709319
1112.749352,-962.267725,-459.657299,8290.306550
1112.749681,-1554.432478,1532.190996,9844.739029
1112.750011,-2220.617826,4596.572988,8808.450710
1112.750341,-2738.761985,3524.039291,7698.141797
1112.750670,-1184.329507,689.485948,8364.327145
1112.751000,-296.082377,-689.485948,8882.471304
1112.751329,0.000000,-153.219100,9474.636058
1112.751659,-962.267725,3064.381992,8216.285956
1112.751988,-962.267725,3370.820191,7031.956449
1112.752318,592.164754,1532.190996,8438.347739
1112.752647,1554.432478,383.047749,10807.006753
1112.752977,814.226536,1225.752797,11769.274478
1112.753307,-592.164754,3064.381992,9992.780217
1112.753636,-2294.638420,2298.286494,9622.677246
1112.753966,-2072.576638,306.438199,10362.883188
1112.754295,-1036.288319,0.000000,11843.295072
1112.754625,-592.164754,306.438199,11695.253884
1112.754954,0.000000,1991.848295,9474.636058
1112.755284,592.164754,2221.676944,9326.594869
1112.755613,1628.453072,1532.190996,10362.883188
1112.755943,1480.411884,1762.019645,10066.800811
1112.756272,148.041188,2298.286494,9992.780217
1112.756602,-666.185348,4519.963438,9474.636058
1112.756932,-1628.453072,4979.620737,9400.615463
1112.757261,-1628.453072,2374.896044,9770.718434
1112.757591,-1998.556043,0.000000,10140.821405
1112.757920,-2368.659014,-1378.971896,9622.677246
1112.758250,-3182.885551,995.924147,8216.285956
1112.758579,-2886.803174,306.438199,8068.244768
1112.758909,-2590.720797,-1532.190996,8956.491898
1112.759238,-2368.659014,-383.047749,9918.759623
1112.759568,-2886.803174,1762.019645,10955.047942
1112.759898,-3552.988522,4519.963438,9992.780217
1112.760227,-3182.885551,4443.353888,8438.347739
1112.760557,-1332.370696,842.705048,7846.182985
1112.760886,222.061783,-2068.457845,7550.100608
1112.761216,148.041188,-2987.772442,7254.018232
1112.761545,-888.247130,-383.047749,7031.956449
1112.761875,-1110.308913,1149.143247,7920.203579
1112.762204,148.041188,153.219100,9992.780217
1112.762534,518.144159,0.000000,11917.315666
1112.762864,74.020594,-153.219100,11621.233289
1112.763193,-592.164754,1149.143247,9770.718434
1112.763523,-814.226536,1378.971896,9770.718434
1112.763852,-222.061783,0.000000,10214.842000
1112.764182,-222.061783,-842.705048,10807.006753
1112.764511,-888.247130,-1838.629195,10066.800811
1112.764841,-962.267725,0.000000,9622.677246
1112.765170,-1110.308913,842.705048,9252.574275
1112.765500,-592.164754,-383.047749,9992.780217
1112.765830,222.061783,-842.705048,11251.130318
1112.766159,-666.185348,383.047749,12213.398043
1112.766489,-2368.659014,3447.429741,11251.130318
1112.766818,-3108.864956,3983.696590,11325.150913
1112.767148,-1850.514855,1378.971896,11399.171507
1112.767477,-1258.350101,229.828649,11399.171507
1112.767807,-1480.411884,153.219100,10807.006753
1112.768136,-1924.535449,1378.971896,8438.347739
1112.768466,-1036.288319,842.705048,6513.812290
1112.768796,74.020594,-612.876398,7624.121203
1112.769125,0.000000,1225.752797,9696.697840
1112.769455,-1702.473667,2451.505594,9548.656652
1112.769784,-2738.761985,3907.087040,7550.100608
1112.770114,-1998.556043,2911.162892,6735.874072
1112.770443,-962.267725,1455.581446,7402.059420
1112.770773,148.041188,1149.143247,8216.285956
1112.771102,-296.082377,0.000000,7994.224174
1112.771432,-1184.329507,1225.752797,6439.791695
1112.771762,-2368.659014,842.705048,7105.977043
1112.772091,-1332.370696,0.000000,9252.574275
1112.772421,-740.205942,383.047749,11251.130318
1112.772750,-1554.432478,1072.533697,11843.295072
1112.773080,-1850.514855,2451.505594,10140.821405
1112.773409,-1850.514855,1378.971896,9622.677246
1112.773739,-666.185348,536.266849,10436.903782
1112.774068,-444.123565,689.485948,10807.006753
1112.774398,-518.144159,229.828649,10436.903782
1112.774728,-148.041188,459.657299,9030.512492
1112.775057,-296.082377,383.047749,9178.553681
1112.775387,-296.082377,612.876398,10881.027347
1112.775716,-444.123565,1302.362347,11917.315666
1112.776046,-888.247130,1532.190996,11991.336260
1112.776375,-1332.370696,2298.286494,10732.986159
1112.776705,-1184.329507,1608.800546,10658.965565
1112.777034,-666.185348,76.609550,10807.006753
1112.777364,-518.144159,459.657299,11547.212695
1112.777693,-1702.473667,1225.752797,10362.883188
1112.778023,-2220.617826,1302.362347,7772.162391
1112.778353,-1776.494261,76.609550,7920.203579
1112.778682,-1332.370696,229.828649,9844.739029
1112.779012,-1998.556043,1838.629195,10510.924376
1112.779342,-3034.844362,1225.752797,9548.656652
1112.779671,-2960.823768,1378.971896,7624.121203
1112.780001,-3034.844362,1149.143247,7920.203579
1112.780331,-2146.597232,-229.828649,9178.553681
1112.780660,-1258.350101,459.657299,9696.697840
1112.780990,-1998.556043,153.219100,7994.224174
1112.781320,-2738.761985,1225.752797,5551.544565
1112.781649,-1480.411884,306.438199,5773.606348
1112.781979,1406.391290,-1378.971896,7624.121203
1112.782308,2516.700203,612.876398,9622.677246
1112.782638,1406.391290,1838.629195,9548.656652
1112.782968,0.000000,2298.286494,7624.121203
1112.783297,-592.164754,689.485948,8290.306550
1112.783627,148.041188,-306.438199,10214.842000
1112.783957,148.041188,1149.143247,11029.068536
1112.784286,-666.185348,842.705048,11103.089130
1112.784616,-1110.308913,536.266849,9178.553681
1112.784946,-1480.411884,-1685.410096,8808.450710
1112.785275,-814.226536,-2987.772442,11251.130318
1112.785605,-740.205942,-689.485948,12731.542202
1112.785935,-1924.535449,459.657299,12361.439231
1112.786264,-3775.050304,1532.190996,11029.068536
1112.786594,-3404.947333,995.924147,11843.295072
1112.786923,-1332.370696,612.876398,13471.748144
1112.787253,-518.144159,2145.067394,12805.562797
1112.787583,-888.247130,1378.971896,10510.924376
1112.787912,-1258.350101,1608.800546,8290.306550
1112.788242,-1036.288319,689.485948,8660.409521
1112.788572,0.000000,-766.095498,9992.780217
1112.788901,-518.144159,1378.971896,9844.739029
1112.789231,-2220.617826,2604.724693,9474.636058
1112.789561,-2368.659014,2911.162892,8512.368333
1112.789890,-2368.659014,1532.190996,7772.162391
1112.790220,-1110.308913,-689.485948,7328.038826
1112.790549,518.144159,-842.705048,6735.874072
1112.790879,592.164754,-229.828649,7254.018232
1112.791209,-1184.329507,3064.381992,6661.853478
1112.791538,-2886.803174,3524.039291,6069.688724
1112.791868,-1258.350101,689.485948,6883.915261
1112.792198,222.061783,842.705048,9252.574275
1112.792527,-888.247130,2374.896044,9918.759623
1112.792857,-2220.617826,2528.115143,8438.347739
1112.793187,-2738.761985,459.657299,8216.285956
1112.793516,-2516.700203,-1762.019645,9326.594869
1112.793846,-2664.741391,153.219100,10807.006753
1112.794176,-2368.659014,306.438199,11695.253884
1112.794505,-1776.494261,1149.143247,9622.677246
1112.794835,-1184.329507,842.705048,8808.450710
1112.795164,222.061783,-459.657299,9252.574275
1112.795494,2146.597232,-612.876398,10881.027347
1112.795824,1628.453072,612.876398,11991.336260
1112.796153,0.000000,3830.477490,11029.068536
1112.796483,-888.247130,3907.087040,11695.253884
1112.796813,222.061783,459.657299,11621.233289
1112.797142,1702.473667,0.000000,11843.295072
1112.797472,592.164754,-229.828649,11325.150913
1112.797802,-888.247130,1685.410096,9548.656652
1112.798131,-1184.329507,1608.800546,9252.574275
1112.798461,-518.144159,0.000000,9992.780217
1112.798790,-1628.453072,-306.438199,10066.800811
1112.799120,-3182.885551,-229.828649,10584.944971
1112.799450,-3849.070898,1915.238745,10066.800811
1112.799779,-3478.967927,2298.286494,8882.471304
1112.800109,-2368.659014,229.828649,8216.285956
1112.800439,-1258.350101,153.219100,8216.285956
1112.800768,-1406.391290,229.828649,8808.450710
1112.801098,-1924.535449,2681.334243,8364.327145
1112.801428,-2442.679609,2681.334243,7031.956449
1112.801757,-1554.432478,-306.438199,6439.791695
1112.802087,-740.205942,-1302.362347,7846.182985
1112.802417,-1480.411884,-459.657299,10288.862594
1112.802746,-2442.679609,2451.505594,9844.739029
1112.803076,-2664.741391,2451.505594,8364.327145
1112.803405,-1036.288319,-153.219100,7402.059420
1112.803735,0.000000,-1532.190996,8512.368333
1112.804065,222.061783,-612.876398,9844.739029
1112.804394,148.041188,1685.410096,8068.244768
1112.804724,592.164754,1838.629195,6439.791695
1112.805054,1850.514855,-383.047749,8142.265362
1112.805383,1628.453072,-766.095498,9622.677246
1112.805713,740.205942,-1302.362347,11843.295072
1112.806043,-1258.350101,-229.828649,11991.336260
1112.806372,-3478.967927,1149.143247,11177.109724
1112.806702,-3478.967927,-306.438199,12139.377449
1112.807032,-1702.473667,-2451.505594,13915.871710
1112.807361,-1924.535449,-1915.238745,13989.892304
1112.807691,-2294.638420,612.876398,11843.295072
1112.808020,-1554.432478,1225.752797,9992.780217
1112.808350,-148.041188,76.609550,9696.697840
1112.808680,370.102971,459.657299,10436.903782
1112.809009,444.123565,0.000000,10658.965565
1112.809339,-666.185348,0.000000,8364.327145
1112.809669,-1998.556043,-306.438199,7254.018232
1112.809998,-1924.535449,-1838.629195,8068.244768
1112.810328,-962.267725,-2604.724693,8956.491898
1112.810658,-814.226536,-4136.915689,9400.615463
1112.810987,-1258.350101,-2834.553343,8734.430116
1112.811317,-2442.679609,0.000000,7846.182985
1112.811646,-2072.576638,306.438199,7772.162391
1112.811976,370.102971,612.876398,8364.327145
1112.812306,1628.453072,-995.924147,7846.182985
1112.812635,1480.411884,-1378.971896,7179.997637
1112.812965,-666.185348,-1225.752797,7846.182985
1112.813295,-2368.659014,-1149.143247,8438.347739
1112.813624,-2960.823768,-2221.676944,8438.347739
1112.813954,-1998.556043,-4903.011187,9474.636058
1112.814284,-1776.494261,-5592.497135,9844.739029
1112.814613,-2442.679609,-4136.915689,10658.965565
1112.814943,-2516.700203,-3524.039291,10584.944971
1112.815273,-1184.329507,-2911.162892,9992.780217
1112.815602,444.123565,-3294.210641,9918.759623
1112.815932,1776.494261,-2451.505594,11917.315666
1112.816261,1480.411884,0.000000,13619.789333
1112.816591,-962.267725,1378.971896,12583.501014
1112.816921,-1924.535449,306.438199,9696.697840
1112.817250,-1406.391290,-3524.039291,9030.512492
1112.817580,592.164754,-6511.811733,10436.903782
1112.817910,-296.082377,-5515.887586,11621.233289
1112.818239,-2368.659014,-4213.525239,10510.924376
1112.818569,-3256.906145,-3753.867940,8512.368333
1112.818899,-2664.741391,-4596.572988,8586.388927
1112.819228,-666.185348,-2987.772442,10362.883188
1112.819558,1036.288319,-842.705048,12361.439231
1112.819887,444.123565,1532.190996,12287.418637
1112.820217,-740.205942,3677.258390,10732.986159
1112.820547,-2220.617826,2221.676944,8586.388927
1112.820876,-2368.659014,-1225.752797,7772.162391
1112.821206,-1702.473667,-2221.676944,8512.368333
1112.821536,-1332.370696,-2221.676944,8364.327145
1112.821865,-1850.514855,-3217.601092,7031.956449
1112.822195,-2590.720797,-4826.401637,5477.523971
1112.822525,-2146.597232,-5286.058936,5773.606348
1112.822854,-1110.308913,-4749.792088,7846.182985
1112.823184,888.247130,-1685.410096,9474.636058
1112.823514,1776.494261,1149.143247,10362.883188
1112.823843,592.164754,1532.190996,10658.965565
1112.824173,-962.267725,919.314598,11325.150913
1112.824502,-2368.659014,2298.286494,12287.418637
1112.824832,-2886.803174,3140.991542,12435.459826
1112.825162,-2590.720797,1991.848295,9770.718434
1112.825491,-1776.494261,-2911.162892,7105.977043
1112.825821,-296.082377,-7354.516781,5181.441594
1112.826151,888.247130,-8120.612279,5255.462188
1112.826480,888.247130,-5669.106685,5847.626942
1112.826810,1406.391290,-2834.553343,7920.203579
1112.827140,518.144159,-995.924147,10362.883188
1112.827469,-518.144159,153.219100,12583.501014
1112.827799,-814.226536,-306.438199,13619.789333
1112.828129,-592.164754,-229.828649,13841.851115
1112.828458,-1110.308913,1762.019645,14211.954086
1112.828788,-2368.659014,1532.190996,14508.036463
1112.829117,-4515.256246,-1455.581446,13101.645173
1112.829447,-5033.400406,-4290.134789,10510.924376
1112.829777,-3552.988522,-4213.525239,8882.471304
1112.830106,-1258.350101,-4290.134789,6439.791695
1112.830436,592.164754,-4979.620737,4071.132681
1112.830766,2442.679609,-5975.544884,3627.009116
1112.831095,3256.906145,-5286.058936,4959.379811
1112.831425,2812.782580,-1915.238745,8586.388927
1112.831755,518.144159,2221.676944,13323.706956
1112.832084,-1924.535449,4366.744339,15174.221811
1112.832414,-3997.112087,2757.943793,15322.262999
1112.832743,-3849.070898,0.000000,14508.036463
1112.833073,-3108.864956,-2451.505594,13027.624579
1112.833403,-2146.597232,-4596.572988,10881.027347
1112.833732,-1924.535449,-3217.601092,8216.285956
1112.834062,-1628.453072,-1838.629195,6291.750507
1112.834392,-592.164754,-2145.067394,4885.359217
1112.834721,666.185348,-2757.943793,3552.988522
1112.835051,1332.370696,-2221.676944,2146.597232
1112.835381,2368.659014,-1149.143247,3256.906145
1112.835710,2590.720797,-1915.238745,5625.565159
1112.836040,1332.370696,-1915.238745,7920.203579
1112.836370,-1776.494261,-1762.019645,11621.233289
1112.836699,-4885.359217,-1378.971896,14508.036463
1112.837029,-6809.894666,766.095498,17764.942608
1112.837358,-7031.956449,995.924147,17764.942608
1112.837688,-5847.626942,-459.657299,14063.912898
1112.838018,-3923.091493,-3753.867940,8438.347739
1112.838347,-1184.329507,-7048.078582,4737.318029
1112.838677,2146.597232,-5669.106685,4663.297435
1112.839007,3701.029710,-2757.943793,5033.400406
1112.839336,3701.029710,-1149.143247,5847.626942
1112.839666,2590.720797,-612.876398,7994.224174
1112.839996,888.247130,-612.876398,10362.883188
1112.840325,-296.082377,-536.266849,13989.892304
1112.840655,-1332.370696,-612.876398,15396.283594
1112.840984,-2516.700203,-1149.143247,14211.954086
1112.841314,-3108.864956,-3217.601092,12509.480420
1112.841644,-2516.700203,-6435.202183,11547.212695
1112.841973,-1184.329507,-6128.763984,10881.027347
1112.842303,-1480.411884,-4290.134789,9252.574275
1112.842633,-1332.370696,-2298.286494,7476.080014
1112.842962,-444.123565,-2298.286494,6809.894666
1112.843292,592.164754,-3370.820191,7031.956449
1112.843622,592.164754,-3294.210641,8734.430116
1112.843951,-666.185348,-2298.286494,9918.759623
1112.844281,-2886.803174,229.828649,11399.171507
1112.844611,-3627.009116,689.485948,12657.521608
1112.844940,-3256.906145,-1072.533697,12435.459826
1112.845270,-1554.432478,-2834.553343,10955.047942
1112.845599,0.000000,-4060.306139,8956.491898
1112.845929,1480.411884,-4903.011187,7105.977043
1112.846259,1998.556043,-4443.353888,7031.956449
1112.846588,888.247130,-2987.772442,6957.935855
1112.846918,148.041188,-1532.190996,7624.121203
1112.847248,-296.082377,-383.047749,9474.636058
1112.847577,-962.267725,612.876398,10732.986159
1112.847907,-1406.391290,1072.533697,10288.862594
1112.848237,-1480.411884,-995.924147,9252.574275
1112.848566,-1184.329507,-2145.067394,8438.347739
1112.848896,-814.226536,-2068.457845,8956.491898
1112.849226,-740.205942,-2528.115143,9252.574275
1112.849555,-1184.329507,-2068.457845,8512.368333
1112.849885,-1702.473667,-2528.115143,7994.224174
1112.850214,-1924.535449,-3064.381992,9178.553681
1112.850544,-2294.638420,-3524.039291,9326.594869
1112.850874,-2442.679609,-2451.505594,9918.759623
1112.851203,-2220.617826,-1685.410096,10955.047942
1112.851533,-1850.514855,-1072.533697,12139.377449
1112.851863,-1702.473667,0.000000,13545.768739
1112.852192,-1702.473667,1225.752797,13397.727550
1112.852522,-1702.473667,2451.505594,12139.377449
1112.852852,-1258.350101,2528.115143,9696.697840
1112.853181,518.144159,0.000000,7328.038826
1112.853511,2516.700203,-3600.648841,5107.421000
1112.853840,3627.009116,-6128.763984,4663.297435
1112.854170,2368.659014,-5362.668486,6069.688724
1112.854500,-296.082377,-3217.601092,8290.306550
1112.854829,-2368.659014,-2604.724693,10732.986159
1112.855159,-3330.926739,-1378.971896,13027.624579
1112.855489,-3256.906145,-153.219100,14434.015869
1112.855818,-2146.597232,1072.533697,14063.912898
1112.856148,-1332.370696,383.047749,12213.398043
1112.856478,-962.267725,-229.828649,9696.697840
1112.856807,-444.123565,-383.047749,8068.244768
1112.857137,148.041188,-612.876398,7846.182985
1112.857467,592.164754,-459.657299,8142.265362
1112.857796,-222.061783,-2221.676944,6143.709319
1112.858126,-1184.329507,-3677.258390,5181.441594
1112.858455,-1998.556043,-5669.106685,5477.523971
1112.858785,-2220.617826,-6818.249932,8142.265362
1112.859115,-2590.720797,-4826.401637,10436.903782
1112.859444,-2812.782580,-3370.820191,12213.398043
1112.859774,-2738.761985,-2604.724693,13027.624579
1112.860104,-2442.679609,-2221.676944,13101.645173
1112.860433,-1924.535449,-1532.190996,12805.562797
1112.860763,-518.144159,-1762.019645,11695.253884
1112.861093,666.185348,-1225.752797,9622.677246
1112.861422,888.247130,-1532.190996,8438.347739
1112.861752,592.164754,-2068.457845,8734.430116
1112.862081,-222.061783,-3447.429741,8364.327145
1112.862411,-1036.288319,-4519.963438,7698.141797
1112.862741,-1332.370696,-3907.087040,7846.182985
1112.863070,-1258.350101,-4060.306139,8586.388927
1112.863400,-518.144159,-4366.744339,9474.636058
1112.863730,222.061783,-5056.230287,9548.656652
1112.864059,0.000000,-5286.058936,9622.677246
1112.864389,0.000000,-3753.867940,11029.068536
1112.864719,-1406.391290,-2221.676944,12657.521608
1112.865048,-2738.761985,-1302.362347,12879.583391
1112.865378,-3034.844362,-2221.676944,12361.439231
1112.865708,-3034.844362,-3064.381992,11029.068536
1112.866037,-2738.761985,-3294.210641,10066.800811
1112.866367,-1776.494261,-3753.867940,9400.615463
1112.866696,-1850.514855,-2528.115143,8438.347739
1112.867026,-1332.370696,-1608.800546,7920.203579
1112.867356,-148.041188,-766.095498,8216.285956
1112.867685,518.144159,-229.828649,8734.430116
1112.868015,888.247130,689.485948,8586.388927
1112.868345,518.144159,459.657299,8882.471304
1112.868674,-592.164754,-459.657299,9474.636058
1112.869004,-2294.638420,-689.485948,10807.006753
1112.869334,-3849.070898,-536.266849,12139.377449
1112.869663,-4811.338623,0.000000,12287.418637
1112.869993,-5255.462188,-459.657299,11621.233289
1112.870323,-5551.544565,-689.485948,9622.677246
1112.870652,-4737.318029,-766.095498,7920.203579
1112.870982,-3404.947333,-383.047749,7105.977043
1112.871311,-2072.576638,919.314598,6809.894666
1112.871641,-1184.329507,1532.190996,6513.812290
1112.871971,-888.247130,2374.896044,6883.915261
1112.872300,-1258.350101,1991.848295,7624.121203
1112.872630,-1850.514855,1685.410096,9178.553681
1112.872960,-3108.864956,1149.143247,10288.862594
1112.873289,-4663.297435,919.314598,11251.130318
1112.873619,-5995.668130,76.609550,11769.274478
1112.873949,-6957.935855,-919.314598,11991.336260
1112.874278,-7476.080014,-536.266849,11473.192101
1112.874608,-6069.688724,-536.266849,9622.677246
1112.874937,-4367.215058,-1225.752797,7328.038826
1112.875267,-2072.576638,-153.219100,6439.791695
1112.875597,-592.164754,-153.219100,6957.935855
1112.875926,-222.061783,459.657299,7402.059420
1112.876256,-1332.370696,1455.581446,8438.347739
1112.876586,-3182.885551,2221.676944,9622.677246
1112.876915,-4737.318029,1762.019645,11325.150913
1112.877245,-6069.688724,1149.143247,13175.665768
1112.877575,-6661.853478,0.000000,13619.789333
1112.877904,-6587.832884,-306.438199,12805.562797
1112.878234,-6069.688724,-689.485948,11621.233289
1112.878564,-4515.256246,-306.438199,10510.924376
1112.878893,-3108.864956,-1149.143247,9326.594869
1112.879223,-2442.679609,-689.485948,7772.162391
1112.879552,-2516.700203,-459.657299,6883.915261
1112.879882,-2960.823768,0.000000,7105.977043
1112.880212,-3775.050304,-306.438199,8364.327145
1112.880541,-4367.215058,-383.047749,8734.430116
1112.880871,-5551.544565,-1302.362347,9030.512492
1112.881201,-6439.791695,-1915.238745,9474.636058
1112.881530,-6957.935855,-1608.800546,9992.780217
1112.881860,-6365.771101,-536.266849,10881.027347
1112.882189,-5477.523971,229.828649,10584.944971
1112.882519,-3997.112087,1838.629195,9992.780217
1112.882849,-3108.864956,3064.381992,9030.512492
1112.883178,-2146.597232,3524.039291,7994.224174
1112.883508,-592.164754,2757.943793,7920.203579
1112.883838,-592.164754,2374.896044,7994.224174
1112.884167,-1628.453072,689.485948,8512.368333
1112.884497,-3108.864956,-229.828649,9622.677246
1112.884826,-5477.523971,-1072.533697,10288.862594
1112.885156,-7254.018232,-1608.800546,11399.171507
1112.885486,-8068.244768,-2374.896044,11621.233289
1112.885815,-6957.935855,-1149.143247,11843.295072
1112.886145,-5699.585753,0.000000,11399.171507
1112.886475,-3775.050304,1455.581446,10436.903782
1112.886804,-1776.494261,2834.553343,9400.615463
1112.887134,-222.061783,3753.867940,7550.100608
1112.887463,1406.391290,4136.915689,6883.915261
1112.887793,1406.391290,3983.696590,7179.997637
1112.888123,-222.061783,3294.210641,7476.080014
1112.888452,-2294.638420,1915.238745,8216.285956
1112.888782,-5033.400406,536.266849,9030.512492
1112.889111,-7031.956449,459.657299,10066.800811
1112.889441,-8068.244768,-459.657299,11399.171507
1112.889771,-8068.244768,-459.657299,11177.109724
1112.890100,-6735.874072,229.828649,10881.027347
1112.890430,-5107.421000,1302.362347,10140.821405
1112.890760,-3256.906145,2374.896044,9474.636058
1112.891089,-2146.597232,3294.210641,8734.430116
1112.891419,-1480.411884,3524.039291,8734.430116
1112.891748,-1480.411884,3753.867940,9178.553681
1112.892078,-2886.803174,3140.991542,8660.409521
1112.892408,-4071.132681,842.705048,7994.224174
1112.892737,-4367.215058,-1378.971896,8438.347739
1112.893067,-5033.400406,-2374.896044,9548.656652
1112.893397,-5625.565159,-1608.800546,10214.842000
1112.893726,-5995.668130,-842.705048,10362.883188
1112.894056,-5255.462188,0.000000,10288.862594
1112.894385,-3849.070898,2221.676944,10066.800811
1112.894715,-1924.535449,4443.353888,9992.780217
1112.895045,148.041188,5209.449386,10140.821405
1112.895374,962.267725,5056.230287,9252.574275
1112.895704,518.144159,4519.963438,8586.388927
1112.896034,-962.267725,2374.896044,8586.388927
1112.896363,-3849.070898,766.095498,9474.636058
1112.896693,-6735.874072,-689.485948,9844.739029
1112.897022,-9178.553681,-1915.238745,9918.759623
1112.897352,-10362.883188,-3524.039291,10066.800811
1112.897682,-10288.862594,-3753.867940,9844.739029
1112.898011,-8808.450710,-3830.477490,9400.615463
1112.898341,-6365.771101,-1991.848295,9178.553681
1112.898671,-3404.947333,612.876398,8290.306550
1112.899000,-296.082377,3064.381992,8142.265362
1112.899330,2294.638420,4903.011187,8438.347739
1112.899659,3552.988522,5898.935335,8512.368333
1112.899989,2368.659014,5132.839837,8660.409521
1112.900319,-370.102971,4366.744339,9622.677246
1112.900648,-4367.215058,2681.334243,11029.068536
1112.900978,-7698.141797,766.095498,12657.521608
1112.901307,-10362.883188,-1378.971896,12583.501014
1112.901637,-11843.295072,-3753.867940,10807.006753
1112.901967,-11029.068536,-4519.963438,9770.718434
1112.902296,-7328.038826,-4366.744339,9474.636058
1112.902626,-2442.679609,-1762.019645,9326.594869
1112.902956,1702.473667,1532.190996,7772.162391
1112.903285,4145.153275,4136.915689,5773.606348
1112.903615,5329.482782,5975.544884,7031.956449
1112.903944,3034.844362,7048.078582,9104.533087
1112.904274,-1776.494261,7967.393179,10807.006753
1112.904604,-6957.935855,6435.202183,11621.233289
1112.904933,-10510.924376,1991.848295,12287.418637
1112.905263,-11621.233289,-1608.800546,11843.295072
1112.905593,-11325.150913,-4519.963438,10436.903782
1112.905922,-8142.265362,-7277.907231,8586.388927
1112.906252,-4589.276840,-6435.202183,7031.956449
1112.906581,-1628.453072,-2681.334243,6143.709319
1112.906911,148.041188,2757.943793,6883.915261
1112.907241,222.061783,6128.763984,8734.430116
1112.907570,-444.123565,9269.755526,9622.677246
1112.907900,-1776.494261,10955.165621,9696.697840
1112.908230,-2664.741391,9039.926876,10436.903782
1112.908559,-3034.844362,4213.525239,10288.862594
1112.908889,-4145.153275,-153.219100,10658.965565
1112.909218,-6143.709319,-3217.601092,9844.739029
1112.909548,-8290.306550,-5822.325785,8660.409521
1112.909878,-9252.574275,-6894.859482,8586.388927
1112.910207,-9400.615463,-3983.696590,9252.574275
1112.910537,-7031.956449,-153.219100,9622.677246
1112.910867,-3552.988522,2374.896044,8364.327145
1112.911196,370.102971,3370.820191,7031.956449
1112.911526,2368.659014,4443.353888,7105.977043
1112.911855,2368.659014,5592.497135,8734.430116
1112.912185,740.205942,5209.449386,10214.842000
1112.912515,-2812.782580,3753.867940,12213.398043
1112.912844,-7328.038826,2298.286494,12583.501014
1112.913174,-10510.924376,-612.876398,12435.459826
1112.913503,-9992.780217,-3600.648841,12213.398043
1112.913833,-7402.059420,-4596.572988,11399.171507
1112.914163,-5403.503377,-3983.696590,9918.759623
1112.914492,-2738.761985,-3140.991542,8068.244768
1112.914822,-296.082377,-1302.362347,7179.997637
1112.915152,0.000000,1991.848295,7550.100608
1112.915481,-296.082377,5362.668486,7772.162391
1112.915811,592.164754,7201.297681,8734.430116
1112.916140,1258.350101,5975.544884,9474.636058
1112.916470,-148.041188,3524.039291,10584.944971
