#time,accel_x,accel_y,accel_z
900.227572,-1110.308913,919.314598,9548.656652
900.227901,-1258.350101,689.485948,9770.718434
900.228231,-1036.288319,919.314598,9548.656652
900.228560,-814.226536,689.485948,9770.718434
900.228889,-740.205942,766.095498,9696.697840
900.229219,-814.226536,689.485948,9622.677246
900.229548,-1184.329507,842.705048,9622.677246
900.229877,-1184.329507,842.705048,9622.677246
900.230207,-1110.308913,1072.533697,9474.636058
900.230536,-1184.329507,1302.362347,9474.636058
900.230866,-1036.288319,842.705048,9770.718434
900.231195,-1110.308913,842.705048,9400.615463
900.231524,-1110.308913,995.924147,9548.656652
900.231854,-1036.288319,1072.533697,9474.636058
900.232183,-740.205942,842.705048,9622.677246
900.232512,-962.267725,842.705048,9622.677246
900.232842,-1036.288319,766.095498,9622.677246
900.233171,-1036.288319,1072.533697,9474.636058
900.233500,-962.267725,995.924147,9548.656652
900.233830,-740.205942,919.314598,9400.615463
900.234159,-1110.308913,919.314598,9252.574275
900.234488,-888.247130,766.095498,9474.636058
900.234818,-962.267725,1072.533697,9474.636058
900.235147,-1036.288319,1072.533697,9548.656652
900.235476,-814.226536,919.314598,9400.615463
900.235806,-1036.288319,919.314598,9474.636058
900.236135,-1036.288319,842.705048,9622.677246
900.236464,-1110.308913,766.095498,9622.677246
900.236794,-1036.288319,919.314598,9696.697840
900.237123,-962.267725,536.266849,9548.656652
900.237452,-740.205942,842.705048,9400.615463
900.237782,-962.267725,919.314598,9474.636058
900.238111,-1036.288319,766.095498,9548.656652
900.238440,-888.247130,842.705048,9548.656652
900.238770,-1110.308913,919.314598,9548.656652
900.239099,-814.226536,1072.533697,9326.594869
900.239428,-1110.308913,919.314598,9474.636058
900.239758,-1184.329507,842.705048,9696.697840
900.240087,-1036.288319,995.924147,9696.697840
900.240416,-1110.308913,919.314598,9474.636058
900.240746,-962.267725,919.314598,9474.636058
900.241075,-740.205942,459.657299,9474.636058
900.241404,-888.247130,919.314598,9696.697840
900.241734,-962.267725,919.314598,9474.636058
900.242063,-1036.288319,995.924147,9474.636058
900.242392,-1036.288319,1225.752797,9548.656652
900.242722,-740.205942,842.705048,9474.636058
900.243051,-740.205942,842.705048,9474.636058
900.243380,-962.267725,1072.533697,9474.636058
900.243710,-962.267725,1072.533697,9474.636058
900.244039,-1036.288319,1072.533697,9622.677246
900.244368,-1184.329507,1378.971896,9770.718434
900.244698,-888.247130,995.924147,9400.615463
900.245027,-888.247130,1149.143247,9474.636058
900.245356,-962.267725,1149.143247,9326.594869
900.245686,-1110.308913,536.266849,9474.636058
900.246015,-592.164754,919.314598,9474.636058
900.246344,-1036.288319,919.314598,9696.697840
900.246674,-1036.288319,919.314598,9474.636058
900.247003,-1036.288319,1072.533697,9622.677246
900.247332,-1184.329507,995.924147,9474.636058
900.247662,-666.185348,536.266849,9474.636058
900.247991,-814.226536,1149.143247,9400.615463
900.248320,-1110.308913,689.485948,9622.677246
900.248650,-1036.288319,842.705048,9548.656652
900.248979,-962.267725,842.705048,9548.656652
900.249308,-888.247130,919.314598,9178.553681
900.249638,-222.061783,153.219100,8956.491898
900.249967,518.144159,536.266849,9326.594869
900.250296,1110.308913,229.828649,9400.615463
900.250626,666.185348,536.266849,9400.615463
900.250955,296.082377,612.876398,9770.718434
900.251285,74.020594,766.095498,10066.800811
900.251614,-444.123565,1072.533697,10362.883188
900.251943,-740.205942,842.705048,10584.944971
900.252273,-370.102971,153.219100,10066.800811
900.252602,74.020594,0.000000,9474.636058
900.252931,1036.288319,229.828649,8956.491898
900.253261,1924.535449,306.438199,9030.512492
900.253590,2590.720797,612.876398,8660.409521
900.253919,3330.926739,995.924147,8808.450710
900.254249,3701.029710,1532.190996,9326.594869
900.254578,3923.091493,2145.067394,9474.636058
900.254907,3404.947333,2221.676944,9770.718434
900.255237,2664.741391,842.705048,10214.842000
900.255566,1776.494261,1149.143247,10510.924376
900.255895,1036.288319,842.705048,10510.924376
900.256225,1184.329507,0.000000,10807.006753
900.256554,1702.473667,-459.657299,10584.944971
900.256883,1702.473667,-306.438199,9474.636058
900.257213,2960.823768,-383.047749,9030.512492
900.257542,3997.112087,383.047749,8956.491898
900.257871,4663.297435,1378.971896,9178.553681
900.258201,4219.173869,2374.896044,9252.574275
900.258530,3552.988522,2757.943793,10214.842000
900.258859,1998.556043,3370.820191,10658.965565
900.259189,0.000000,2757.943793,10510.924376
900.259518,-1628.453072,1915.238745,9992.780217
900.259847,-1702.473667,1455.581446,9030.512492
900.260177,-296.082377,-1149.143247,7920.203579
900.260506,1184.329507,-1608.800546,7105.977043
900.260835,2442.679609,-919.314598,6661.853478
900.261165,3775.050304,-153.219100,6661.853478
900.261494,4367.215058,995.924147,7698.141797
900.261823,3849.070898,2987.772442,9474.636058
900.262153,2294.638420,4979.620737,11325.150913
900.262482,814.226536,4749.792088,12213.398043
900.262811,-370.102971,3447.429741,12509.480420
900.263141,-1110.308913,1685.410096,12139.377449
900.263470,-1480.411884,-612.876398,11251.130318
900.263799,-1332.370696,-2374.896044,10140.821405
900.264129,-740.205942,-3064.381992,9622.677246
900.264458,222.061783,-1991.848295,8956.491898
900.264787,1776.494261,-1608.800546,8290.306550
900.265117,3701.029710,-459.657299,7624.121203
900.265446,4885.359217,1608.800546,7476.080014
900.265775,4737.318029,2528.115143,7846.182985
900.266105,4663.297435,3907.087040,9030.512492
900.266434,3997.112087,4213.525239,9770.718434
900.266763,2960.823768,3830.477490,10510.924376
900.267093,2146.597232,2681.334243,10658.965565
900.267422,1110.308913,1149.143247,11251.130318
900.267751,-222.061783,-306.438199,10658.965565
900.268081,-1332.370696,-689.485948,10510.924376
900.268410,-1998.556043,-1532.190996,10436.903782
900.268739,-1702.473667,-1149.143247,10362.883188
900.269069,-1628.453072,-459.657299,9918.759623
900.269398,-1258.350101,0.000000,9696.697840
900.269727,-370.102971,459.657299,8808.450710
900.270057,814.226536,536.266849,8142.265362
900.270386,2368.659014,612.876398,7994.224174
900.270715,3701.029710,383.047749,8142.265362
900.271045,3330.926739,306.438199,8216.285956
900.271374,3034.844362,995.924147,9178.553681
900.271703,1998.556043,1608.800546,10362.883188
900.272033,740.205942,2451.505594,11325.150913
900.272362,-296.082377,2604.724693,11177.109724
900.272692,0.000000,2221.676944,10658.965565
900.273021,518.144159,1762.019645,9992.780217
900.273350,888.247130,919.314598,9030.512492
900.273680,1110.308913,459.657299,7846.182985
900.274009,1036.288319,306.438199,7105.977043
900.274338,592.164754,536.266849,7624.121203
900.274668,0.000000,1225.752797,8586.388927
900.274997,-1036.288319,1225.752797,9474.636058
900.275326,-2220.617826,766.095498,10066.800811
900.275656,-2812.782580,1378.971896,10214.842000
900.275985,-3552.988522,919.314598,10732.986159
900.276314,-3256.906145,229.828649,10807.006753
900.276644,-2960.823768,-306.438199,10881.027347
900.276973,-2516.700203,-306.438199,10732.986159
900.277302,-2368.659014,0.000000,9992.780217
900.277632,-1406.391290,0.000000,9474.636058
900.277961,-148.041188,536.266849,9030.512492
900.278290,1036.288319,995.924147,9252.574275
900.278620,1924.535449,1838.629195,9474.636058
900.278949,2146.597232,3677.258390,9178.553681
900.279278,2368.659014,4136.915689,8956.491898
900.279608,2590.720797,3370.820191,9252.574275
900.279937,1776.494261,2451.505594,9918.759623
900.280266,74.020594,2374.896044,10288.862594
900.280596,-1258.350101,1685.410096,10658.965565
900.280925,-2368.659014,842.705048,10436.903782
900.281254,-2960.823768,0.000000,9030.512492
900.281584,-3404.947333,-1225.752797,9030.512492
900.281913,-3108.864956,-2068.457845,9030.512492
900.282242,-3256.906145,-766.095498,9326.594869
900.282572,-3775.050304,459.657299,9326.594869
900.282901,-3404.947333,1149.143247,8734.430116
900.283230,-3108.864956,1378.971896,8438.347739
900.283560,-1850.514855,842.705048,8364.327145
900.283889,0.000000,1302.362347,8586.388927
900.284218,1258.350101,1532.190996,8290.306550
900.284548,1998.556043,2068.457845,8142.265362
900.284877,2516.700203,2528.115143,8290.306550
900.285206,2368.659014,2451.505594,8956.491898
900.285536,1628.453072,2528.115143,10066.800811
900.285865,0.000000,2528.115143,11103.089130
900.286194,-2072.576638,2145.067394,11473.192101
900.286524,-4145.153275,1838.629195,11621.233289
900.286853,-5107.421000,1225.752797,11621.233289
900.287182,-4811.338623,-1302.362347,10807.006753
900.287512,-4441.235652,-3294.210641,10140.821405
900.287841,-4293.194464,-2757.943793,9326.594869
900.288170,-3552.988522,-2451.505594,8808.450710
900.288500,-1776.494261,-2221.676944,8660.409521
900.288829,296.082377,-689.485948,8364.327145
900.289158,2072.576638,919.314598,8068.244768
900.289488,3775.050304,1532.190996,8364.327145
900.289817,5033.400406,2528.115143,8956.491898
900.290146,4811.338623,3907.087040,9844.739029
900.290476,3034.844362,4290.134789,10955.047942
900.290805,1110.308913,3983.696590,11251.130318
900.291134,-740.205942,2911.162892,11251.130318
900.291464,-1776.494261,995.924147,11103.089130
900.291793,-2368.659014,-536.266849,10955.047942
900.292122,-3478.967927,-995.924147,10066.800811
900.292452,-4071.132681,-1532.190996,9252.574275
900.292781,-4367.215058,-1532.190996,8660.409521
900.293111,-4219.173869,-766.095498,7920.203579
900.293440,-2738.761985,0.000000,7179.997637
900.293769,-1850.514855,-536.266849,7105.977043
900.294099,-666.185348,306.438199,7254.018232
900.294428,148.041188,1302.362347,7254.018232
900.294757,962.267725,1302.362347,7624.121203
900.295087,1332.370696,1378.971896,8290.306550
900.295416,1036.288319,2221.676944,10288.862594
900.295745,148.041188,2374.896044,11251.130318
900.296075,-962.267725,2604.724693,12361.439231
900.296404,-1850.514855,2145.067394,12213.398043
900.296733,-2590.720797,1455.581446,11621.233289
900.297063,-2590.720797,919.314598,11547.212695
900.297392,-2516.700203,0.000000,11029.068536
900.297721,-1998.556043,-383.047749,10066.800811
900.298051,-2220.617826,-306.438199,8734.430116
900.298380,-1850.514855,-689.485948,7698.141797
900.298709,-962.267725,-1378.971896,7476.080014
900.299039,0.000000,-459.657299,7846.182985
900.299368,370.102971,995.924147,7994.224174
900.299698,962.267725,1532.190996,8512.368333
900.300027,1258.350101,1991.848295,9252.574275
900.300356,1554.432478,2374.896044,10510.924376
900.300686,370.102971,2221.676944,11325.150913
900.301015,-740.205942,2374.896044,12213.398043
900.301345,-1998.556043,2374.896044,12065.356855
900.301674,-2442.679609,1762.019645,11547.212695
900.302003,-2442.679609,689.485948,10881.027347
900.302333,-2442.679609,0.000000,9548.656652
900.302662,-2220.617826,-1225.752797,8956.491898
900.302992,-2590.720797,-766.095498,8438.347739
900.303321,-3108.864956,0.000000,8216.285956
900.303650,-3108.864956,383.047749,7698.141797
900.303980,-1776.494261,-229.828649,7105.977043
900.304309,0.000000,76.609550,7179.997637
900.304639,1702.473667,766.095498,7105.977043
900.304968,2516.700203,1378.971896,6957.935855
900.305297,2590.720797,1762.019645,7402.059420
900.305627,2886.803174,1532.190996,8660.409521
900.305956,1776.494261,2451.505594,10584.944971
900.306286,74.020594,3064.381992,11917.315666
900.306615,-1776.494261,2451.505594,12509.480420
900.306944,-3182.885551,2068.457845,12509.480420
900.307274,-3775.050304,1838.629195,12213.398043
900.307603,-3552.988522,0.000000,11177.109724
900.307933,-3108.864956,-1532.190996,10436.903782
900.308262,-3330.926739,-1455.581446,9252.574275
900.308591,-3478.967927,-1225.752797,8438.347739
900.308921,-2294.638420,-1302.362347,7994.224174
900.309250,-1036.288319,-1072.533697,7698.141797
900.309580,1036.288319,919.314598,8512.368333
900.309909,1924.535449,1685.410096,8586.388927
900.310238,2590.720797,2451.505594,8290.306550
900.310568,3478.967927,2834.553343,9178.553681
900.310897,3034.844362,3064.381992,10362.883188
900.311227,1924.535449,2681.334243,11399.171507
900.311556,0.000000,2987.772442,12509.480420
900.311885,-1702.473667,2451.505594,12435.459826
900.312215,-2960.823768,2145.067394,11769.274478
900.312544,-2960.823768,1302.362347,11473.192101
900.312874,-3182.885551,0.000000,9992.780217
900.313203,-2960.823768,-612.876398,9252.574275
900.313532,-3701.029710,-383.047749,8068.244768
900.313862,-3701.029710,-459.657299,6883.915261
900.314191,-2590.720797,-229.828649,6735.874072
900.314521,-1776.494261,-306.438199,6439.791695
900.314850,-1036.288319,1762.019645,6143.709319
900.315179,0.000000,1762.019645,5699.585753
900.315509,1184.329507,1225.752797,6365.771101
900.315838,1776.494261,1532.190996,8216.285956
900.316168,592.164754,2068.457845,10510.924376
900.316497,-814.226536,3217.601092,12213.398043
900.316827,-2812.782580,3370.820191,13027.624579
900.317156,-3404.947333,2451.505594,12953.603985
900.317485,-3552.988522,1072.533697,12583.501014
900.317815,-2738.761985,-612.876398,11769.274478
900.318144,-2072.576638,-153.219100,10140.821405
900.318474,-1702.473667,-689.485948,9474.636058
900.318803,-1850.514855,-536.266849,8438.347739
900.319132,-1480.411884,-536.266849,7846.182985
900.319462,-666.185348,-153.219100,8142.265362
900.319791,444.123565,1149.143247,8142.265362
900.320121,1406.391290,2451.505594,8068.244768
900.320450,1776.494261,1915.238745,7476.080014
900.320779,2516.700203,536.266849,8438.347739
900.321109,2220.617826,1072.533697,10066.800811
900.321438,592.164754,2451.505594,11621.233289
900.321768,-1332.370696,3064.381992,12657.521608
900.322097,-2368.659014,2451.505594,12287.418637
900.322426,-3256.906145,919.314598,10955.047942
900.322756,-2590.720797,-383.047749,10732.986159
900.323085,-1554.432478,-919.314598,10066.800811
900.323415,-1480.411884,0.000000,9474.636058
900.323744,-2368.659014,0.000000,8586.388927
900.324073,-3034.844362,-153.219100,7550.100608
900.324403,-2146.597232,-383.047749,7402.059420
900.324732,-518.144159,-536.266849,7476.080014
900.325062,518.144159,0.000000,7624.121203
900.325391,962.267725,1225.752797,7328.038826
900.325720,1702.473667,1149.143247,7105.977043
900.326050,2146.597232,919.314598,7476.080014
900.326379,2294.638420,1378.971896,9252.574275
900.326709,1554.432478,2298.286494,11103.089130
900.327038,-740.205942,2987.772442,11843.295072
900.327367,-2590.720797,2374.896044,12435.459826
900.327697,-3330.926739,1378.971896,12287.418637
900.328026,-3627.009116,306.438199,12213.398043
900.328356,-3256.906145,-1225.752797,11325.150913
900.328685,-3182.885551,-842.705048,9696.697840
900.329014,-3627.009116,-1302.362347,8660.409521
900.329344,-3034.844362,-1455.581446,7624.121203
900.329673,-1702.473667,-1149.143247,7328.038826
900.330003,-666.185348,-383.047749,7550.100608
900.330332,518.144159,842.705048,7476.080014
900.330661,1110.308913,1378.971896,7994.224174
900.330991,1480.411884,1915.238745,8882.471304
900.331320,1184.329507,2145.067394,10436.903782
900.331650,0.000000,2068.457845,12139.377449
900.331979,-1036.288319,3447.429741,13397.727550
900.332308,-2294.638420,2757.943793,13027.624579
900.332638,-3108.864956,1838.629195,11769.274478
900.332967,-2960.823768,536.266849,10658.965565
900.333297,-2072.576638,-1149.143247,9992.780217
900.333626,-1702.473667,-459.657299,9474.636058
900.333955,-2294.638420,536.266849,8512.368333
900.334285,-2886.803174,842.705048,7105.977043
900.334614,-2220.617826,306.438199,6291.750507
900.334944,-888.247130,0.000000,6513.812290
900.335273,148.041188,919.314598,7179.997637
900.335602,666.185348,2451.505594,6217.729913
900.335932,888.247130,2681.334243,5773.606348
900.336261,1110.308913,1608.800546,7105.977043
900.336591,1110.308913,1532.190996,9696.697840
900.336920,-148.041188,2298.286494,11843.295072
900.337249,-1924.535449,2681.334243,13027.624579
900.337579,-3849.070898,2528.115143,13323.706956
900.337908,-5033.400406,2834.553343,12731.542202
900.338238,-4737.318029,1455.581446,11621.233289
900.338567,-3182.885551,-1225.752797,10584.944971
900.338896,-1554.432478,-995.924147,9326.594869
900.339226,-1480.411884,-1149.143247,8438.347739
900.339555,-1850.514855,-995.924147,7476.080014
900.339885,-1036.288319,-459.657299,7476.080014
900.340214,296.082377,0.000000,8142.265362
900.340543,1998.556043,1225.752797,9030.512492
900.340873,2516.700203,2911.162892,9326.594869
900.341202,3182.885551,2604.724693,9326.594869
900.341532,3182.885551,2374.896044,9400.615463
900.341861,2960.823768,2145.067394,10807.006753
900.342190,1702.473667,2757.943793,11843.295072
900.342520,-148.041188,3753.867940,11991.336260
900.342849,-1776.494261,1838.629195,11843.295072
900.343179,-2812.782580,1225.752797,11473.192101
900.343508,-3182.885551,459.657299,11177.109724
900.343837,-3034.844362,-306.438199,10584.944971
900.344167,-3182.885551,-306.438199,9474.636058
900.344496,-3997.112087,76.609550,7772.162391
900.344826,-3701.029710,0.000000,6809.894666
900.345155,-2368.659014,-1225.752797,6143.709319
900.345484,-962.267725,-612.876398,6587.832884
900.345814,-370.102971,1225.752797,6883.915261
900.346143,296.082377,2374.896044,7105.977043
900.346473,222.061783,2374.896044,6439.791695
900.346802,518.144159,2068.457845,7624.121203
900.347131,962.267725,1915.238745,9770.718434
900.347461,-518.144159,2604.724693,11991.336260
900.347790,-2664.741391,2834.553343,13027.624579
900.348120,-4367.215058,2145.067394,13027.624579
900.348449,-5255.462188,1225.752797,12583.501014
900.348779,-3997.112087,0.000000,12139.377449
900.349108,-1850.514855,-1762.019645,10807.006753
900.349437,-296.082377,-2604.724693,9030.512492
900.349767,0.000000,-1532.190996,7254.018232
900.350096,-148.041188,-1149.143247,7105.977043
900.350426,666.185348,76.609550,8734.430116
900.350755,1110.308913,2068.457845,9252.574275
900.351084,1258.350101,3294.210641,9252.574275
900.351414,2294.638420,3064.381992,8142.265362
900.351743,2368.659014,1225.752797,8512.368333
900.352073,2812.782580,536.266849,10436.903782
900.352402,666.185348,1072.533697,11473.192101
900.352731,-1702.473667,2528.115143,11991.336260
900.353061,-3182.885551,2451.505594,11695.253884
900.353390,-4145.153275,766.095498,10955.047942
900.353720,-3701.029710,0.000000,10881.027347
900.354049,-3256.906145,-766.095498,10436.903782
900.354378,-3108.864956,-612.876398,9696.697840
900.354708,-4145.153275,536.266849,8290.306550
900.355037,-3923.091493,153.219100,7105.977043
900.355367,-2442.679609,-612.876398,7254.018232
900.355696,-740.205942,-612.876398,7550.100608
900.356025,370.102971,0.000000,7772.162391
900.356355,1184.329507,1991.848295,7550.100608
900.356684,2220.617826,2374.896044,6661.853478
900.357014,2516.700203,1685.410096,7698.141797
900.357343,2812.782580,1838.629195,9178.553681
900.357672,1776.494261,2757.943793,10584.944971
900.358002,74.020594,3830.477490,11843.295072
900.358331,-1776.494261,3447.429741,12139.377449
900.358661,-3701.029710,2221.676944,11843.295072
900.358990,-3997.112087,1072.533697,11843.295072
900.359319,-2812.782580,-766.095498,10807.006753
900.359649,-2368.659014,-1378.971896,9918.759623
900.359978,-3034.844362,-1225.752797,8142.265362
900.360308,-3330.926739,-1915.238745,7550.100608
900.360637,-2590.720797,-1685.410096,7698.141797
900.360966,-1332.370696,-306.438199,8956.491898
900.361296,-444.123565,1991.848295,9474.636058
900.361625,222.061783,2451.505594,8956.491898
900.361955,1406.391290,1685.410096,8882.471304
900.362284,1998.556043,1378.971896,9252.574275
900.362613,1850.514855,1608.800546,10510.924376
900.362943,888.247130,2298.286494,11843.295072
900.363272,-888.247130,2604.724693,12287.418637
900.363602,-2072.576638,2298.286494,11917.315666
900.363931,-3182.885551,842.705048,11547.212695
900.364260,-3108.864956,76.609550,10436.903782
900.364590,-2368.659014,-919.314598,9474.636058
900.364919,-2664.741391,-766.095498,8808.450710
900.365249,-3330.926739,-459.657299,8216.285956
900.365578,-2886.803174,-459.657299,7254.018232
900.365907,-2072.576638,-612.876398,7254.018232
900.366237,-1406.391290,459.657299,7179.997637
900.366566,-666.185348,2221.676944,6883.915261
900.366896,666.185348,1608.800546,6809.894666
900.367225,1702.473667,1532.190996,7179.997637
900.367554,1480.411884,1455.581446,8808.450710
900.367884,444.123565,2757.943793,10436.903782
900.368213,-1406.391290,3370.820191,11843.295072
900.368543,-2886.803174,2911.162892,12731.542202
900.368872,-3997.112087,2374.896044,12657.521608
900.369201,-4367.215058,689.485948,12139.377449
900.369531,-3330.926739,-459.657299,11251.130318
900.369860,-2368.659014,-536.266849,10066.800811
900.370190,-2368.659014,-1072.533697,8734.430116
900.370519,-1776.494261,-1455.581446,7550.100608
900.370848,-1998.556043,-919.314598,7328.038826
900.371178,-592.164754,0.000000,7994.224174
900.371507,666.185348,1532.190996,8956.491898
900.371837,1850.514855,2451.505594,9474.636058
900.372166,2516.700203,2528.115143,9178.553681
900.372495,3330.926739,2681.334243,9252.574275
900.372825,2738.761985,2451.505594,9844.739029
900.373154,2294.638420,2604.724693,11177.109724
900.373484,370.102971,3217.601092,12139.377449
900.373813,-1406.391290,2987.772442,11843.295072
900.374142,-2590.720797,2298.286494,10955.047942
900.374472,-2738.761985,919.314598,10658.965565
900.374801,-2738.761985,229.828649,10362.883188
900.375131,-3108.864956,0.000000,9400.615463
900.375460,-3923.091493,0.000000,8216.285956
900.375789,-3701.029710,-536.266849,6735.874072
900.376119,-2590.720797,-536.266849,6513.812290
900.376448,-1554.432478,-612.876398,7105.977043
900.376778,-592.164754,766.095498,7550.100608
900.377107,74.020594,1378.971896,7402.059420
900.377436,962.267725,1685.410096,7698.141797
900.377766,1406.391290,2298.286494,8142.265362
900.378095,1406.391290,2681.334243,9696.697840
900.378425,296.082377,2987.772442,10584.944971
900.378754,-666.185348,3217.601092,11547.212695
900.379083,-1554.432478,2528.115143,11843.295072
900.379413,-2590.720797,1685.410096,12287.418637
900.379742,-3034.844362,689.485948,12509.480420
900.380072,-3034.844362,-306.438199,11547.212695
900.380401,-2738.761985,-536.266849,9844.739029
900.380731,-2368.659014,-1608.800546,8438.347739
900.381060,-1776.494261,-1532.190996,7698.141797
900.381389,-1110.308913,-1455.581446,7772.162391
900.381719,-444.123565,0.000000,8586.388927
900.382048,0.000000,1685.410096,8734.430116
900.382378,296.082377,2528.115143,8734.430116
900.382707,1184.329507,1762.019645,8660.409521
900.383036,1998.556043,995.924147,9992.780217
900.383366,1036.288319,1685.410096,11399.171507
900.383695,-370.102971,2528.115143,11843.295072
900.384025,-1776.494261,1685.410096,11769.274478
900.384354,-2664.741391,1378.971896,11177.109724
900.384683,-2664.741391,383.047749,10955.047942
900.385013,-2516.700203,-689.485948,10288.862594
900.385342,-1776.494261,-536.266849,9400.615463
900.385672,-1998.556043,-459.657299,8586.388927
900.386001,-2516.700203,-306.438199,7624.121203
900.386330,-2294.638420,383.047749,7254.018232
900.386660,-888.247130,0.000000,7550.100608
900.386989,-148.041188,689.485948,8290.306550
900.387319,0.000000,2068.457845,7698.141797
900.387648,296.082377,2221.676944,7105.977043
900.387977,1554.432478,229.828649,7254.018232
900.388307,2516.700203,612.876398,8808.450710
900.388636,1184.329507,1991.848295,10362.883188
900.388966,-962.267725,2451.505594,11547.212695
900.389295,-3330.926739,2681.334243,11991.336260
900.389624,-4071.132681,2068.457845,12287.418637
900.389954,-3627.009116,1302.362347,12139.377449
900.390283,-3034.844362,0.000000,11251.130318
900.390613,-2220.617826,-995.924147,9918.759623
900.390942,-2146.597232,-1378.971896,8808.450710
900.391271,-2072.576638,-1532.190996,7846.182985
900.391601,-1702.473667,-1378.971896,7846.182985
900.391930,-888.247130,689.485948,9030.512492
900.392260,148.041188,1608.800546,9622.677246
900.392589,740.205942,2451.505594,9622.677246
900.392918,1554.432478,2374.896044,9400.615463
900.393248,2294.638420,1762.019645,9548.656652
900.393577,1998.556043,2068.457845,10214.842000
900.393907,888.247130,2604.724693,11029.068536
900.394236,-148.041188,2681.334243,11547.212695
900.394565,-1628.453072,1838.629195,11029.068536
900.394895,-2664.741391,1378.971896,10436.903782
900.395224,-2590.720797,383.047749,10140.821405
900.395554,-2368.659014,-383.047749,9548.656652
900.395883,-2664.741391,-383.047749,8882.471304
900.396212,-3552.988522,153.219100,7846.182985
900.396542,-3182.885551,-536.266849,7031.956449
900.396871,-2368.659014,-1149.143247,7105.977043
900.397201,-1332.370696,0.000000,7624.121203
900.397530,-1258.350101,1991.848295,7476.080014
900.397859,-222.061783,2068.457845,7031.956449
900.398189,1110.308913,1225.752797,7624.121203
900.398518,1776.494261,536.266849,8290.306550
900.398848,592.164754,1378.971896,9992.780217
900.399177,-1184.329507,2145.067394,12065.356855
900.399506,-2886.803174,2911.162892,13027.624579
900.399836,-4071.132681,2374.896044,12953.603985
900.400165,-4071.132681,459.657299,12361.439231
900.400495,-2738.761985,-995.924147,11251.130318
900.400824,-1406.391290,-1608.800546,9770.718434
900.401154,-1332.370696,-1685.410096,8956.491898
900.401483,-1332.370696,-1072.533697,8438.347739
900.401813,-740.205942,-536.266849,8142.265362
900.402142,0.000000,76.609550,8660.409521
900.402472,962.267725,1762.019645,9326.594869
900.402801,1332.370696,2451.505594,9474.636058
900.403131,2220.617826,2681.334243,9178.553681
900.403460,2220.617826,1991.848295,9252.574275
900.403790,1924.535449,1685.410096,10140.821405
900.404119,962.267725,2987.772442,10732.986159
900.404448,-370.102971,2604.724693,10955.047942
900.404778,-1702.473667,2221.676944,10658.965565
900.405107,-2220.617826,1455.581446,10658.965565
900.405437,-2442.679609,919.314598,10510.924376
900.405766,-2368.659014,612.876398,9918.759623
900.406096,-2664.741391,612.876398,8660.409521
900.406425,-3701.029710,306.438199,7698.141797
900.406755,-4071.132681,153.219100,6513.812290
900.407084,-3627.009116,-919.314598,6365.771101
900.407414,-2146.597232,-1149.143247,6883.915261
900.407743,-1258.350101,-306.438199,7624.121203
900.408073,-814.226536,766.095498,7920.203579
900.408402,148.041188,1149.143247,8290.306550
900.408732,1184.329507,1455.581446,9252.574275
900.409061,1924.535449,2451.505594,9844.739029
900.409391,2220.617826,2834.553343,10881.027347
900.409720,1702.473667,2987.772442,11621.233289
900.410050,444.123565,3294.210641,12139.377449
900.410379,-888.247130,2604.724693,12583.501014
900.410709,-1924.535449,1838.629195,12287.418637
900.411038,-2220.617826,842.705048,11029.068536
900.411368,-2368.659014,-612.876398,10140.821405
900.411697,-2442.679609,-1685.410096,9400.615463
900.412027,-2294.638420,-1915.238745,8734.430116
900.412356,-2146.597232,-1378.971896,8438.347739
900.412686,-1554.432478,0.000000,8734.430116
900.413015,-370.102971,766.095498,8512.368333
900.413344,0.000000,1608.800546,8586.388927
900.413674,518.144159,1685.410096,8808.450710
900.414003,962.267725,1915.238745,9178.553681
900.414333,1036.288319,2221.676944,9918.759623
900.414662,-148.041188,2221.676944,10658.965565
900.414992,-1702.473667,1762.019645,11843.295072
900.415321,-2886.803174,1762.019645,11769.274478
900.415651,-3552.988522,1378.971896,11177.109724
900.415980,-3034.844362,76.609550,10362.883188
900.416310,-2146.597232,-1149.143247,9474.636058
900.416639,-1702.473667,-1072.533697,8290.306550
900.416969,-1776.494261,-766.095498,7402.059420
900.417298,-1258.350101,0.000000,6735.874072
900.417628,0.000000,76.609550,7031.956449
900.417957,444.123565,995.924147,6957.935855
900.418287,370.102971,2145.067394,7105.977043
900.418616,888.247130,1915.238745,6809.894666
900.418946,1776.494261,1072.533697,7772.162391
900.419275,1406.391290,1072.533697,9400.615463
900.419605,148.041188,1762.019645,11473.192101
900.419934,-1554.432478,2451.505594,12583.501014
900.420264,-3182.885551,2374.896044,12805.562797
900.420593,-3923.091493,1762.019645,12213.398043
900.420923,-3849.070898,536.266849,11473.192101
900.421252,-2368.659014,-995.924147,11029.068536
900.421582,-1776.494261,-1608.800546,10288.862594
900.421911,-2442.679609,-1378.971896,9474.636058
900.422240,-2738.761985,-612.876398,8882.471304
900.422570,-1998.556043,-383.047749,8808.450710
900.422899,-1036.288319,-229.828649,9252.574275
900.423229,0.000000,919.314598,9326.594869
900.423558,1480.411884,1225.752797,8882.471304
900.423888,2442.679609,1608.800546,8882.471304
900.424217,2812.782580,1532.190996,9104.533087
900.424547,1924.535449,1991.848295,9622.677246
900.424876,962.267725,1991.848295,10362.883188
900.425206,-296.082377,2451.505594,11251.130318
900.425535,-1332.370696,2451.505594,11399.171507
900.425865,-2590.720797,2068.457845,11103.089130
900.426194,-3108.864956,459.657299,10658.965565
900.426524,-2886.803174,-459.657299,9770.718434
900.426853,-3108.864956,-536.266849,8734.430116
900.427183,-3478.967927,-383.047749,7920.203579
900.427512,-3701.029710,-459.657299,6661.853478
900.427842,-2738.761985,-612.876398,6513.812290
900.428171,-1628.453072,-383.047749,7105.977043
900.428501,-814.226536,1302.362347,7105.977043
900.428830,370.102971,2451.505594,6439.791695
900.429160,666.185348,1838.629195,6735.874072
900.429489,1184.329507,995.924147,8290.306550
900.429819,888.247130,1838.629195,10436.903782
900.430148,-888.247130,2681.334243,12139.377449
900.430477,-1924.535449,3140.991542,12805.562797
900.430807,-3552.988522,2451.505594,12805.562797
900.431136,-3701.029710,1532.190996,12731.542202
900.431466,-2516.700203,-612.876398,11843.295072
900.431795,-1554.432478,-1225.752797,10510.924376
900.432125,-1554.432478,-229.828649,9622.677246
900.432454,-1628.453072,-842.705048,8882.471304
900.432784,-1332.370696,-459.657299,8660.409521
900.433113,-444.123565,306.438199,8956.491898
900.433443,444.123565,1225.752797,9252.574275
900.433772,1554.432478,2451.505594,9178.553681
900.434102,1776.494261,2374.896044,8734.430116
900.434431,2220.617826,1838.629195,9178.553681
900.434761,1850.514855,1685.410096,9622.677246
900.435090,518.144159,2451.505594,10584.944971
900.435420,-518.144159,2987.772442,11029.068536
900.435749,-1924.535449,2374.896044,11177.109724
900.436079,-2886.803174,1608.800546,10955.047942
900.436408,-3256.906145,1072.533697,10732.986159
900.436738,-3034.844362,306.438199,9844.739029
900.437067,-2886.803174,0.000000,8956.491898
900.437397,-2738.761985,-459.657299,8142.265362
900.437726,-2738.761985,0.000000,6883.915261
900.438056,-1924.535449,-306.438199,6587.832884
900.438385,-888.247130,-306.438199,7031.956449
900.438715,-296.082377,1378.971896,7402.059420
900.439044,740.205942,2221.676944,7402.059420
900.439373,1480.411884,2374.896044,7698.141797
900.439703,2072.576638,1991.848295,8068.244768
900.440032,1480.411884,2145.067394,9178.553681
900.440362,814.226536,2911.162892,10658.965565
900.440691,-740.205942,2834.553343,11843.295072
900.441021,-2368.659014,1991.848295,12065.356855
900.441350,-3182.885551,1762.019645,12361.439231
900.441680,-3701.029710,459.657299,12287.418637
900.442009,-2960.823768,-536.266849,11399.171507
900.442339,-2516.700203,-1149.143247,10584.944971
900.442668,-2664.741391,-995.924147,9622.677246
900.442998,-2220.617826,-919.314598,8512.368333
900.443327,-1332.370696,-766.095498,8882.471304
900.443657,-296.082377,459.657299,9178.553681
900.443986,296.082377,1991.848295,9104.533087
900.444316,1036.288319,2681.334243,8512.368333
900.444645,2442.679609,1762.019645,8734.430116
900.444975,2516.700203,842.705048,9548.656652
900.445304,1480.411884,2068.457845,10510.924376
900.445634,0.000000,2221.676944,11177.109724
900.445963,-1036.288319,2528.115143,11251.130318
900.446293,-1924.535449,2145.067394,10658.965565
900.446622,-2590.720797,536.266849,10658.965565
900.446952,-2516.700203,-153.219100,10288.862594
900.447281,-2146.597232,0.000000,9474.636058
900.447611,-2368.659014,0.000000,8586.388927
900.447940,-2960.823768,153.219100,7402.059420
900.448269,-2516.700203,-383.047749,6957.935855
900.448599,-1406.391290,-842.705048,7179.997637
900.448928,-814.226536,0.000000,7624.121203
900.449258,-592.164754,1455.581446,7476.080014
900.449587,370.102971,1302.362347,6883.915261
900.449917,1110.308913,689.485948,6883.915261
900.450246,1628.453072,459.657299,8142.265362
900.450576,1332.370696,1838.629195,10140.821405
900.450905,0.000000,2451.505594,11621.233289
900.451235,-1924.535449,2451.505594,11769.274478
900.451564,-3478.967927,1991.848295,12213.398043
900.451894,-3997.112087,1378.971896,12287.418637
900.452223,-3034.844362,-229.828649,12065.356855
900.452553,-2738.761985,-919.314598,10732.986159
900.452882,-2738.761985,-1302.362347,9474.636058
900.453212,-2072.576638,-1225.752797,8586.388927
900.453541,-1332.370696,-2145.067394,8882.471304
900.453871,-222.061783,-306.438199,9474.636058
900.454200,296.082377,1608.800546,9696.697840
900.454530,1480.411884,2451.505594,9326.594869
900.454859,2220.617826,2451.505594,8586.388927
900.455189,2960.823768,2374.896044,9474.636058
900.455518,2220.617826,1915.238745,10066.800811
900.455848,666.185348,2451.505594,10807.006753
900.456177,-740.205942,2681.334243,11399.171507
900.456507,-1850.514855,2068.457845,10881.027347
900.456836,-2960.823768,383.047749,10658.965565
900.457165,-2812.782580,0.000000,10214.842000
900.457495,-2738.761985,-459.657299,9474.636058
900.457824,-3256.906145,-229.828649,8586.388927
900.458154,-3552.988522,0.000000,6957.935855
900.458483,-3478.967927,0.000000,6365.771101
900.458813,-2294.638420,-153.219100,6957.935855
900.459142,-1776.494261,153.219100,7254.018232
900.459472,-1480.411884,1302.362347,7105.977043
900.459801,-444.123565,1685.410096,7031.956449
900.460131,444.123565,1532.190996,7105.977043
900.460460,1036.288319,1072.533697,8290.306550
900.460790,666.185348,1072.533697,9696.697840
900.461119,0.000000,1838.629195,11177.109724
900.461449,-1406.391290,1838.629195,11991.336260
900.461778,-2442.679609,1838.629195,12435.459826
900.462108,-3256.906145,1302.362347,12435.459826
900.462437,-2664.741391,459.657299,12065.356855
900.462767,-1924.535449,-536.266849,11029.068536
900.463096,-1628.453072,-1225.752797,9770.718434
900.463426,-1554.432478,-1378.971896,9326.594869
900.463755,-1258.350101,-1072.533697,8882.471304
900.464085,-666.185348,-153.219100,9770.718434
900.464414,0.000000,1072.533697,9918.759623
900.464744,1258.350101,2068.457845,9548.656652
900.465073,2220.617826,1991.848295,9326.594869
900.465402,2442.679609,1608.800546,8882.471304
900.465732,1850.514855,2068.457845,9696.697840
900.466061,740.205942,2834.553343,10214.842000
900.466391,-1036.288319,2911.162892,10584.944971
900.466720,-2664.741391,2298.286494,10510.924376
900.467050,-3997.112087,1455.581446,10732.986159
900.467379,-4737.318029,306.438199,10066.800811
900.467709,-4663.297435,-612.876398,9474.636058
900.468038,-4145.153275,-842.705048,8734.430116
900.468368,-3923.091493,-1378.971896,7920.203579
900.468697,-3108.864956,-766.095498,7402.059420
900.469027,-1850.514855,0.000000,7105.977043
900.469356,-296.082377,306.438199,7179.997637
900.469686,814.226536,1838.629195,7328.038826
900.470015,2368.659014,2681.334243,7476.080014
900.470345,3478.967927,2528.115143,8068.244768
900.470674,4145.153275,2374.896044,8808.450710
900.471004,3552.988522,2987.772442,9548.656652
900.471333,1406.391290,3370.820191,9992.780217
900.471663,0.000000,2681.334243,11177.109724
900.471992,-1776.494261,2374.896044,11769.274478
900.472322,-2886.803174,2145.067394,11843.295072
900.472651,-3404.947333,383.047749,11547.212695
900.472981,-3552.988522,-383.047749,11029.068536
900.473310,-3849.070898,-842.705048,9992.780217
900.473640,-4071.132681,-1455.581446,8956.491898
900.473969,-3256.906145,-1455.581446,8512.368333
900.474298,-2590.720797,-995.924147,8586.388927
900.474628,-1628.453072,306.438199,9548.656652
900.474957,-1036.288319,2068.457845,9770.718434
900.475287,0.000000,2145.067394,9252.574275
900.475616,888.247130,1838.629195,9474.636058
900.475946,1776.494261,2374.896044,10066.800811
900.476275,1776.494261,2528.115143,11177.109724
900.476605,592.164754,2987.772442,11695.253884
900.476934,-148.041188,2451.505594,11399.171507
900.477264,-1036.288319,2221.676944,10807.006753
900.477593,-1406.391290,1455.581446,10658.965565
900.477923,-1184.329507,229.828649,10066.800811
900.478252,-1184.329507,0.000000,9030.512492
900.478582,-1998.556043,-306.438199,7994.224174
900.478911,-2368.659014,-306.438199,7105.977043
900.479241,-1998.556043,229.828649,6513.812290
900.479570,-1628.453072,459.657299,7179.997637
900.479900,-1332.370696,612.876398,7846.182985
900.480229,-1406.391290,2374.896044,7328.038826
900.480559,-592.164754,2374.896044,7105.977043
900.480888,444.123565,1225.752797,7328.038826
900.481218,370.102971,689.485948,8734.430116
900.481547,-666.185348,2221.676944,10362.883188
900.481877,-2368.659014,2528.115143,11399.171507
900.482206,-3849.070898,1762.019645,11769.274478
900.482536,-4367.215058,1149.143247,11917.315666
900.482865,-3775.050304,76.609550,11695.253884
900.483194,-2664.741391,-1838.629195,10140.821405
900.483524,-2072.576638,-2298.286494,9992.780217
900.483853,-1850.514855,-1302.362347,9400.615463
900.484183,-1406.391290,-1072.533697,8956.491898
900.484512,0.000000,-459.657299,9178.553681
900.484842,814.226536,689.485948,9474.636058
900.485171,1998.556043,1685.410096,10066.800811
900.485501,2664.741391,2298.286494,9622.677246
900.485830,3478.967927,2374.896044,9548.656652
900.486160,3404.947333,2068.457845,9992.780217
900.486489,2516.700203,2374.896044,10510.924376
900.486819,888.247130,2068.457845,11473.192101
900.487148,-1258.350101,1991.848295,11547.212695
900.487478,-2590.720797,995.924147,11103.089130
900.487807,-3849.070898,536.266849,10807.006753
900.488137,-3849.070898,-306.438199,10658.965565
900.488466,-3997.112087,-1225.752797,9548.656652
900.488796,-4589.276840,-1072.533697,8438.347739
900.489125,-4737.318029,-612.876398,7179.997637
900.489455,-4293.194464,-536.266849,6587.832884
900.489784,-2664.741391,-536.266849,6735.874072
900.490114,-1110.308913,0.000000,7254.018232
900.490443,-666.185348,1532.190996,7698.141797
900.490773,148.041188,2374.896044,7179.997637
900.491102,1776.494261,2221.676944,7328.038826
900.491432,2368.659014,1915.238745,8364.327145
900.491761,2368.659014,2221.676944,9474.636058
900.492090,740.205942,3217.601092,10732.986159
900.492420,-740.205942,2911.162892,11695.253884
900.492749,-2220.617826,2451.505594,12583.501014
900.493079,-3034.844362,2068.457845,12509.480420
900.493408,-3108.864956,842.705048,11473.192101
900.493738,-3034.844362,-1685.410096,10140.821405
900.494067,-2664.741391,-1991.848295,8808.450710
900.494397,-2590.720797,-2068.457845,8364.327145
900.494726,-2072.576638,-1991.848295,8512.368333
900.495056,-1406.391290,-459.657299,9252.574275
900.495385,-962.267725,1225.752797,9400.615463
900.495715,-296.082377,2068.457845,9474.636058
900.496044,740.205942,2068.457845,9548.656652
900.496374,1702.473667,1838.629195,10288.862594
900.496703,1406.391290,2374.896044,10658.965565
900.497033,444.123565,2911.162892,11325.150913
900.497362,-296.082377,2298.286494,11325.150913
900.497692,-1258.350101,1915.238745,11177.109724
900.498021,-1924.535449,995.924147,10955.047942
900.498351,-2368.659014,536.266849,10436.903782
900.498680,-1776.494261,536.266849,9992.780217
900.499010,-1702.473667,0.000000,8882.471304
900.499339,-2220.617826,-306.438199,7698.141797
900.499669,-2368.659014,0.000000,7105.977043
900.499998,-1998.556043,0.000000,6735.874072
900.500328,-666.185348,0.000000,7254.018232
900.500657,-296.082377,995.924147,7476.080014
900.500987,-148.041188,2298.286494,7772.162391
900.501316,296.082377,1455.581446,7920.203579
900.501646,1110.308913,1225.752797,8216.285956
900.501976,962.267725,1915.238745,9252.574275
900.502305,370.102971,1991.848295,9770.718434
900.502635,-740.205942,2834.553343,11103.089130
900.502964,-2294.638420,2068.457845,11473.192101
900.503294,-3478.967927,1991.848295,11695.253884
900.503623,-3404.947333,1072.533697,11769.274478
900.503953,-2664.741391,-229.828649,10807.006753
900.504282,-2368.659014,-766.095498,9548.656652
900.504612,-2590.720797,-1302.362347,8808.450710
900.504942,-2072.576638,-1378.971896,8364.327145
900.505271,-1184.329507,-995.924147,9030.512492
900.505601,-444.123565,536.266849,9696.697840
900.505930,370.102971,2528.115143,9770.718434
900.506260,1036.288319,2221.676944,9326.594869
900.506589,2220.617826,1532.190996,9474.636058
900.506919,2516.700203,1762.019645,10214.842000
900.507248,1924.535449,2604.724693,10658.965565
900.507578,740.205942,2834.553343,11621.233289
900.507908,-666.185348,2757.943793,11769.274478
900.508237,-2072.576638,2068.457845,11177.109724
900.508567,-2960.823768,995.924147,10955.047942
900.508896,-3108.864956,0.000000,10066.800811
900.509226,-2664.741391,-459.657299,9252.574275
900.509555,-3182.885551,-995.924147,7698.141797
900.509885,-3627.009116,-766.095498,6883.915261
900.510214,-2886.803174,-612.876398,6439.791695
900.510544,-2072.576638,-306.438199,6883.915261
900.510874,-1036.288319,995.924147,7328.038826
900.511203,-592.164754,2298.286494,7476.080014
900.511533,222.061783,2145.067394,7328.038826
900.511862,1184.329507,1455.581446,7994.224174
900.512192,1258.350101,1302.362347,9474.636058
900.512521,74.020594,1991.848295,11325.150913
900.512851,-1554.432478,3217.601092,11843.295072
900.513180,-2664.741391,2834.553343,12065.356855
900.513510,-3256.906145,1991.848295,11473.192101
900.513840,-2738.761985,0.000000,11029.068536
900.514169,-1406.391290,-1532.190996,10362.883188
900.514499,-1184.329507,-2374.896044,9622.677246
900.514828,-1184.329507,-1149.143247,8956.491898
900.515158,-1406.391290,-306.438199,8586.388927
900.515487,-740.205942,-536.266849,9104.533087
900.515817,74.020594,689.485948,9548.656652
900.516147,444.123565,1838.629195,9400.615463
900.516476,1776.494261,2145.067394,8956.491898
900.516806,2368.659014,1225.752797,8956.491898
900.517135,2220.617826,1302.362347,9696.697840
900.517465,1406.391290,2068.457845,10807.006753
900.517794,0.000000,2221.676944,11621.233289
900.518124,-1258.350101,2757.943793,11843.295072
900.518453,-2072.576638,1762.019645,11473.192101
900.518783,-2812.782580,842.705048,11325.150913
900.519113,-2960.823768,0.000000,10807.006753
900.519442,-3034.844362,-536.266849,9770.718434
900.519772,-2960.823768,-459.657299,8586.388927
900.520101,-3404.947333,-1302.362347,7105.977043
900.520431,-3627.009116,-766.095498,6587.832884
900.520760,-2220.617826,-766.095498,7328.038826
900.521090,-1110.308913,229.828649,7550.100608
900.521419,-296.082377,1378.971896,7550.100608
900.521749,444.123565,1915.238745,7105.977043
900.522079,1480.411884,1608.800546,7846.182985
900.522408,1554.432478,1685.410096,9030.512492
900.522738,1110.308913,2681.334243,9992.780217
900.523067,0.000000,3140.991542,11029.068536
900.523397,-1184.329507,2911.162892,11547.212695
900.523726,-2664.741391,2374.896044,11843.295072
900.524056,-2960.823768,1455.581446,11695.253884
900.524385,-2516.700203,0.000000,11325.150913
900.524715,-2294.638420,-766.095498,10214.842000
900.525045,-2812.782580,-1532.190996,9474.636058
900.525374,-3034.844362,-766.095498,8956.491898
900.525704,-2738.761985,-689.485948,8438.347739
900.526033,-1702.473667,76.609550,8512.368333
900.526363,-1110.308913,766.095498,8290.306550
900.526692,-370.102971,1532.190996,8290.306550
900.527022,74.020594,1225.752797,8438.347739
900.527351,518.144159,919.314598,9178.553681
900.527681,814.226536,1072.533697,9918.759623
900.528011,74.020594,1378.971896,10955.047942
900.528340,-222.061783,1685.410096,12287.418637
900.528670,-888.247130,1608.800546,12435.459826
900.528999,-1332.370696,1532.190996,12065.356855
900.529329,-1258.350101,1378.971896,11843.295072
900.529658,-592.164754,995.924147,10807.006753
900.529988,-370.102971,766.095498,9622.677246
900.530317,-444.123565,-153.219100,8068.244768
900.530647,-666.185348,-153.219100,7550.100608
900.530977,-1036.288319,0.000000,6883.915261
900.531306,-962.267725,-229.828649,7179.997637
900.531636,-814.226536,1149.143247,7402.059420
900.531965,-296.082377,1685.410096,7179.997637
900.532295,-74.020594,1608.800546,7105.977043
900.532624,518.144159,1149.143247,7920.203579
900.532954,0.000000,2374.896044,8808.450710
900.533283,-814.226536,2681.334243,9918.759623
900.533613,-1850.514855,2834.553343,10881.027347
900.533943,-2368.659014,2298.286494,11473.192101
900.534272,-3404.947333,2068.457845,11695.253884
900.534602,-3478.967927,536.266849,11473.192101
900.534931,-2812.782580,0.000000,10807.006753
900.535261,-2146.597232,-766.095498,9992.780217
900.535590,-1628.453072,-1991.848295,8956.491898
900.535920,-1332.370696,-1149.143247,8808.450710
900.536249,-814.226536,-153.219100,9400.615463
900.536579,296.082377,919.314598,9770.718434
900.536909,1036.288319,2374.896044,9548.656652
900.537238,1998.556043,2298.286494,8882.471304
900.537568,2590.720797,1762.019645,8734.430116
900.537897,2886.803174,2068.457845,9474.636058
900.538227,2072.576638,2604.724693,10288.862594
900.538556,888.247130,2528.115143,10658.965565
900.538886,-592.164754,2068.457845,10807.006753
900.539215,-2368.659014,1532.190996,10807.006753
900.539545,-2442.679609,1302.362347,11251.130318
900.539875,-2516.700203,306.438199,10732.986159
900.540204,-2886.803174,153.219100,9474.636058
900.540534,-3627.009116,-383.047749,8512.368333
900.540863,-4071.132681,-459.657299,7550.100608
900.541193,-3034.844362,-153.219100,7994.224174
900.541522,-2738.761985,153.219100,7846.182985
900.541852,-2590.720797,995.924147,7476.080014
900.542181,-1850.514855,995.924147,7254.018232
900.542511,-370.102971,383.047749,7328.038826
900.542841,962.267725,689.485948,8068.244768
900.543170,1406.391290,1149.143247,9030.512492
900.543500,592.164754,2068.457845,9696.697840
900.543829,-296.082377,2451.505594,10510.924376
900.544159,-1036.288319,2604.724693,11325.150913
900.544488,-1184.329507,2298.286494,11695.253884
900.544818,-1628.453072,1455.581446,12139.377449
900.545147,-1702.473667,459.657299,11103.089130
900.545477,-1554.432478,-612.876398,10066.800811
900.545807,-1480.411884,-842.705048,9548.656652
900.546136,-888.247130,-229.828649,8956.491898
900.546466,-962.267725,-689.485948,9030.512492
900.546795,-740.205942,0.000000,9474.636058
900.547125,-296.082377,1225.752797,9104.533087
900.547454,666.185348,1455.581446,8734.430116
900.547784,1480.411884,1149.143247,8808.450710
900.548113,1924.535449,1149.143247,8956.491898
900.548443,1184.329507,1455.581446,9844.739029
900.548773,0.000000,1838.629195,10510.924376
900.549102,-1258.350101,1838.629195,10807.006753
900.549432,-1924.535449,1608.800546,10955.047942
900.549761,-2368.659014,766.095498,11029.068536
900.550091,-2146.597232,383.047749,11177.109724
900.550420,-2146.597232,459.657299,10214.842000
900.550750,-2442.679609,229.828649,9178.553681
900.551079,-2516.700203,229.828649,8068.244768
900.551409,-2072.576638,0.000000,7254.018232
900.551739,-1184.329507,459.657299,7698.141797
900.552068,-518.144159,689.485948,7402.059420
900.552398,-148.041188,1225.752797,7254.018232
900.552727,592.164754,1302.362347,7402.059420
900.553057,888.247130,1378.971896,7846.182985
900.553386,1184.329507,1608.800546,8882.471304
900.553716,370.102971,2145.067394,9844.739029
900.554045,-666.185348,2757.943793,10955.047942
900.554375,-2294.638420,2451.505594,11473.192101
900.554705,-3478.967927,1608.800546,11251.130318
900.555034,-3701.029710,1149.143247,11325.150913
900.555364,-3627.009116,306.438199,11325.150913
900.555693,-3182.885551,-459.657299,10436.903782
900.556023,-3034.844362,-995.924147,9696.697840
900.556352,-3182.885551,-1072.533697,8512.368333
900.556682,-2294.638420,-919.314598,7846.182985
900.557011,-1036.288319,-306.438199,8364.327145
900.557341,0.000000,612.876398,9030.512492
900.557671,370.102971,1915.238745,9030.512492
900.558000,1184.329507,1915.238745,9104.533087
900.558330,1924.535449,2221.676944,9622.677246
900.558659,1702.473667,1455.581446,9992.780217
900.558989,888.247130,2068.457845,10807.006753
900.559318,0.000000,1991.848295,11029.068536
900.559648,-1110.308913,1302.362347,11325.150913
900.559977,-1776.494261,1532.190996,11029.068536
900.560307,-2294.638420,995.924147,10807.006753
900.560637,-2368.659014,306.438199,10436.903782
900.560966,-2812.782580,-153.219100,9548.656652
900.561296,-3108.864956,0.000000,8438.347739
900.561625,-2886.803174,-536.266849,7772.162391
900.561955,-1924.535449,-306.438199,6957.935855
900.562284,-1184.329507,0.000000,7254.018232
900.562614,-962.267725,536.266849,7328.038826
900.562944,-148.041188,1072.533697,7179.997637
900.563273,888.247130,1455.581446,7698.141797
900.563603,2072.576638,1455.581446,8808.450710
900.563932,1554.432478,2451.505594,9696.697840
900.564262,444.123565,2757.943793,10807.006753
900.564591,-666.185348,3064.381992,11103.089130
900.564921,-1776.494261,2604.724693,11325.150913
900.565250,-2368.659014,2374.896044,11325.150913
900.565580,-2590.720797,842.705048,11103.089130
900.565910,-1850.514855,-536.266849,10807.006753
900.566239,-1998.556043,-766.095498,10140.821405
900.566569,-2368.659014,-536.266849,9030.512492
900.566898,-1924.535449,-536.266849,8438.347739
900.567228,-814.226536,0.000000,8438.347739
900.567557,0.000000,842.705048,9104.533087
900.567887,814.226536,1838.629195,9030.512492
900.568216,1480.411884,2221.676944,8660.409521
900.568546,2294.638420,1915.238745,8660.409521
900.568876,2590.720797,1608.800546,9474.636058
900.569205,1406.391290,1991.848295,9992.780217
900.569535,0.000000,2451.505594,10807.006753
900.569864,-1184.329507,1685.410096,11103.089130
900.570194,-2294.638420,1685.410096,11325.150913
900.570523,-3627.009116,612.876398,11325.150913
900.570853,-2664.741391,689.485948,10955.047942
900.571182,-2516.700203,306.438199,9844.739029
900.571512,-2812.782580,153.219100,9178.553681
900.571842,-2960.823768,612.876398,7920.203579
900.572171,-2442.679609,76.609550,7105.977043
900.572501,-1776.494261,-153.219100,6883.915261
900.572830,-1258.350101,1072.533697,7476.080014
900.573160,-888.247130,1532.190996,7550.100608
900.573489,-222.061783,1532.190996,7846.182985
900.573819,518.144159,1072.533697,8290.306550
900.574148,592.164754,1072.533697,8882.471304
900.574478,0.000000,2374.896044,10214.842000
900.574808,-666.185348,2528.115143,11325.150913
900.575137,-1776.494261,2374.896044,11547.212695
900.575467,-2590.720797,1915.238745,11547.212695
900.575796,-2590.720797,919.314598,10881.027347
900.576126,-1924.535449,76.609550,10510.924376
900.576455,-1998.556043,-842.705048,9474.636058
900.576785,-1998.556043,-842.705048,8734.430116
900.577114,-1850.514855,-919.314598,8364.327145
900.577444,-1110.308913,-919.314598,7994.224174
900.577774,-148.041188,0.000000,8586.388927
900.578103,148.041188,842.705048,8956.491898
900.578433,888.247130,1685.410096,9104.533087
900.578762,1480.411884,1455.581446,9474.636058
900.579092,1924.535449,1762.019645,9770.718434
900.579421,1406.391290,2528.115143,10140.821405
900.579751,296.082377,1762.019645,10732.986159
900.580080,-740.205942,1378.971896,11621.233289
900.580410,-1702.473667,919.314598,11917.315666
900.580740,-2368.659014,459.657299,11991.336260
900.581069,-2368.659014,0.000000,11103.089130
900.581399,-2072.576638,-306.438199,10140.821405
900.581728,-1554.432478,-766.095498,9030.512492
900.582058,-1480.411884,-766.095498,7772.162391
900.582387,-888.247130,-306.438199,7254.018232
900.582717,0.000000,76.609550,7328.038826
900.583046,-148.041188,1072.533697,7402.059420
900.583376,0.000000,2374.896044,7402.059420
900.583706,296.082377,2068.457845,8068.244768
900.584035,740.205942,1991.848295,8364.327145
900.584365,1036.288319,1838.629195,9104.533087
900.584694,74.020594,1378.971896,9548.656652
900.585024,-1110.308913,1762.019645,11473.192101
900.585353,-3034.844362,1302.362347,11843.295072
900.585683,-4293.194464,1608.800546,11991.336260
900.586012,-4885.359217,1149.143247,11695.253884
900.586342,-4293.194464,229.828649,10288.862594
900.586672,-3404.947333,-842.705048,8660.409521
900.587001,-2516.700203,-2374.896044,7994.224174
900.587331,-2220.617826,-2145.067394,7254.018232
900.587660,-1776.494261,-1072.533697,7846.182985
900.587990,-888.247130,0.000000,9252.574275
900.588319,148.041188,1762.019645,9548.656652
900.588649,592.164754,2451.505594,9474.636058
900.588978,2072.576638,1915.238745,9548.656652
900.589308,3256.906145,2068.457845,9918.759623
900.589638,3182.885551,2911.162892,10732.986159
900.589967,1924.535449,2604.724693,11029.068536
900.590297,0.000000,2604.724693,11029.068536
900.590626,-1776.494261,1915.238745,11399.171507
900.590956,-2516.700203,536.266849,11103.089130
900.591285,-3256.906145,-306.438199,11029.068536
900.591615,-3404.947333,0.000000,10362.883188
900.591944,-3849.070898,-689.485948,9326.594869
900.592274,-4071.132681,-1532.190996,7994.224174
900.592604,-3775.050304,-919.314598,7105.977043
900.592933,-3108.864956,-153.219100,7105.977043
900.593263,-2072.576638,459.657299,7846.182985
900.593592,-1554.432478,1302.362347,7772.162391
900.593922,-370.102971,1991.848295,7994.224174
900.594251,740.205942,1838.629195,8216.285956
900.594581,1332.370696,2068.457845,9104.533087
900.594910,888.247130,2681.334243,9844.739029
900.595240,666.185348,2681.334243,10881.027347
900.595570,-814.226536,2681.334243,10955.047942
900.595899,-1850.514855,2451.505594,11473.192101
900.596229,-2664.741391,1915.238745,11251.130318
900.596558,-2664.741391,842.705048,11029.068536
900.596888,-1850.514855,-306.438199,10362.883188
900.597217,-1258.350101,0.000000,9474.636058
900.597547,-1628.453072,-229.828649,8216.285956
900.597876,-1036.288319,-689.485948,7624.121203
900.598206,0.000000,-612.876398,7994.224174
900.598536,592.164754,766.095498,8734.430116
900.598865,814.226536,1455.581446,8512.368333
900.599195,1258.350101,1991.848295,9030.512492
900.599524,1924.535449,1838.629195,9104.533087
900.599854,1850.514855,1915.238745,10066.800811
900.600183,888.247130,2221.676944,10881.027347
900.600513,-444.123565,2451.505594,11103.089130
900.600842,-1036.288319,2834.553343,11769.274478
900.601172,-2072.576638,1915.238745,11843.295072
900.601502,-2516.700203,1225.752797,11325.150913
900.601831,-2442.679609,153.219100,10510.924376
900.602161,-2516.700203,0.000000,9400.615463
900.602490,-2960.823768,0.000000,8734.430116
900.602820,-2738.761985,0.000000,7772.162391
900.603149,-2590.720797,-306.438199,7105.977043
900.603479,-1702.473667,-842.705048,6883.915261
900.603808,-962.267725,153.219100,7402.059420
900.604138,-296.082377,1532.190996,7402.059420
900.604468,370.102971,1455.581446,8142.265362
900.604797,962.267725,1378.971896,8808.450710
900.605127,888.247130,2068.457845,9770.718434
900.605456,0.000000,2068.457845,10881.027347
900.605786,-888.247130,2451.505594,11473.192101
900.606115,-2072.576638,2451.505594,11843.295072
900.606445,-2812.782580,1762.019645,11621.233289
900.606774,-2960.823768,536.266849,11695.253884
900.607104,-2590.720797,-229.828649,10881.027347
900.607434,-2516.700203,-306.438199,9770.718434
900.607763,-2368.659014,-766.095498,8068.244768
900.608093,-2294.638420,-1072.533697,7772.162391
900.608422,-1406.391290,-995.924147,7846.182985
900.608752,-296.082377,-153.219100,8438.347739
900.609081,74.020594,1225.752797,8586.388927
900.609411,518.144159,1838.629195,8364.327145
900.609740,1332.370696,2221.676944,8956.491898
900.610070,1628.453072,1991.848295,9548.656652
900.610400,1258.350101,2068.457845,10584.944971
900.610729,222.061783,2221.676944,11399.171507
900.611059,-444.123565,1915.238745,10955.047942
900.611388,-1406.391290,1302.362347,11399.171507
900.611718,-2220.617826,229.828649,11695.253884
900.612047,-2738.761985,229.828649,11399.171507
900.612377,-2812.782580,-229.828649,10510.924376
900.612706,-2220.617826,-459.657299,9178.553681
900.613036,-1924.535449,-153.219100,7624.121203
900.613366,-1332.370696,0.000000,6439.791695
900.613695,0.000000,-459.657299,6365.771101
900.614025,740.205942,306.438199,7105.977043
900.614354,666.185348,2221.676944,7920.203579
900.614684,592.164754,2834.553343,8216.285956
900.615013,814.226536,2145.067394,9104.533087
900.615343,444.123565,2145.067394,9844.739029
900.615672,-592.164754,2068.457845,10362.883188
900.616002,-1406.391290,2451.505594,10955.047942
900.616331,-2220.617826,1838.629195,11251.130318
900.616661,-3256.906145,766.095498,11103.089130
900.616991,-3701.029710,306.438199,11325.150913
900.617320,-3182.885551,-536.266849,10955.047942
900.617650,-2442.679609,-612.876398,10436.903782
900.617979,-2146.597232,-842.705048,8956.491898
900.618309,-2220.617826,0.000000,8438.347739
900.618638,-666.185348,229.828649,7846.182985
900.618968,740.205942,0.000000,8216.285956
900.619297,1184.329507,1302.362347,8512.368333
900.619627,888.247130,2451.505594,8586.388927
900.619957,1184.329507,2451.505594,9104.533087
900.620286,1184.329507,1915.238745,9844.739029
900.620616,518.144159,2145.067394,10510.924376
900.620945,-444.123565,2068.457845,11103.089130
900.621275,-1628.453072,1762.019645,11547.212695
900.621604,-2368.659014,1378.971896,11177.109724
900.621934,-3108.864956,459.657299,10955.047942
900.622263,-3552.988522,-306.438199,10584.944971
900.622593,-3627.009116,-612.876398,10288.862594
900.622923,-3701.029710,-766.095498,9548.656652
900.623252,-3997.112087,-995.924147,8142.265362
900.623582,-3256.906145,-459.657299,6661.853478
900.623911,-1406.391290,-1225.752797,6291.750507
900.624241,0.000000,-689.485948,7254.018232
900.624570,148.041188,536.266849,8216.285956
900.624900,148.041188,1991.848295,8586.388927
900.625229,444.123565,2374.896044,9104.533087
900.625559,444.123565,2451.505594,10140.821405
900.625889,74.020594,2681.334243,10955.047942
900.626218,-444.123565,2374.896044,11547.212695
900.626548,-1406.391290,1762.019645,11473.192101
900.626877,-2368.659014,1378.971896,11029.068536
900.627207,-2664.741391,1225.752797,11251.130318
900.627536,-2442.679609,76.609550,11251.130318
900.627866,-2368.659014,-153.219100,10362.883188
900.628195,-2220.617826,-536.266849,8956.491898
900.628525,-1998.556043,-612.876398,7920.203579
900.628855,-1184.329507,-383.047749,8068.244768
900.629184,-518.144159,229.828649,8364.327145
900.629514,-148.041188,766.095498,8734.430116
900.629843,148.041188,1378.971896,8808.450710
900.630173,814.226536,1455.581446,8956.491898
900.630502,1332.370696,1838.629195,9548.656652
900.630832,1406.391290,2068.457845,10214.842000
900.631161,1184.329507,2374.896044,10658.965565
900.631491,592.164754,2451.505594,11399.171507
900.631820,-296.082377,2068.457845,11547.212695
900.632150,-1628.453072,2528.115143,11029.068536
900.632480,-1776.494261,2068.457845,10584.944971
900.632809,-1924.535449,1149.143247,10066.800811
900.633139,-1702.473667,919.314598,9030.512492
900.633468,-1998.556043,-306.438199,7698.141797
900.633798,-1776.494261,-229.828649,6661.853478
900.634127,-1702.473667,-919.314598,6439.791695
900.634457,-1776.494261,-229.828649,7476.080014
900.634786,-1702.473667,1149.143247,8142.265362
900.635116,-1480.411884,1762.019645,8438.347739
900.635446,-962.267725,1685.410096,8660.409521
900.635775,0.000000,2068.457845,9474.636058
900.636105,0.000000,2145.067394,10140.821405
900.636434,-222.061783,2221.676944,10807.006753
900.636764,-962.267725,2451.505594,11251.130318
900.637093,-1924.535449,1532.190996,11325.150913
900.637423,-2516.700203,689.485948,11473.192101
900.637752,-2590.720797,689.485948,11399.171507
900.638082,-1702.473667,306.438199,10510.924376
900.638412,-1406.391290,-229.828649,9326.594869
900.638741,-1332.370696,-383.047749,8142.265362
900.639071,-1110.308913,-153.219100,7550.100608
900.639400,-444.123565,0.000000,7772.162391
900.639730,222.061783,689.485948,9252.574275
900.640059,0.000000,2298.286494,9400.615463
900.640389,148.041188,2298.286494,9474.636058
900.640718,518.144159,1532.190996,9622.677246
900.641048,814.226536,1378.971896,9622.677246
900.641378,74.020594,1455.581446,10288.862594
900.641707,-814.226536,1149.143247,10732.986159
900.642037,-1850.514855,842.705048,11251.130318
900.642366,-2664.741391,0.000000,11325.150913
900.642696,-2886.803174,-689.485948,10732.986159
900.643025,-2368.659014,-383.047749,10807.006753
900.643355,-1628.453072,0.000000,9844.739029
900.643684,-962.267725,-153.219100,8438.347739
900.644014,-740.205942,76.609550,6957.935855
900.644344,370.102971,459.657299,6143.709319
900.644673,1110.308913,0.000000,6217.729913
900.645003,814.226536,1225.752797,7402.059420
900.645332,0.000000,2451.505594,8290.306550
900.645662,-592.164754,2068.457845,8734.430116
900.645991,-1258.350101,1455.581446,9252.574275
900.646321,-1776.494261,1762.019645,9918.759623
900.646650,-1924.535449,842.705048,10732.986159
900.646980,-2738.761985,229.828649,11029.068536
900.647309,-3330.926739,-306.438199,11325.150913
900.647639,-3478.967927,-995.924147,11547.212695
900.647969,-2960.823768,-153.219100,11917.315666
900.648298,-2516.700203,0.000000,11695.253884
900.648628,-1480.411884,0.000000,10140.821405
900.648957,-296.082377,0.000000,8808.450710
900.649287,592.164754,153.219100,7624.121203
900.649616,2146.597232,383.047749,7772.162391
900.649946,2516.700203,459.657299,8734.430116
900.650275,1702.473667,2451.505594,9326.594869
900.650605,1036.288319,2757.943793,9844.739029
900.650935,962.267725,2298.286494,10214.842000
900.651264,592.164754,1838.629195,10362.883188
900.651594,0.000000,1838.629195,10658.965565
900.651923,-1258.350101,1378.971896,10732.986159
900.652253,-2590.720797,1455.581446,11029.068536
900.652582,-3478.967927,842.705048,11177.109724
900.652912,-4515.256246,612.876398,11029.068536
900.653241,-4959.379811,383.047749,10066.800811
900.653571,-4515.256246,0.000000,8956.491898
900.653901,-3701.029710,-229.828649,7994.224174
900.654230,-2812.782580,0.000000,6587.832884
900.654560,-2072.576638,-383.047749,5773.606348
900.654889,-1110.308913,-766.095498,5773.606348
900.655219,-296.082377,229.828649,7328.038826
900.655548,-222.061783,1685.410096,8882.471304
900.655878,-148.041188,2987.772442,9030.512492
900.656207,518.144159,3370.820191,9252.574275
900.656537,1258.350101,2298.286494,9622.677246
900.656867,1480.411884,2068.457845,10807.006753
900.657196,-148.041188,2451.505594,11103.089130
900.657526,-1776.494261,2451.505594,11029.068536
900.657855,-2812.782580,1378.971896,11029.068536
900.658185,-3627.009116,919.314598,11399.171507
900.658514,-3108.864956,536.266849,11251.130318
900.658844,-2886.803174,-1455.581446,10584.944971
900.659173,-2738.761985,-1762.019645,9696.697840
900.659503,-2738.761985,-995.924147,8734.430116
900.659833,-1776.494261,-689.485948,8142.265362
900.660162,-592.164754,0.000000,8438.347739
900.660492,666.185348,153.219100,8512.368333
900.660821,1110.308913,1838.629195,8512.368333
900.661151,2072.576638,2221.676944,9030.512492
900.661480,2294.638420,2451.505594,9622.677246
900.661810,2072.576638,2528.115143,10807.006753
900.662139,962.267725,2604.724693,11029.068536
900.662469,0.000000,2681.334243,11547.212695
900.662799,-1184.329507,1762.019645,11473.192101
900.663128,-1702.473667,1302.362347,11399.171507
900.663458,-2220.617826,153.219100,11103.089130
900.663787,-2146.597232,-689.485948,10807.006753
900.664117,-2442.679609,0.000000,9474.636058
900.664446,-2368.659014,76.609550,8068.244768
900.664776,-2368.659014,0.000000,6365.771101
900.665105,-1184.329507,-459.657299,5773.606348
900.665435,0.000000,-229.828649,5921.647536
900.665764,370.102971,1072.533697,7179.997637
900.666094,0.000000,2298.286494,7624.121203
900.666424,0.000000,2298.286494,8586.388927
900.666753,-148.041188,1991.848295,9548.656652
900.667083,-296.082377,2681.334243,10658.965565
900.667412,-1110.308913,2451.505594,11103.089130
900.667742,-1924.535449,2374.896044,11251.130318
900.668071,-2812.782580,1149.143247,10807.006753
900.668401,-3182.885551,229.828649,11473.192101
900.668730,-2886.803174,0.000000,12139.377449
900.669060,-2886.803174,-383.047749,11325.150913
900.669390,-2886.803174,-229.828649,9992.780217
900.669719,-2590.720797,0.000000,7994.224174
900.670049,-1258.350101,-1072.533697,7105.977043
900.670378,444.123565,-995.924147,7476.080014
900.670708,1480.411884,229.828649,8364.327145
900.671037,1480.411884,1608.800546,8660.409521
900.671367,1258.350101,2834.553343,9178.553681
900.671696,1332.370696,2604.724693,9844.739029
900.672026,1406.391290,2451.505594,10658.965565
900.672356,1110.308913,1762.019645,11251.130318
900.672685,0.000000,1302.362347,11621.233289
900.673015,-1332.370696,1378.971896,12065.356855
900.673344,-2738.761985,689.485948,11843.295072
900.673674,-3923.091493,76.609550,11473.192101
900.674003,-3997.112087,306.438199,10807.006753
900.674333,-3256.906145,536.266849,8808.450710
900.674662,-2368.659014,0.000000,7402.059420
900.674992,-1554.432478,-306.438199,6143.709319
900.675322,-370.102971,0.000000,5255.462188
900.675651,444.123565,76.609550,5921.647536
900.675981,666.185348,1072.533697,7105.977043
900.676310,740.205942,2757.943793,8216.285956
900.676640,0.000000,2528.115143,8364.327145
900.676969,296.082377,2068.457845,9178.553681
900.677299,444.123565,1378.971896,9918.759623
900.677628,-518.144159,1225.752797,11029.068536
900.677958,-444.123565,1532.190996,10807.006753
900.678288,-1776.494261,689.485948,11769.274478
900.678617,-2516.700203,76.609550,12435.459826
900.678947,-3627.009116,383.047749,12657.521608
900.679276,-3627.009116,306.438199,11843.295072
900.679606,-2664.741391,689.485948,10584.944971
900.679935,-1998.556043,-306.438199,8956.491898
900.680265,-1036.288319,-842.705048,7179.997637
900.680594,0.000000,-1149.143247,6587.832884
900.680924,888.247130,-689.485948,7031.956449
900.681253,1036.288319,842.705048,7772.162391
900.681583,814.226536,1915.238745,9400.615463
900.681913,370.102971,1838.629195,10214.842000
900.682242,518.144159,2374.896044,10881.027347
900.682572,370.102971,1838.629195,11325.150913
900.682901,148.041188,1455.581446,11547.212695
900.683231,-518.144159,919.314598,12287.418637
900.683560,-2442.679609,76.609550,12657.521608
900.683890,-4145.153275,612.876398,12213.398043
900.684219,-4441.235652,689.485948,11547.212695
900.684549,-3182.885551,0.000000,9992.780217
900.684879,-2368.659014,-689.485948,7994.224174
900.685208,-1850.514855,-919.314598,5995.668130
900.685538,-666.185348,-842.705048,5033.400406
900.685867,444.123565,-536.266849,5033.400406
900.686197,814.226536,842.705048,6957.935855
900.686526,148.041188,1991.848295,7846.182985
900.686856,-444.123565,2451.505594,8290.306550
900.687185,-518.144159,2451.505594,8956.491898
900.687515,222.061783,1991.848295,10066.800811
900.687845,0.000000,1762.019645,10881.027347
900.688174,-1332.370696,1302.362347,10807.006753
900.688504,-2516.700203,1532.190996,11103.089130
900.688833,-2960.823768,1149.143247,11029.068536
900.689163,-3256.906145,0.000000,11621.233289
900.689492,-3034.844362,-306.438199,11991.336260
900.689822,-3182.885551,0.000000,11325.150913
900.690151,-3256.906145,0.000000,9474.636058
900.690481,-1924.535449,0.000000,8216.285956
900.690811,-444.123565,-229.828649,7105.977043
900.691140,888.247130,-766.095498,6883.915261
900.691470,1776.494261,153.219100,7402.059420
900.691799,2072.576638,1838.629195,8364.327145
900.692129,2368.659014,2987.772442,9622.677246
900.692458,2072.576638,2604.724693,10214.842000
900.692788,1554.432478,2987.772442,10807.006753
900.693117,740.205942,2451.505594,11843.295072
900.693447,0.000000,1915.238745,13101.645173
900.693777,-1776.494261,1838.629195,12805.562797
900.694106,-3182.885551,1685.410096,12287.418637
900.694436,-4145.153275,536.266849,11547.212695
900.694765,-3701.029710,0.000000,10658.965565
900.695095,-3034.844362,-153.219100,9252.574275
900.695424,-2442.679609,0.000000,7105.977043
900.695754,-2146.597232,-153.219100,5181.441594
900.696083,-1258.350101,76.609550,4737.318029
900.696413,74.020594,536.266849,5699.585753
900.696742,666.185348,1378.971896,6883.915261
900.697072,962.267725,3064.381992,7476.080014
900.697402,518.144159,2911.162892,7994.224174
900.697731,666.185348,2681.334243,9104.533087
900.698061,592.164754,2145.067394,10362.883188
900.698390,0.000000,1455.581446,11473.192101
900.698720,-1184.329507,1532.190996,11843.295072
900.699049,-2442.679609,995.924147,12213.398043
900.699379,-3034.844362,689.485948,12435.459826
900.699708,-3034.844362,612.876398,12361.439231
900.700038,-2590.720797,383.047749,11177.109724
900.700368,-2368.659014,0.000000,9400.615463
900.700697,-1554.432478,-612.876398,8068.244768
900.701027,-740.205942,-536.266849,6883.915261
900.701356,222.061783,0.000000,6957.935855
900.701686,518.144159,229.828649,7328.038826
900.702015,148.041188,1149.143247,8438.347739
900.702345,370.102971,1685.410096,9178.553681
900.702674,1036.288319,1991.848295,10436.903782
900.703004,1184.329507,1455.581446,11251.130318
900.703334,740.205942,995.924147,12509.480420
900.703663,-296.082377,1225.752797,13175.665768
900.703993,-1332.370696,1762.019645,12879.583391
900.704322,-2072.576638,842.705048,11843.295072
900.704652,-2516.700203,1149.143247,11399.171507
900.704982,-2812.782580,919.314598,9992.780217
900.705311,-2220.617826,229.828649,8438.347739
900.705641,-2220.617826,-766.095498,7031.956449
900.705971,-2442.679609,-612.876398,5921.647536
900.706300,-2072.576638,0.000000,5403.503377
900.706630,-1406.391290,-459.657299,6291.750507
900.706959,-666.185348,76.609550,7402.059420
900.707289,-148.041188,1455.581446,7920.203579
900.707619,444.123565,1915.238745,7994.224174
900.707948,1406.391290,1838.629195,8512.368333
900.708278,1406.391290,2068.457845,9770.718434
900.708608,370.102971,2298.286494,10955.047942
900.708937,-666.185348,1072.533697,11843.295072
900.709267,-2146.597232,1302.362347,12435.459826
900.709596,-3256.906145,842.705048,12731.542202
900.709926,-3108.864956,306.438199,12583.501014
900.710256,-2516.700203,76.609550,11251.130318
900.710585,-1554.432478,-536.266849,9178.553681
900.710915,-814.226536,-1225.752797,7698.141797
900.711245,-222.061783,-536.266849,6957.935855
900.711574,0.000000,383.047749,6513.812290
900.711904,592.164754,842.705048,7846.182985
900.712233,592.164754,1685.410096,8956.491898
900.712563,0.000000,3217.601092,9474.636058
900.712893,296.082377,2298.286494,10140.821405
900.713222,370.102971,1608.800546,10807.006753
900.713552,0.000000,1302.362347,11547.212695
900.713882,-814.226536,842.705048,12139.377449
900.714211,-1850.514855,459.657299,12509.480420
900.714541,-2886.803174,1302.362347,12509.480420
900.714871,-3404.947333,1302.362347,11695.253884
900.715200,-2886.803174,1225.752797,10807.006753
900.715530,-1850.514855,612.876398,9252.574275
900.715859,-1332.370696,153.219100,7179.997637
900.716189,-888.247130,153.219100,5625.565159
900.716519,-222.061783,766.095498,4885.359217
900.716848,222.061783,383.047749,5329.482782
900.717178,0.000000,383.047749,6809.894666
900.717508,-592.164754,1762.019645,7920.203579
900.717837,-888.247130,2298.286494,8364.327145
900.718167,-370.102971,2451.505594,9252.574275
900.718496,-222.061783,2298.286494,9844.739029
900.718826,-740.205942,1915.238745,10732.986159
900.719156,-1332.370696,1838.629195,10881.027347
900.719485,-1924.535449,1302.362347,11251.130318
900.719815,-2886.803174,383.047749,12065.356855
900.720145,-4219.173869,-229.828649,12509.480420
900.720474,-4367.215058,306.438199,11917.315666
900.720804,-3627.009116,-153.219100,10732.986159
900.721133,-2368.659014,-612.876398,9104.533087
900.721463,-1406.391290,-995.924147,7254.018232
900.721793,0.000000,-1685.410096,6143.709319
900.722122,814.226536,-1302.362347,7179.997637
900.722452,1258.350101,766.095498,8734.430116
900.722782,888.247130,2681.334243,9844.739029
900.723111,962.267725,3217.601092,10584.944971
900.723441,1036.288319,2987.772442,10288.862594
900.723770,1184.329507,2145.067394,11103.089130
900.724100,1406.391290,1225.752797,11695.253884
900.724430,518.144159,383.047749,12731.542202
900.724759,-1332.370696,229.828649,13471.748144
900.725089,-3923.091493,689.485948,12953.603985
900.725419,-4737.318029,842.705048,12139.377449
900.725748,-3923.091493,919.314598,10732.986159
900.726078,-2590.720797,306.438199,8216.285956
900.726407,-1406.391290,-153.219100,5847.626942
900.726737,0.000000,-229.828649,4145.153275
900.727067,888.247130,-76.609550,3330.926739
900.727396,1406.391290,536.266849,4737.318029
900.727726,444.123565,1991.848295,6883.915261
900.728056,0.000000,3370.820191,8068.244768
900.728385,0.000000,3064.381992,8882.471304
900.728715,740.205942,2757.943793,9326.594869
900.729044,370.102971,2298.286494,9918.759623
900.729374,-370.102971,1762.019645,10584.944971
900.729704,-1776.494261,689.485948,11695.253884
900.730033,-2812.782580,766.095498,12805.562797
900.730363,-4219.173869,2068.457845,13027.624579
900.730693,-3923.091493,1685.410096,11917.315666
900.731022,-3478.967927,842.705048,10140.821405
900.731352,-1998.556043,-536.266849,8364.327145
900.731682,-666.185348,-1302.362347,7105.977043
900.732011,0.000000,-995.924147,6587.832884
900.732341,148.041188,459.657299,6883.915261
900.732670,-370.102971,1378.971896,8216.285956
900.733000,-222.061783,1915.238745,9844.739029
900.733330,0.000000,2911.162892,10658.965565
900.733659,814.226536,2681.334243,11029.068536
900.733989,1332.370696,2374.896044,11399.171507
900.734319,814.226536,1455.581446,11621.233289
900.734648,-370.102971,1072.533697,12435.459826
900.734978,-1628.453072,536.266849,13175.665768
900.735307,-2886.803174,919.314598,12731.542202
900.735637,-3330.926739,1225.752797,11769.274478
900.735967,-2886.803174,536.266849,10732.986159
900.736296,-1924.535449,0.000000,9030.512492
900.736626,-1258.350101,-383.047749,6883.915261
900.736956,-740.205942,-766.095498,5033.400406
900.737285,-444.123565,76.609550,4737.318029
900.737615,-296.082377,229.828649,5477.523971
900.737944,-962.267725,995.924147,7105.977043
900.738274,-1554.432478,2221.676944,7772.162391
900.738604,-1184.329507,2604.724693,8290.306550
900.738933,-370.102971,1378.971896,9178.553681
900.739263,148.041188,1685.410096,10066.800811
900.739593,-888.247130,2221.676944,10510.924376
900.739922,-1702.473667,1302.362347,9992.780217
900.740252,-1998.556043,0.000000,10510.924376
900.740581,-2368.659014,0.000000,12435.459826
900.740911,-2960.823768,1072.533697,13101.645173
900.741241,-3404.947333,459.657299,12213.398043
900.741570,-3034.844362,153.219100,9770.718434
900.741900,-1702.473667,-612.876398,8290.306550
900.742230,148.041188,-1302.362347,7031.956449
900.742559,1554.432478,-1072.533697,7105.977043
900.742889,1776.494261,0.000000,7624.121203
900.743218,1036.288319,1378.971896,8216.285956
900.743548,962.267725,2451.505594,9622.677246
900.743878,1258.350101,2298.286494,11177.109724
900.744207,666.185348,2451.505594,11843.295072
900.744537,74.020594,2145.067394,12213.398043
900.744867,-666.185348,1608.800546,12287.418637
900.745196,-1628.453072,1455.581446,12731.542202
900.745526,-2590.720797,306.438199,12509.480420
900.745855,-3997.112087,0.000000,11843.295072
900.746185,-3997.112087,995.924147,10510.924376
900.746515,-2886.803174,153.219100,9252.574275
900.746844,-2368.659014,-229.828649,6957.935855
900.747174,-2072.576638,-306.438199,5477.523971
900.747504,-1258.350101,76.609550,4885.359217
900.747833,-370.102971,0.000000,5699.585753
900.748163,-222.061783,536.266849,7105.977043
900.748492,-1184.329507,2604.724693,7994.224174
900.748822,-1480.411884,2604.724693,8364.327145
900.749152,-592.164754,2298.286494,8956.491898
900.749481,222.061783,2068.457845,9844.739029
900.749811,-74.020594,2068.457845,10140.821405
900.750141,-444.123565,1991.848295,10288.862594
900.750470,-1702.473667,1378.971896,10436.903782
900.750800,-2368.659014,919.314598,11399.171507
900.751130,-2960.823768,766.095498,12509.480420
900.751459,-2960.823768,842.705048,12361.439231
900.751789,-3034.844362,383.047749,10362.883188
900.752118,-2812.782580,-1072.533697,8882.471304
900.752448,-1554.432478,-1225.752797,7772.162391
900.752778,-222.061783,-1455.581446,6883.915261
900.753107,740.205942,-1072.533697,7031.956449
900.753437,1110.308913,0.000000,7772.162391
900.753767,1184.329507,2298.286494,9474.636058
900.754096,1036.288319,2604.724693,10436.903782
900.754426,1184.329507,2451.505594,11251.130318
900.754755,888.247130,2145.067394,11695.253884
900.755085,222.061783,1378.971896,12509.480420
900.755415,-666.185348,1532.190996,13101.645173
900.755744,-2590.720797,1072.533697,13249.686362
900.756074,-3701.029710,766.095498,12287.418637
900.756404,-3627.009116,0.000000,10955.047942
900.756733,-2146.597232,-306.438199,9770.718434
900.757063,-1480.411884,-306.438199,8068.244768
900.757392,-740.205942,-766.095498,6217.729913
900.757722,-666.185348,459.657299,5033.400406
900.758052,0.000000,1455.581446,4737.318029
900.758381,814.226536,1455.581446,5773.606348
900.758711,740.205942,2451.505594,7179.997637
900.759041,0.000000,3294.210641,7994.224174
900.759370,0.000000,2681.334243,8364.327145
900.759700,0.000000,2374.896044,9252.574275
900.760029,-222.061783,2374.896044,10288.862594
900.760359,-1184.329507,1838.629195,10362.883188
900.760689,-1850.514855,766.095498,10732.986159
900.761018,-2812.782580,0.000000,11917.315666
900.761348,-3849.070898,995.924147,12361.439231
900.761678,-4219.173869,1455.581446,12139.377449
900.762007,-3478.967927,536.266849,10436.903782
900.762337,-2368.659014,0.000000,8512.368333
900.762666,-962.267725,-612.876398,7254.018232
900.762996,148.041188,-995.924147,6291.750507
900.763326,1036.288319,-383.047749,7031.956449
900.763655,1036.288319,842.705048,8068.244768
900.763985,296.082377,1302.362347,9252.574275
900.764315,222.061783,2757.943793,10955.047942
900.764644,1036.288319,3140.991542,11769.274478
900.764974,1258.350101,2068.457845,12583.501014
900.765303,888.247130,1685.410096,13027.624579
900.765633,74.020594,2298.286494,12361.439231
900.765963,-1110.308913,995.924147,11843.295072
900.766292,-2812.782580,766.095498,11103.089130
900.766622,-3478.967927,1455.581446,10732.986159
900.766952,-3552.988522,536.266849,9474.636058
900.767281,-2738.761985,-766.095498,8216.285956
900.767611,-2294.638420,-1072.533697,6513.812290
900.767940,-2516.700203,-766.095498,5921.647536
900.768270,-2220.617826,0.000000,6069.688724
900.768600,-1110.308913,76.609550,7031.956449
900.768929,-592.164754,919.314598,7846.182985
900.769259,-444.123565,1838.629195,7994.224174
900.769589,148.041188,2221.676944,8364.327145
900.769918,1036.288319,1915.238745,9104.533087
900.770248,1332.370696,1762.019645,10214.842000
900.770578,814.226536,1915.238745,10955.047942
900.770907,0.000000,2145.067394,11399.171507
900.771237,-1258.350101,1072.533697,11399.171507
900.771566,-2294.638420,919.314598,11547.212695
900.771896,-2294.638420,919.314598,11547.212695
900.772226,-1776.494261,153.219100,10658.965565
900.772555,-1258.350101,-459.657299,8364.327145
900.772885,-962.267725,-995.924147,7402.059420
900.773215,-370.102971,-459.657299,6883.915261
900.773544,-148.041188,-153.219100,7179.997637
900.773874,-222.061783,536.266849,8660.409521
900.774203,-814.226536,1532.190996,9548.656652
900.774533,-1036.288319,2451.505594,9918.759623
900.774863,-592.164754,2298.286494,10807.006753
900.775192,0.000000,919.314598,11473.192101
900.775522,74.020594,536.266849,11917.315666
900.775852,-666.185348,536.266849,11991.336260
900.776181,-1406.391290,766.095498,11843.295072
900.776511,-2220.617826,612.876398,11843.295072
900.776840,-2368.659014,766.095498,11547.212695
900.777170,-1924.535449,995.924147,10510.924376
900.777500,-1184.329507,919.314598,9178.553681
900.777829,-592.164754,459.657299,7476.080014
900.778159,-962.267725,306.438199,6735.874072
900.778489,-740.205942,842.705048,5995.668130
900.778818,-592.164754,766.095498,6809.894666
900.779148,-666.185348,1072.533697,7846.182985
900.779477,-1110.308913,1915.238745,8438.347739
900.779807,-1702.473667,2068.457845,7994.224174
900.780137,-1110.308913,1455.581446,8290.306550
900.780466,-1184.329507,1149.143247,9326.594869
900.780796,-1332.370696,1685.410096,9622.677246
900.781126,-1924.535449,1149.143247,9992.780217
900.781455,-2664.741391,612.876398,10510.924376
900.781785,-3478.967927,919.314598,11325.150913
900.782114,-3997.112087,612.876398,11621.233289
900.782444,-3478.967927,153.219100,10732.986159
900.782774,-2368.659014,-229.828649,9474.636058
900.783103,-1702.473667,-766.095498,8586.388927
900.783433,-1184.329507,-995.924147,7698.141797
900.783763,-444.123565,-766.095498,7476.080014
900.784092,148.041188,-153.219100,8068.244768
900.784422,296.082377,1072.533697,9252.574275
900.784751,666.185348,2145.067394,10510.924376
900.785081,814.226536,2451.505594,10658.965565
900.785411,1332.370696,1685.410096,10955.047942
900.785740,1480.411884,919.314598,11325.150913
900.786070,1110.308913,612.876398,12065.356855
900.786400,-148.041188,1072.533697,12731.542202
900.786729,-1850.514855,612.876398,13101.645173
900.787059,-2664.741391,612.876398,12361.439231
900.787389,-2960.823768,1072.533697,11325.150913
900.787718,-2072.576638,153.219100,9548.656652
900.788048,-1184.329507,-306.438199,7920.203579
900.788377,-1036.288319,-383.047749,6513.812290
900.788707,-1184.329507,842.705048,5477.523971
900.789037,-962.267725,459.657299,5847.626942
900.789366,-814.226536,612.876398,7105.977043
900.789696,-1332.370696,1915.238745,7994.224174
900.790026,-1480.411884,2528.115143,8808.450710
900.790355,-222.061783,2451.505594,8438.347739
900.790685,-148.041188,1838.629195,8586.388927
900.791014,222.061783,1225.752797,9104.533087
900.791344,-296.082377,612.876398,9844.739029
900.791674,-1406.391290,919.314598,11177.109724
900.792003,-2146.597232,2068.457845,12065.356855
900.792333,-3108.864956,2145.067394,11917.315666
900.792663,-2664.741391,1378.971896,11473.192101
900.792992,-1998.556043,842.705048,10140.821405
900.793322,-888.247130,76.609550,8734.430116
900.793651,148.041188,-229.828649,7402.059420
900.793981,370.102971,459.657299,6365.771101
900.794311,518.144159,459.657299,7254.018232
900.794640,518.144159,995.924147,8438.347739
900.794970,0.000000,2221.676944,9400.615463
900.795300,222.061783,2681.334243,10140.821405
900.795629,296.082377,2298.286494,10510.924376
900.795959,296.082377,1455.581446,11547.212695
900.796288,-222.061783,1149.143247,12287.418637
900.796618,-1332.370696,1072.533697,12805.562797
900.796948,-2664.741391,1149.143247,12953.603985
900.797277,-3997.112087,612.876398,12361.439231
900.797607,-3849.070898,919.314598,11991.336260
900.797937,-3182.885551,612.876398,10584.944971
900.798266,-1702.473667,0.000000,8660.409521
900.798596,-814.226536,-229.828649,6809.894666
900.798925,-592.164754,229.828649,5107.421000
900.799255,-666.185348,229.828649,4959.379811
900.799585,148.041188,459.657299,6883.915261
900.799914,-222.061783,1762.019645,8290.306550
900.800244,-1036.288319,3524.039291,8586.388927
900.800574,-666.185348,2604.724693,8438.347739
900.800903,518.144159,995.924147,8882.471304
900.801233,814.226536,1608.800546,9844.739029
900.801562,0.000000,1072.533697,9474.636058
900.801892,-888.247130,689.485948,9622.677246
900.802222,-2072.576638,0.000000,11399.171507
900.802551,-3182.885551,1378.971896,12805.562797
900.802881,-4737.318029,1455.581446,13249.686362
900.803210,-4367.215058,459.657299,11399.171507
900.803540,-2812.782580,0.000000,9400.615463
900.803869,-1036.288319,-1532.190996,7698.141797
900.804199,296.082377,-1302.362347,6883.915261
900.804528,962.267725,-1608.800546,6439.791695
900.804858,962.267725,153.219100,7105.977043
900.805187,518.144159,3064.381992,8512.368333
900.805517,962.267725,2834.553343,9992.780217
900.805846,1480.411884,2451.505594,10436.903782
900.806176,1406.391290,2298.286494,11251.130318
900.806506,814.226536,1302.362347,11843.295072
900.806835,148.041188,1685.410096,12583.501014
900.807165,-962.267725,919.314598,13323.706956
900.807494,-2220.617826,229.828649,13175.665768
900.807824,-2812.782580,459.657299,12583.501014
900.808153,-2664.741391,536.266849,11177.109724
900.808483,-1184.329507,-153.219100,9252.574275
900.808812,-518.144159,-459.657299,7179.997637
900.809142,-444.123565,153.219100,5847.626942
900.809471,-296.082377,612.876398,5477.523971
900.809801,-518.144159,1455.581446,5921.647536
900.810130,-888.247130,2068.457845,7031.956449
900.810460,-1702.473667,2374.896044,7920.203579
900.810789,-1406.391290,1991.848295,8364.327145
900.811119,-888.247130,1608.800546,8660.409521
900.811448,-592.164754,1302.362347,9178.553681
900.811778,-1036.288319,1149.143247,9622.677246
900.812107,-1776.494261,842.705048,10436.903782
900.812437,-2664.741391,459.657299,11399.171507
900.812766,-3627.009116,919.314598,12361.439231
900.813096,-4145.153275,1762.019645,12139.377449
900.813425,-3923.091493,1455.581446,11325.150913
900.813755,-2960.823768,306.438199,9400.615463
900.814085,-1850.514855,-459.657299,7846.182985
900.814414,-222.061783,-1149.143247,7105.977043
900.814744,666.185348,-1378.971896,6809.894666
900.815073,370.102971,-153.219100,7105.977043
900.815403,0.000000,1302.362347,8364.327145
900.815732,0.000000,1915.238745,9400.615463
900.816062,222.061783,2374.896044,10362.883188
900.816391,740.205942,2221.676944,11029.068536
900.816721,592.164754,1762.019645,11843.295072
900.817050,-444.123565,1149.143247,12213.398043
900.817380,-1702.473667,919.314598,12805.562797
900.817709,-2960.823768,153.219100,12953.603985
900.818039,-3627.009116,536.266849,12731.542202
900.818368,-3182.885551,459.657299,11399.171507
900.818698,-2516.700203,-383.047749,9474.636058
900.819027,-1406.391290,-689.485948,7698.141797
900.819357,-518.144159,-459.657299,6069.688724
900.819686,-296.082377,383.047749,5255.462188
900.820016,518.144159,1378.971896,5625.565159
900.820345,444.123565,1455.581446,6291.750507
900.820675,-148.041188,2298.286494,7772.162391
900.821004,-592.164754,2298.286494,8512.368333
900.821334,0.000000,1838.629195,8882.471304
900.821664,148.041188,1532.190996,9474.636058
900.821993,296.082377,612.876398,9696.697840
900.822323,-592.164754,0.000000,10807.006753
900.822652,-1628.453072,0.000000,12065.356855
900.822982,-2886.803174,459.657299,12879.583391
900.823311,-3775.050304,1532.190996,12657.521608
900.823641,-2960.823768,1532.190996,12065.356855
900.823970,-1924.535449,766.095498,10140.821405
900.824300,-370.102971,-383.047749,8290.306550
900.824629,444.123565,-383.047749,6661.853478
900.824959,1110.308913,0.000000,5921.647536
900.825288,1184.329507,383.047749,6661.853478
900.825618,888.247130,1225.752797,7772.162391
900.825947,222.061783,2834.553343,9474.636058
900.826277,296.082377,2834.553343,9770.718434
900.826606,1332.370696,1838.629195,10955.047942
900.826936,1332.370696,1991.848295,11843.295072
900.827265,222.061783,1378.971896,12287.418637
900.827595,-1628.453072,1532.190996,12361.439231
900.827924,-3034.844362,1378.971896,11769.274478
900.828254,-3923.091493,1838.629195,11473.192101
900.828583,-3849.070898,995.924147,10658.965565
900.828913,-3256.906145,995.924147,9252.574275
900.829243,-2516.700203,-383.047749,7920.203579
900.829572,-2368.659014,-1225.752797,7105.977043
900.829902,-2220.617826,-306.438199,6957.935855
900.830231,-2146.597232,766.095498,7031.956449
900.830561,-1776.494261,76.609550,7179.997637
900.830890,-740.205942,1072.533697,7846.182985
900.831220,-222.061783,2604.724693,7846.182985
900.831549,1258.350101,1838.629195,8438.347739
900.831879,1850.514855,919.314598,9252.574275
900.832208,1184.329507,2221.676944,9696.697840
900.832538,296.082377,2298.286494,11621.233289
900.832867,-814.226536,1378.971896,12065.356855
900.833197,-1998.556043,1608.800546,12213.398043
900.833526,-2664.741391,1149.143247,12213.398043
900.833856,-2516.700203,383.047749,11843.295072
900.834185,-2220.617826,306.438199,10214.842000
900.834515,-2072.576638,0.000000,8808.450710
900.834844,-1776.494261,-612.876398,7550.100608
900.835174,-1628.453072,-153.219100,6735.874072
900.835503,-740.205942,-306.438199,7254.018232
900.835833,-518.144159,-229.828649,7994.224174
900.836162,-666.185348,1225.752797,8438.347739
900.836492,-444.123565,1685.410096,9326.594869
900.836822,148.041188,1455.581446,9918.759623
900.837151,814.226536,1072.533697,11251.130318
900.837481,740.205942,1302.362347,11695.253884
900.837810,-444.123565,995.924147,11991.336260
900.838140,-814.226536,919.314598,12287.418637
900.838469,-1258.350101,1072.533697,12657.521608
900.838799,-1258.350101,1072.533697,12509.480420
900.839128,-814.226536,1149.143247,11325.150913
900.839458,-814.226536,1378.971896,8660.409521
900.839787,-148.041188,229.828649,7550.100608
900.840117,148.041188,383.047749,6661.853478
900.840446,444.123565,766.095498,5921.647536
900.840776,370.102971,383.047749,6365.771101
900.841105,-370.102971,1838.629195,7328.038826
900.841435,-888.247130,1838.629195,7698.141797
900.841764,-1036.288319,1838.629195,8660.409521
900.842094,-1036.288319,1378.971896,9030.512492
900.842423,-1332.370696,1838.629195,9918.759623
900.842753,-1480.411884,1991.848295,10732.986159
900.843082,-2294.638420,1072.533697,11103.089130
900.843412,-3182.885551,919.314598,11843.295072
900.843741,-4145.153275,919.314598,12213.398043
900.844071,-4367.215058,919.314598,11991.336260
900.844401,-3849.070898,689.485948,11177.109724
900.844730,-2368.659014,306.438199,9400.615463
900.845060,-1702.473667,-766.095498,7920.203579
900.845389,-1036.288319,-689.485948,6809.894666
900.845719,0.000000,-306.438199,6883.915261
900.846048,444.123565,612.876398,7846.182985
900.846378,962.267725,1455.581446,8586.388927
900.846707,444.123565,2528.115143,9326.594869
900.847037,814.226536,2451.505594,9622.677246
900.847366,1628.453072,2145.067394,10288.862594
900.847696,1776.494261,1532.190996,10881.027347
900.848025,814.226536,612.876398,11695.253884
900.848355,-1036.288319,842.705048,12287.418637
900.848684,-3034.844362,689.485948,12583.501014
900.849014,-3923.091493,689.485948,12435.459826
900.849343,-4145.153275,536.266849,11695.253884
900.849673,-3478.967927,-153.219100,10140.821405
900.850002,-2516.700203,-1455.581446,7698.141797
900.850332,-1702.473667,-1838.629195,6587.832884
900.850661,-1036.288319,-536.266849,5551.544565
900.850991,-666.185348,459.657299,5625.565159
900.851320,-444.123565,919.314598,6735.874072
900.851650,-296.082377,2145.067394,7920.203579
900.851980,-296.082377,2528.115143,8216.285956
900.852309,296.082377,2221.676944,8734.430116
900.852639,1036.288319,1532.190996,9400.615463
900.852968,592.164754,1455.581446,10066.800811
900.853298,0.000000,1532.190996,10732.986159
900.853627,-1480.411884,-229.828649,11843.295072
900.853957,-2516.700203,153.219100,13101.645173
900.854286,-3997.112087,1608.800546,13619.789333
900.854616,-3997.112087,1378.971896,12657.521608
900.854945,-2368.659014,153.219100,10881.027347
900.855275,-592.164754,-689.485948,8142.265362
900.855604,962.267725,-919.314598,6291.750507
900.855934,1480.411884,-766.095498,5403.503377
900.856263,1924.535449,459.657299,6143.709319
900.856593,1480.411884,1991.848295,7624.121203
900.856922,814.226536,3294.210641,9474.636058
900.857252,592.164754,3140.991542,10436.903782
900.857581,74.020594,3064.381992,10658.965565
900.857911,74.020594,1838.629195,11325.150913
900.858240,-222.061783,1302.362347,11991.336260
900.858570,-1850.514855,995.924147,12287.418637
900.858900,-3182.885551,459.657299,12435.459826
900.859229,-4293.194464,612.876398,11917.315666
900.859559,-4145.153275,1532.190996,11103.089130
900.859888,-2664.741391,1149.143247,9770.718434
900.860218,-1332.370696,-229.828649,7550.100608
900.860547,-518.144159,-689.485948,5921.647536
900.860877,-518.144159,383.047749,5181.441594
900.861206,0.000000,766.095498,5921.647536
900.861536,0.000000,1302.362347,7476.080014
900.861865,-1184.329507,2451.505594,8290.306550
900.862195,-1628.453072,3064.381992,8512.368333
900.862524,-296.082377,1532.190996,9030.512492
900.862854,444.123565,1225.752797,9770.718434
900.863183,370.102971,1072.533697,10362.883188
900.863513,-518.144159,1608.800546,10732.986159
900.863842,-2072.576638,766.095498,11547.212695
900.864172,-2812.782580,995.924147,12213.398043
900.864501,-3997.112087,1532.190996,13101.645173
900.864831,-4071.132681,842.705048,12287.418637
900.865160,-3552.988522,76.609550,10732.986159
900.865490,-2368.659014,-919.314598,8586.388927
900.865819,-1036.288319,-1302.362347,7105.977043
900.866149,0.000000,-1838.629195,6217.729913
900.866479,370.102971,-689.485948,6661.853478
900.866808,370.102971,229.828649,7846.182985
900.867138,370.102971,2145.067394,9252.574275
900.867467,1036.288319,2987.772442,10066.800811
900.867797,1332.370696,3140.991542,10436.903782
900.868126,1258.350101,2298.286494,11177.109724
900.868456,666.185348,1302.362347,11843.295072
900.868785,-296.082377,995.924147,11991.336260
900.869115,-1776.494261,689.485948,12361.439231
900.869444,-2812.782580,383.047749,11843.295072
900.869774,-3256.906145,0.000000,11177.109724
900.870103,-2664.741391,76.609550,9992.780217
900.870433,-1702.473667,-383.047749,8068.244768
900.870762,-814.226536,-229.828649,6883.915261
900.871092,-222.061783,689.485948,5403.503377
900.871421,148.041188,1302.362347,5921.647536
900.871751,518.144159,995.924147,6735.874072
900.872080,0.000000,1225.752797,7624.121203
900.872410,-962.267725,2528.115143,8364.327145
900.872739,-1036.288319,2528.115143,8660.409521
900.873069,-1184.329507,1225.752797,9696.697840
900.873398,-666.185348,1149.143247,10584.944971
900.873728,-1036.288319,536.266849,11325.150913
900.874058,-1998.556043,306.438199,11621.233289
900.874387,-3404.947333,536.266849,11621.233289
900.874717,-3923.091493,1149.143247,11843.295072
900.875046,-3552.988522,1072.533697,11917.315666
900.875376,-2812.782580,689.485948,10807.006753
900.875705,-1998.556043,153.219100,8660.409521
900.876035,-518.144159,-1302.362347,7402.059420
900.876364,-222.061783,-1149.143247,6957.935855
900.876694,0.000000,-229.828649,7254.018232
900.877023,-296.082377,306.438199,8290.306550
900.877353,-518.144159,1685.410096,9400.615463
900.877682,-518.144159,2374.896044,9918.759623
900.878012,148.041188,2834.553343,10732.986159
900.878341,444.123565,1072.533697,10732.986159
900.878671,370.102971,1762.019645,11251.130318
900.879000,0.000000,1455.581446,11547.212695
900.879330,-888.247130,1378.971896,11843.295072
900.879659,-1480.411884,1072.533697,11399.171507
900.879989,-2368.659014,689.485948,10658.965565
900.880318,-2590.720797,536.266849,9844.739029
900.880648,-2072.576638,153.219100,8660.409521
900.880977,-1480.411884,-536.266849,7179.997637
900.881307,-1406.391290,-459.657299,6439.791695
900.881637,-1332.370696,0.000000,5551.544565
900.881966,-1036.288319,459.657299,6365.771101
900.882296,-888.247130,689.485948,7846.182985
900.882625,-1406.391290,2221.676944,9030.512492
900.882955,-1554.432478,2681.334243,9178.553681
900.883284,-666.185348,1991.848295,9252.574275
900.883614,518.144159,919.314598,9844.739029
900.883943,666.185348,842.705048,10510.924376
900.884273,-148.041188,306.438199,11769.274478
900.884602,-1332.370696,689.485948,12139.377449
900.884932,-2368.659014,1608.800546,12435.459826
900.885261,-2738.761985,459.657299,11991.336260
900.885591,-2146.597232,689.485948,11547.212695
900.885920,-888.247130,0.000000,10066.800811
900.886250,74.020594,-919.314598,8290.306550
900.886579,370.102971,0.000000,6513.812290
900.886909,1258.350101,76.609550,6735.874072
900.887238,1332.370696,1072.533697,7846.182985
900.887568,740.205942,2528.115143,8882.471304
900.887897,148.041188,3753.867940,9326.594869
900.888227,148.041188,3217.601092,9548.656652
900.888556,0.000000,2068.457845,10066.800811
900.888886,-518.144159,1991.848295,10732.986159
900.889216,-1924.535449,1762.019645,11547.212695
900.889545,-3256.906145,612.876398,11621.233289
900.889875,-4515.256246,383.047749,11769.274478
900.890204,-4663.297435,-306.438199,11843.295072
900.890534,-4367.215058,-612.876398,11251.130318
900.890863,-3330.926739,-229.828649,10066.800811
900.891193,-1998.556043,-229.828649,7772.162391
900.891522,-518.144159,-229.828649,6143.709319
900.891852,888.247130,306.438199,4885.359217
900.892181,1998.556043,1532.190996,5329.482782
900.892511,1776.494261,1838.629195,6513.812290
900.892840,962.267725,3064.381992,7846.182985
900.893170,370.102971,3677.258390,9030.512492
900.893499,148.041188,2604.724693,9548.656652
900.893829,74.020594,2451.505594,10362.883188
900.894158,-148.041188,1838.629195,11029.068536
900.894488,-1406.391290,1685.410096,11251.130318
900.894817,-2368.659014,1072.533697,11029.068536
900.895147,-3701.029710,383.047749,11473.192101
900.895476,-4663.297435,536.266849,11991.336260
900.895806,-5329.482782,689.485948,11991.336260
900.896135,-4811.338623,0.000000,10881.027347
900.896465,-3701.029710,-383.047749,8660.409521
900.896795,-2442.679609,-1378.971896,7105.977043
900.897124,-592.164754,-1915.238745,6661.853478
900.897454,370.102971,-766.095498,6809.894666
900.897783,888.247130,76.609550,7624.121203
900.898113,1258.350101,2374.896044,8956.491898
900.898442,1702.473667,3140.991542,10362.883188
900.898772,2146.597232,3447.429741,11029.068536
900.899101,2590.720797,2911.162892,11473.192101
900.899431,2368.659014,2068.457845,12287.418637
900.899760,1480.411884,2068.457845,12509.480420
900.900090,0.000000,1532.190996,12657.521608
900.900419,-1850.514855,689.485948,12213.398043
900.900749,-2886.803174,459.657299,11103.089130
900.901078,-2886.803174,306.438199,9326.594869
900.901408,-1998.556043,-842.705048,8068.244768
900.901737,-1258.350101,-1302.362347,6365.771101
900.902067,-1184.329507,-842.705048,4811.338623
900.902396,-666.185348,0.000000,4515.256246
900.902726,-148.041188,459.657299,5329.482782
900.903055,-296.082377,1762.019645,7402.059420
900.903385,-1702.473667,2451.505594,8586.388927
900.903714,-1924.535449,2681.334243,9178.553681
900.904044,-1258.350101,2068.457845,10140.821405
900.904374,-666.185348,1225.752797,10584.944971
900.904703,-592.164754,1072.533697,10807.006753
900.905032,-1406.391290,0.000000,11547.212695
900.905362,-2664.741391,-383.047749,12139.377449
900.905691,-3627.009116,459.657299,12805.562797
900.906021,-3775.050304,1149.143247,12731.542202
900.906350,-3478.967927,842.705048,11251.130318
900.906680,-2294.638420,0.000000,9474.636058
900.907009,-518.144159,-459.657299,7698.141797
900.907339,592.164754,-995.924147,6661.853478
900.907668,1036.288319,-919.314598,6735.874072
900.907997,740.205942,612.876398,7254.018232
900.908327,0.000000,1762.019645,8808.450710
900.908656,-148.041188,2757.943793,10140.821405
900.908986,74.020594,2757.943793,10436.903782
900.909315,296.082377,1838.629195,10584.944971
900.909645,148.041188,1455.581446,10584.944971
900.909974,-444.123565,1455.581446,11177.109724
900.910304,-1850.514855,612.876398,12213.398043
900.910633,-2960.823768,689.485948,12657.521608
900.910962,-4737.318029,1149.143247,12287.418637
900.911292,-4885.359217,1149.143247,10732.986159
900.911621,-3552.988522,-306.438199,9252.574275
900.911951,-2072.576638,-995.924147,7105.977043
900.912280,-1480.411884,-919.314598,5181.441594
900.912610,-740.205942,-612.876398,4515.256246
900.912939,-296.082377,153.219100,5107.421000
900.913269,-222.061783,383.047749,6661.853478
900.913598,-148.041188,2298.286494,7994.224174
900.913927,-222.061783,3370.820191,8808.450710
900.914257,592.164754,2451.505594,9326.594869
900.914586,1480.411884,1378.971896,9992.780217
900.914916,1554.432478,1149.143247,11103.089130
900.915245,296.082377,1072.533697,12139.377449
900.915575,-1480.411884,689.485948,12509.480420
900.915904,-3108.864956,1149.143247,12805.562797
900.916234,-3404.947333,1378.971896,12879.583391
900.916563,-2886.803174,766.095498,11621.233289
900.916892,-1406.391290,-153.219100,9622.677246
900.917222,-814.226536,-842.705048,7920.203579
900.917551,0.000000,-1302.362347,7105.977043
900.917881,222.061783,76.609550,6957.935855
900.918210,0.000000,995.924147,7476.080014
900.918540,-370.102971,1455.581446,8068.244768
900.918869,74.020594,2834.553343,9252.574275
900.919199,444.123565,2681.334243,9992.780217
900.919528,1036.288319,1762.019645,10732.986159
900.919858,592.164754,1455.581446,11473.192101
900.920187,-814.226536,1762.019645,11769.274478
900.920516,-1554.432478,1378.971896,11695.253884
900.920846,-2220.617826,842.705048,11991.336260
900.921175,-2664.741391,1225.752797,11843.295072
900.921505,-2738.761985,842.705048,10732.986159
900.921834,-2146.597232,459.657299,9474.636058
900.922164,-1258.350101,0.000000,7846.182985
900.922493,-1258.350101,0.000000,6661.853478
900.922823,-1110.308913,766.095498,5551.544565
900.923152,-666.185348,689.485948,5033.400406
900.923481,-296.082377,536.266849,5921.647536
900.923811,-148.041188,1072.533697,7031.956449
900.924140,-814.226536,2145.067394,8142.265362
900.924470,-814.226536,2068.457845,9104.533087
900.924799,-740.205942,1991.848295,10288.862594
900.925129,-962.267725,1915.238745,11177.109724
900.925458,-962.267725,1762.019645,10955.047942
900.925788,-2146.597232,842.705048,11325.150913
900.926117,-2590.720797,306.438199,12435.459826
900.926446,-3552.988522,995.924147,12953.603985
900.926776,-3775.050304,842.705048,12879.583391
900.927105,-3108.864956,536.266849,11029.068536
900.927435,-2368.659014,-766.095498,9178.553681
900.927764,-1036.288319,-919.314598,7402.059420
900.928094,370.102971,-1225.752797,6883.915261
900.928423,1406.391290,-842.705048,7105.977043
900.928753,1628.453072,1072.533697,7772.162391
900.929082,1184.329507,2451.505594,8956.491898
900.929411,1702.473667,3294.210641,9548.656652
900.929741,1776.494261,2757.943793,10140.821405
900.930070,1998.556043,1685.410096,11103.089130
900.930400,1184.329507,1302.362347,12065.356855
900.930729,-518.144159,1225.752797,12139.377449
900.931059,-1776.494261,536.266849,12139.377449
900.931388,-2812.782580,229.828649,12287.418637
900.931718,-3182.885551,306.438199,11621.233289
900.932047,-2886.803174,153.219100,10510.924376
900.932376,-2220.617826,0.000000,8734.430116
900.932706,-2368.659014,-153.219100,6439.791695
900.933035,-1036.288319,612.876398,5403.503377
900.933365,-222.061783,383.047749,5033.400406
900.933694,592.164754,842.705048,5329.482782
900.934024,148.041188,919.314598,6291.750507
900.934353,-518.144159,2298.286494,6957.935855
900.934683,-962.267725,2451.505594,7920.203579
900.935012,-518.144159,1762.019645,9696.697840
900.935341,-222.061783,1072.533697,10955.047942
900.935671,-518.144159,995.924147,12139.377449
900.936000,-1628.453072,536.266849,12583.501014
900.936330,-2590.720797,995.924147,12583.501014
900.936659,-3108.864956,919.314598,13101.645173
900.936989,-3034.844362,1608.800546,12657.521608
900.937318,-2442.679609,1149.143247,11547.212695
900.937648,-1628.453072,306.438199,9474.636058
900.937977,-222.061783,76.609550,7476.080014
900.938307,0.000000,-536.266849,6513.812290
900.938636,296.082377,76.609550,6439.791695
900.938965,444.123565,306.438199,7624.121203
900.939295,-296.082377,1302.362347,8882.471304
900.939624,-222.061783,2451.505594,10140.821405
900.939954,-222.061783,1762.019645,10362.883188
900.940283,0.000000,1455.581446,11103.089130
900.940613,-370.102971,995.924147,11917.315666
900.940942,-1332.370696,842.705048,12213.398043
900.941272,-1998.556043,1072.533697,12065.356855
900.941601,-2812.782580,536.266849,11251.130318
900.941930,-3182.885551,766.095498,11251.130318
900.942260,-2812.782580,766.095498,9992.780217
900.942589,-1924.535449,229.828649,8290.306550
900.942919,-1332.370696,0.000000,7105.977043
900.943248,-444.123565,0.000000,6143.709319
900.943578,-888.247130,76.609550,5995.668130
900.943907,-962.267725,995.924147,6439.791695
900.944237,-740.205942,919.314598,7402.059420
900.944566,-814.226536,1608.800546,7994.224174
900.944895,-222.061783,1608.800546,8290.306550
900.945225,74.020594,612.876398,9178.553681
900.945554,222.061783,306.438199,10510.924376
900.945884,74.020594,383.047749,11843.295072
900.946213,-814.226536,766.095498,12509.480420
900.946543,-1850.514855,689.485948,12213.398043
900.946872,-1924.535449,842.705048,11843.295072
900.947202,-2146.597232,1149.143247,11621.233289
900.947531,-1480.411884,1302.362347,10436.903782
900.947860,-370.102971,459.657299,9104.533087
900.948190,-296.082377,0.000000,7402.059420
900.948519,-962.267725,306.438199,7179.997637
900.948849,-1036.288319,76.609550,7624.121203
900.949178,-814.226536,76.609550,8734.430116
900.949508,-962.267725,1149.143247,9474.636058
900.949837,-888.247130,1762.019645,10140.821405
900.950167,-296.082377,1532.190996,10066.800811
900.950496,740.205942,536.266849,10732.986159
900.950825,1036.288319,766.095498,11399.171507
900.951155,444.123565,1378.971896,11843.295072
900.951484,-148.041188,1838.629195,11547.212695
900.951814,-666.185348,2221.676944,11103.089130
900.952143,-740.205942,1608.800546,10584.944971
900.952473,-962.267725,1608.800546,9770.718434
900.952802,-518.144159,1455.581446,8734.430116
900.953132,-370.102971,766.095498,7550.100608
900.953461,-740.205942,1072.533697,6587.832884
900.953790,-1480.411884,1225.752797,5847.626942
900.954120,-1702.473667,612.876398,6439.791695
900.954449,-1924.535449,612.876398,7179.997637
900.954779,-2368.659014,1762.019645,7846.182985
900.955108,-2220.617826,2145.067394,8660.409521
900.955438,-2146.597232,1225.752797,8586.388927
900.955767,-1776.494261,1149.143247,9252.574275
900.956097,-1628.453072,1072.533697,10436.903782
900.956426,-1924.535449,1072.533697,11325.150913
900.956756,-2442.679609,995.924147,11917.315666
900.957085,-2738.761985,766.095498,11769.274478
900.957414,-3034.844362,1072.533697,11547.212695
900.957744,-2294.638420,995.924147,11103.089130
900.958073,-962.267725,766.095498,10436.903782
900.958403,-222.061783,76.609550,8808.450710
900.958732,0.000000,612.876398,7624.121203
900.959062,814.226536,1302.362347,7402.059420
900.959391,1258.350101,536.266849,8068.244768
900.959721,1184.329507,1685.410096,9326.594869
900.960050,666.185348,2528.115143,9548.656652
900.960379,666.185348,2298.286494,9918.759623
900.960709,518.144159,1302.362347,9770.718434
900.961038,296.082377,766.095498,11029.068536
900.961368,-296.082377,536.266849,11769.274478
900.961697,-1332.370696,383.047749,11769.274478
900.962027,-2220.617826,459.657299,11473.192101
900.962356,-2294.638420,995.924147,11251.130318
900.962686,-2368.659014,536.266849,9918.759623
900.963015,-2146.597232,459.657299,9474.636058
900.963344,-1480.411884,612.876398,7920.203579
900.963674,-1258.350101,689.485948,6883.915261
900.964003,-962.267725,689.485948,5551.544565
900.964333,-740.205942,842.705048,5551.544565
900.964662,0.000000,306.438199,6365.771101
900.964992,-296.082377,1072.533697,7624.121203
900.965321,-444.123565,1915.238745,8364.327145
900.965651,-444.123565,1838.629195,8660.409521
900.965980,-444.123565,689.485948,8882.471304
900.966309,296.082377,306.438199,11103.089130
900.966639,-296.082377,766.095498,12139.377449
900.966968,-1480.411884,1225.752797,12731.542202
900.967298,-2368.659014,919.314598,12657.521608
900.967627,-3034.844362,536.266849,12657.521608
900.967957,-2516.700203,842.705048,11917.315666
900.968286,-1554.432478,383.047749,10584.944971
900.968616,-296.082377,-383.047749,8512.368333
900.968945,0.000000,-689.485948,7105.977043
900.969274,0.000000,-689.485948,6735.874072
900.969604,148.041188,459.657299,7624.121203
900.969933,0.000000,1455.581446,8734.430116
900.970263,-740.205942,2451.505594,9622.677246
900.970592,-962.267725,2757.943793,10214.842000
900.970922,-666.185348,1838.629195,10362.883188
900.971251,-592.164754,1378.971896,11251.130318
900.971581,-666.185348,842.705048,11769.274478
900.971910,-1702.473667,1149.143247,11843.295072
900.972240,-2368.659014,995.924147,11695.253884
900.972569,-2738.761985,766.095498,10881.027347
900.972898,-2516.700203,1072.533697,10214.842000
900.973228,-1850.514855,612.876398,8956.491898
900.973557,-1554.432478,689.485948,7698.141797
900.973887,-888.247130,842.705048,6513.812290
900.974216,-888.247130,842.705048,5625.565159
900.974546,-370.102971,1225.752797,5551.544565
900.974875,-666.185348,919.314598,6069.688724
900.975205,-666.185348,1072.533697,7698.141797
900.975534,-1332.370696,1762.019645,8586.388927
900.975863,-1702.473667,1915.238745,9252.574275
900.976193,-1258.350101,995.924147,9770.718434
900.976522,-888.247130,306.438199,10214.842000
900.976852,-888.247130,153.219100,11843.295072
900.977181,-1406.391290,459.657299,12509.480420
900.977511,-2664.741391,1072.533697,12435.459826
900.977840,-3108.864956,689.485948,11917.315666
900.978170,-2812.782580,383.047749,11325.150913
900.978499,-1776.494261,536.266849,10658.965565
900.978828,-370.102971,-229.828649,9252.574275
900.979158,296.082377,-919.314598,7772.162391
900.979487,74.020594,-383.047749,7254.018232
900.979817,370.102971,459.657299,7846.182985
900.980146,1332.370696,612.876398,8956.491898
900.980476,518.144159,1915.238745,9696.697840
900.980805,148.041188,2987.772442,10510.924376
900.981135,370.102971,2068.457845,10584.944971
900.981464,888.247130,1149.143247,10732.986159
900.981793,814.226536,766.095498,11399.171507
900.982123,-296.082377,842.705048,11473.192101
900.982452,-1554.432478,842.705048,11325.150913
900.982782,-2146.597232,536.266849,10955.047942
900.983111,-2368.659014,459.657299,10584.944971
900.983441,-2294.638420,1072.533697,9178.553681
900.983770,-1850.514855,536.266849,7994.224174
900.984100,-1036.288319,229.828649,7031.956449
900.984429,-962.267725,766.095498,6217.729913
900.984758,-740.205942,1455.581446,5921.647536
900.985088,-370.102971,1149.143247,6069.688724
900.985417,-370.102971,1378.971896,7031.956449
900.985747,-888.247130,2374.896044,8586.388927
900.986076,-1406.391290,2757.943793,8956.491898
900.986406,-1036.288319,1915.238745,9252.574275
900.986735,-740.205942,995.924147,9918.759623
900.987065,-814.226536,1225.752797,10732.986159
900.987394,-1406.391290,1149.143247,11843.295072
900.987723,-2516.700203,1225.752797,11991.336260
900.988053,-3552.988522,689.485948,12139.377449
900.988382,-3923.091493,612.876398,11769.274478
900.988712,-2738.761985,1072.533697,11029.068536
900.989041,-1184.329507,0.000000,9548.656652
900.989371,-222.061783,-383.047749,8216.285956
900.989700,-222.061783,0.000000,7105.977043
900.990030,0.000000,153.219100,7105.977043
900.990359,296.082377,1378.971896,8438.347739
900.990689,0.000000,1762.019645,9474.636058
900.991018,-370.102971,3064.381992,10436.903782
900.991347,0.000000,2681.334243,10510.924376
900.991677,518.144159,1302.362347,10955.047942
900.992006,222.061783,1302.362347,11769.274478
900.992336,-370.102971,1072.533697,12139.377449
900.992665,-1850.514855,1225.752797,11843.295072
900.992995,-2442.679609,919.314598,11399.171507
900.993324,-2516.700203,689.485948,10881.027347
900.993654,-2220.617826,229.828649,9622.677246
900.993983,-1554.432478,229.828649,7846.182985
900.994312,-666.185348,0.000000,6587.832884
900.994642,-666.185348,-229.828649,5847.626942
900.994971,-814.226536,612.876398,6069.688724
900.995301,-888.247130,1225.752797,6069.688724
900.995630,-1036.288319,612.876398,7031.956449
900.995960,-1406.391290,1302.362347,7624.121203
900.996289,-740.205942,1915.238745,8808.450710
900.996619,-444.123565,1302.362347,9474.636058
900.996948,-296.082377,1225.752797,10362.883188
900.997277,-740.205942,1685.410096,10955.047942
900.997607,-1184.329507,1149.143247,11473.192101
900.997936,-1480.411884,842.705048,11991.336260
900.998266,-2368.659014,612.876398,12287.418637
900.998595,-3108.864956,766.095498,11917.315666
900.998925,-2886.803174,229.828649,11399.171507
900.999254,-1702.473667,0.000000,10881.027347
900.999584,-1110.308913,-459.657299,9178.553681
900.999913,-592.164754,-766.095498,8068.244768
901.000242,0.000000,-383.047749,7179.997637
901.000572,740.205942,0.000000,7402.059420
901.000901,1702.473667,766.095498,8068.244768
901.001231,1628.453072,2298.286494,9178.553681
901.001560,1036.288319,2681.334243,9770.718434
901.001890,1036.288319,2298.286494,10584.944971
901.002219,666.185348,2068.457845,11399.171507
901.002549,0.000000,1915.238745,11917.315666
901.002878,-1036.288319,1302.362347,12139.377449
901.003207,-2146.597232,766.095498,12139.377449
901.003536,-2886.803174,459.657299,11473.192101
901.003865,-3034.844362,0.000000,10362.883188
901.004195,-2442.679609,-229.828649,9252.574275
901.004524,-1776.494261,-536.266849,7624.121203
901.004854,-1702.473667,0.000000,6217.729913
901.005183,-1184.329507,229.828649,5625.565159
901.005512,-814.226536,766.095498,5625.565159
901.005842,-370.102971,842.705048,6291.750507
901.006171,-222.061783,1532.190996,7105.977043
901.006501,-444.123565,2068.457845,8216.285956
901.006830,-740.205942,2068.457845,9252.574275
901.007159,-666.185348,1685.410096,10214.842000
901.007489,-888.247130,1685.410096,11103.089130
901.007818,-1628.453072,2068.457845,11547.212695
901.008148,-1998.556043,1838.629195,12065.356855
901.008477,-2738.761985,766.095498,11547.212695
901.008807,-3552.988522,-306.438199,11325.150913
901.009136,-3478.967927,-383.047749,11621.233289
901.009465,-3034.844362,-229.828649,11251.130318
901.009795,-2442.679609,0.000000,9770.718434
901.010124,-1184.329507,-842.705048,8290.306550
901.010454,-222.061783,-1149.143247,7402.059420
901.010783,814.226536,-459.657299,7698.141797
901.011112,1628.453072,612.876398,8438.347739
901.011442,1850.514855,1762.019645,9474.636058
901.011771,1036.288319,3370.820191,9770.718434
901.012101,444.123565,3140.991542,10658.965565
901.012430,444.123565,2298.286494,11325.150913
901.012759,148.041188,1991.848295,11917.315666
901.013089,-740.205942,1225.752797,11621.233289
901.013418,-2368.659014,1608.800546,10955.047942
901.013748,-2738.761985,536.266849,10881.027347
901.014077,-3330.926739,0.000000,10807.006753
901.014407,-3627.009116,536.266849,9992.780217
901.014736,-3256.906145,612.876398,8290.306550
901.015065,-2442.679609,766.095498,6809.894666
901.015395,-2442.679609,229.828649,5773.606348
901.015724,-1998.556043,1072.533697,5551.544565
901.016054,-1110.308913,1149.143247,5847.626942
901.016383,-666.185348,1149.143247,6735.874072
901.016712,-444.123565,2298.286494,7476.080014
901.017042,-962.267725,2451.505594,8068.244768
901.017371,0.000000,1762.019645,9030.512492
901.017701,444.123565,1838.629195,10362.883188
901.018030,222.061783,1762.019645,11769.274478
901.018359,-148.041188,1532.190996,12509.480420
901.018689,-1332.370696,2528.115143,11991.336260
901.019018,-1776.494261,1532.190996,11991.336260
901.019348,-2146.597232,766.095498,11843.295072
901.019677,-1998.556043,766.095498,10807.006753
901.020007,-888.247130,383.047749,9474.636058
901.020336,-370.102971,-306.438199,7846.182985
901.020665,-296.082377,-612.876398,7402.059420
901.020995,0.000000,0.000000,7550.100608
901.021324,148.041188,0.000000,8364.327145
901.021654,0.000000,995.924147,9326.594869
901.021983,-222.061783,2757.943793,9918.759623
901.022312,74.020594,2068.457845,10436.903782
901.022642,296.082377,1302.362347,11251.130318
901.022971,444.123565,1072.533697,11991.336260
901.023301,-148.041188,1532.190996,12139.377449
901.023630,-814.226536,1762.019645,11843.295072
901.023959,-1332.370696,1378.971896,10881.027347
901.024289,-1702.473667,1072.533697,10732.986159
901.024618,-1776.494261,612.876398,9770.718434
901.024948,-1406.391290,306.438199,8734.430116
901.025277,-1258.350101,153.219100,7402.059420
901.025607,-1036.288319,612.876398,6439.791695
901.025936,-1332.370696,536.266849,6069.688724
901.026265,-1110.308913,76.609550,5847.626942
901.026595,-1036.288319,306.438199,6809.894666
901.026924,-1480.411884,1072.533697,7772.162391
901.027254,-1776.494261,2221.676944,8216.285956
901.027583,-1036.288319,1915.238745,9104.533087
901.027912,-962.267725,1225.752797,9770.718434
901.028242,-444.123565,1072.533697,10881.027347
901.028571,-962.267725,1149.143247,11991.336260
901.028901,-1850.514855,612.876398,11917.315666
901.029230,-3034.844362,1072.533697,12065.356855
901.029559,-3182.885551,689.485948,11843.295072
901.029889,-2442.679609,306.438199,11325.150913
901.030218,-1258.350101,-306.438199,10214.842000
901.030548,-814.226536,-1149.143247,8364.327145
901.030877,-296.082377,-306.438199,7402.059420
901.031207,-222.061783,229.828649,7402.059420
901.031536,370.102971,536.266849,8364.327145
901.031865,370.102971,1378.971896,9326.594869
901.032195,0.000000,2298.286494,9622.677246
901.032524,222.061783,2528.115143,9844.739029
901.032854,222.061783,1915.238745,10584.944971
901.033183,740.205942,1302.362347,11843.295072
901.033512,148.041188,1378.971896,12213.398043
901.033842,-814.226536,1072.533697,11621.233289
901.034171,-1628.453072,1072.533697,11029.068536
901.034501,-1776.494261,689.485948,10362.883188
901.034830,-1776.494261,689.485948,9918.759623
901.035159,-1628.453072,1225.752797,8882.471304
901.035489,-1332.370696,1149.143247,7698.141797
901.035818,-1480.411884,689.485948,6809.894666
901.036148,-1998.556043,919.314598,6069.688724
901.036477,-2294.638420,1072.533697,6587.832884
901.036807,-2072.576638,842.705048,7179.997637
901.037136,-2072.576638,1302.362347,7772.162391
901.037465,-1998.556043,1149.143247,8438.347739
901.037795,-1480.411884,766.095498,8586.388927
901.038124,-740.205942,995.924147,9400.615463
901.038454,-370.102971,842.705048,9770.718434
901.038783,-222.061783,1455.581446,11029.068536
901.039112,-888.247130,1532.190996,11547.212695
901.039442,-1332.370696,1608.800546,11695.253884
901.039771,-2146.597232,995.924147,11843.295072
901.040101,-2442.679609,612.876398,11843.295072
901.040430,-2072.576638,612.876398,11251.130318
901.040759,-1184.329507,0.000000,9770.718434
901.041089,-1110.308913,-1225.752797,8586.388927
901.041418,-1184.329507,-766.095498,8068.244768
901.041748,-888.247130,0.000000,7846.182985
901.042077,74.020594,76.609550,8808.450710
901.042407,0.000000,919.314598,9474.636058
901.042736,-518.144159,2068.457845,10066.800811
901.043065,0.000000,1455.581446,9548.656652
901.043395,0.000000,1072.533697,10510.924376
901.043724,296.082377,1302.362347,11547.212695
901.044054,-370.102971,919.314598,11769.274478
901.044383,-1184.329507,536.266849,11769.274478
901.044712,-2072.576638,536.266849,11177.109724
901.045042,-2294.638420,383.047749,10881.027347
901.045371,-2072.576638,229.828649,10066.800811
901.045701,-1332.370696,536.266849,8660.409521
901.046030,-962.267725,383.047749,7402.059420
901.046359,-888.247130,536.266849,6439.791695
901.046689,-666.185348,995.924147,5995.668130
901.047018,-666.185348,995.924147,6291.750507
901.047348,-740.205942,995.924147,7105.977043
901.047677,-1184.329507,1762.019645,7772.162391
901.048007,-1332.370696,2374.896044,8808.450710
901.048336,-814.226536,1532.190996,8808.450710
901.048665,0.000000,995.924147,9992.780217
901.048995,-222.061783,1608.800546,10881.027347
901.049324,-666.185348,1685.410096,11399.171507
901.049654,-1332.370696,1608.800546,11917.315666
901.049983,-2072.576638,1915.238745,12139.377449
901.050312,-2812.782580,1532.190996,11473.192101
901.050642,-2738.761985,1532.190996,10955.047942
901.050971,-1850.514855,459.657299,9918.759623
901.051301,-1184.329507,-306.438199,8660.409521
901.051630,-740.205942,-612.876398,7698.141797
901.051959,-518.144159,-306.438199,7254.018232
901.052289,-296.082377,383.047749,7920.203579
901.052618,-222.061783,1532.190996,9104.533087
901.052948,0.000000,2451.505594,9844.739029
901.053277,592.164754,2911.162892,10066.800811
901.053607,1184.329507,2068.457845,10436.903782
901.053936,1036.288319,1762.019645,10732.986159
901.054265,296.082377,1608.800546,11399.171507
901.054595,-444.123565,1532.190996,11843.295072
901.054924,-1702.473667,1072.533697,12065.356855
901.055254,-2368.659014,612.876398,11843.295072
901.055583,-2738.761985,612.876398,10510.924376
901.055912,-2220.617826,0.000000,9548.656652
901.056242,-1480.411884,0.000000,8216.285956
901.056571,-1628.453072,0.000000,6661.853478
901.056901,-1702.473667,689.485948,5551.544565
901.057230,-1480.411884,1149.143247,5773.606348
901.057559,-962.267725,995.924147,6143.709319
901.057889,-1036.288319,1302.362347,7254.018232
901.058218,-1554.432478,1532.190996,7846.182985
901.058548,-1406.391290,2068.457845,8956.491898
901.058877,-1036.288319,1302.362347,9548.656652
901.059207,-518.144159,306.438199,10955.047942
901.059536,-962.267725,536.266849,12509.480420
901.059865,-2220.617826,766.095498,12953.603985
901.060195,-3108.864956,689.485948,12805.562797
901.060524,-3034.844362,1302.362347,11991.336260
901.060854,-2368.659014,1225.752797,11251.130318
901.061183,-740.205942,76.609550,9844.739029
901.061512,370.102971,-306.438199,8216.285956
901.061842,740.205942,0.000000,6661.853478
901.062171,740.205942,459.657299,6217.729913
901.062501,1258.350101,459.657299,7179.997637
901.062830,592.164754,1302.362347,9252.574275
901.063159,-592.164754,2528.115143,10362.883188
901.063489,-1036.288319,2451.505594,10510.924376
901.063818,-148.041188,1302.362347,10732.986159
901.064148,-148.041188,459.657299,11177.109724
901.064477,-518.144159,0.000000,12065.356855
