#time,accel_x,accel_y,accel_z
1097.200881,-1258.350101,1302.362347,9178.553681
1097.201211,-1036.288319,1149.143247,9474.636058
1097.201540,-1110.308913,1149.143247,9400.615463
1097.201870,-962.267725,919.314598,9474.636058
1097.202200,-962.267725,919.314598,9474.636058
1097.202529,-1184.329507,1149.143247,9474.636058
1097.202859,-1036.288319,995.924147,9474.636058
1097.203189,-1258.350101,766.095498,9622.677246
1097.203518,-1110.308913,612.876398,9548.656652
1097.203848,-1110.308913,919.314598,9474.636058
1097.204178,-1258.350101,612.876398,9696.697840
1097.204508,-888.247130,689.485948,9622.677246
1097.204837,-1036.288319,842.705048,9844.739029
1097.205167,-962.267725,766.095498,9844.739029
1097.205497,-1110.308913,766.095498,9622.677246
1097.205826,-1036.288319,766.095498,9696.697840
1097.206156,-962.267725,766.095498,9548.656652
1097.206486,-1110.308913,1072.533697,9622.677246
1097.206815,-1184.329507,1072.533697,9622.677246
1097.207145,-1184.329507,919.314598,9474.636058
1097.207475,-1036.288319,842.705048,9696.697840
1097.207804,-518.144159,689.485948,9844.739029
1097.208134,-1110.308913,1225.752797,9696.697840
1097.208464,-888.247130,842.705048,9548.656652
1097.208793,-1036.288319,842.705048,9474.636058
1097.209123,-1036.288319,995.924147,9474.636058
1097.209453,-666.185348,919.314598,9548.656652
1097.209782,-1110.308913,766.095498,9400.615463
1097.210112,-1036.288319,766.095498,9548.656652
1097.210442,-1036.288319,995.924147,9474.636058
1097.210771,-1036.288319,995.924147,9400.615463
1097.211101,-1110.308913,995.924147,9548.656652
1097.211431,-962.267725,459.657299,9326.594869
1097.211760,-1110.308913,995.924147,9474.636058
1097.212090,-962.267725,1072.533697,9622.677246
1097.212420,-1110.308913,842.705048,9326.594869
1097.212749,-888.247130,766.095498,9474.636058
1097.213079,-1036.288319,919.314598,9474.636058
1097.213409,-962.267725,1072.533697,9548.656652
1097.213738,-1184.329507,1072.533697,9548.656652
1097.214068,-962.267725,842.705048,9622.677246
1097.214398,-962.267725,919.314598,9696.697840
1097.214727,-888.247130,1225.752797,9474.636058
1097.215057,-962.267725,995.924147,9622.677246
1097.215387,-1036.288319,919.314598,9622.677246
1097.215716,-1184.329507,612.876398,9622.677246
1097.216046,-1184.329507,1072.533697,9622.677246
1097.216376,-1406.391290,766.095498,9474.636058
1097.216705,-1258.350101,1225.752797,9474.636058
1097.217035,-1110.308913,919.314598,9770.718434
1097.217365,-1036.288319,919.314598,9622.677246
1097.217694,-1184.329507,689.485948,9474.636058
1097.218024,-1036.288319,612.876398,9548.656652
1097.218354,-1110.308913,1149.143247,9400.615463
1097.218683,-1110.308913,1072.533697,9696.697840
1097.219013,-1184.329507,842.705048,9770.718434
1097.219343,-1036.288319,995.924147,9474.636058
1097.219672,-1036.288319,995.924147,9548.656652
1097.220002,-1554.432478,842.705048,9400.615463
1097.220332,-888.247130,689.485948,9400.615463
1097.220661,-1184.329507,1149.143247,9548.656652
1097.220991,-1184.329507,995.924147,9400.615463
1097.221321,-962.267725,842.705048,9400.615463
1097.221650,-1036.288319,1455.581446,9178.553681
1097.221980,-814.226536,766.095498,8808.450710
1097.222310,-296.082377,995.924147,9030.512492
1097.222639,518.144159,919.314598,8956.491898
1097.222969,1110.308913,612.876398,9030.512492
1097.223299,888.247130,612.876398,9030.512492
1097.223629,666.185348,689.485948,9918.759623
1097.223958,0.000000,1225.752797,10362.883188
1097.224288,-962.267725,1378.971896,10362.883188
1097.224618,-888.247130,536.266849,10510.924376
1097.224947,-370.102971,153.219100,10214.842000
1097.225277,0.000000,76.609550,9400.615463
1097.225607,962.267725,229.828649,9474.636058
1097.225936,1628.453072,153.219100,9030.512492
1097.226266,2368.659014,689.485948,8660.409521
1097.226596,3182.885551,1378.971896,9104.533087
1097.226925,3404.947333,2068.457845,9178.553681
1097.227255,3552.988522,2374.896044,9178.553681
1097.227585,3552.988522,1455.581446,9918.759623
1097.227914,2590.720797,1072.533697,10214.842000
1097.228244,1924.535449,689.485948,10436.903782
1097.228574,1258.350101,536.266849,11029.068536
1097.228903,1332.370696,229.828649,11103.089130
1097.229233,1406.391290,0.000000,10362.883188
1097.229563,2072.576638,-229.828649,9548.656652
1097.229892,3182.885551,-229.828649,9178.553681
1097.230222,3923.091493,229.828649,9178.553681
1097.230552,4441.235652,1838.629195,8882.471304
1097.230881,3997.112087,2451.505594,9474.636058
1097.231211,3256.906145,2987.772442,10214.842000
1097.231541,1628.453072,3140.991542,9992.780217
1097.231870,-222.061783,2451.505594,10214.842000
1097.232200,-1628.453072,2528.115143,9400.615463
1097.232530,-1184.329507,1225.752797,9030.512492
1097.232859,-666.185348,-689.485948,7994.224174
1097.233189,1036.288319,-1302.362347,7105.977043
1097.233519,2368.659014,-1225.752797,6439.791695
1097.233848,3701.029710,76.609550,6661.853478
1097.234178,4071.132681,1072.533697,7476.080014
1097.234508,3478.967927,2911.162892,9696.697840
1097.234837,2368.659014,4290.134789,11621.233289
1097.235167,888.247130,4213.525239,12435.459826
1097.235497,222.061783,3217.601092,12805.562797
1097.235826,-888.247130,1838.629195,11991.336260
1097.236156,-1036.288319,-995.924147,11473.192101
1097.236486,-962.267725,-1991.848295,10362.883188
1097.236815,-296.082377,-2451.505594,9030.512492
1097.237145,1110.308913,-2221.676944,8438.347739
1097.237475,3182.885551,-1225.752797,7550.100608
1097.237804,4071.132681,-306.438199,7550.100608
1097.238134,4515.256246,1378.971896,7476.080014
1097.238464,4515.256246,2834.553343,8068.244768
1097.238793,4145.153275,3524.039291,8882.471304
1097.239123,3404.947333,3600.648841,10288.862594
1097.239453,2664.741391,3370.820191,11103.089130
1097.239782,1332.370696,2145.067394,11547.212695
1097.240112,222.061783,459.657299,11399.171507
1097.240442,-518.144159,-995.924147,11029.068536
1097.240771,-1110.308913,-1608.800546,10807.006753
1097.241101,-1110.308913,-1608.800546,10584.944971
1097.241431,-296.082377,-1378.971896,10362.883188
1097.241760,592.164754,-459.657299,9844.739029
1097.242090,1406.391290,153.219100,8882.471304
1097.242420,2442.679609,1149.143247,7920.203579
1097.242750,3923.091493,1685.410096,7402.059420
1097.243079,5255.462188,1149.143247,7846.182985
1097.243409,5403.503377,1072.533697,7624.121203
1097.243739,4885.359217,1225.752797,8734.430116
1097.244068,3849.070898,1149.143247,9622.677246
1097.244398,2738.761985,1838.629195,10436.903782
1097.244728,2072.576638,1762.019645,10436.903782
1097.245057,1110.308913,2221.676944,10881.027347
1097.245387,1406.391290,1838.629195,10732.986159
1097.245717,1110.308913,1455.581446,9992.780217
1097.246046,1110.308913,1455.581446,8586.388927
1097.246376,2220.617826,0.000000,8142.265362
1097.246706,2220.617826,0.000000,7624.121203
1097.247035,1998.556043,536.266849,8290.306550
1097.247365,1258.350101,919.314598,9104.533087
1097.247695,888.247130,536.266849,9548.656652
1097.248024,222.061783,612.876398,9918.759623
1097.248354,-518.144159,536.266849,10955.047942
1097.248684,-740.205942,612.876398,11695.253884
1097.249013,-1036.288319,0.000000,11547.212695
1097.249343,-1036.288319,229.828649,10881.027347
1097.249673,-148.041188,459.657299,9770.718434
1097.250002,1628.453072,153.219100,9104.533087
1097.250332,3775.050304,459.657299,8808.450710
1097.250662,5699.585753,1685.410096,8438.347739
1097.250991,7328.038826,2757.943793,7476.080014
1097.251321,8660.409521,2681.334243,7105.977043
1097.251651,8734.430116,3140.991542,8660.409521
1097.251980,6661.853478,3983.696590,10140.821405
1097.252310,3701.029710,5056.230287,11473.192101
1097.252640,814.226536,3524.039291,12509.480420
1097.252969,-2146.597232,995.924147,13693.809927
1097.253299,-5033.400406,-536.266849,14063.912898
1097.253629,-7846.182985,-1302.362347,12879.583391
1097.253958,-8216.285956,-2221.676944,10288.862594
1097.254288,-5773.606348,-2834.553343,6587.832884
1097.254618,-518.144159,-4213.525239,3330.926739
1097.254947,5181.441594,-3983.696590,1406.391290
1097.255277,9474.636058,-919.314598,2368.659014
1097.255607,10362.883188,2757.943793,4071.132681
1097.255936,9696.697840,6741.640382,7031.956449
1097.256266,8142.265362,8044.002729,10214.842000
1097.256596,5033.400406,8273.831378,13989.892304
1097.256925,592.164754,8120.612279,15766.386565
1097.257255,-3256.906145,3600.648841,16580.613101
1097.257585,-5033.400406,-612.876398,15914.427753
1097.257914,-5403.503377,-3294.210641,13989.892304
1097.258244,-3552.988522,-5669.106685,11177.109724
1097.258574,-518.144159,-6818.249932,8364.327145
1097.258903,3478.967927,-5822.325785,4145.153275
1097.259233,7994.224174,-3370.820191,1776.494261
1097.259563,11547.212695,-1915.238745,3108.864956
1097.259892,11695.253884,2834.553343,6957.935855
1097.260222,7698.141797,7584.345430,10066.800811
1097.260552,2442.679609,8427.050478,11843.295072
1097.260881,-1554.432478,8810.098227,13545.768739
1097.261211,-2516.700203,4903.011187,15026.180623
1097.261541,-2516.700203,0.000000,13693.809927
1097.261871,-2294.638420,-5132.839837,9844.739029
1097.262200,-962.267725,-6741.640382,6365.771101
1097.262530,1702.473667,-7124.688131,5329.482782
1097.262860,3182.885551,-5286.058936,7402.059420
1097.263189,3182.885551,-995.924147,9104.533087
1097.263519,1776.494261,2911.162892,8586.388927
1097.263849,2590.720797,4903.011187,9622.677246
1097.264178,4219.173869,5669.106685,12213.398043
1097.264508,3775.050304,4366.744339,13471.748144
1097.264838,1776.494261,2451.505594,12435.459826
1097.265167,0.000000,76.609550,11103.089130
1097.265497,-666.185348,-1378.971896,10732.986159
1097.265827,-1776.494261,-1608.800546,9178.553681
1097.266156,-2368.659014,-3677.258390,6587.832884
1097.266486,0.000000,-4826.401637,5107.421000
1097.266816,4145.153275,-2757.943793,6291.750507
1097.267145,7402.059420,536.266849,7402.059420
1097.267475,9030.512492,3600.648841,7105.977043
1097.267805,7994.224174,4749.792088,7105.977043
1097.268134,5921.647536,5515.887586,8808.450710
1097.268464,3330.926739,5515.887586,13027.624579
1097.268794,814.226536,5132.839837,17172.777854
1097.269123,-2664.741391,4443.353888,16876.695478
1097.269453,-5921.647536,1378.971896,13841.851115
1097.269783,-6069.688724,-4290.134789,11399.171507
1097.270112,-3330.926739,-5975.544884,10066.800811
1097.270442,-1924.535449,-5745.716235,7698.141797
1097.270771,-1850.514855,-3447.429741,4515.256246
1097.271101,74.020594,-153.219100,2516.700203
1097.271430,5181.441594,1608.800546,3404.947333
1097.271760,9770.718434,1838.629195,6217.729913
1097.272089,9918.759623,4903.011187,8586.388927
1097.272419,8512.368333,9729.412825,9178.553681
1097.272748,7476.080014,10112.460574,9400.615463
1097.273078,6439.791695,7201.297681,11399.171507
1097.273407,3552.988522,3753.867940,13693.809927
1097.273736,-888.247130,689.485948,14804.118840
1097.274066,-4071.132681,842.705048,13915.871710
1097.274395,-5255.462188,229.828649,12361.439231
1097.274725,-4219.173869,-3753.867940,11325.150913
1097.275054,-3849.070898,-4903.011187,10510.924376
1097.275384,-3701.029710,-3600.648841,8290.306550
1097.275713,-666.185348,-1685.410096,5921.647536
1097.276043,4293.194464,76.609550,2812.782580
1097.276372,8438.347739,2068.457845,1332.370696
1097.276701,12731.542202,1455.581446,4219.173869
1097.277031,12953.603985,2298.286494,7402.059420
1097.277360,8808.450710,7584.345430,8142.265362
1097.277690,6291.750507,8427.050478,9474.636058
1097.278019,6069.688724,5132.839837,12879.583391
1097.278349,2960.823768,2451.505594,16506.592507
1097.278678,-1850.514855,0.000000,17246.798449
1097.279008,-5847.626942,-3447.429741,14656.077652
1097.279337,-7920.203579,-4290.134789,12731.542202
1097.279666,-8882.471304,-2911.162892,12287.418637
1097.279996,-7698.141797,-3064.381992,12065.356855
1097.280325,-3330.926739,-3217.601092,6439.791695
1097.280655,4441.235652,-3830.477490,2368.659014
1097.280984,10732.986159,-3600.648841,1554.432478
1097.281314,10436.903782,689.485948,3256.906145
1097.281643,7624.121203,5132.839837,7031.956449
1097.281973,5477.523971,9039.926876,11621.233289
1097.282302,4441.235652,9729.412825,14804.118840
1097.282631,1554.432478,7967.393179,17542.880825
1097.282961,-3923.091493,4443.353888,15396.283594
1097.283290,-7476.080014,-1915.238745,13323.706956
1097.283620,-9030.512492,-5669.106685,12879.583391
1097.283949,-8512.368333,-5745.716235,11843.295072
1097.284279,-5995.668130,-4903.011187,8734.430116
1097.284608,-2664.741391,-5056.230287,6069.688724
1097.284938,1332.370696,-4673.182538,3478.967927
1097.285267,7031.956449,-2068.457845,2886.803174
1097.285596,11473.192101,3600.648841,4885.359217
1097.285926,12213.398043,9116.536426,7254.018232
1097.286255,8734.430116,10801.946522,10214.842000
1097.286585,3552.988522,10342.289223,13471.748144
1097.286914,-1850.514855,9499.584175,13841.851115
1097.287244,-5995.668130,4443.353888,15026.180623
1097.287573,-8882.471304,-536.266849,14285.974681
1097.287903,-10140.821405,-3064.381992,12657.521608
1097.288232,-8586.388927,-6894.859482,7920.203579
1097.288562,-5329.482782,-9806.022374,2368.659014
1097.288891,-740.205942,-9422.974625,-1258.350101
1097.289220,5403.503377,-5209.449386,592.164754
1097.289550,9252.574275,-612.876398,4515.256246
1097.289879,8068.244768,7201.297681,8882.471304
1097.290209,5403.503377,12870.404366,12583.501014
1097.290538,2368.659014,13023.623466,14211.954086
1097.290868,-1406.391290,12410.747068,14211.954086
1097.291197,-2664.741391,4673.182538,16654.633695
1097.291527,-4145.153275,-2911.162892,17987.004391
1097.291856,-9252.574275,-2757.943793,13101.645173
1097.292185,-11473.192101,-4903.011187,7031.956449
1097.292515,-6883.915261,-9652.803275,4515.256246
1097.292844,0.000000,-9959.241474,5625.565159
1097.293174,5921.647536,-7124.688131,6587.832884
1097.293503,6439.791695,-2374.896044,5847.626942
1097.293833,3478.967927,6205.373534,5773.606348
1097.294162,2516.700203,12257.527968,8068.244768
1097.294492,3775.050304,10495.508323,14730.098246
1097.294821,2368.659014,10112.460574,18061.024985
1097.295150,-3330.926739,8044.002729,16950.716072
1097.295480,-7105.977043,2681.334243,13323.706956
1097.295809,-8216.285956,-612.876398,10066.800811
1097.296139,-6735.874072,-6435.202183,7772.162391
1097.296468,-3034.844362,-11261.603821,7920.203579
1097.296798,-1554.432478,-8886.707777,6957.935855
1097.297127,148.041188,-2987.772442,4885.359217
1097.297457,1036.288319,-536.266849,4293.194464
1097.297786,1332.370696,1608.800546,7179.997637
1097.298115,1702.473667,8963.317327,10362.883188
1097.298445,1924.535449,10189.070123,12287.418637
1097.298774,1998.556043,7584.345430,11843.295072
1097.299104,1036.288319,6741.640382,10436.903782
1097.299433,-2072.576638,1915.238745,8364.327145
1097.299763,-3108.864956,-3447.429741,7328.038826
1097.300092,-1924.535449,-5515.887586,8290.306550
1097.300422,-666.185348,-4903.011187,8882.471304
1097.300751,-3108.864956,-3294.210641,6883.915261
1097.301080,-6217.729913,-3447.429741,6957.935855
1097.301410,-4737.318029,-1302.362347,8882.471304
1097.301739,-814.226536,1455.581446,9696.697840
1097.302069,1332.370696,3294.210641,10288.862594
1097.302398,2368.659014,5669.106685,10362.883188
1097.302728,-592.164754,4366.744339,9696.697840
1097.303057,-962.267725,2298.286494,9918.759623
1097.303387,74.020594,1378.971896,11177.109724
1097.303716,1184.329507,842.705048,11473.192101
1097.304045,-666.185348,0.000000,10362.883188
1097.304375,-4663.297435,-3600.648841,10732.986159
1097.304704,-5921.647536,-2604.724693,11399.171507
1097.305034,-4737.318029,-306.438199,11769.274478
1097.305363,-1998.556043,0.000000,11843.295072
1097.305693,-518.144159,1762.019645,11029.068536
1097.306022,-592.164754,1991.848295,9474.636058
1097.306352,74.020594,2221.676944,8142.265362
1097.306681,3182.885551,2145.067394,7846.182985
1097.307010,5255.462188,3064.381992,9030.512492
1097.307340,4441.235652,4749.792088,10140.821405
1097.307669,814.226536,3217.601092,10066.800811
1097.307999,-2220.617826,1532.190996,10066.800811
1097.308328,-4145.153275,995.924147,10066.800811
1097.308658,-4441.235652,2374.896044,10584.944971
1097.308987,-2886.803174,1685.410096,9992.780217
1097.309317,-1554.432478,-1455.581446,7920.203579
1097.309646,-1480.411884,-1608.800546,6661.853478
1097.309975,-1480.411884,995.924147,4885.359217
1097.310305,222.061783,2145.067394,5107.421000
1097.310634,3627.009116,1532.190996,7254.018232
1097.310964,3997.112087,2145.067394,8586.388927
1097.311293,814.226536,3064.381992,8512.368333
1097.311623,-3404.947333,1685.410096,8438.347739
1097.311952,-4367.215058,1991.848295,9770.718434
1097.312282,-3404.947333,1838.629195,11103.089130
1097.312611,-3034.844362,-459.657299,11177.109724
1097.312940,-2294.638420,-2068.457845,9326.594869
1097.313270,-2368.659014,-3447.429741,7698.141797
1097.313599,-444.123565,-2604.724693,7402.059420
1097.313929,1480.411884,0.000000,9252.574275
1097.314258,4219.173869,1532.190996,11325.150913
1097.314588,4811.338623,4213.525239,10881.027347
1097.314917,1628.453072,3907.087040,9400.615463
1097.315247,-2590.720797,1685.410096,10732.986159
1097.315576,-4737.318029,2221.676944,14952.160028
1097.315905,-5551.544565,4060.306139,16802.674883
1097.316235,-6291.750507,1685.410096,13545.768739
1097.316564,-6587.832884,-4290.134789,10732.986159
1097.316894,-5995.668130,-5362.668486,8438.347739
1097.317223,-2072.576638,-4213.525239,7698.141797
1097.317553,2812.782580,-4366.744339,8364.327145
1097.317882,4367.215058,-995.924147,8956.491898
1097.318212,2072.576638,4979.620737,9400.615463
1097.318541,-296.082377,6128.763984,10214.842000
1097.318870,-740.205942,5132.839837,11769.274478
1097.319200,-518.144159,6052.154434,11769.274478
1097.319529,-296.082377,5745.716235,10584.944971
1097.319859,-222.061783,1378.971896,8808.450710
1097.320188,-1702.473667,-1838.629195,6883.915261
1097.320518,-2738.761985,-2987.772442,5699.585753
1097.320847,-1850.514855,-3370.820191,5921.647536
1097.321177,-518.144159,-1302.362347,7846.182985
1097.321506,0.000000,1149.143247,8808.450710
1097.321835,-1924.535449,2298.286494,6217.729913
1097.322165,-3478.967927,2374.896044,6143.709319
1097.322494,-2368.659014,3524.039291,7772.162391
1097.322824,-1332.370696,4826.401637,10214.842000
1097.323153,-1998.556043,4290.134789,10584.944971
1097.323483,-3849.070898,1455.581446,8660.409521
1097.323812,-4219.173869,-2374.896044,7105.977043
1097.324142,-3627.009116,-2757.943793,7105.977043
1097.324471,-1332.370696,-1378.971896,8808.450710
1097.324801,1554.432478,-1685.410096,10436.903782
1097.325130,2368.659014,76.609550,10288.862594
1097.325459,-518.144159,1685.410096,9696.697840
1097.325789,-2442.679609,2834.553343,11547.212695
1097.326118,-1702.473667,3600.648841,14211.954086
1097.326448,-1184.329507,5515.887586,15396.283594
1097.326777,-1480.411884,5209.449386,13767.830521
1097.327107,-1776.494261,0.000000,10807.006753
1097.327436,-592.164754,-2757.943793,9548.656652
1097.327766,222.061783,-1915.238745,9178.553681
1097.328095,740.205942,-995.924147,9844.739029
1097.328424,1110.308913,229.828649,10436.903782
1097.328754,1036.288319,1149.143247,10658.965565
1097.329083,-1628.453072,1532.190996,9770.718434
1097.329413,-3330.926739,3294.210641,10140.821405
1097.329742,-2220.617826,4903.011187,11473.192101
1097.330072,74.020594,4213.525239,10807.006753
1097.330401,-148.041188,3064.381992,8956.491898
1097.330731,-2220.617826,919.314598,6587.832884
1097.331060,-1702.473667,-536.266849,6217.729913
1097.331389,518.144159,-842.705048,6291.750507
1097.331719,1554.432478,0.000000,6217.729913
1097.332048,1406.391290,0.000000,6661.853478
1097.332378,444.123565,-153.219100,6291.750507
1097.332707,-1924.535449,1302.362347,7994.224174
1097.333037,-4145.153275,3370.820191,9548.656652
1097.333366,-4367.215058,4903.011187,10658.965565
1097.333696,-2220.617826,2451.505594,10510.924376
1097.334025,-1850.514855,-1378.971896,8956.491898
1097.334354,-2738.761985,-1685.410096,6883.915261
1097.334684,-1628.453072,-1685.410096,6365.771101
1097.335013,2960.823768,-2911.162892,7550.100608
1097.335343,4811.338623,-1225.752797,9178.553681
1097.335672,2294.638420,1915.238745,8956.491898
1097.336002,-1480.411884,1762.019645,10510.924376
1097.336331,-3552.988522,76.609550,12583.501014
1097.336661,-4219.173869,3983.696590,14285.974681
1097.336990,-3849.070898,4366.744339,14582.057057
1097.337319,-2960.823768,-995.924147,13323.706956
1097.337649,-3256.906145,-3294.210641,11473.192101
1097.337978,-2812.782580,-2757.943793,9548.656652
1097.338308,-444.123565,-2528.115143,9844.739029
1097.338637,2516.700203,-1915.238745,11103.089130
1097.338967,2738.761985,842.705048,11621.233289
1097.339296,814.226536,3370.820191,10881.027347
1097.339626,-814.226536,2374.896044,11325.150913
1097.339955,-888.247130,3370.820191,11695.253884
1097.340284,-592.164754,5286.058936,12065.356855
1097.340614,-1480.411884,3983.696590,11029.068536
1097.340943,-2146.597232,995.924147,9252.574275
1097.341273,-2146.597232,-2451.505594,7402.059420
1097.341602,-2146.597232,-2681.334243,6217.729913
1097.341932,-1776.494261,-1762.019645,6439.791695
1097.342261,0.000000,-306.438199,7254.018232
1097.342591,1850.514855,1991.848295,7402.059420
1097.342920,666.185348,2298.286494,6291.750507
1097.343249,-1850.514855,2987.772442,6439.791695
1097.343579,-2960.823768,5056.230287,7698.141797
1097.343908,-2516.700203,5362.668486,10140.821405
1097.344238,-2072.576638,3983.696590,10436.903782
1097.344567,-4293.194464,1685.410096,7846.182985
1097.344897,-4367.215058,-1685.410096,5033.400406
1097.345226,-2812.782580,-4136.915689,4885.359217
1097.345556,222.061783,-3447.429741,7920.203579
1097.345885,2072.576638,0.000000,9918.759623
1097.346214,1332.370696,1302.362347,9178.553681
1097.346544,-1332.370696,1608.800546,8882.471304
1097.346873,-2886.803174,2757.943793,10881.027347
1097.347203,-2368.659014,5362.668486,13841.851115
1097.347532,-1258.350101,5056.230287,14211.954086
1097.347862,-1258.350101,2451.505594,12583.501014
1097.348191,-2220.617826,-1225.752797,10288.862594
1097.348521,-2368.659014,-2528.115143,9992.780217
1097.348850,-1332.370696,-3064.381992,10807.006753
1097.349179,222.061783,-1991.848295,11843.295072
1097.349509,1110.308913,-153.219100,11399.171507
1097.349838,666.185348,689.485948,11251.130318
1097.350168,-1184.329507,1302.362347,11843.295072
1097.350497,-1998.556043,3907.087040,12805.562797
1097.350827,-1776.494261,5132.839837,12435.459826
1097.351156,-740.205942,4596.572988,12213.398043
1097.351486,-1332.370696,1762.019645,9844.739029
1097.351815,-1850.514855,-842.705048,7624.121203
1097.352144,-1332.370696,-2374.896044,5995.668130
1097.352474,1258.350101,-1915.238745,5995.668130
1097.352803,2886.803174,-766.095498,6513.812290
1097.353133,2738.761985,383.047749,7550.100608
1097.353462,0.000000,2145.067394,7994.224174
1097.353792,-3627.009116,3753.867940,7846.182985
1097.354121,-3849.070898,5745.716235,8808.450710
1097.354451,-2072.576638,4136.915689,10362.883188
1097.354780,-888.247130,1685.410096,10658.965565
1097.355109,-2516.700203,306.438199,7550.100608
1097.355439,-3182.885551,-2528.115143,5181.441594
1097.355768,-1184.329507,-3524.039291,5107.421000
1097.356098,814.226536,-1838.629195,6587.832884
1097.356427,1332.370696,1225.752797,6809.894666
1097.356757,296.082377,995.924147,7254.018232
1097.357086,-148.041188,-842.705048,8956.491898
1097.357416,-2368.659014,3524.039291,10288.862594
1097.357745,-3552.988522,4443.353888,11991.336260
1097.358075,-4219.173869,2145.067394,13545.768739
1097.358404,-3627.009116,1378.971896,14211.954086
1097.358733,-3627.009116,-383.047749,12509.480420
1097.359063,-2516.700203,-4136.915689,9992.780217
1097.359392,-888.247130,-3370.820191,10066.800811
1097.359722,888.247130,-1149.143247,11843.295072
1097.360051,2368.659014,-383.047749,13397.727550
1097.360381,962.267725,1838.629195,12139.377449
1097.360710,-888.247130,3753.867940,11325.150913
1097.361040,-1110.308913,3370.820191,12213.398043
1097.361369,-1110.308913,4673.182538,13841.851115
1097.361698,-1184.329507,5056.230287,13101.645173
1097.362028,-1110.308913,612.876398,9918.759623
1097.362357,-1924.535449,-2604.724693,6587.832884
1097.362687,-1776.494261,-2145.067394,6587.832884
1097.363016,-148.041188,-1915.238745,7476.080014
1097.363346,1406.391290,-1455.581446,8216.285956
1097.363675,2368.659014,1608.800546,8364.327145
1097.364005,-444.123565,4136.915689,6661.853478
1097.364334,-1850.514855,3677.258390,6513.812290
1097.364663,-1406.391290,2681.334243,9030.512492
1097.364993,-1258.350101,4136.915689,11029.068536
1097.365322,-3034.844362,3677.258390,9622.677246
1097.365652,-5329.482782,1378.971896,5995.668130
1097.365981,-4737.318029,-1991.848295,5033.400406
1097.366311,-1998.556043,-3447.429741,5255.462188
1097.366640,814.226536,-2451.505594,5551.544565
1097.366970,2072.576638,-1532.190996,6513.812290
1097.367299,2220.617826,153.219100,6365.771101
1097.367628,-518.144159,2681.334243,8438.347739
1097.367958,-3404.947333,4519.963438,9696.697840
1097.368287,-3552.988522,4749.792088,11843.295072
1097.368617,-1480.411884,3753.867940,13767.830521
1097.368946,-1702.473667,3140.991542,13841.851115
1097.369276,-3404.947333,-306.438199,10510.924376
1097.369605,-3701.029710,-4366.744339,9474.636058
1097.369935,-1480.411884,-3447.429741,10732.986159
1097.370264,0.000000,-1685.410096,12509.480420
1097.370593,296.082377,-459.657299,13323.706956
1097.370923,-888.247130,1072.533697,12657.521608
1097.371252,-2294.638420,3370.820191,11843.295072
1097.371582,-1776.494261,4060.306139,12213.398043
1097.371911,-814.226536,4596.572988,13471.748144
1097.372241,-148.041188,4519.963438,13101.645173
1097.372570,-1332.370696,1991.848295,10658.965565
1097.372900,-3108.864956,-1072.533697,7920.203579
1097.373229,-2590.720797,-1455.581446,6957.935855
1097.373558,222.061783,-919.314598,7846.182985
1097.373888,2812.782580,-1378.971896,9326.594869
1097.374217,2738.761985,1532.190996,8956.491898
1097.374547,-444.123565,3677.258390,6365.771101
1097.374876,-1406.391290,3294.210641,6661.853478
1097.375206,-888.247130,2298.286494,8364.327145
1097.375535,-518.144159,4519.963438,10436.903782
1097.375864,-296.082377,4673.182538,10436.903782
1097.376194,-962.267725,766.095498,8068.244768
1097.376523,-2442.679609,-306.438199,3627.009116
1097.376853,-2886.803174,-1302.362347,2146.597232
1097.377182,74.020594,-3140.991542,4737.318029
1097.377512,2664.741391,-1072.533697,7476.080014
1097.377841,1480.411884,995.924147,7550.100608
1097.378170,-1628.453072,1685.410096,7550.100608
1097.378500,-4219.173869,2374.896044,9104.533087
1097.378829,-3923.091493,3753.867940,11473.192101
1097.379159,-1702.473667,1991.848295,13619.789333
1097.379488,-1628.453072,1072.533697,12953.603985
1097.379818,-4071.132681,1685.410096,9548.656652
1097.380147,-3627.009116,-3294.210641,8512.368333
1097.380476,-666.185348,-5286.058936,9918.759623
1097.380806,1110.308913,-2145.067394,11547.212695
1097.381135,1406.391290,0.000000,12139.377449
1097.381465,666.185348,766.095498,12361.439231
1097.381794,-1110.308913,1838.629195,12731.542202
1097.382124,-2368.659014,2604.724693,13841.851115
1097.382453,-2072.576638,2681.334243,15248.242405
1097.382782,-1850.514855,3600.648841,14952.160028
1097.383112,-1998.556043,2451.505594,11621.233289
1097.383441,-1406.391290,-1302.362347,9178.553681
1097.383771,-444.123565,-2451.505594,7846.182985
1097.384100,1924.535449,-2528.115143,8808.450710
1097.384430,2812.782580,-689.485948,8956.491898
1097.384759,2072.576638,1685.410096,8734.430116
1097.385088,592.164754,2451.505594,8586.388927
1097.385418,-888.247130,2451.505594,9030.512492
1097.385747,-2072.576638,3830.477490,10288.862594
1097.386077,-1998.556043,3753.867940,10066.800811
1097.386406,-518.144159,2834.553343,9178.553681
1097.386736,-1480.411884,2145.067394,6365.771101
1097.387065,-2590.720797,0.000000,4293.194464
1097.387395,-1554.432478,-2528.115143,3256.906145
1097.387724,1332.370696,-1838.629195,4293.194464
1097.388053,3478.967927,1072.533697,6217.729913
1097.388383,1924.535449,1991.848295,7254.018232
1097.388712,-2516.700203,2834.553343,6883.915261
1097.389042,-4737.318029,3217.601092,7846.182985
1097.389371,-3997.112087,2834.553343,10807.006753
1097.389701,-3552.988522,3600.648841,12583.501014
1097.390030,-4589.276840,2681.334243,11177.109724
1097.390359,-4663.297435,-1608.800546,8290.306550
1097.390689,-3478.967927,-4826.401637,7254.018232
1097.391018,-1628.453072,-3983.696590,8216.285956
1097.391348,666.185348,-1455.581446,11325.150913
1097.391677,2146.597232,383.047749,12731.542202
1097.392007,592.164754,3140.991542,12879.583391
1097.392336,-2072.576638,2528.115143,12361.439231
1097.392665,-1850.514855,3370.820191,13693.809927
1097.392995,0.000000,4826.401637,14952.160028
1097.393324,0.000000,3217.601092,14359.995275
1097.393654,-1332.370696,689.485948,11399.171507
1097.393983,-2294.638420,-1608.800546,9844.739029
1097.394313,-1480.411884,-1762.019645,9770.718434
1097.394642,0.000000,-2451.505594,11103.089130
1097.394971,444.123565,0.000000,11177.109724
1097.395301,592.164754,2298.286494,10140.821405
1097.395630,0.000000,153.219100,9696.697840
1097.395960,-666.185348,306.438199,10362.883188
1097.396289,-1924.535449,3294.210641,11473.192101
1097.396619,-1850.514855,5286.058936,9400.615463
1097.396948,-1850.514855,3677.258390,7105.977043
1097.397277,-2146.597232,229.828649,5107.421000
1097.397607,-1776.494261,-536.266849,3849.070898
1097.397936,0.000000,-2145.067394,2590.720797
1097.398266,1480.411884,-3064.381992,4515.256246
1097.398595,1628.453072,306.438199,7105.977043
1097.398925,148.041188,3447.429741,7624.121203
1097.399254,-2294.638420,1532.190996,7031.956449
1097.399583,-3478.967927,-459.657299,8586.388927
1097.399913,-3701.029710,3217.601092,11473.192101
1097.400242,-2368.659014,5669.106685,13175.665768
1097.400572,-1036.288319,306.438199,11917.315666
1097.400901,-2368.659014,-842.705048,7624.121203
1097.401231,-2738.761985,-2374.896044,4737.318029
1097.401560,666.185348,-4366.744339,5255.462188
1097.401889,4737.318029,-2604.724693,9252.574275
1097.402219,5625.565159,0.000000,12065.356855
1097.402548,1406.391290,2834.553343,11621.233289
1097.402878,-2812.782580,2834.553343,11695.253884
1097.403207,-2516.700203,2681.334243,14211.954086
1097.403537,-666.185348,3294.210641,16284.530724
1097.403866,-1480.411884,2451.505594,15544.324782
1097.404196,-2368.659014,919.314598,12361.439231
1097.404525,-2294.638420,-3140.991542,10584.944971
1097.404854,-1258.350101,-3524.039291,9548.656652
1097.405184,-444.123565,-1532.190996,10214.842000
1097.405513,814.226536,-766.095498,11621.233289
1097.405843,1554.432478,1685.410096,12065.356855
1097.406172,-666.185348,2451.505594,10658.965565
1097.406502,-2516.700203,3294.210641,10214.842000
1097.406831,-2590.720797,3294.210641,9474.636058
1097.407160,-518.144159,3294.210641,10658.965565
1097.407490,-296.082377,3600.648841,10288.862594
1097.407819,-1480.411884,2681.334243,7105.977043
1097.408149,-2146.597232,-153.219100,3552.988522
1097.408478,444.123565,-1608.800546,2516.700203
1097.408808,1998.556043,-1685.410096,4737.318029
1097.409137,2442.679609,766.095498,6957.935855
1097.409466,518.144159,2221.676944,8142.265362
1097.409796,-2442.679609,4519.963438,8438.347739
1097.410125,-5255.462188,5209.449386,8364.327145
1097.410455,-5107.421000,4136.915689,9622.677246
1097.410784,-2368.659014,2911.162892,10732.986159
1097.411114,-1628.453072,1072.533697,9178.553681
1097.411443,-3034.844362,-306.438199,5477.523971
1097.411772,-3552.988522,-1302.362347,3478.967927
1097.412102,-592.164754,-3140.991542,5181.441594
1097.412431,2220.617826,-2604.724693,8956.491898
1097.412761,962.267725,1072.533697,11251.130318
1097.413090,-1332.370696,4366.744339,11325.150913
1097.413420,-1998.556043,4290.134789,11991.336260
1097.413749,-2516.700203,2757.943793,12435.459826
1097.414078,-1998.556043,3217.601092,13841.851115
1097.414408,-1554.432478,1685.410096,14285.974681
1097.414737,-1554.432478,-1225.752797,14211.954086
1097.415067,-3701.029710,0.000000,12065.356855
1097.415396,-4145.153275,-536.266849,10732.986159
1097.415726,-1628.453072,-2987.772442,11029.068536
1097.416055,1924.535449,-2451.505594,12287.418637
1097.416384,3182.885551,-1378.971896,12731.542202
1097.416714,1628.453072,229.828649,11029.068536
1097.417043,-740.205942,1685.410096,11325.150913
1097.417373,-1924.535449,4903.011187,10732.986159
1097.417702,-1258.350101,5056.230287,9252.574275
1097.418032,0.000000,1991.848295,9104.533087
1097.418361,518.144159,2528.115143,8586.388927
1097.418691,-888.247130,1378.971896,6069.688724
1097.419020,-1628.453072,-2451.505594,4737.318029
1097.419349,-740.205942,-383.047749,6291.750507
1097.419679,296.082377,1455.581446,7994.224174
1097.420008,222.061783,612.876398,6809.894666
1097.420338,-3108.864956,0.000000,5995.668130
1097.420667,-4811.338623,2221.676944,7105.977043
1097.420997,-4737.318029,3600.648841,10140.821405
1097.421326,-3034.844362,1149.143247,10955.047942
1097.421655,-3182.885551,2451.505594,8290.306550
1097.421985,-3627.009116,0.000000,4515.256246
1097.422314,-1628.453072,-2911.162892,4367.215058
1097.422644,1480.411884,-2221.676944,5921.647536
1097.422973,3108.864956,-919.314598,8290.306550
1097.423303,2442.679609,842.705048,10066.800811
1097.423632,-518.144159,3600.648841,11621.233289
1097.423961,-3034.844362,3447.429741,12287.418637
1097.424291,-3256.906145,2145.067394,13101.645173
1097.424620,-1554.432478,1838.629195,14211.954086
1097.424950,0.000000,1532.190996,13471.748144
1097.425279,296.082377,-2068.457845,12805.562797
1097.425609,-814.226536,-3294.210641,11029.068536
1097.425938,-1702.473667,-1378.971896,10732.986159
1097.426267,-296.082377,-1225.752797,11399.171507
1097.426597,2664.741391,229.828649,12657.521608
1097.426926,3923.091493,2221.676944,12879.583391
1097.427256,2294.638420,1915.238745,11029.068536
1097.427585,370.102971,1608.800546,10362.883188
1097.427915,-740.205942,2987.772442,11399.171507
1097.428244,-296.082377,3907.087040,12583.501014
1097.428573,-666.185348,3447.429741,11399.171507
1097.428903,-1110.308913,1302.362347,8660.409521
1097.429232,-962.267725,-689.485948,5403.503377
1097.429562,0.000000,-2911.162892,4589.276840
1097.429891,1776.494261,-1838.629195,6365.771101
1097.430221,2294.638420,995.924147,8660.409521
1097.430550,1332.370696,2834.553343,9252.574275
1097.430879,-2442.679609,4596.572988,8068.244768
1097.431209,-4737.318029,3830.477490,8216.285956
1097.431538,-4071.132681,3370.820191,8364.327145
1097.431868,-2516.700203,3140.991542,9326.594869
1097.432197,-1628.453072,1762.019645,7994.224174
1097.432527,-2590.720797,612.876398,4145.153275
1097.432856,-1850.514855,-2528.115143,2294.638420
1097.433185,222.061783,-3907.087040,3552.988522
1097.433515,1628.453072,-1149.143247,6883.915261
1097.433844,1480.411884,1685.410096,8882.471304
1097.434174,148.041188,2987.772442,9992.780217
1097.434503,-2368.659014,2911.162892,11325.150913
1097.434833,-4737.318029,3677.258390,12065.356855
1097.435162,-3849.070898,3447.429741,13841.851115
1097.435492,-2368.659014,1991.848295,14804.118840
1097.435821,-2738.761985,1072.533697,13693.809927
1097.436150,-5329.482782,-1991.848295,11473.192101
1097.436480,-5181.441594,-2911.162892,10881.027347
1097.436809,-2072.576638,-2604.724693,11547.212695
1097.437139,888.247130,-2604.724693,11843.295072
1097.437468,2294.638420,-995.924147,11769.274478
1097.437798,1258.350101,-383.047749,12139.377449
1097.438127,-666.185348,2757.943793,11769.274478
1097.438456,-3330.926739,4519.963438,10436.903782
1097.438786,-2294.638420,3370.820191,11769.274478
1097.439115,148.041188,2834.553343,12435.459826
1097.439445,-222.061783,1149.143247,10510.924376
1097.439774,-1702.473667,-1608.800546,7476.080014
1097.440104,-1406.391290,-1149.143247,6439.791695
1097.440433,1406.391290,459.657299,6957.935855
1097.440762,4293.194464,76.609550,8068.244768
1097.441092,3552.988522,0.000000,7994.224174
1097.441421,-592.164754,4290.134789,7105.977043
1097.441751,-2664.741391,5209.449386,8216.285956
1097.442080,-2072.576638,1838.629195,9696.697840
1097.442410,-2442.679609,3677.258390,9400.615463
1097.442739,-3256.906145,2757.943793,7031.956449
1097.443068,-2146.597232,-995.924147,5181.441594
1097.443398,-444.123565,-4060.306139,3849.070898
1097.443727,-296.082377,-1915.238745,3775.050304
1097.444057,1036.288319,-1378.971896,5033.400406
1097.444386,2442.679609,-689.485948,7624.121203
1097.444716,1036.288319,2834.553343,9326.594869
1097.445045,-1332.370696,3140.991542,10584.944971
1097.445374,-3330.926739,3600.648841,11547.212695
1097.445704,-2442.679609,4596.572988,12879.583391
1097.446033,-1998.556043,842.705048,14211.954086
1097.446363,-2220.617826,-153.219100,13841.851115
1097.446692,-3108.864956,-383.047749,11695.253884
1097.447022,-3108.864956,-3294.210641,9770.718434
1097.447351,-222.061783,-3907.087040,10658.965565
1097.447680,1776.494261,-1838.629195,12139.377449
1097.448010,3923.091493,995.924147,11917.315666
1097.448339,2812.782580,76.609550,11769.274478
1097.448669,-740.205942,2604.724693,12583.501014
1097.448998,-2960.823768,5898.935335,13915.871710
1097.449328,-1924.535449,5132.839837,14211.954086
1097.449657,0.000000,3217.601092,12879.583391
1097.449986,-296.082377,689.485948,9770.718434
1097.450316,-1998.556043,-2528.115143,6735.874072
1097.450645,-1776.494261,-3217.601092,6365.771101
1097.450975,370.102971,-2451.505594,7846.182985
1097.451304,1702.473667,612.876398,9400.615463
1097.451634,592.164754,2604.724693,8438.347739
1097.451963,-2072.576638,3447.429741,7920.203579
1097.452293,-2590.720797,3140.991542,8364.327145
1097.452622,-3256.906145,4366.744339,9252.574275
1097.452951,-2516.700203,6052.154434,8734.430116
1097.453281,-1776.494261,3447.429741,7105.977043
1097.453610,-2812.782580,-459.657299,5181.441594
1097.453940,-3108.864956,-1762.019645,3182.885551
1097.454269,-2072.576638,-2145.067394,3627.009116
1097.454599,888.247130,-1302.362347,4885.359217
1097.454928,2220.617826,383.047749,6809.894666
1097.455257,296.082377,536.266849,7994.224174
1097.455587,-2812.782580,2145.067394,9474.636058
1097.455916,-4367.215058,3294.210641,10584.944971
1097.456246,-4145.153275,4903.011187,12583.501014
1097.456575,-3182.885551,3677.258390,14137.933492
1097.456905,-3478.967927,1762.019645,13545.768739
1097.457234,-3701.029710,-459.657299,10362.883188
1097.457563,-2516.700203,-4443.353888,8734.430116
1097.457893,148.041188,-4749.792088,10214.842000
1097.458222,2368.659014,-995.924147,12731.542202
1097.458552,3478.967927,842.705048,12731.542202
1097.458881,1554.432478,1608.800546,9992.780217
1097.459211,-1332.370696,2451.505594,9992.780217
1097.459540,-1480.411884,2757.943793,13619.789333
1097.459869,-518.144159,3907.087040,16876.695478
1097.460199,-1406.391290,3600.648841,15766.386565
1097.460528,-3108.864956,1455.581446,11473.192101
1097.460858,-2960.823768,-1685.410096,8734.430116
1097.461187,0.000000,-2681.334243,8364.327145
1097.461517,2664.741391,-3447.429741,8512.368333
1097.461846,3256.906145,-1532.190996,7920.203579
1097.462175,1924.535449,3447.429741,7698.141797
1097.462505,0.000000,3140.991542,8956.491898
1097.462834,-1554.432478,3677.258390,9918.759623
1097.463164,-3552.988522,5209.449386,8808.450710
1097.463493,-2812.782580,4596.572988,7698.141797
1097.463823,-888.247130,995.924147,7179.997637
1097.464152,-1332.370696,-459.657299,5625.565159
1097.464481,-2368.659014,-2221.676944,3849.070898
1097.464811,-2368.659014,-3217.601092,3997.112087
1097.465140,-962.267725,-612.876398,4959.379811
1097.465470,1406.391290,1532.190996,6439.791695
1097.465799,1110.308913,1991.848295,8290.306550
1097.466129,-1628.453072,3753.867940,7920.203579
1097.466458,-3182.885551,4213.525239,9400.615463
1097.466787,-2294.638420,2528.115143,11843.295072
1097.467117,-1628.453072,3677.258390,13471.748144
1097.467446,-3478.967927,2221.676944,12139.377449
1097.467776,-4515.256246,-2298.286494,10436.903782
1097.468105,-3849.070898,-3447.429741,9104.533087
1097.468435,-962.267725,-2298.286494,9400.615463
1097.468764,2886.803174,-2604.724693,10436.903782
1097.469094,3775.050304,-1532.190996,11251.130318
1097.469423,1258.350101,1378.971896,11547.212695
1097.469752,-1924.535449,3064.381992,12583.501014
1097.470082,-1776.494261,4366.744339,14137.933492
1097.470411,-444.123565,5132.839837,15692.365970
1097.470741,-592.164754,3140.991542,14804.118840
1097.471070,-1998.556043,229.828649,11991.336260
1097.471400,-2368.659014,-2068.457845,9696.697840
1097.471729,-888.247130,-2911.162892,8956.491898
1097.472058,740.205942,-1838.629195,9030.512492
1097.472388,1110.308913,-383.047749,9474.636058
1097.472717,1036.288319,766.095498,8216.285956
1097.473047,-518.144159,1915.238745,8068.244768
1097.473376,-1998.556043,3677.258390,8808.450710
1097.473706,-3034.844362,5362.668486,9844.739029
1097.474035,-2442.679609,5515.887586,9252.574275
1097.474364,-962.267725,3294.210641,8068.244768
1097.474694,-962.267725,919.314598,5699.585753
1097.475023,-1036.288319,-1685.410096,3849.070898
1097.475353,-740.205942,-2068.457845,3108.864956
1097.475682,518.144159,-1762.019645,5033.400406
1097.476012,1184.329507,76.609550,6809.894666
1097.476341,-296.082377,2681.334243,7920.203579
1097.476671,-2738.761985,3217.601092,8734.430116
1097.477000,-4441.235652,3600.648841,9844.739029
1097.477329,-4663.297435,3677.258390,11547.212695
1097.477659,-3108.864956,2911.162892,12361.439231
1097.477988,-2960.823768,842.705048,11325.150913
1097.478318,-3478.967927,-2145.067394,8660.409521
1097.478647,-2146.597232,-2911.162892,7624.121203
1097.478977,740.205942,-1762.019645,8216.285956
1097.479306,3256.906145,-459.657299,8216.285956
1097.479635,3404.947333,-1302.362347,9030.512492
1097.479965,1480.411884,1608.800546,11843.295072
1097.480294,-1776.494261,3907.087040,14137.933492
1097.480624,-3108.864956,3294.210641,16284.530724
1097.480953,-3701.029710,3600.648841,17172.777854
1097.481283,-3256.906145,3524.039291,16284.530724
1097.481612,-2886.803174,-1072.533697,12583.501014
1097.481942,-2146.597232,-4979.620737,9696.697840
1097.482271,-1110.308913,-3447.429741,7994.224174
1097.482600,1110.308913,-1225.752797,8068.244768
1097.482930,3775.050304,-1532.190996,9178.553681
1097.483259,4145.153275,1762.019645,8512.368333
1097.483589,814.226536,3524.039291,7994.224174
1097.483918,-1406.391290,3677.258390,9178.553681
1097.484248,-1702.473667,6588.421283,11029.068536
1097.484577,-518.144159,6665.030833,12139.377449
1097.484906,-1480.411884,2681.334243,10362.883188
1097.485236,-2960.823768,306.438199,7328.038826
1097.485565,-3701.029710,-1149.143247,4663.297435
1097.485895,-1924.535449,-2911.162892,3627.009116
1097.486224,296.082377,-2911.162892,4145.153275
1097.486554,1776.494261,459.657299,5625.565159
1097.486883,962.267725,1532.190996,5847.626942
1097.487213,-2442.679609,1455.581446,6809.894666
1097.487542,-4885.359217,5056.230287,8660.409521
1097.487871,-4959.379811,5975.544884,11177.109724
1097.488201,-3701.029710,4290.134789,11695.253884
1097.488530,-3330.926739,1455.581446,11325.150913
1097.488860,-4071.132681,-1532.190996,8142.265362
1097.489189,-2812.782580,-3217.601092,5847.626942
1097.489519,0.000000,-4443.353888,6809.894666
1097.489848,2220.617826,-2451.505594,9622.677246
1097.490177,2368.659014,842.705048,11103.089130
1097.490507,222.061783,2298.286494,11621.233289
1097.490836,-1332.370696,2528.115143,12583.501014
1097.491166,-1850.514855,4136.915689,14285.974681
1097.491495,-1110.308913,4673.182538,16358.551318
1097.491825,-518.144159,2221.676944,15470.304188
1097.492154,-1110.308913,-229.828649,13101.645173
1097.492484,-2220.617826,-1378.971896,10288.862594
1097.492813,-1628.453072,-2298.286494,9030.512492
1097.493142,888.247130,-2681.334243,9622.677246
1097.493472,2368.659014,-1915.238745,10214.842000
1097.493801,2220.617826,995.924147,9548.656652
1097.494131,-370.102971,2298.286494,9030.512492
1097.494460,-2220.617826,2987.772442,9918.759623
1097.494790,-3256.906145,5132.839837,11473.192101
1097.495119,-2960.823768,5209.449386,11399.171507
1097.495448,-1480.411884,3907.087040,10436.903782
1097.495778,-1406.391290,-229.828649,7105.977043
1097.496107,-2072.576638,-1225.752797,4071.132681
1097.496437,-888.247130,-2757.943793,3775.050304
1097.496766,1480.411884,-2221.676944,5847.626942
1097.497096,2368.659014,1149.143247,6143.709319
1097.497425,1184.329507,2068.457845,5921.647536
1097.497755,-1480.411884,2451.505594,7031.956449
1097.498084,-2590.720797,3370.820191,10066.800811
1097.498413,-3330.926739,3983.696590,12435.459826
1097.498743,-2664.741391,3064.381992,13027.624579
1097.499072,-3108.864956,3370.820191,10066.800811
1097.499402,-3997.112087,919.314598,4811.338623
1097.499731,-2146.597232,-3447.429741,3034.844362
1097.500061,1258.350101,-5209.449386,5181.441594
1097.500390,3108.864956,-1378.971896,7772.162391
1097.500719,2294.638420,842.705048,9474.636058
1097.501049,-814.226536,1991.848295,11325.150913
1097.501378,-3849.070898,4136.915689,13693.809927
1097.501708,-3923.091493,4596.572988,15248.242405
1097.502037,-1554.432478,1685.410096,16284.530724
1097.502367,-1110.308913,1838.629195,14952.160028
1097.502696,-2738.761985,1302.362347,12731.542202
1097.503026,-2738.761985,-1378.971896,10807.006753
1097.503355,-444.123565,-3447.429741,10658.965565
1097.503684,1258.350101,-1838.629195,9992.780217
1097.504014,2442.679609,-536.266849,9178.553681
1097.504343,3256.906145,153.219100,9326.594869
1097.504673,1184.329507,2298.286494,9548.656652
1097.505002,-1406.391290,3830.477490,10881.027347
1097.505332,-2664.741391,4213.525239,12287.418637
1097.505661,-1850.514855,5669.106685,12213.398043
1097.505990,-962.267725,4443.353888,11325.150913
1097.506320,-1554.432478,306.438199,7846.182985
1097.506649,-2220.617826,-1915.238745,4737.318029
1097.506979,-888.247130,-3447.429741,4293.194464
1097.507308,1554.432478,-2221.676944,6291.750507
1097.507638,1480.411884,1302.362347,7105.977043
1097.507967,518.144159,2757.943793,7031.956449
1097.508297,-3108.864956,2528.115143,7402.059420
1097.508626,-4959.379811,4060.306139,8438.347739
1097.508955,-4589.276840,4749.792088,9474.636058
1097.509285,-2516.700203,2911.162892,10214.842000
1097.509614,-2812.782580,919.314598,9326.594869
1097.509944,-4663.297435,-536.266849,6217.729913
1097.510273,-4367.215058,-3140.991542,3404.947333
1097.510603,-888.247130,-3677.258390,4885.359217
1097.510932,2072.576638,-1302.362347,8882.471304
1097.511261,1480.411884,1685.410096,10955.047942
1097.511591,-1184.329507,2068.457845,10214.842000
1097.511920,-2886.803174,2528.115143,11251.130318
1097.512250,-2442.679609,2528.115143,13545.768739
1097.512579,-1702.473667,3064.381992,15174.221811
1097.512909,-1184.329507,2451.505594,15026.180623
1097.513238,-1554.432478,0.000000,13323.706956
1097.513568,-1998.556043,-1991.848295,10214.842000
1097.513897,-814.226536,-3600.648841,8438.347739
1097.514226,2146.597232,-3677.258390,9844.739029
1097.514556,4441.235652,-1378.971896,11843.295072
1097.514885,2886.803174,1915.238745,10955.047942
1097.515215,-370.102971,2374.896044,9770.718434
1097.515544,-1850.514855,2298.286494,11547.212695
1097.515874,-1924.535449,4060.306139,13619.789333
1097.516203,-1998.556043,4903.011187,13619.789333
1097.516532,-1702.473667,2757.943793,11399.171507
1097.516862,-1406.391290,0.000000,8068.244768
1097.517191,-1702.473667,-1838.629195,5181.441594
1097.517521,-222.061783,-3370.820191,3923.091493
1097.517850,2294.638420,-2298.286494,5995.668130
1097.518180,2960.823768,919.314598,6587.832884
1097.518509,1184.329507,2298.286494,7550.100608
1097.518839,-1554.432478,2068.457845,8660.409521
1097.519168,-3256.906145,3370.820191,11843.295072
1097.519497,-3923.091493,5975.544884,11325.150913
1097.519827,-3701.029710,4903.011187,8438.347739
1097.520156,-2886.803174,919.314598,5551.544565
1097.520486,-1850.514855,-2451.505594,4959.379811
1097.520815,-740.205942,-3217.601092,4367.215058
1097.521145,-370.102971,-3217.601092,5255.462188
1097.521474,518.144159,-689.485948,7550.100608
1097.521803,666.185348,2757.943793,9696.697840
1097.522133,-1110.308913,2451.505594,10436.903782
1097.522462,-2368.659014,842.705048,11473.192101
1097.522792,-3404.947333,3140.991542,13323.706956
1097.523121,-3034.844362,5286.058936,14878.139434
1097.523451,-2664.741391,2451.505594,14508.036463
1097.523780,-3256.906145,0.000000,12213.398043
1097.524110,-3923.091493,-1915.238745,9844.739029
1097.524439,-1998.556043,-2834.553343,8586.388927
1097.524768,1480.411884,-3064.381992,8660.409521
1097.525098,3478.967927,-1225.752797,10362.883188
1097.525427,2294.638420,1149.143247,10807.006753
1097.525757,-1776.494261,2987.772442,10436.903782
1097.526086,-2738.761985,3140.991542,12065.356855
1097.526416,-2294.638420,4213.525239,14656.077652
1097.526745,-2146.597232,5669.106685,14952.160028
1097.527074,-2664.741391,3370.820191,11843.295072
1097.527404,-2368.659014,-1915.238745,8438.347739
1097.527733,-1628.453072,-3524.039291,6587.832884
1097.528063,296.082377,-1685.410096,5921.647536
1097.528392,2368.659014,-842.705048,6365.771101
1097.528722,3034.844362,76.609550,6513.812290
1097.529051,2146.597232,3140.991542,6735.874072
1097.529381,0.000000,3447.429741,7920.203579
1097.529710,-1480.411884,2987.772442,9178.553681
1097.530039,-2368.659014,5132.839837,11029.068536
1097.530369,-2738.761985,5132.839837,10881.027347
1097.530698,-3034.844362,2221.676944,8068.244768
1097.531028,-3108.864956,-1991.848295,4663.297435
1097.531357,-1480.411884,-3830.477490,4219.173869
1097.531687,444.123565,-3064.381992,5625.565159
1097.532016,1406.391290,-842.705048,7402.059420
1097.532345,1850.514855,459.657299,8512.368333
1097.532675,0.000000,766.095498,8734.430116
1097.533004,-2516.700203,2528.115143,9918.759623
1097.533334,-3552.988522,3677.258390,11695.253884
1097.533663,-1998.556043,3294.210641,13915.871710
1097.533993,-666.185348,2604.724693,13989.892304
1097.534322,-1332.370696,459.657299,11547.212695
1097.534652,-1998.556043,-2911.162892,8808.450710
1097.534981,-814.226536,-3677.258390,8956.491898
1097.535310,2072.576638,-2757.943793,10955.047942
1097.535640,3108.864956,-306.438199,11917.315666
1097.535969,1998.556043,842.705048,11917.315666
1097.536299,-518.144159,1685.410096,12953.603985
1097.536628,-2886.803174,3907.087040,13471.748144
1097.536958,-3256.906145,4366.744339,14730.098246
1097.537287,-2146.597232,3983.696590,13989.892304
1097.537616,-1850.514855,2145.067394,11843.295072
1097.537946,-2220.617826,-842.705048,8216.285956
1097.538275,-2072.576638,-3294.210641,5403.503377
1097.538605,-444.123565,-2987.772442,5329.482782
1097.538934,1702.473667,-229.828649,6513.812290
1097.539264,2590.720797,1149.143247,8660.409521
1097.539593,518.144159,2145.067394,9104.533087
1097.539923,-3182.885551,3294.210641,9696.697840
1097.540252,-4737.318029,3600.648841,11251.130318
1097.540581,-4737.318029,5439.278036,10732.986159
1097.540911,-4071.132681,4749.792088,8364.327145
1097.541240,-2294.638420,0.000000,6513.812290
1097.541570,-1554.432478,-1915.238745,3775.050304
1097.541899,-1702.473667,-3217.601092,2442.679609
1097.542229,-370.102971,-2911.162892,3923.091493
1097.542558,962.267725,995.924147,7031.956449
1097.542887,1406.391290,3524.039291,8586.388927
1097.543217,444.123565,2298.286494,9548.656652
1097.543546,-1702.473667,1685.410096,9474.636058
1097.543876,-3404.947333,4903.011187,10140.821405
1097.544205,-3182.885551,3983.696590,12953.603985
1097.544535,-1554.432478,459.657299,14952.160028
1097.544864,-2146.597232,1838.629195,13027.624579
1097.545194,-4071.132681,-1378.971896,8290.306550
1097.545523,-1184.329507,-5515.887586,6439.791695
1097.545852,2590.720797,-4519.963438,9326.594869
1097.546182,4737.318029,-842.705048,12287.418637
1097.546511,3256.906145,1532.190996,11917.315666
1097.546841,0.000000,2451.505594,11769.274478
1097.547170,-1924.535449,3983.696590,13397.727550
1097.547500,-2590.720797,4519.963438,15766.386565
1097.547829,-2664.741391,3447.429741,15470.304188
1097.548158,-2146.597232,2528.115143,12213.398043
1097.548488,-518.144159,-1532.190996,8586.388927
1097.548817,518.144159,-3447.429741,6069.688724
1097.549147,1850.514855,-4213.525239,6513.812290
1097.549476,3034.844362,-2911.162892,8808.450710
1097.549806,3108.864956,2451.505594,8956.491898
1097.550135,1628.453072,4979.620737,9030.512492
1097.550465,-148.041188,3983.696590,9326.594869
1097.550794,-1258.350101,2451.505594,10732.986159
1097.551123,-2442.679609,3830.477490,11547.212695
1097.551453,-3330.926739,4673.182538,9844.739029
1097.551782,-3478.967927,1225.752797,8216.285956
1097.552112,-4293.194464,-1532.190996,5477.523971
1097.552441,-4367.215058,-2604.724693,3330.926739
1097.552771,-2146.597232,-4136.915689,2590.720797
1097.553100,1850.514855,-2451.505594,4737.318029
1097.553429,3701.029710,229.828649,7254.018232
1097.553759,222.061783,3830.477490,7698.141797
1097.554088,-4219.173869,4673.182538,7994.224174
1097.554418,-5773.606348,4903.011187,10436.903782
1097.554747,-5329.482782,4979.620737,14582.057057
1097.555077,-6809.894666,2604.724693,15692.365970
1097.555406,-9474.636058,-612.876398,12731.542202
1097.555736,-10881.027347,-3830.477490,9696.697840
1097.556065,-9326.594869,-5515.887586,8216.285956
1097.556394,-5107.421000,-6128.763984,8586.388927
1097.556724,0.000000,-5592.497135,9770.718434
1097.557053,2738.761985,-842.705048,9622.677246
1097.557383,2072.576638,2604.724693,9548.656652
1097.557712,518.144159,4596.572988,10362.883188
1097.558042,-296.082377,7584.345430,12805.562797
1097.558371,-1702.473667,8350.440928,14730.098246
1097.558700,-3404.947333,6511.811733,13915.871710
1097.559030,-5403.503377,2911.162892,13545.768739
1097.559359,-7994.224174,0.000000,11473.192101
1097.559689,-9104.533087,-3524.039291,9030.512492
1097.560018,-8364.327145,-5975.544884,8512.368333
1097.560348,-4737.318029,-3753.867940,8512.368333
1097.560677,-1702.473667,-1149.143247,8068.244768
1097.561007,-1036.288319,0.000000,7698.141797
1097.561336,-3108.864956,2987.772442,7698.141797
1097.561665,-5403.503377,6511.811733,7994.224174
1097.561995,-5181.441594,8656.879127,9252.574275
1097.562324,-4737.318029,7354.516781,9030.512492
1097.562654,-4885.359217,3370.820191,10584.944971
1097.562983,-6217.729913,-919.314598,8216.285956
1097.563313,-8068.244768,-3140.991542,4219.173869
1097.563642,-6957.935855,-4903.011187,2516.700203
1097.563971,-2368.659014,-4443.353888,4219.173869
1097.564301,888.247130,-1991.848295,6069.688724
1097.564630,2220.617826,689.485948,6587.832884
1097.564960,2294.638420,3217.601092,7920.203579
1097.565289,1480.411884,7737.564530,9770.718434
1097.565619,296.082377,11108.384721,11843.295072
1097.565948,-2516.700203,6205.373534,13101.645173
1097.566278,-7402.059420,4366.744339,15174.221811
1097.566607,-10140.821405,3600.648841,14285.974681
1097.566936,-9622.677246,-2298.286494,11473.192101
1097.567266,-7254.018232,-6665.030833,7550.100608
1097.567595,-5477.523971,-9269.755526,5477.523971
1097.567925,-3182.885551,-10189.070123,6217.729913
1097.568254,-962.267725,-6128.763984,9400.615463
1097.568584,222.061783,1991.848295,11251.130318
1097.568913,888.247130,7890.783629,11991.336260
1097.569242,1702.473667,8656.879127,12509.480420
1097.569572,2220.617826,9652.803275,13101.645173
1097.569901,-296.082377,7660.954980,13693.809927
1097.570231,-4515.256246,2451.505594,13989.892304
1097.570560,-9696.697840,153.219100,15174.221811
1097.570890,-13175.665768,-1915.238745,15470.304188
1097.571219,-14211.954086,-5439.278036,11843.295072
1097.571549,-10732.986159,-9193.145976,6735.874072
1097.571878,-4293.194464,-10572.117872,3404.947333
1097.572207,1776.494261,-7814.174080,2590.720797
1097.572537,4219.173869,-1915.238745,4663.297435
1097.572866,4811.338623,5439.278036,7772.162391
1097.573196,3182.885551,14019.547613,10066.800811
1097.573525,888.247130,16547.662757,11177.109724
1097.573855,-1702.473667,13483.280765,11325.150913
1097.574184,-3330.926739,8120.612279,10584.944971
1097.574514,-4515.256246,1532.190996,8142.265362
1097.574843,-6809.894666,-3907.087040,6883.915261
1097.575173,-9844.739029,-7967.393179,7105.977043
1097.575502,-12731.542202,-8886.707777,7105.977043
1097.575832,-12953.603985,-7660.954980,6587.832884
1097.576161,-9918.759623,-6128.763984,6365.771101
1097.576491,-4663.297435,-1991.848295,6957.935855
1097.576820,-888.247130,2757.943793,6735.874072
1097.577150,2368.659014,6818.249932,8216.285956
1097.577479,3923.091493,8810.098227,10214.842000
1097.577809,888.247130,10112.460574,13027.624579
1097.578138,-3034.844362,10265.679673,13323.706956
1097.578468,-7031.956449,6358.592633,12213.398043
1097.578797,-8882.471304,459.657299,11621.233289
1097.579127,-8882.471304,-4060.306139,11399.171507
1097.579457,-7476.080014,-7354.516781,10214.842000
1097.579786,-5255.462188,-8350.440928,7179.997637
1097.580116,-3552.988522,-7890.783629,6069.688724
1097.580445,-1702.473667,-4060.306139,7624.121203
1097.580775,-1184.329507,1072.533697,10658.965565
1097.581104,-1924.535449,5439.278036,13101.645173
1097.581434,-2738.761985,9806.022374,14137.933492
1097.581763,-3849.070898,10648.727422,14952.160028
1097.582093,-4441.235652,7277.907231,14582.057057
1097.582422,-4515.256246,2681.334243,12435.459826
1097.582752,-4589.276840,-1915.238745,9104.533087
1097.583081,-5255.462188,-5592.497135,6143.709319
1097.583411,-4589.276840,-6971.469032,5107.421000
1097.583740,-3627.009116,-5209.449386,6957.935855
1097.584070,-3478.967927,-2834.553343,7698.141797
1097.584399,-4293.194464,-306.438199,7920.203579
1097.584729,-4589.276840,3830.477490,8290.306550
1097.585058,-3701.029710,6741.640382,9326.594869
1097.585388,-1702.473667,7354.516781,10436.903782
1097.585717,-1998.556043,5669.106685,10140.821405
1097.586047,-2368.659014,3907.087040,8808.450710
1097.586376,-2146.597232,919.314598,7254.018232
1097.586706,-2146.597232,-995.924147,7105.977043
1097.587035,-2516.700203,-1685.410096,8216.285956
1097.587365,-2664.741391,-2681.334243,8290.306550
1097.587695,-3330.926739,-2604.724693,8438.347739
1097.588024,-4663.297435,-842.705048,9178.553681
1097.588354,-5773.606348,1608.800546,10584.944971
1097.588683,-6439.791695,3370.820191,11325.150913
1097.589013,-5551.544565,3983.696590,11103.089130
1097.589342,-3923.091493,4213.525239,10436.903782
1097.589672,-2072.576638,2681.334243,9030.512492
1097.590001,-592.164754,0.000000,7772.162391
1097.590331,518.144159,-689.485948,7105.977043
1097.590660,-962.267725,-459.657299,7476.080014
1097.590990,-2072.576638,76.609550,8660.409521
1097.591319,-2590.720797,383.047749,9622.677246
1097.591649,-3627.009116,536.266849,11325.150913
1097.591978,-6513.812290,1685.410096,12805.562797
1097.592308,-9104.533087,2987.772442,14211.954086
1097.592637,-9992.780217,2987.772442,14582.057057
1097.592967,-8956.491898,1838.629195,13693.809927
1097.593296,-7550.100608,995.924147,11621.233289
1097.593626,-5329.482782,-689.485948,8438.347739
1097.593955,-2146.597232,-2757.943793,5921.647536
1097.594285,962.267725,-2451.505594,5773.606348
1097.594614,1184.329507,229.828649,6143.709319
1097.594944,740.205942,1838.629195,7550.100608
1097.595274,-444.123565,3524.039291,9326.594869
1097.595603,-2738.761985,4443.353888,10288.862594
1097.595933,-4737.318029,5209.449386,10658.965565
1097.596262,-5995.668130,2451.505594,10732.986159
1097.596592,-7624.121203,459.657299,11769.274478
1097.596921,-9474.636058,76.609550,11843.295072
1097.597251,-9622.677246,-383.047749,9844.739029
1097.597580,-7698.141797,-2068.457845,7476.080014
1097.597910,-4663.297435,-2681.334243,5107.421000
1097.598239,-1850.514855,-2834.553343,4145.153275
1097.598569,444.123565,-766.095498,4663.297435
1097.598898,1110.308913,2145.067394,5551.544565
1097.599228,0.000000,4903.011187,7476.080014
1097.599557,-2516.700203,5975.544884,10066.800811
1097.599887,-4885.359217,6665.030833,12435.459826
1097.600216,-7179.997637,4826.401637,13767.830521
1097.600546,-9030.512492,2145.067394,12953.603985
1097.600875,-10066.800811,-229.828649,11399.171507
1097.601205,-8956.491898,-2911.162892,10288.862594
1097.601534,-7254.018232,-5822.325785,10510.924376
1097.601864,-5403.503377,-5515.887586,9474.636058
1097.602193,-3034.844362,-3064.381992,7846.182985
1097.602523,0.000000,-1225.752797,7105.977043
1097.602852,2664.741391,1072.533697,8586.388927
1097.603182,3034.844362,3524.039291,10510.924376
1097.603512,2072.576638,5056.230287,11769.274478
1097.603841,148.041188,4979.620737,13397.727550
1097.604171,-3182.885551,4903.011187,14582.057057
1097.604500,-6513.812290,3907.087040,14434.015869
1097.604830,-8956.491898,1149.143247,12509.480420
1097.605159,-8290.306550,-1838.629195,9252.574275
1097.605489,-6217.729913,-4596.572988,7031.956449
1097.605818,-3182.885551,-5515.887586,5773.606348
1097.606148,-1702.473667,-3294.210641,5255.462188
1097.606477,-1332.370696,0.000000,5477.523971
1097.606807,-1332.370696,2834.553343,6661.853478
1097.607136,-1924.535449,6205.373534,8290.306550
1097.607466,-3108.864956,8656.879127,9992.780217
1097.607795,-4145.153275,7354.516781,11177.109724
1097.608125,-6513.812290,4749.792088,11621.233289
1097.608454,-7772.162391,2298.286494,11843.295072
1097.608784,-8142.265362,-612.876398,11547.212695
1097.609113,-8586.388927,-2374.896044,9992.780217
1097.609443,-7772.162391,-2374.896044,7624.121203
1097.609772,-5329.482782,-2298.286494,6291.750507
1097.610102,-1332.370696,-612.876398,6069.688724
1097.610431,1924.535449,1455.581446,6513.812290
1097.610761,2886.803174,3753.867940,7254.018232
1097.611090,1776.494261,6435.202183,7994.224174
1097.611420,296.082377,8580.269578,9844.739029
1097.611750,-1406.391290,7737.564530,12139.377449
1097.612079,-3182.885551,5592.497135,13101.645173
1097.612409,-5033.400406,3983.696590,12509.480420
1097.612738,-5773.606348,1302.362347,10955.047942
1097.613068,-5403.503377,-1302.362347,9696.697840
1097.613397,-4367.215058,-2681.334243,8290.306550
1097.613727,-3478.967927,-1685.410096,8216.285956
1097.614056,-2960.823768,995.924147,7920.203579
1097.614386,-2590.720797,3064.381992,8660.409521
1097.614715,-2220.617826,4749.792088,9622.677246
1097.615045,-2294.638420,6358.592633,10807.006753
1097.615374,-2294.638420,6818.249932,11325.150913
1097.615704,-2220.617826,6052.154434,11843.295072
1097.616033,-2220.617826,4443.353888,11621.233289
1097.616363,-1480.411884,3140.991542,10732.986159
1097.616692,-888.247130,2221.676944,8808.450710
1097.617022,-592.164754,919.314598,8438.347739
1097.617351,0.000000,2221.676944,8734.430116
1097.617681,814.226536,3753.867940,9326.594869
1097.618010,666.185348,6511.811733,9770.718434
1097.618340,-814.226536,7814.174080,9992.780217
1097.618669,-1702.473667,7660.954980,9474.636058
1097.618999,-2294.638420,7354.516781,9178.553681
1097.619328,-2738.761985,6588.421283,8512.368333
1097.619658,-2812.782580,4290.134789,7254.018232
1097.619988,-2368.659014,1991.848295,5403.503377
1097.620317,-1628.453072,995.924147,4885.359217
1097.620647,-1184.329507,-536.266849,5625.565159
1097.620976,-1480.411884,689.485948,6883.915261
1097.621306,-2294.638420,2757.943793,8142.265362
1097.621635,-3034.844362,5132.839837,9696.697840
1097.621965,-3627.009116,6435.202183,11325.150913
1097.622294,-2516.700203,7124.688131,11917.315666
1097.622624,-1628.453072,6588.421283,11547.212695
1097.622953,-1036.288319,5286.058936,11177.109724
1097.623283,-1036.288319,4290.134789,10881.027347
1097.623612,-666.185348,3753.867940,10510.924376
1097.623942,-666.185348,2681.334243,9622.677246
1097.624271,0.000000,1685.410096,8808.450710
1097.624601,0.000000,1685.410096,8734.430116
1097.624930,370.102971,1532.190996,9252.574275
1097.625260,74.020594,2451.505594,9918.759623
1097.625589,-962.267725,3524.039291,11325.150913
1097.625919,-2368.659014,5362.668486,11843.295072
1097.626248,-2516.700203,5822.325785,12361.439231
1097.626578,-2072.576638,5362.668486,12509.480420
1097.626907,-1480.411884,4596.572988,11769.274478
1097.627237,-592.164754,3524.039291,10140.821405
1097.627566,-222.061783,3600.648841,8882.471304
1097.627896,222.061783,3907.087040,9104.533087
1097.628226,592.164754,4903.011187,8734.430116
1097.628555,296.082377,5132.839837,7698.141797
1097.628885,74.020594,4136.915689,6217.729913
1097.629214,222.061783,2681.334243,6291.750507
1097.629544,-666.185348,2451.505594,7105.977043
1097.629873,-2220.617826,2528.115143,8364.327145
1097.630203,-3775.050304,3370.820191,9178.553681
1097.630532,-4737.318029,3600.648841,9474.636058
1097.630862,-3849.070898,3370.820191,9918.759623
1097.631191,-2590.720797,3217.601092,9992.780217
1097.631521,-1184.329507,3907.087040,9696.697840
1097.631850,-370.102971,5209.449386,9104.533087
1097.632180,148.041188,6052.154434,8882.471304
1097.632509,962.267725,6511.811733,9030.512492
1097.632839,666.185348,6435.202183,8882.471304
1097.633168,296.082377,6358.592633,8734.430116
1097.633498,0.000000,5209.449386,8216.285956
1097.633827,-962.267725,2834.553343,7698.141797
1097.634157,-1702.473667,689.485948,7624.121203
1097.634486,-2368.659014,0.000000,8290.306550
1097.634816,-2664.741391,0.000000,9622.677246
1097.635145,-2960.823768,1225.752797,10510.924376
1097.635475,-1776.494261,2374.896044,11399.171507
1097.635804,-814.226536,3140.991542,11769.274478
1097.636134,-666.185348,4826.401637,12731.542202
1097.636464,-962.267725,6588.421283,12953.603985
1097.636793,-518.144159,7201.297681,12583.501014
1097.637123,-296.082377,6205.373534,11621.233289
1097.637452,-518.144159,5286.058936,10362.883188
1097.637782,-962.267725,3830.477490,9326.594869
1097.638111,-1628.453072,2604.724693,8882.471304
1097.638441,-2072.576638,2604.724693,8438.347739
1097.638770,-1776.494261,2374.896044,7846.182985
1097.639100,-888.247130,1762.019645,7476.080014
1097.639429,222.061783,1532.190996,7624.121203
1097.639759,814.226536,2757.943793,8068.244768
1097.640088,518.144159,3753.867940,8364.327145
1097.640418,-222.061783,5132.839837,9622.677246
1097.640747,-1036.288319,6818.249932,10732.986159
1097.641077,-1406.391290,7660.954980,11843.295072
1097.641406,-1702.473667,7124.688131,12139.377449
1097.641736,-2812.782580,6052.154434,11325.150913
1097.642065,-3478.967927,5515.887586,9252.574275
1097.642395,-2960.823768,4596.572988,6809.894666
1097.642724,-962.267725,2451.505594,4515.256246
1097.643054,1776.494261,459.657299,3330.926739
1097.643383,2812.782580,153.219100,4219.173869
1097.643713,1850.514855,2298.286494,5625.565159
1097.644042,0.000000,4290.134789,7698.141797
1097.644372,-2516.700203,5592.497135,10214.842000
1097.644702,-3849.070898,7048.078582,13693.809927
1097.645031,-4515.256246,7354.516781,15988.448347
1097.645361,-4737.318029,6511.811733,15322.262999
1097.645690,-4589.276840,4290.134789,13767.830521
1097.646020,-4071.132681,2451.505594,11325.150913
1097.646349,-2294.638420,1378.971896,9252.574275
1097.646679,74.020594,1378.971896,8142.265362
1097.647008,2590.720797,1915.238745,6291.750507
1097.647338,4293.194464,2451.505594,4737.318029
1097.647667,4737.318029,2451.505594,5329.482782
1097.647997,3108.864956,4060.306139,7698.141797
1097.648326,-592.164754,7048.078582,11029.068536
1097.648656,-4145.153275,9039.926876,13397.727550
1097.648985,-5107.421000,8350.440928,14211.954086
1097.649315,-4071.132681,4903.011187,13323.706956
1097.649644,-2368.659014,1532.190996,11843.295072
1097.649974,-962.267725,-153.219100,9030.512492
1097.650303,-740.205942,536.266849,7105.977043
1097.650633,-740.205942,1762.019645,7476.080014
1097.650962,-1554.432478,4366.744339,8586.388927
1097.651292,-2072.576638,6128.763984,8216.285956
1097.651621,-888.247130,5592.497135,7031.956449
1097.651951,518.144159,2451.505594,6291.750507
1097.652280,148.041188,1991.848295,7624.121203
1097.652610,-1406.391290,3064.381992,9992.780217
1097.652940,-2664.741391,4826.401637,11843.295072
1097.653269,-2886.803174,6052.154434,12361.439231
1097.653599,-2146.597232,5822.325785,12435.459826
1097.653928,-962.267725,4903.011187,10288.862594
1097.654258,74.020594,2911.162892,7846.182985
1097.654587,1258.350101,1225.752797,6217.729913
1097.654917,2072.576638,1762.019645,6143.709319
1097.655246,2368.659014,3294.210641,7254.018232
1097.655576,1702.473667,4366.744339,8734.430116
1097.655905,148.041188,4749.792088,10732.986159
1097.656235,-2220.617826,5209.449386,11991.336260
1097.656564,-3701.029710,6588.421283,12213.398043
1097.656894,-3256.906145,5362.668486,11399.171507
1097.657223,-1776.494261,3217.601092,12435.459826
1097.657553,-1850.514855,2451.505594,12509.480420
1097.657882,-2886.803174,2451.505594,10510.924376
1097.658212,-2886.803174,2987.772442,8290.306550
1097.658541,-1924.535449,3753.867940,7772.162391
1097.658871,-296.082377,5286.058936,7402.059420
1097.659200,1258.350101,4213.525239,6957.935855
1097.659530,2664.741391,2221.676944,6143.709319
1097.659859,2368.659014,2068.457845,6069.688724
1097.660189,1406.391290,3753.867940,8068.244768
1097.660519,0.000000,5286.058936,11991.336260
1097.660848,-2368.659014,7354.516781,14952.160028
1097.661178,-4293.194464,9116.536426,14582.057057
1097.661507,-3627.009116,8197.221829,13545.768739
1097.661837,-1258.350101,5132.839837,12287.418637
1097.662166,-962.267725,3370.820191,10658.965565
1097.662496,-1850.514855,2911.162892,7624.121203
1097.662825,-2294.638420,2681.334243,5551.544565
1097.663155,-1406.391290,3140.991542,4293.194464
1097.663484,222.061783,2757.943793,4145.153275
1097.663814,1998.556043,2834.553343,4589.276840
1097.664143,1850.514855,4290.134789,5033.400406
1097.664473,1332.370696,5898.935335,6143.709319
1097.664802,888.247130,6511.811733,8586.388927
1097.665132,-296.082377,6052.154434,11843.295072
1097.665461,-2812.782580,7431.126331,14359.995275
1097.665791,-4219.173869,7507.735880,14730.098246
1097.666120,-4293.194464,4903.011187,13767.830521
1097.666450,-4145.153275,3140.991542,11695.253884
1097.666779,-4441.235652,1685.410096,9326.594869
1097.667109,-3552.988522,-536.266849,7994.224174
1097.667438,-2220.617826,-1302.362347,6069.688724
1097.667768,-222.061783,0.000000,3330.926739
1097.668097,2664.741391,0.000000,3404.947333
1097.668427,4145.153275,766.095498,4885.359217
1097.668757,3701.029710,3753.867940,7328.038826
1097.669086,3701.029710,6281.983084,10881.027347
1097.669416,2442.679609,4903.011187,14285.974681
1097.669745,444.123565,7431.126331,17690.922014
1097.670075,-2072.576638,8733.488677,18135.045579
1097.670404,-3330.926739,4596.572988,16210.510130
1097.670734,-4293.194464,229.828649,13027.624579
1097.671063,-3997.112087,-1991.848295,9104.533087
1097.671393,-2738.761985,-4136.915689,6513.812290
1097.671722,-444.123565,-4903.011187,5995.668130
1097.672052,1406.391290,-2757.943793,5255.462188
1097.672381,1480.411884,-383.047749,4071.132681
1097.672711,1776.494261,1302.362347,4737.318029
1097.673040,2442.679609,4903.011187,7698.141797
1097.673370,2516.700203,7124.688131,11769.274478
1097.673700,1332.370696,8580.269578,14804.118840
1097.674029,-1036.288319,10035.851024,15322.262999
1097.674359,-3404.947333,8503.660028,14063.912898
1097.674689,-5033.400406,4136.915689,11917.315666
1097.675018,-6291.750507,-536.266849,8586.388927
1097.675348,-5551.544565,-4519.963438,5403.503377
1097.675677,-4145.153275,-6971.469032,3849.070898
1097.676007,-3256.906145,-6665.030833,1776.494261
1097.676337,-1850.514855,-5975.544884,-0.000000
1097.676666,814.226536,-3907.087040,2960.823768
1097.676996,2146.597232,919.314598,7328.038826
1097.677326,1850.514855,5898.935335,13693.809927
1097.677655,-592.164754,10035.851024,16950.716072
1097.677985,-2590.720797,12334.137518,17024.736666
1097.678314,-2368.659014,8503.660028,16580.613101
1097.678644,-814.226536,4749.792088,15618.345376
1097.678974,1110.308913,995.924147,11621.233289
1097.679303,1480.411884,-2987.772442,6957.935855
1097.679633,296.082377,-5745.716235,3108.864956
1097.679962,-888.247130,-5132.839837,2220.617826
1097.680292,74.020594,-5056.230287,4811.338623
1097.680622,2072.576638,-4290.134789,7179.997637
1097.680951,1628.453072,-842.705048,9252.574275
1097.681281,-1110.308913,1915.238745,11621.233289
1097.681611,-2442.679609,3983.696590,14582.057057
1097.681940,-2738.761985,6205.373534,17024.736666
1097.682270,-2516.700203,7890.783629,17987.004391
1097.682599,-2294.638420,5592.497135,16580.613101
1097.682929,-1850.514855,2911.162892,11991.336260
1097.683259,-740.205942,-1149.143247,5625.565159
1097.683588,2072.576638,-5439.278036,1850.514855
1097.683918,3775.050304,-5822.325785,1850.514855
1097.684248,3701.029710,-3600.648841,4811.338623
1097.684577,888.247130,-383.047749,8290.306550
1097.684907,-3849.070898,2911.162892,9696.697840
1097.685236,-5477.523971,4903.011187,11843.295072
1097.685566,-4515.256246,4749.792088,14434.015869
1097.685896,-1628.453072,4290.134789,15692.365970
1097.686225,-296.082377,3830.477490,14359.995275
1097.686555,-814.226536,2451.505594,10658.965565
1097.686885,-148.041188,1378.971896,6069.688724
1097.687214,1036.288319,-1532.190996,4071.132681
1097.687544,1998.556043,-2451.505594,4293.194464
1097.687873,1850.514855,-995.924147,5699.585753
1097.688203,0.000000,842.705048,6809.894666
1097.688533,-2590.720797,1685.410096,5551.544565
1097.688862,-3997.112087,459.657299,5995.668130
1097.689192,-3404.947333,-1455.581446,8808.450710
1097.689521,-2368.659014,536.266849,12583.501014
1097.689851,-2886.803174,3907.087040,14211.954086
1097.690181,-2812.782580,4903.011187,12361.439231
1097.690510,-1110.308913,919.314598,8586.388927
1097.690840,1258.350101,-2681.334243,8216.285956
1097.691170,2812.782580,-3370.820191,9844.739029
1097.691499,1554.432478,-612.876398,10955.047942
1097.691829,-1332.370696,1685.410096,9548.656652
1097.692158,-2516.700203,842.705048,8586.388927
1097.692488,-2294.638420,-1378.971896,10362.883188
1097.692818,-1258.350101,-995.924147,12583.501014
1097.693147,-148.041188,1149.143247,13471.748144
1097.693477,-222.061783,2681.334243,11399.171507
1097.693807,0.000000,2145.067394,8586.388927
1097.694136,2146.597232,0.000000,9252.574275
1097.694466,3478.967927,-689.485948,11325.150913
1097.694795,2886.803174,1991.848295,12583.501014
1097.695125,0.000000,4749.792088,12213.398043
1097.695455,-3330.926739,4443.353888,10214.842000
1097.695784,-3775.050304,1532.190996,9548.656652
1097.696114,-3478.967927,-2145.067394,9252.574275
1097.696443,-2664.741391,-1991.848295,8512.368333
1097.696773,-2368.659014,0.000000,7994.224174
1097.697103,-3108.864956,1225.752797,6439.791695
1097.697432,-2516.700203,1378.971896,5107.421000
1097.697762,-666.185348,-229.828649,5995.668130
1097.698092,1776.494261,1302.362347,8734.430116
1097.698421,1998.556043,4366.744339,10732.986159
1097.698751,-962.267725,6205.373534,9992.780217
1097.699080,-3701.029710,4903.011187,8068.244768
1097.699410,-3552.988522,919.314598,9178.553681
1097.699740,-2294.638420,-383.047749,10066.800811
1097.700069,-1184.329507,-306.438199,9770.718434
1097.700399,-1554.432478,-766.095498,7624.121203
1097.700729,-2590.720797,-2221.676944,4811.338623
1097.701058,-814.226536,-2528.115143,5033.400406
1097.701388,2220.617826,-1685.410096,7624.121203
1097.701717,4219.173869,1225.752797,9844.739029
1097.702047,3330.926739,3294.210641,11251.130318
1097.702377,148.041188,4213.525239,11917.315666
1097.702706,-2072.576638,3140.991542,12583.501014
1097.703036,-3256.906145,1378.971896,13397.727550
1097.703366,-2220.617826,1225.752797,13767.830521
1097.703695,-1184.329507,306.438199,11843.295072
1097.704025,-1036.288319,-1532.190996,8586.388927
1097.704354,-444.123565,-4903.011187,6291.750507
1097.704684,1332.370696,-5132.839837,6587.832884
1097.705014,2220.617826,-2068.457845,8734.430116
1097.705343,2368.659014,1991.848295,11621.233289
1097.705673,74.020594,3600.648841,13323.706956
1097.706002,-2960.823768,3370.820191,12731.542202
1097.706332,-4219.173869,1991.848295,12583.501014
1097.706662,-3701.029710,1302.362347,13249.686362
1097.706991,-2590.720797,1378.971896,13693.809927
1097.707321,-2368.659014,842.705048,11917.315666
1097.707651,-3108.864956,-1378.971896,8512.368333
1097.707980,-2294.638420,-2911.162892,5107.421000
1097.708310,-666.185348,-3294.210641,4737.318029
1097.708639,1406.391290,-1149.143247,5699.585753
1097.708969,2368.659014,1991.848295,7994.224174
1097.709299,518.144159,3524.039291,8956.491898
1097.709628,-2220.617826,3830.477490,8364.327145
1097.709958,-3404.947333,3140.991542,9178.553681
1097.710288,-2368.659014,2374.896044,9992.780217
1097.710617,-1184.329507,1762.019645,9474.636058
1097.710947,-962.267725,306.438199,8364.327145
1097.711276,-1258.350101,-1685.410096,6291.750507
1097.711606,-962.267725,-2221.676944,4811.338623
1097.711936,0.000000,-1455.581446,5551.544565
1097.712265,1554.432478,306.438199,7550.100608
1097.712595,2072.576638,1455.581446,9622.677246
1097.712925,370.102971,2528.115143,10362.883188
1097.713254,-1554.432478,2911.162892,10362.883188
1097.713584,-2516.700203,2145.067394,11029.068536
1097.713913,-2368.659014,1225.752797,12731.542202
1097.714243,-1480.411884,995.924147,13915.871710
1097.714573,-1554.432478,1378.971896,13397.727550
1097.714902,-1850.514855,1072.533697,9992.780217
1097.715232,-666.185348,-1991.848295,7476.080014
1097.715561,1776.494261,-2834.553343,8438.347739
1097.715891,3330.926739,-689.485948,11769.274478
1097.716221,1332.370696,2987.772442,13397.727550
1097.716550,-2664.741391,4519.963438,11843.295072
1097.716880,-3627.009116,3370.820191,11177.109724
1097.717210,-2738.761985,1532.190996,11621.233289
1097.717539,-962.267725,1378.971896,11843.295072
1097.717869,-222.061783,689.485948,10658.965565
1097.718198,-444.123565,0.000000,7624.121203
1097.718528,-296.082377,0.000000,5107.421000
1097.718858,370.102971,-919.314598,5699.585753
1097.719187,1036.288319,-153.219100,7550.100608
1097.719517,666.185348,1915.238745,9844.739029
1097.719847,-2294.638420,4213.525239,10288.862594
1097.720176,-5625.565159,4903.011187,8142.265362
1097.720506,-5477.523971,1149.143247,8438.347739
1097.720835,-3775.050304,-1991.848295,8438.347739
1097.721165,-2220.617826,-2221.676944,8142.265362
1097.721495,-1850.514855,-1685.410096,7031.956449
1097.721824,-1924.535449,-1072.533697,6217.729913
1097.722154,-518.144159,-1302.362347,6365.771101
1097.722483,370.102971,-306.438199,7698.141797
1097.722813,2294.638420,459.657299,9474.636058
1097.723143,2516.700203,2221.676944,10955.047942
1097.723472,518.144159,3294.210641,11325.150913
1097.723802,-1702.473667,3064.381992,10955.047942
1097.724132,-2664.741391,536.266849,11251.130318
1097.724461,-1850.514855,-1455.581446,12361.439231
1097.724791,-444.123565,-1225.752797,12583.501014
1097.725120,-962.267725,0.000000,10362.883188
1097.725450,-740.205942,-2604.724693,7624.121203
1097.725780,518.144159,-4060.306139,7624.121203
1097.726109,2220.617826,-1762.019645,10362.883188
1097.726439,1924.535449,2451.505594,12657.521608
1097.726769,-296.082377,4826.401637,13175.665768
1097.727098,-3256.906145,4519.963438,11991.336260
1097.727428,-3701.029710,2681.334243,11991.336260
1097.727757,-3404.947333,459.657299,12805.562797
1097.728087,-2368.659014,76.609550,11843.295072
1097.728417,-1998.556043,153.219100,9548.656652
1097.728746,-2516.700203,-689.485948,7402.059420
1097.729076,-1776.494261,-689.485948,6143.709319
1097.729406,74.020594,-919.314598,7105.977043
1097.729735,1850.514855,689.485948,9104.533087
1097.730065,962.267725,3524.039291,9326.594869
1097.730394,-1554.432478,5898.935335,9622.677246
1097.730724,-2442.679609,6052.154434,9844.739029
1097.731054,-2516.700203,3140.991542,9474.636058
1097.731383,-2072.576638,1685.410096,8882.471304
1097.731713,-1332.370696,1378.971896,8364.327145
1097.732042,-1110.308913,1149.143247,8068.244768
1097.732372,-1480.411884,1455.581446,5773.606348
1097.732702,-962.267725,-1455.581446,2960.823768
1097.733031,1406.391290,-2681.334243,4589.276840
1097.733361,2590.720797,229.828649,7920.203579
1097.733691,1332.370696,4060.306139,9918.759623
1097.734020,-1998.556043,4749.792088,9622.677246
1097.734350,-3701.029710,2681.334243,9696.697840
1097.734679,-2812.782580,1302.362347,11843.295072
1097.735009,-2516.700203,1685.410096,13249.686362
1097.735339,-1480.411884,153.219100,12731.542202
1097.735668,-1924.535449,-1302.362347,9400.615463
1097.735998,-1702.473667,-2068.457845,7105.977043
1097.736328,222.061783,-2757.943793,8660.409521
1097.736657,2146.597232,-1225.752797,11769.274478
1097.736987,1628.453072,2298.286494,13249.686362
1097.737316,-666.185348,4443.353888,13323.706956
1097.737646,-2664.741391,3753.867940,12731.542202
1097.737976,-2516.700203,2068.457845,12065.356855
1097.738305,-1554.432478,459.657299,12583.501014
1097.738635,-888.247130,-612.876398,12213.398043
1097.738964,-1776.494261,76.609550,11103.089130
1097.739294,-2960.823768,995.924147,9474.636058
1097.739624,-2590.720797,459.657299,6587.832884
1097.739953,-444.123565,-2145.067394,5699.585753
1097.740283,1776.494261,-1685.410096,7254.018232
1097.740613,1628.453072,1991.848295,9548.656652
1097.740942,-1776.494261,4903.011187,9474.636058
1097.741272,-4959.379811,4366.744339,7550.100608
1097.741601,-4663.297435,2298.286494,7698.141797
1097.741931,-2960.823768,306.438199,8956.491898
1097.742261,-1258.350101,306.438199,9696.697840
1097.742590,-1702.473667,536.266849,8290.306550
1097.742920,-2664.741391,0.000000,5255.462188
1097.743250,-1776.494261,-153.219100,4367.215058
1097.743579,222.061783,-1149.143247,6661.853478
1097.743909,1850.514855,919.314598,9622.677246
1097.744238,1036.288319,3294.210641,10881.027347
1097.744568,-1998.556043,4366.744339,9770.718434
1097.744898,-3108.864956,3140.991542,8660.409521
1097.745227,-1850.514855,0.000000,10658.965565
1097.745557,-740.205942,0.000000,11843.295072
1097.745887,-296.082377,0.000000,11029.068536
1097.746216,-666.185348,-612.876398,9770.718434
1097.746546,-814.226536,-153.219100,8216.285956
1097.746875,888.247130,-1225.752797,8882.471304
1097.747205,1924.535449,-383.047749,10214.842000
1097.747535,2738.761985,1072.533697,12139.377449
1097.747864,1332.370696,3370.820191,13545.768739
1097.748194,-2738.761985,4443.353888,12213.398043
1097.748523,-3849.070898,2298.286494,11399.171507
1097.748853,-3849.070898,612.876398,11843.295072
1097.749183,-2072.576638,0.000000,12879.583391
1097.749512,-1924.535449,306.438199,11843.295072
1097.749842,-2664.741391,-306.438199,9178.553681
1097.750172,-2368.659014,-1378.971896,6069.688724
1097.750501,-1036.288319,-2604.724693,6513.812290
1097.750831,962.267725,-306.438199,9030.512492
1097.751160,296.082377,2834.553343,11769.274478
1097.751490,-2442.679609,5745.716235,12213.398043
1097.751820,-5033.400406,5439.278036,9696.697840
1097.752149,-3627.009116,2528.115143,9252.574275
1097.752479,-1480.411884,459.657299,9178.553681
1097.752809,0.000000,459.657299,8290.306550
1097.753138,-592.164754,306.438199,7031.956449
1097.753468,-1776.494261,1072.533697,4663.297435
1097.753797,-814.226536,229.828649,5033.400406
1097.754127,518.144159,536.266849,6365.771101
1097.754457,1776.494261,2068.457845,7920.203579
1097.754786,814.226536,2681.334243,8290.306550
1097.755116,-1332.370696,3064.381992,8734.430116
1097.755445,-2812.782580,2451.505594,9548.656652
1097.755775,-3330.926739,2068.457845,9844.739029
1097.756105,-2368.659014,1608.800546,10362.883188
1097.756434,-1628.453072,536.266849,10214.842000
1097.756764,-1480.411884,0.000000,9770.718434
1097.757094,-1628.453072,0.000000,8216.285956
1097.757423,-518.144159,-766.095498,7550.100608
1097.757753,1184.329507,76.609550,9622.677246
1097.758082,2368.659014,1838.629195,11991.336260
1097.758412,1036.288319,3677.258390,13397.727550
1097.758742,-1924.535449,3983.696590,12731.542202
1097.759071,-3182.885551,2604.724693,12139.377449
1097.759401,-2368.659014,995.924147,12731.542202
1097.759731,-666.185348,1378.971896,13175.665768
1097.760060,74.020594,919.314598,12435.459826
1097.760390,-1332.370696,76.609550,8956.491898
1097.760719,-1480.411884,-1302.362347,6291.750507
1097.761049,296.082377,-1685.410096,8216.285956
1097.761379,1036.288319,1608.800546,11029.068536
1097.761708,370.102971,4673.182538,10881.027347
1097.762038,-1702.473667,4366.744339,9400.615463
1097.762368,-2368.659014,2068.457845,7698.141797
1097.762697,-2516.700203,1532.190996,8512.368333
1097.763027,-2294.638420,995.924147,8882.471304
1097.763356,-1850.514855,229.828649,8364.327145
1097.763686,-2886.803174,689.485948,7698.141797
1097.764016,-3182.885551,995.924147,6587.832884
1097.764345,-2220.617826,-1225.752797,6365.771101
1097.764675,0.000000,-2374.896044,6809.894666
1097.765004,518.144159,-383.047749,7994.224174
1097.765334,-592.164754,1915.238745,9326.594869
1097.765664,-2960.823768,3294.210641,10732.986159
1097.765993,-3849.070898,3524.039291,11251.130318
1097.766323,-3552.988522,1685.410096,10955.047942
1097.766653,-1850.514855,229.828649,10066.800811
1097.766982,370.102971,-1225.752797,9252.574275
1097.767312,740.205942,-2298.286494,8068.244768
1097.767641,0.000000,-1302.362347,6957.935855
1097.767971,296.082377,-919.314598,7624.121203
1097.768301,1702.473667,76.609550,10510.924376
1097.768630,2220.617826,2068.457845,13249.686362
1097.768960,148.041188,3830.477490,13545.768739
1097.769290,-2294.638420,3294.210641,11473.192101
1097.769619,-2294.638420,842.705048,11103.089130
1097.769949,-888.247130,383.047749,12509.480420
1097.770278,-592.164754,1302.362347,12953.603985
1097.770608,-1184.329507,1685.410096,11473.192101
1097.770938,-2516.700203,1149.143247,8734.430116
1097.771267,-1628.453072,306.438199,7031.956449
1097.771597,0.000000,-842.705048,8142.265362
1097.771926,888.247130,306.438199,9992.780217
1097.772256,0.000000,2834.553343,10288.862594
1097.772586,-2960.823768,4519.963438,9844.739029
1097.772915,-4441.235652,3983.696590,9696.697840
1097.773245,-4071.132681,1991.848295,10732.986159
1097.773575,-3552.988522,1455.581446,10807.006753
1097.773904,-2368.659014,2374.896044,9548.656652
1097.774234,-1998.556043,1762.019645,7476.080014
1097.774563,-814.226536,1608.800546,5551.544565
1097.774893,1184.329507,536.266849,4367.215058
1097.775223,2220.617826,0.000000,5477.523971
1097.775552,2442.679609,1532.190996,7624.121203
1097.775882,370.102971,3907.087040,9400.615463
1097.776212,-2146.597232,5592.497135,10510.924376
1097.776541,-4071.132681,4519.963438,9252.574275
1097.776871,-2960.823768,1302.362347,8956.491898
1097.777201,-962.267725,-1149.143247,8660.409521
1097.777530,222.061783,-2145.067394,8512.368333
1097.777860,-740.205942,-766.095498,7920.203579
1097.778190,-1850.514855,153.219100,6587.832884
1097.778519,-1184.329507,-995.924147,7031.956449
1097.778849,518.144159,-1302.362347,9178.553681
1097.779179,1258.350101,0.000000,11991.336260
1097.779508,-222.061783,612.876398,13471.748144
1097.779838,-3108.864956,1685.410096,11917.315666
1097.780167,-4441.235652,612.876398,12065.356855
1097.780497,-3034.844362,-459.657299,13323.706956
1097.780827,-962.267725,-1225.752797,14508.036463
1097.781156,-444.123565,-153.219100,14211.954086
1097.781486,-740.205942,383.047749,10584.944971
1097.781816,-592.164754,-1532.190996,7179.997637
1097.782145,1924.535449,-2451.505594,8068.244768
1097.782475,2738.761985,-766.095498,11251.130318
1097.782805,1480.411884,2757.943793,12953.603985
1097.783134,-2072.576638,4366.744339,12065.356855
1097.783464,-4441.235652,4213.525239,10214.842000
1097.783794,-3552.988522,76.609550,9252.574275
1097.784123,-2812.782580,-1838.629195,9844.739029
1097.784453,-2664.741391,-1149.143247,8956.491898
1097.784783,-3034.844362,383.047749,7328.038826
1097.785112,-2442.679609,1532.190996,5551.544565
1097.785442,-814.226536,-612.876398,3923.091493
1097.785772,814.226536,-612.876398,4885.359217
1097.786101,1406.391290,766.095498,6513.812290
1097.786431,518.144159,2911.162892,8068.244768
1097.786760,-2072.576638,4443.353888,9400.615463
1097.787090,-3923.091493,4060.306139,9548.656652
1097.787420,-3923.091493,1991.848295,9474.636058
1097.787749,-2368.659014,229.828649,9770.718434
1097.788079,-370.102971,-153.219100,9622.677246
1097.788409,-370.102971,76.609550,8660.409521
1097.788738,-296.082377,153.219100,6809.894666
1097.789068,444.123565,-995.924147,6809.894666
1097.789398,2442.679609,-766.095498,8586.388927
1097.789727,2886.803174,1608.800546,10732.986159
1097.790057,962.267725,2757.943793,12139.377449
1097.790387,-1776.494261,3524.039291,12139.377449
1097.790716,-3256.906145,2451.505594,12879.583391
1097.791046,-2294.638420,766.095498,13989.892304
1097.791376,-1036.288319,995.924147,13545.768739
1097.791705,0.000000,76.609550,11621.233289
1097.792035,-592.164754,-766.095498,8882.471304
1097.792365,-592.164754,-766.095498,7402.059420
1097.792694,296.082377,-229.828649,9622.677246
1097.793024,740.205942,2068.457845,11325.150913
1097.793353,0.000000,2911.162892,11177.109724
1097.793683,-2072.576638,2451.505594,10732.986159
1097.794013,-3108.864956,1838.629195,10288.862594
1097.794342,-3330.926739,689.485948,10288.862594
1097.794672,-2960.823768,459.657299,10658.965565
1097.795002,-3108.864956,459.657299,10066.800811
1097.795331,-3775.050304,995.924147,8882.471304
1097.795661,-3034.844362,689.485948,7254.018232
1097.795991,-296.082377,0.000000,5921.647536
1097.796320,2294.638420,-383.047749,5329.482782
1097.796650,2442.679609,306.438199,5921.647536
1097.796980,1184.329507,1838.629195,7920.203579
1097.797309,-1850.514855,3753.867940,9770.718434
1097.797639,-4071.132681,4596.572988,9622.677246
1097.797969,-3775.050304,3370.820191,8808.450710
1097.798298,-1702.473667,0.000000,8512.368333
1097.798628,518.144159,-2374.896044,8660.409521
1097.798958,-296.082377,-1991.848295,7698.141797
1097.799287,-1332.370696,-536.266849,5477.523971
1097.799617,-592.164754,-995.924147,5107.421000
1097.799946,1184.329507,-1149.143247,7476.080014
1097.800276,2368.659014,383.047749,10807.006753
1097.800606,1110.308913,1072.533697,12435.459826
1097.800935,-1702.473667,2221.676944,12287.418637
1097.801265,-3478.967927,1608.800546,11621.233289
1097.801595,-2590.720797,-383.047749,12805.562797
1097.801924,-1036.288319,-1838.629195,13915.871710
1097.802254,-888.247130,-1149.143247,13989.892304
1097.802584,-1036.288319,-383.047749,11251.130318
1097.802913,-666.185348,0.000000,8364.327145
1097.803243,1110.308913,-1762.019645,9030.512492
1097.803573,2590.720797,-689.485948,11769.274478
1097.803902,2590.720797,1915.238745,13545.768739
1097.804232,-370.102971,4060.306139,12287.418637
1097.804562,-2442.679609,4213.525239,10362.883188
1097.804891,-2738.761985,1302.362347,10436.903782
1097.805221,-2294.638420,-153.219100,11843.295072
1097.805550,-2368.659014,-229.828649,11621.233289
1097.805880,-3404.947333,1225.752797,9400.615463
1097.806210,-3478.967927,2068.457845,5847.626942
1097.806539,-1850.514855,-229.828649,3404.947333
1097.806869,1110.308913,-2757.943793,4293.194464
1097.807199,2220.617826,-766.095498,6661.853478
1097.807528,370.102971,3600.648841,8216.285956
1097.807858,-2812.782580,6128.763984,8216.285956
1097.808188,-4515.256246,4903.011187,8290.306550
1097.808517,-3775.050304,1455.581446,9178.553681
1097.808847,-2072.576638,306.438199,10362.883188
1097.809177,-814.226536,995.924147,9252.574275
1097.809506,-1258.350101,306.438199,7179.997637
1097.809836,-1480.411884,-919.314598,4811.338623
1097.810166,-296.082377,-1915.238745,6069.688724
1097.810495,1332.370696,-766.095498,9400.615463
1097.810825,2368.659014,1455.581446,10732.986159
1097.811155,962.267725,3524.039291,11103.089130
1097.811484,-1406.391290,3217.601092,10288.862594
1097.811814,-2294.638420,1072.533697,10658.965565
1097.812143,-1480.411884,-689.485948,11843.295072
1097.812473,222.061783,612.876398,12879.583391
1097.812803,666.185348,1072.533697,12213.398043
1097.813132,-296.082377,612.876398,9844.739029
1097.813462,-370.102971,-1532.190996,7920.203579
1097.813792,888.247130,-3064.381992,9400.615463
1097.814121,1628.453072,229.828649,11769.274478
1097.814451,1628.453072,3524.039291,13027.624579
1097.814781,-1406.391290,4290.134789,12213.398043
1097.815110,-3849.070898,2298.286494,10881.027347
1097.815440,-3775.050304,153.219100,11029.068536
1097.815770,-2590.720797,-459.657299,12065.356855
1097.816099,-2072.576638,1225.752797,10807.006753
1097.816429,-2886.803174,1302.362347,8586.388927
1097.816759,-2590.720797,-1225.752797,6143.709319
1097.817088,-1036.288319,-2298.286494,5329.482782
1097.817418,888.247130,-229.828649,7105.977043
1097.817748,1628.453072,1991.848295,7698.141797
1097.818077,148.041188,3524.039291,8660.409521
1097.818407,-2442.679609,4136.915689,9696.697840
1097.818736,-3552.988522,3294.210641,9326.594869
1097.819066,-2812.782580,919.314598,9252.574275
1097.819396,-1332.370696,0.000000,8438.347739
1097.819725,-296.082377,0.000000,7994.224174
1097.820055,-1110.308913,0.000000,7846.182985
1097.820385,-1776.494261,-153.219100,6439.791695
1097.820714,-1036.288319,-536.266849,5699.585753
1097.821044,888.247130,-612.876398,6513.812290
1097.821374,2664.741391,229.828649,8956.491898
1097.821703,1628.453072,1532.190996,11547.212695
1097.822033,-1850.514855,2451.505594,11325.150913
1097.822363,-3627.009116,1685.410096,9548.656652
1097.822692,-2738.761985,-766.095498,11399.171507
1097.823022,-1628.453072,-612.876398,13619.789333
1097.823352,-888.247130,919.314598,13767.830521
1097.823681,-1332.370696,229.828649,10362.883188
1097.824011,-592.164754,-2068.457845,7105.977043
1097.824340,1110.308913,-3294.210641,7698.141797
1097.824670,2590.720797,-536.266849,11621.233289
1097.825000,2516.700203,2298.286494,13693.809927
1097.825329,0.000000,3140.991542,13175.665768
1097.825659,-2368.659014,3294.210641,11177.109724
1097.825989,-2368.659014,1302.362347,11547.212695
1097.826318,-1480.411884,-383.047749,13471.748144
1097.826648,-1036.288319,919.314598,14137.933492
1097.826978,-1998.556043,2604.724693,10584.944971
1097.827307,-2812.782580,1532.190996,5921.647536
1097.827637,-518.144159,-1991.848295,5181.441594
1097.827967,1110.308913,-1532.190996,6439.791695
1097.828296,1554.432478,1608.800546,8956.491898
1097.828626,74.020594,4290.134789,8808.450710
1097.828956,-3034.844362,4903.011187,7254.018232
1097.829285,-4219.173869,2604.724693,6809.894666
1097.829615,-3256.906145,306.438199,8438.347739
1097.829945,-1924.535449,76.609550,9326.594869
1097.830274,-1184.329507,1685.410096,9030.512492
1097.830604,-1998.556043,2145.067394,7105.977043
1097.830933,-2664.741391,153.219100,5625.565159
1097.831263,-1776.494261,-1685.410096,5625.565159
1097.831593,444.123565,-766.095498,7920.203579
1097.831922,2146.597232,2911.162892,9474.636058
1097.832252,1036.288319,4290.134789,9474.636058
1097.832582,-740.205942,2681.334243,9030.512492
1097.832911,-1702.473667,842.705048,9400.615463
1097.833241,-1184.329507,-689.485948,12139.377449
1097.833571,-666.185348,1302.362347,13175.665768
1097.833900,-962.267725,2298.286494,12287.418637
1097.834230,-1258.350101,76.609550,10658.965565
1097.834560,-1110.308913,-1455.581446,8956.491898
1097.834889,740.205942,-2451.505594,9548.656652
1097.835219,2664.741391,76.609550,11399.171507
1097.835549,3108.864956,2528.115143,11843.295072
1097.835878,444.123565,3064.381992,11695.253884
1097.836208,-2146.597232,1838.629195,11103.089130
1097.836538,-2368.659014,536.266849,12139.377449
1097.836867,-1998.556043,1608.800546,12213.398043
1097.837197,-666.185348,2604.724693,11695.253884
1097.837526,-888.247130,1225.752797,10214.842000
1097.837856,-1554.432478,1072.533697,7920.203579
1097.838186,-1258.350101,-842.705048,6513.812290
1097.838515,74.020594,-612.876398,6957.935855
1097.838845,592.164754,842.705048,7994.224174
1097.839175,-962.267725,2604.724693,9548.656652
1097.839504,-3330.926739,3524.039291,9696.697840
1097.839834,-4515.256246,1991.848295,8660.409521
1097.840164,-3923.091493,459.657299,8438.347739
1097.840493,-2368.659014,1149.143247,8734.430116
1097.840823,-1036.288319,1915.238745,9844.739029
1097.841153,-1332.370696,1915.238745,8586.388927
1097.841482,-1332.370696,1455.581446,5699.585753
1097.841812,-296.082377,-919.314598,4293.194464
1097.842142,1332.370696,-1455.581446,6291.750507
1097.842471,1924.535449,842.705048,9104.533087
1097.842801,518.144159,1915.238745,10807.006753
1097.843131,-1776.494261,2681.334243,10362.883188
1097.843460,-2960.823768,1378.971896,9696.697840
1097.843790,-2220.617826,0.000000,10214.842000
1097.844119,0.000000,-1378.971896,11621.233289
1097.844449,740.205942,-1149.143247,11473.192101
1097.844779,222.061783,153.219100,10214.842000
1097.845108,0.000000,383.047749,8364.327145
1097.845438,296.082377,-766.095498,8956.491898
1097.845768,1850.514855,-689.485948,11029.068536
1097.846097,2146.597232,766.095498,13027.624579
1097.846427,-666.185348,1915.238745,13175.665768
1097.846757,-3256.906145,3064.381992,11473.192101
1097.847086,-4071.132681,459.657299,10807.006753
1097.847416,-2590.720797,-1532.190996,12139.377449
1097.847746,-1036.288319,-459.657299,13767.830521
1097.848075,-1554.432478,2068.457845,12509.480420
1097.848405,-2664.741391,2451.505594,7994.224174
1097.848735,-1776.494261,536.266849,6143.709319
1097.849064,740.205942,-842.705048,7846.182985
1097.849394,2072.576638,1455.581446,9992.780217
1097.849723,222.061783,4443.353888,10658.965565
1097.850053,-2590.720797,5669.106685,8734.430116
1097.850383,-3627.009116,4060.306139,7624.121203
1097.850712,-3256.906145,612.876398,8660.409521
1097.851042,-1776.494261,766.095498,9326.594869
1097.851372,-296.082377,1378.971896,8512.368333
1097.851701,-666.185348,2145.067394,6217.729913
1097.852031,-814.226536,2145.067394,4737.318029
1097.852361,-518.144159,459.657299,4737.318029
1097.852690,666.185348,689.485948,6513.812290
1097.853020,1480.411884,2834.553343,8882.471304
1097.853350,296.082377,3983.696590,9400.615463
1097.853679,-2368.659014,4213.525239,9030.512492
1097.854009,-3330.926739,536.266849,9178.553681
1097.854339,-2590.720797,-842.705048,10510.924376
1097.854668,-1406.391290,612.876398,11325.150913
1097.854998,-518.144159,1225.752797,11177.109724
1097.855328,-592.164754,612.876398,9992.780217
1097.855657,-888.247130,229.828649,8956.491898
1097.855987,-148.041188,-229.828649,9178.553681
1097.856316,1776.494261,306.438199,10214.842000
1097.856646,1850.514855,1225.752797,11621.233289
1097.856976,-296.082377,1838.629195,12065.356855
1097.857305,-3404.947333,1685.410096,11991.336260
1097.857635,-3330.926739,0.000000,13027.624579
1097.857965,-1998.556043,383.047749,13101.645173
1097.858294,-370.102971,919.314598,12509.480420
1097.858624,-296.082377,1072.533697,11177.109724
1097.858954,-740.205942,919.314598,9104.533087
1097.859283,0.000000,306.438199,7550.100608
1097.859613,1258.350101,229.828649,7920.203579
1097.859943,1110.308913,2451.505594,9104.533087
1097.860272,-666.185348,3140.991542,9696.697840
1097.860602,-3256.906145,2451.505594,9622.677246
1097.860932,-4367.215058,1838.629195,8956.491898
1097.861261,-4293.194464,383.047749,8512.368333
1097.861591,-3108.864956,153.219100,8734.430116
1097.861921,-1998.556043,306.438199,8142.265362
1097.862250,-2146.597232,536.266849,7402.059420
1097.862580,-2146.597232,995.924147,6365.771101
1097.862909,-962.267725,842.705048,5699.585753
1097.863239,148.041188,1455.581446,6587.832884
1097.863569,1184.329507,2451.505594,8068.244768
1097.863898,592.164754,2681.334243,9622.677246
1097.864228,-1628.453072,2451.505594,8956.491898
1097.864558,-3034.844362,689.485948,7846.182985
1097.864887,-2664.741391,-995.924147,8956.491898
1097.865217,-1110.308913,-1685.410096,11029.068536
1097.865547,-740.205942,-536.266849,11621.233289
1097.865876,-1702.473667,0.000000,9770.718434
1097.866206,-1406.391290,-766.095498,7328.038826
1097.866536,888.247130,-612.876398,8290.306550
1097.866865,3256.906145,229.828649,10214.842000
1097.867195,3997.112087,536.266849,12139.377449
1097.867525,1924.535449,766.095498,12879.583391
1097.867854,-1702.473667,2451.505594,12731.542202
1097.868184,-4071.132681,1455.581446,13101.645173
1097.868514,-3552.988522,842.705048,14285.974681
1097.868843,-1702.473667,383.047749,13989.892304
1097.869173,-814.226536,153.219100,12065.356855
1097.869502,-1184.329507,0.000000,8512.368333
1097.869832,-222.061783,-1072.533697,6735.874072
1097.870162,518.144159,-1608.800546,7772.162391
1097.870491,1036.288319,689.485948,8882.471304
1097.870821,0.000000,2834.553343,10658.965565
1097.871151,-2072.576638,4213.525239,10732.986159
1097.871480,-3923.091493,4749.792088,9326.594869
1097.871810,-3627.009116,1915.238745,8660.409521
1097.872140,-2220.617826,0.000000,9400.615463
1097.872469,-1406.391290,383.047749,8956.491898
1097.872799,-1628.453072,1762.019645,8142.265362
1097.873129,-2442.679609,1838.629195,5699.585753
1097.873458,-2294.638420,536.266849,4737.318029
1097.873788,-592.164754,459.657299,5625.565159
1097.874117,962.267725,1149.143247,8290.306550
1097.874447,0.000000,2987.772442,9844.739029
1097.874777,-2368.659014,4443.353888,9104.533087
1097.875106,-3775.050304,2528.115143,7920.203579
1097.875436,-2812.782580,-612.876398,8068.244768
1097.875765,-814.226536,-995.924147,9474.636058
1097.876095,0.000000,689.485948,10732.986159
1097.876425,-888.247130,1915.238745,9844.739029
1097.876754,-1850.514855,1378.971896,7179.997637
1097.877084,370.102971,-612.876398,7179.997637
1097.877413,2812.782580,-1685.410096,9548.656652
1097.877743,3701.029710,1455.581446,11917.315666
1097.878073,1850.514855,3753.867940,11843.295072
1097.878402,-1258.350101,3447.429741,10510.924376
1097.878732,-2516.700203,1072.533697,10510.924376
1097.879061,-2294.638420,1149.143247,12657.521608
1097.879391,-814.226536,1915.238745,13989.892304
1097.879721,-888.247130,2145.067394,12509.480420
1097.880050,-2368.659014,306.438199,7846.182985
1097.880380,-1850.514855,-2604.724693,5995.668130
1097.880709,-444.123565,-3983.696590,8734.430116
1097.881039,370.102971,-383.047749,12139.377449
1097.881369,-1258.350101,4673.182538,12953.603985
1097.881698,-3552.988522,5056.230287,11251.130318
1097.882028,-3923.091493,2451.505594,10288.862594
1097.882357,-2664.741391,-842.705048,11473.192101
1097.882687,-1776.494261,689.485948,11399.171507
1097.883017,-1036.288319,2221.676944,9178.553681
1097.883346,-1184.329507,1991.848295,6883.915261
1097.883676,-962.267725,1685.410096,5551.544565
1097.884006,-296.082377,-459.657299,6735.874072
1097.884335,888.247130,-612.876398,7772.162391
1097.884665,592.164754,2145.067394,8364.327145
1097.884994,-666.185348,2911.162892,8438.347739
1097.885324,-2220.617826,1149.143247,8216.285956
1097.885654,-2960.823768,-459.657299,8660.409521
1097.885983,-2812.782580,-1225.752797,9326.594869
1097.886313,-1998.556043,842.705048,9696.697840
1097.886642,-1776.494261,1149.143247,9178.553681
1097.886972,-2368.659014,-229.828649,8290.306550
1097.887302,-2812.782580,-1455.581446,6883.915261
1097.887631,-2220.617826,-1838.629195,6069.688724
1097.887961,962.267725,-1608.800546,8142.265362
1097.888290,2368.659014,-459.657299,10362.883188
1097.888620,0.000000,1302.362347,11547.212695
1097.888950,-2664.741391,919.314598,12435.459826
1097.889279,-4219.173869,-306.438199,12953.603985
1097.889609,-2442.679609,383.047749,14063.912898
1097.889938,-518.144159,1072.533697,14211.954086
1097.890268,740.205942,-153.219100,12657.521608
1097.890598,666.185348,-1455.581446,9474.636058
1097.890927,888.247130,-1915.238745,7920.203579
1097.891257,2368.659014,-919.314598,8512.368333
1097.891586,2960.823768,2145.067394,11103.089130
1097.891916,2442.679609,3600.648841,12953.603985
1097.892246,-740.205942,4290.134789,11621.233289
1097.892575,-2590.720797,3447.429741,9252.574275
1097.892905,-2072.576638,612.876398,9104.533087
1097.893234,-962.267725,612.876398,9844.739029
1097.893564,-1924.535449,1762.019645,10066.800811
1097.893894,-3849.070898,2681.334243,8734.430116
1097.894223,-4145.153275,2374.896044,6735.874072
1097.894553,-2812.782580,1378.971896,5107.421000
1097.894882,-1924.535449,-229.828649,5107.421000
1097.895212,-1110.308913,229.828649,6957.935855
1097.895542,-1998.556043,1915.238745,8660.409521
1097.895871,-3923.091493,3294.210641,8882.471304
1097.896201,-5181.441594,3447.429741,8068.244768
1097.896530,-4367.215058,1838.629195,8586.388927
1097.896860,-1776.494261,-383.047749,9992.780217
1097.897190,-518.144159,919.314598,10584.944971
1097.897519,-962.267725,3064.381992,8660.409521
1097.897849,-888.247130,2451.505594,5773.606348
1097.898178,888.247130,-383.047749,5773.606348
1097.898508,2590.720797,-536.266849,8364.327145
1097.898838,3923.091493,459.657299,11695.253884
1097.899167,2072.576638,1991.848295,12065.356855
1097.899497,-1332.370696,2911.162892,10510.924376
1097.899826,-2368.659014,306.438199,10584.944971
1097.900156,-1258.350101,-1685.410096,12583.501014
1097.900486,296.082377,-689.485948,14211.954086
1097.900815,-518.144159,919.314598,12953.603985
1097.901145,-2442.679609,995.924147,9474.636058
1097.901474,-2368.659014,-919.314598,7698.141797
1097.901804,0.000000,-2681.334243,9474.636058
1097.902134,1332.370696,-536.266849,11621.233289
1097.902463,0.000000,2528.115143,12139.377449
1097.902793,-2960.823768,3600.648841,10436.903782
1097.903122,-4293.194464,1455.581446,9474.636058
1097.903452,-4219.173869,-1762.019645,10658.965565
1097.903782,-2664.741391,-1225.752797,13027.624579
1097.904111,-1776.494261,1302.362347,12657.521608
1097.904441,-2294.638420,2451.505594,9400.615463
1097.904770,-2886.803174,1149.143247,5773.606348
1097.905100,-1258.350101,-1991.848295,5329.482782
1097.905430,1036.288319,-1455.581446,7254.018232
1097.905759,1776.494261,2451.505594,8586.388927
1097.906089,370.102971,4673.182538,8438.347739
1097.906418,-1776.494261,3294.210641,7328.038826
1097.906748,-2664.741391,459.657299,7031.956449
1097.907078,-1776.494261,-459.657299,8290.306550
1097.907407,-518.144159,612.876398,8882.471304
1097.907737,0.000000,1838.629195,8660.409521
1097.908066,-1628.453072,842.705048,7328.038826
1097.908396,-3182.885551,-229.828649,6069.688724
1097.908726,-2442.679609,-995.924147,6291.750507
1097.909055,592.164754,-229.828649,8068.244768
1097.909385,2516.700203,1455.581446,9474.636058
1097.909714,592.164754,1455.581446,9918.759623
1097.910044,-2072.576638,153.219100,10436.903782
1097.910374,-3997.112087,-1378.971896,11695.253884
1097.910703,-3701.029710,-689.485948,13249.686362
1097.911033,-2368.659014,1455.581446,14804.118840
1097.911362,-1406.391290,1608.800546,15100.201217
1097.911692,-2220.617826,0.000000,12065.356855
1097.912022,-1850.514855,-2528.115143,8586.388927
1097.912351,888.247130,-2298.286494,8808.450710
1097.912681,3478.967927,536.266849,11251.130318
1097.913010,2960.823768,4136.915689,12361.439231
1097.913340,592.164754,4673.182538,11695.253884
1097.913670,-1184.329507,2221.676944,10066.800811
1097.913999,-1554.432478,766.095498,9992.780217
1097.914329,-888.247130,2604.724693,11695.253884
1097.914658,-148.041188,2681.334243,11547.212695
1097.914988,-1258.350101,612.876398,9696.697840
1097.915318,-3108.864956,0.000000,7105.977043
1097.915647,-2812.782580,-383.047749,5847.626942
1097.915977,-1702.473667,-536.266849,6069.688724
1097.916306,-592.164754,1762.019645,7179.997637
1097.916636,-1184.329507,3447.429741,7624.121203
1097.916966,-2886.803174,2681.334243,6957.935855
1097.917295,-3627.009116,2834.553343,6957.935855
1097.917625,-2886.803174,2221.676944,6735.874072
1097.917954,-1480.411884,1072.533697,7624.121203
1097.918284,-888.247130,995.924147,9622.677246
1097.918614,-2516.700203,2451.505594,9696.697840
1097.918943,-3330.926739,1915.238745,7772.162391
1097.919273,-3034.844362,-919.314598,6365.771101
1097.919603,0.000000,-766.095498,7698.141797
1097.919932,2368.659014,0.000000,10658.965565
1097.920262,1628.453072,689.485948,11473.192101
1097.920591,-370.102971,1225.752797,9400.615463
1097.920921,-1554.432478,612.876398,9474.636058
1097.921251,-740.205942,0.000000,11843.295072
1097.921580,740.205942,1455.581446,14063.912898
1097.921910,740.205942,2451.505594,13471.748144
1097.922239,-888.247130,1455.581446,9474.636058
1097.922569,-592.164754,-1225.752797,7402.059420
1097.922899,740.205942,-2374.896044,9104.533087
1097.923228,2368.659014,-766.095498,12361.439231
1097.923558,1332.370696,1685.410096,13767.830521
1097.923887,-2368.659014,2221.676944,11917.315666
1097.924217,-4515.256246,1685.410096,10288.862594
1097.924547,-4367.215058,-766.095498,11103.089130
1097.924876,-2368.659014,-995.924147,12361.439231
1097.925206,-888.247130,612.876398,12213.398043
1097.925535,-1480.411884,1608.800546,10214.842000
1097.925865,-2516.700203,1225.752797,7105.977043
1097.926195,-2664.741391,-306.438199,6661.853478
1097.926524,-888.247130,-842.705048,7402.059420
1097.926854,518.144159,1685.410096,8512.368333
1097.927183,296.082377,3677.258390,9104.533087
1097.927513,-1258.350101,4290.134789,7624.121203
1097.927843,-2368.659014,1608.800546,6661.853478
1097.928172,-1184.329507,-153.219100,7698.141797
1097.928502,518.144159,1532.190996,9178.553681
1097.928831,518.144159,3447.429741,8956.491898
1097.929161,-888.247130,3217.601092,7476.080014
1097.929491,-2368.659014,689.485948,5995.668130
1097.929820,-2590.720797,153.219100,6661.853478
1097.930150,-666.185348,1302.362347,7994.224174
1097.930479,740.205942,2145.067394,8660.409521
1097.930809,814.226536,1455.581446,9104.533087
1097.931139,-1554.432478,536.266849,8512.368333
1097.931468,-3256.906145,-306.438199,9474.636058
1097.931798,-3256.906145,229.828649,10584.944971
1097.932127,-1776.494261,1608.800546,11991.336260
1097.932457,-1110.308913,2068.457845,12731.542202
1097.932787,-2220.617826,1608.800546,11547.212695
1097.933116,-2294.638420,-229.828649,9548.656652
1097.933446,0.000000,-1762.019645,9696.697840
1097.933775,2294.638420,0.000000,11399.171507
1097.934105,2368.659014,2221.676944,13323.706956
1097.934435,370.102971,2834.553343,13027.624579
1097.934764,-1924.535449,2528.115143,12065.356855
1097.935094,-2220.617826,1225.752797,11177.109724
1097.935423,-814.226536,1378.971896,11399.171507
1097.935753,1036.288319,1532.190996,11991.336260
1097.936083,222.061783,2374.896044,10658.965565
1097.936412,-1628.453072,2068.457845,7179.997637
1097.936742,-962.267725,-229.828649,5107.421000
1097.937071,814.226536,-995.924147,5699.585753
1097.937401,1332.370696,689.485948,7328.038826
1097.937731,-814.226536,2221.676944,8364.327145
1097.938060,-2960.823768,1762.019645,7402.059420
1097.938390,-3701.029710,0.000000,6661.853478
1097.938719,-3478.967927,-1072.533697,7254.018232
1097.939049,-2368.659014,-919.314598,8808.450710
1097.939379,-1776.494261,-612.876398,9770.718434
1097.939708,-2368.659014,919.314598,9548.656652
1097.940038,-3182.885551,842.705048,7624.121203
1097.940367,-2516.700203,383.047749,7179.997637
1097.940697,-148.041188,-1149.143247,7846.182985
1097.941027,1850.514855,-1149.143247,9474.636058
1097.941356,1702.473667,0.000000,9696.697840
1097.941686,-518.144159,-459.657299,9104.533087
1097.942015,-2220.617826,-1762.019645,8586.388927
1097.942345,-2516.700203,-3677.258390,10066.800811
1097.942675,-1184.329507,-3524.039291,12361.439231
1097.943004,-444.123565,-2528.115143,13249.686362
1097.943334,-1036.288319,-2451.505594,11991.336260
1097.943663,-2664.741391,-3600.648841,9400.615463
1097.943993,-1480.411884,-4673.182538,9474.636058
1097.944323,1110.308913,-3064.381992,11769.274478
1097.944652,2664.741391,-766.095498,12731.542202
1097.944982,1998.556043,612.876398,11769.274478
1097.945311,-222.061783,-536.266849,10288.862594
1097.945641,-1628.453072,-2451.505594,9918.759623
1097.945971,-1998.556043,-3447.429741,11177.109724
1097.946300,-888.247130,-2834.553343,12731.542202
1097.946630,-1258.350101,-1225.752797,12509.480420
1097.946959,-2738.761985,-1378.971896,9770.718434
1097.947289,-3330.926739,-4443.353888,7920.203579
1097.947619,-1850.514855,-5439.278036,7254.018232
1097.947948,370.102971,-2987.772442,9252.574275
1097.948278,1776.494261,306.438199,10140.821405
1097.948607,1184.329507,1838.629195,8956.491898
1097.948937,0.000000,383.047749,8142.265362
1097.949267,-1480.411884,-1149.143247,7550.100608
1097.949596,-1850.514855,-612.876398,8512.368333
1097.949926,-1702.473667,306.438199,9474.636058
1097.950255,-1924.535449,-842.705048,8142.265362
1097.950585,-2368.659014,-3600.648841,6513.812290
1097.950915,-1998.556043,-6358.592633,5995.668130
1097.951244,-1184.329507,-4903.011187,7624.121203
1097.951574,-222.061783,-766.095498,8512.368333
1097.951903,888.247130,1608.800546,7550.100608
1097.952233,1850.514855,0.000000,8068.244768
1097.952563,2072.576638,-153.219100,10362.883188
1097.952892,222.061783,1302.362347,11547.212695
1097.953222,-1406.391290,2374.896044,11547.212695
1097.953551,-2960.823768,766.095498,10510.924376
1097.953881,-4293.194464,-2374.896044,9622.677246
1097.954211,-4737.318029,-5898.935335,9548.656652
1097.954540,-3330.926739,-8963.317327,9400.615463
1097.954870,-1924.535449,-9269.755526,8512.368333
1097.955200,-1480.411884,-5669.106685,8364.327145
1097.955529,-592.164754,-2681.334243,9104.533087
1097.955859,370.102971,-2221.676944,12657.521608
1097.956188,740.205942,306.438199,14582.057057
1097.956518,740.205942,3830.477490,15248.242405
1097.956848,1258.350101,2911.162892,14582.057057
1097.957177,740.205942,1072.533697,14063.912898
1097.957507,-1036.288319,-536.266849,13027.624579
1097.957836,-2516.700203,-3524.039291,11769.274478
1097.958166,-2960.823768,-4060.306139,9548.656652
1097.958496,-2812.782580,-3217.601092,7698.141797
1097.958825,-1406.391290,-4749.792088,5329.482782
1097.959155,814.226536,-8656.879127,2812.782580
1097.959484,2368.659014,-8120.612279,2812.782580
1097.959814,3775.050304,-5132.839837,4663.297435
1097.960144,3108.864956,-459.657299,7846.182985
1097.960473,1258.350101,3370.820191,11991.336260
1097.960803,-962.267725,5209.449386,15618.345376
1097.961132,-3478.967927,6358.592633,15766.386565
1097.961462,-4811.338623,4979.620737,14063.912898
1097.961792,-3775.050304,1072.533697,11473.192101
1097.962121,-2590.720797,-3447.429741,8512.368333
1097.962451,-2368.659014,-4903.011187,5847.626942
1097.962780,-2442.679609,-5362.668486,4145.153275
1097.963110,-2072.576638,-4903.011187,3775.050304
1097.963440,-2294.638420,-4213.525239,3849.070898
1097.963769,-2146.597232,-2451.505594,4441.235652
1097.964099,0.000000,-2451.505594,5625.565159
1097.964428,2960.823768,-2987.772442,7402.059420
1097.964758,3701.029710,-2298.286494,9474.636058
1097.965088,2220.617826,-612.876398,11621.233289
1097.965417,148.041188,919.314598,14804.118840
1097.965747,-1702.473667,2221.676944,17542.880825
1097.966076,-3108.864956,3064.381992,17764.942608
1097.966406,-4071.132681,1225.752797,15766.386565
1097.966736,-3552.988522,-2451.505594,11029.068536
1097.967065,-1850.514855,-6435.202183,6809.894666
1097.967395,592.164754,-8197.221829,4737.318029
1097.967724,2516.700203,-7048.078582,5477.523971
1097.968054,1998.556043,-4366.744339,7179.997637
1097.968384,518.144159,-1685.410096,8956.491898
1097.968713,-962.267725,0.000000,11547.212695
1097.969043,-1776.494261,919.314598,13841.851115
1097.969372,-2368.659014,1225.752797,14063.912898
1097.969702,-3552.988522,-459.657299,12509.480420
1097.970032,-3849.070898,-3600.648841,10584.944971
1097.970361,-3034.844362,-5975.544884,9918.759623
1097.970691,-2442.679609,-6894.859482,9252.574275
1097.971020,-2368.659014,-6588.421283,8290.306550
1097.971350,-2146.597232,-5056.230287,7105.977043
1097.971680,-740.205942,-4519.963438,6513.812290
1097.972009,1332.370696,-3140.991542,7031.956449
1097.972339,2072.576638,-2221.676944,8290.306550
1097.972668,1258.350101,0.000000,9622.677246
1097.972998,-296.082377,2681.334243,10881.027347
1097.973328,-2368.659014,2757.943793,11917.315666
1097.973657,-2738.761985,1072.533697,11843.295072
1097.973987,-1628.453072,-2221.676944,10288.862594
1097.974316,74.020594,-5132.839837,8364.327145
1097.974646,444.123565,-6971.469032,6217.729913
1097.974976,666.185348,-7354.516781,5477.523971
1097.975305,1036.288319,-6588.421283,6513.812290
1097.975635,74.020594,-4673.182538,8512.368333
1097.975964,-1184.329507,-766.095498,10881.027347
1097.976294,-1998.556043,2604.724693,12953.603985
1097.976623,-1036.288319,3524.039291,12953.603985
1097.976953,-814.226536,1378.971896,11473.192101
1097.977283,-666.185348,229.828649,10214.842000
1097.977612,-592.164754,-1455.581446,9696.697840
1097.977942,0.000000,-3140.991542,9844.739029
1097.978271,-740.205942,-3370.820191,8956.491898
1097.978601,-2368.659014,-3064.381992,8364.327145
1097.978930,-2738.761985,-3983.696590,8660.409521
1097.979260,-2516.700203,-4290.134789,9474.636058
1097.979589,-2442.679609,-3140.991542,9918.759623
1097.979919,-2294.638420,-2298.286494,10658.965565
1097.980248,-1850.514855,-1532.190996,11177.109724
1097.980578,-1702.473667,0.000000,12287.418637
1097.980907,-1332.370696,842.705048,13027.624579
1097.981237,-1258.350101,2145.067394,12509.480420
1097.981567,-666.185348,2451.505594,10140.821405
1097.981896,962.267725,1608.800546,7698.141797
1097.982226,2442.679609,-1532.190996,5699.585753
1097.982555,3330.926739,-4290.134789,3701.029710
1097.982885,3256.906145,-5669.106685,3923.091493
1097.983214,1258.350101,-5362.668486,6217.729913
1097.983544,-1924.535449,-3140.991542,9178.553681
1097.983873,-3923.091493,-1455.581446,12213.398043
1097.984203,-4515.256246,-459.657299,13767.830521
1097.984532,-3775.050304,-383.047749,14137.933492
1097.984862,-2886.803174,-229.828649,13249.686362
1097.985191,-2442.679609,-612.876398,11251.130318
1097.985521,-1850.514855,-1455.581446,9326.594869
1097.985851,-1110.308913,-1302.362347,7254.018232
1097.986180,-296.082377,-766.095498,6513.812290
1097.986510,296.082377,-2221.676944,6365.771101
1097.986839,0.000000,-3830.477490,5773.606348
1097.987169,-1036.288319,-4749.792088,5181.441594
1097.987498,-1480.411884,-5592.497135,6217.729913
1097.987828,-1480.411884,-6205.373534,9252.574275
1097.988157,-1480.411884,-5822.325785,11917.315666
1097.988487,-1480.411884,-4366.744339,13989.892304
1097.988816,-1332.370696,-2451.505594,14804.118840
1097.989146,-1332.370696,-995.924147,14952.160028
1097.989475,-962.267725,-229.828649,13989.892304
1097.989805,444.123565,-1072.533697,12065.356855
1097.990135,1036.288319,-1378.971896,10436.903782
1097.990464,444.123565,-1838.629195,9474.636058
1097.990794,-296.082377,-2451.505594,8142.265362
1097.991123,-1332.370696,-4060.306139,7031.956449
1097.991453,-2368.659014,-5209.449386,6587.832884
1097.991782,-2516.700203,-5362.668486,7920.203579
1097.992112,-2590.720797,-4596.572988,9326.594869
1097.992441,-1554.432478,-5056.230287,8734.430116
1097.992771,-740.205942,-5362.668486,8956.491898
1097.993100,-296.082377,-5209.449386,9770.718434
1097.993430,-962.267725,-3217.601092,11621.233289
1097.993759,-1998.556043,-766.095498,12879.583391
1097.994089,-2590.720797,-153.219100,12583.501014
1097.994419,-2664.741391,-1455.581446,11325.150913
1097.994748,-2442.679609,-1762.019645,10436.903782
1097.995078,-1924.535449,-2757.943793,9474.636058
1097.995407,-814.226536,-2911.162892,8142.265362
1097.995737,0.000000,-1838.629195,7179.997637
1097.996066,444.123565,-766.095498,7105.977043
1097.996396,518.144159,0.000000,8068.244768
1097.996725,222.061783,459.657299,8956.491898
1097.997055,-222.061783,1225.752797,9326.594869
1097.997384,-444.123565,459.657299,9548.656652
1097.997714,-1776.494261,-536.266849,10066.800811
1097.998043,-3330.926739,-1532.190996,11177.109724
1097.998373,-5107.421000,-1915.238745,12065.356855
1097.998703,-5847.626942,-1149.143247,12213.398043
1097.999032,-6365.771101,0.000000,11177.109724
1097.999362,-6069.688724,153.219100,9696.697840
1097.999691,-4885.359217,-306.438199,8290.306550
1098.000021,-2812.782580,306.438199,7476.080014
1098.000350,-962.267725,1225.752797,7031.956449
1098.000680,0.000000,2068.457845,6809.894666
1098.001009,0.000000,2451.505594,6957.935855
1098.001339,-592.164754,2068.457845,8364.327145
1098.001668,-2220.617826,1149.143247,10066.800811
1098.001998,-3627.009116,766.095498,11251.130318
1098.002327,-5403.503377,383.047749,11769.274478
1098.002657,-7105.977043,-612.876398,11991.336260
1098.002987,-7328.038826,-1072.533697,11547.212695
1098.003316,-6957.935855,-1455.581446,10066.800811
1098.003646,-5329.482782,-1608.800546,7698.141797
1098.003975,-2960.823768,-919.314598,6217.729913
1098.004305,-1480.411884,-612.876398,5995.668130
1098.004634,-370.102971,1072.533697,7031.956449
1098.004964,-444.123565,1225.752797,7624.121203
1098.005293,-1998.556043,2221.676944,8734.430116
1098.005623,-3701.029710,2221.676944,10732.986159
1098.005952,-5625.565159,1685.410096,12805.562797
1098.006282,-6661.853478,459.657299,14063.912898
1098.006611,-7254.018232,-689.485948,13619.789333
1098.006941,-7402.059420,-995.924147,12953.603985
1098.007271,-6735.874072,-919.314598,11621.233289
1098.007600,-5107.421000,-1302.362347,10436.903782
1098.007930,-3775.050304,-995.924147,8586.388927
1098.008259,-2738.761985,-536.266849,6883.915261
1098.008589,-2590.720797,-766.095498,6143.709319
1098.008918,-2812.782580,-459.657299,7179.997637
1098.009248,-3552.988522,-536.266849,8364.327145
1098.009577,-4367.215058,-383.047749,9030.512492
1098.009907,-5477.523971,-1302.362347,9326.594869
1098.010236,-5995.668130,-1302.362347,10362.883188
1098.010566,-6291.750507,-1532.190996,10955.047942
