#time,accel_x,accel_y,accel_z
1046.895997,-1110.308913,842.705048,9474.636058
1046.896327,-1184.329507,919.314598,9474.636058
1046.896656,-1258.350101,612.876398,9400.615463
1046.896986,-814.226536,766.095498,9030.512492
1046.897315,-1258.350101,766.095498,9326.594869
1046.897645,-1036.288319,842.705048,9474.636058
1046.897974,-962.267725,919.314598,9548.656652
1046.898304,-1036.288319,1072.533697,9474.636058
1046.898633,-666.185348,766.095498,9326.594869
1046.898963,-888.247130,766.095498,9622.677246
1046.899292,-1258.350101,1072.533697,9548.656652
1046.899622,-1110.308913,766.095498,9622.677246
1046.899951,-1184.329507,842.705048,9474.636058
1046.900281,-740.205942,995.924147,9696.697840
1046.900610,-740.205942,536.266849,9622.677246
1046.900940,-962.267725,766.095498,9548.656652
1046.901269,-962.267725,919.314598,9622.677246
1046.901599,-888.247130,842.705048,9696.697840
1046.901928,-888.247130,1378.971896,9622.677246
1046.902258,-888.247130,995.924147,9474.636058
1046.902587,-1184.329507,995.924147,9696.697840
1046.902917,-1110.308913,1149.143247,9548.656652
1046.903246,-1036.288319,995.924147,9548.656652
1046.903576,-888.247130,919.314598,9696.697840
1046.903905,-1036.288319,1072.533697,9770.718434
1046.904235,-1110.308913,842.705048,9622.677246
1046.904564,-888.247130,919.314598,9622.677246
1046.904894,-1184.329507,919.314598,9474.636058
1046.905223,-1258.350101,1149.143247,9474.636058
1046.905553,-1184.329507,459.657299,9104.533087
1046.905882,-1110.308913,1225.752797,9400.615463
1046.906212,-1036.288319,919.314598,9548.656652
1046.906541,-1184.329507,842.705048,9474.636058
1046.906871,-1184.329507,919.314598,9474.636058
1046.907200,-888.247130,1072.533697,9474.636058
1046.907530,-1258.350101,995.924147,9252.574275
1046.907859,-1036.288319,919.314598,9400.615463
1046.908189,-1036.288319,689.485948,9400.615463
1046.908518,-962.267725,1149.143247,9474.636058
1046.908848,-1110.308913,995.924147,9548.656652
1046.909177,-962.267725,1225.752797,9178.553681
1046.909507,-962.267725,995.924147,9548.656652
1046.909836,-1184.329507,1072.533697,9474.636058
1046.910166,-1110.308913,919.314598,9548.656652
1046.910495,-962.267725,842.705048,9622.677246
1046.910825,-962.267725,919.314598,9548.656652
1046.911154,-888.247130,766.095498,9548.656652
1046.911484,-888.247130,919.314598,9474.636058
1046.911813,-1036.288319,689.485948,9770.718434
1046.912143,-962.267725,842.705048,9696.697840
1046.912472,-1184.329507,1608.800546,9918.759623
1046.912802,-592.164754,1302.362347,9696.697840
1046.913132,-1036.288319,1072.533697,9770.718434
1046.913461,-1036.288319,766.095498,9548.656652
1046.913791,-1036.288319,842.705048,9548.656652
1046.914120,-666.185348,995.924147,9844.739029
1046.914450,-740.205942,995.924147,9548.656652
1046.914779,-962.267725,919.314598,9474.636058
1046.915109,-1258.350101,995.924147,9326.594869
1046.915438,-1036.288319,995.924147,9548.656652
1046.915768,-1184.329507,842.705048,9548.656652
1046.916097,-1110.308913,689.485948,9548.656652
1046.916427,-962.267725,766.095498,9474.636058
1046.916756,-888.247130,1072.533697,9474.636058
1046.917086,-888.247130,995.924147,9474.636058
1046.917415,-1110.308913,1149.143247,9400.615463
1046.917745,-814.226536,919.314598,9400.615463
1046.918074,-1036.288319,1302.362347,9696.697840
1046.918404,-1036.288319,1072.533697,9474.636058
1046.918733,-1258.350101,995.924147,9400.615463
1046.919063,-962.267725,1225.752797,9400.615463
1046.919392,-962.267725,766.095498,9252.574275
1046.919722,-1036.288319,1302.362347,9474.636058
1046.920051,-962.267725,1072.533697,9400.615463
1046.920381,-1036.288319,995.924147,9400.615463
1046.920710,-1036.288319,995.924147,9474.636058
1046.921040,-814.226536,1149.143247,9622.677246
1046.921369,-962.267725,1072.533697,9474.636058
1046.921699,-962.267725,919.314598,9400.615463
1046.922028,-888.247130,919.314598,9696.697840
1046.922358,-1110.308913,919.314598,9770.718434
1046.922687,-962.267725,919.314598,9548.656652
1046.923017,-814.226536,1378.971896,9622.677246
1046.923346,-962.267725,995.924147,9696.697840
1046.923676,-1184.329507,1072.533697,9474.636058
1046.924005,-1110.308913,766.095498,9696.697840
1046.924335,-1036.288319,689.485948,9696.697840
1046.924664,-888.247130,995.924147,9400.615463
1046.924994,-296.082377,1302.362347,9030.512492
1046.925323,444.123565,459.657299,9400.615463
1046.925653,592.164754,459.657299,9474.636058
1046.925982,740.205942,842.705048,9252.574275
1046.926312,148.041188,766.095498,9104.533087
1046.926641,0.000000,612.876398,9622.677246
1046.926971,-444.123565,842.705048,9844.739029
1046.927300,-592.164754,766.095498,10436.903782
1046.927630,-666.185348,229.828649,10140.821405
1046.927959,-444.123565,229.828649,9548.656652
1046.928289,592.164754,76.609550,9326.594869
1046.928618,1406.391290,0.000000,9104.533087
1046.928948,2442.679609,459.657299,8734.430116
1046.929277,3256.906145,689.485948,8586.388927
1046.929607,3627.009116,1302.362347,8808.450710
1046.929936,3923.091493,2221.676944,8956.491898
1046.930266,3552.988522,2068.457845,9400.615463
1046.930595,2886.803174,1302.362347,10140.821405
1046.930925,2072.576638,1225.752797,10288.862594
1046.931254,1702.473667,995.924147,10584.944971
1046.931584,1554.432478,383.047749,10807.006753
1046.931913,1850.514855,0.000000,10140.821405
1046.932243,2220.617826,0.000000,9474.636058
1046.932572,2664.741391,-536.266849,9178.553681
1046.932902,3552.988522,0.000000,9178.553681
1046.933231,4293.194464,1302.362347,9104.533087
1046.933561,4071.132681,2221.676944,9474.636058
1046.933890,3404.947333,2757.943793,9918.759623
1046.934220,2294.638420,2911.162892,10436.903782
1046.934549,444.123565,2987.772442,10436.903782
1046.934879,-1406.391290,2145.067394,9918.759623
1046.935208,-1776.494261,1225.752797,9178.553681
1046.935538,-962.267725,0.000000,8438.347739
1046.935867,518.144159,-1225.752797,7402.059420
1046.936197,2294.638420,-1072.533697,6809.894666
1046.936526,3404.947333,-383.047749,6735.874072
1046.936856,4293.194464,689.485948,7476.080014
1046.937185,3849.070898,2451.505594,9326.594869
1046.937515,2368.659014,4596.572988,10732.986159
1046.937844,1480.411884,4366.744339,12065.356855
1046.938174,0.000000,3294.210641,12657.521608
1046.938503,-962.267725,1838.629195,12657.521608
1046.938833,-1628.453072,383.047749,11917.315666
1046.939162,-1628.453072,-2068.457845,11177.109724
1046.939492,-962.267725,-2528.115143,9548.656652
1046.939821,296.082377,-2528.115143,8808.450710
1046.940151,1850.514855,-1685.410096,7994.224174
1046.940480,3552.988522,-306.438199,7179.997637
1046.940810,4885.359217,689.485948,6809.894666
1046.941139,4959.379811,2451.505594,7476.080014
1046.941469,4811.338623,3677.258390,8364.327145
1046.941798,4441.235652,4136.915689,9696.697840
1046.942128,3330.926739,3753.867940,10732.986159
1046.942457,1924.535449,2298.286494,11251.130318
1046.942787,1110.308913,1302.362347,11325.150913
1046.943116,0.000000,-383.047749,10658.965565
1046.943446,-814.226536,-1072.533697,10510.924376
1046.943775,-1184.329507,-1532.190996,10510.924376
1046.944105,-814.226536,-1302.362347,10288.862594
1046.944434,0.000000,-1072.533697,10066.800811
1046.944764,0.000000,0.000000,9696.697840
1046.945093,1184.329507,306.438199,8882.471304
1046.945423,2442.679609,306.438199,8512.368333
1046.945752,4071.132681,459.657299,8290.306550
1046.946082,4737.318029,766.095498,7920.203579
1046.946411,4885.359217,612.876398,8364.327145
1046.946741,4441.235652,842.705048,9252.574275
1046.947070,3404.947333,1608.800546,9844.739029
1046.947400,2146.597232,1915.238745,10584.944971
1046.947729,1850.514855,1915.238745,10584.944971
1046.948059,1924.535449,1991.848295,10658.965565
1046.948388,1924.535449,2221.676944,10436.903782
1046.948718,1998.556043,1762.019645,9696.697840
1046.949047,2294.638420,459.657299,8216.285956
1046.949377,2220.617826,383.047749,7624.121203
1046.949706,2590.720797,306.438199,7624.121203
1046.950036,2368.659014,1149.143247,8808.450710
1046.950365,1406.391290,919.314598,8956.491898
1046.950695,0.000000,76.609550,9252.574275
1046.951024,-1258.350101,612.876398,9992.780217
1046.951354,-1184.329507,1072.533697,11547.212695
1046.951683,-1924.535449,612.876398,11843.295072
1046.952013,-1776.494261,153.219100,11325.150913
1046.952342,-1406.391290,-153.219100,10214.842000
1046.952672,0.000000,-536.266849,8882.471304
1046.953001,2294.638420,153.219100,7994.224174
1046.953331,4737.318029,842.705048,7624.121203
1046.953660,7105.977043,2681.334243,7920.203579
1046.953990,8660.409521,2987.772442,8142.265362
1046.954319,9178.553681,4060.306139,9252.574275
1046.954649,7254.018232,5056.230287,9696.697840
1046.954978,5329.482782,4826.401637,10881.027347
1046.955308,2738.761985,4060.306139,12731.542202
1046.955637,-666.185348,2528.115143,14063.912898
1046.955967,-4441.235652,536.266849,13693.809927
1046.956296,-6883.915261,-1455.581446,12657.521608
1046.956626,-7994.224174,-2451.505594,10140.821405
1046.956955,-5995.668130,-3064.381992,7179.997637
1046.957285,-1554.432478,-4290.134789,4293.194464
1046.957614,4145.153275,-4213.525239,2368.659014
1046.957944,8586.388927,-2298.286494,2220.617826
1046.958273,10066.800811,1149.143247,3849.070898
1046.958603,8882.471304,6128.763984,7031.956449
1046.958932,7328.038826,8656.879127,10362.883188
1046.959262,4811.338623,9729.412825,13693.809927
1046.959591,518.144159,8120.612279,15692.365970
1046.959921,-3256.906145,3907.087040,15544.324782
1046.960250,-5107.421000,76.609550,15470.304188
1046.960580,-5255.462188,-3294.210641,13767.830521
1046.960909,-4145.153275,-5745.716235,11251.130318
1046.961239,-1110.308913,-6971.469032,8142.265362
1046.961568,3182.885551,-6818.249932,5255.462188
1046.961898,7328.038826,-3447.429741,2590.720797
1046.962227,10362.883188,-1838.629195,3775.050304
1046.962557,11103.089130,2528.115143,6883.915261
1046.962886,8364.327145,6741.640382,10955.047942
1046.963216,4441.235652,8733.488677,13249.686362
1046.963545,-296.082377,7890.783629,14359.995275
1046.963875,-2146.597232,4903.011187,14656.077652
1046.964204,-2072.576638,536.266849,13323.706956
1046.964534,-1332.370696,-3907.087040,9844.739029
1046.964863,-518.144159,-6281.983084,5995.668130
1046.965193,2590.720797,-6511.811733,4811.338623
1046.965522,4145.153275,-5362.668486,6217.729913
1046.965852,3701.029710,-1455.581446,7402.059420
1046.966181,1998.556043,2374.896044,8290.306550
1046.966511,1628.453072,4903.011187,9548.656652
1046.966840,3330.926739,6128.763984,12731.542202
1046.967170,3182.885551,4060.306139,13619.789333
1046.967499,1924.535449,2681.334243,12805.562797
1046.967829,0.000000,-612.876398,11029.068536
1046.968158,-1554.432478,-3140.991542,11177.109724
1046.968488,-3108.864956,-3064.381992,11991.336260
1046.968817,-4145.153275,-2451.505594,9178.553681
1046.969147,-814.226536,-3370.820191,5921.647536
1046.969476,4737.318029,-3753.867940,4737.318029
1046.969806,9178.553681,-1762.019645,4367.215058
1046.970135,11103.089130,2145.067394,4737.318029
1046.970465,10214.842000,4290.134789,6587.832884
1046.970794,7105.977043,6588.421283,10584.944971
1046.971124,1258.350101,10189.070123,14063.912898
1046.971453,-3256.906145,9806.022374,16950.716072
1046.971783,-5477.523971,3294.210641,17246.798449
1046.972113,-7328.038826,-2834.553343,15396.283594
1046.972442,-8438.347739,-5056.230287,12435.459826
1046.972772,-7031.956449,-6588.421283,10214.842000
1046.973101,-4959.379811,-7431.126331,7031.956449
1046.973431,-3627.009116,-5362.668486,4589.276840
1046.973761,-1036.288319,-1762.019645,3034.844362
1046.974090,4811.338623,1302.362347,5033.400406
1046.974420,9992.780217,3907.087040,6661.853478
1046.974750,11325.150913,8656.879127,5699.585753
1046.975079,9548.656652,9422.974625,6587.832884
1046.975409,8364.327145,7124.688131,11547.212695
1046.975739,4441.235652,7354.516781,15174.221811
1046.976068,-1776.494261,8350.440928,15396.283594
1046.976398,-6069.688724,4979.620737,15100.201217
1046.976727,-7772.162391,306.438199,14211.954086
1046.977057,-7105.977043,-3677.258390,11621.233289
1046.977387,-5477.523971,-6588.421283,8290.306550
1046.977716,-3849.070898,-5669.106685,6069.688724
1046.978046,-2516.700203,-842.705048,3775.050304
1046.978376,-296.082377,0.000000,2960.823768
1046.978705,2368.659014,1072.533697,3182.885551
1046.979035,5551.544565,3524.039291,4367.215058
1046.979365,7920.203579,4213.525239,7254.018232
1046.979694,6439.791695,6052.154434,8882.471304
1046.980024,2516.700203,7507.735880,11177.109724
1046.980354,-370.102971,5286.058936,12805.562797
1046.980683,-2960.823768,1378.971896,14211.954086
1046.981013,-5773.606348,1072.533697,14063.912898
1046.981342,-6809.894666,766.095498,12953.603985
1046.981672,-5699.585753,-2451.505594,11547.212695
1046.982002,-3256.906145,-5439.278036,9918.759623
1046.982331,-2294.638420,-5975.544884,7254.018232
1046.982661,-1998.556043,-3600.648841,6217.729913
1046.982991,-370.102971,-229.828649,7920.203579
1046.983320,1406.391290,1532.190996,9326.594869
1046.983650,3034.844362,2528.115143,9696.697840
1046.983980,3404.947333,2221.676944,9400.615463
1046.984309,3701.029710,1685.410096,9992.780217
1046.984639,1776.494261,2528.115143,11621.233289
1046.984968,-1776.494261,2451.505594,13397.727550
1046.985298,-3701.029710,2145.067394,14508.036463
1046.985628,-4515.256246,1378.971896,13027.624579
1046.985957,-4515.256246,-153.219100,10214.842000
1046.986287,-2368.659014,-1685.410096,8734.430116
1046.986617,-370.102971,-3294.210641,7698.141797
1046.986946,-1258.350101,-3140.991542,6069.688724
1046.987276,-3478.967927,-919.314598,6735.874072
1046.987606,-3701.029710,2221.676944,8808.450710
1046.987935,-2738.761985,3677.258390,9992.780217
1046.988265,-1850.514855,2145.067394,9918.759623
1046.988594,-1036.288319,1072.533697,8882.471304
1046.988924,-296.082377,0.000000,8586.388927
1046.989254,-814.226536,-689.485948,9992.780217
1046.989583,-2368.659014,2528.115143,12361.439231
1046.989913,-3552.988522,4979.620737,12065.356855
1046.990243,-3108.864956,3447.429741,10066.800811
1046.990572,-1258.350101,1225.752797,8142.265362
1046.990902,1776.494261,536.266849,7254.018232
1046.991232,2738.761985,-306.438199,5995.668130
1046.991561,888.247130,-459.657299,5329.482782
1046.991891,-740.205942,1685.410096,6587.832884
1046.992220,0.000000,1915.238745,8438.347739
1046.992550,740.205942,1991.848295,9844.739029
1046.992880,1628.453072,2834.553343,9844.739029
1046.993209,2220.617826,2145.067394,8882.471304
1046.993539,2442.679609,459.657299,8068.244768
1046.993869,2220.617826,1455.581446,10584.944971
1046.994198,1258.350101,3217.601092,12805.562797
1046.994528,-1184.329507,4136.915689,13027.624579
1046.994858,-3923.091493,3907.087040,12065.356855
1046.995187,-3627.009116,2451.505594,11325.150913
1046.995517,-1924.535449,-536.266849,10807.006753
1046.995846,-1850.514855,-3524.039291,9030.512492
1046.996176,-4145.153275,-2221.676944,6661.853478
1046.996506,-4885.359217,-919.314598,5255.462188
1046.996835,-3108.864956,-1532.190996,6069.688724
1046.997165,-1036.288319,-1915.238745,8438.347739
1046.997495,444.123565,229.828649,9844.739029
1046.997824,962.267725,1762.019645,10066.800811
1046.998154,740.205942,3064.381992,10436.903782
1046.998484,1924.535449,4519.963438,11769.274478
1046.998813,3034.844362,2911.162892,12805.562797
1046.999143,1924.535449,1991.848295,12509.480420
1046.999472,-1258.350101,3217.601092,12805.562797
1046.999802,-2960.823768,3753.867940,12731.542202
1047.000132,-3627.009116,76.609550,10881.027347
1047.000461,-4515.256246,-3677.258390,8956.491898
1047.000791,-4663.297435,-4290.134789,8290.306550
1047.001121,-3775.050304,-2911.162892,7624.121203
1047.001450,-1628.453072,-2451.505594,5773.606348
1047.001780,962.267725,-1149.143247,4145.153275
1047.002110,2738.761985,306.438199,3923.091493
1047.002439,3256.906145,153.219100,6587.832884
1047.002769,1850.514855,2451.505594,11695.253884
1047.003098,518.144159,7507.735880,13841.851115
1047.003428,-1184.329507,8427.050478,13397.727550
1047.003758,-3256.906145,5286.058936,12953.603985
1047.004087,-3997.112087,1915.238745,12139.377449
1047.004417,-3552.988522,-1762.019645,9400.615463
1047.004747,-3330.926739,-5362.668486,7328.038826
1047.005076,-4367.215058,-4596.572988,7772.162391
1047.005406,-4737.318029,-1915.238745,8438.347739
1047.005736,-2960.823768,-3294.210641,7402.059420
1047.006065,296.082377,-2145.067394,7179.997637
1047.006395,4293.194464,1685.410096,6439.791695
1047.006725,7105.977043,2528.115143,6809.894666
1047.007054,6883.915261,2911.162892,8734.430116
1047.007384,4515.256246,7201.297681,11103.089130
1047.007713,2368.659014,8350.440928,13027.624579
1047.008043,370.102971,5745.716235,13397.727550
1047.008373,-1998.556043,4060.306139,12805.562797
1047.008702,-4515.256246,612.876398,11177.109724
1047.009032,-5995.668130,-4596.572988,9548.656652
1047.009362,-7031.956449,-6205.373534,9844.739029
1047.009691,-7105.977043,-4213.525239,9030.512492
1047.010021,-5329.482782,-3140.991542,7920.203579
1047.010351,-2960.823768,-3140.991542,7254.018232
1047.010680,444.123565,-229.828649,7624.121203
1047.011010,3552.988522,2451.505594,8216.285956
1047.011339,4515.256246,3524.039291,7476.080014
1047.011669,3182.885551,6281.983084,8808.450710
1047.011999,2368.659014,7431.126331,11991.336260
1047.012328,814.226536,5975.544884,14285.974681
1047.012658,-1110.308913,4443.353888,14285.974681
1047.012988,-3404.947333,2374.896044,11917.315666
1047.013317,-4959.379811,-995.924147,9918.759623
1047.013647,-6217.729913,-4213.525239,9548.656652
1047.013977,-6957.935855,-4749.792088,9918.759623
1047.014306,-4885.359217,-2298.286494,8512.368333
1047.014636,-1850.514855,-995.924147,5255.462188
1047.014965,1628.453072,0.000000,3849.070898
1047.015295,4219.173869,1991.848295,4885.359217
1047.015625,5403.503377,2451.505594,7624.121203
1047.015954,4293.194464,4366.744339,11177.109724
1047.016284,666.185348,7967.393179,14211.954086
1047.016614,-2072.576638,9959.241474,15988.448347
1047.016943,-3627.009116,6971.469032,14582.057057
1047.017273,-4663.297435,1991.848295,10288.862594
1047.017603,-3404.947333,-3064.381992,6957.935855
1047.017932,-2146.597232,-6894.859482,6069.688724
1047.018262,-2960.823768,-6435.202183,6735.874072
1047.018591,-4071.132681,-1302.362347,7254.018232
1047.018921,-3256.906145,-459.657299,6365.771101
1047.019251,222.061783,-1149.143247,5255.462188
1047.019580,4737.318029,229.828649,5995.668130
1047.019910,7994.224174,2528.115143,7624.121203
1047.020240,6957.935855,4673.182538,9844.739029
1047.020569,2368.659014,7201.297681,12361.439231
1047.020899,-1036.288319,8810.098227,14285.974681
1047.021229,-1776.494261,6052.154434,14211.954086
1047.021558,-2886.803174,1072.533697,13841.851115
1047.021888,-5403.503377,-229.828649,11473.192101
1047.022217,-8512.368333,-3370.820191,8734.430116
1047.022547,-9400.615463,-6818.249932,6809.894666
1047.022877,-8068.244768,-7354.516781,7031.956449
1047.023206,-4959.379811,-6435.202183,7624.121203
1047.023536,-2664.741391,-3447.429741,8364.327145
1047.023866,-370.102971,-995.924147,7402.059420
1047.024195,3034.844362,1532.190996,5995.668130
1047.024525,6513.812290,766.095498,6439.791695
1047.024855,7402.059420,842.705048,10362.883188
1047.025184,5033.400406,6818.249932,15914.427753
1047.025514,962.267725,9729.412825,18875.251521
1047.025843,-1776.494261,6741.640382,17024.736666
1047.026173,-4589.276840,3294.210641,12583.501014
1047.026503,-4885.359217,-2221.676944,10584.944971
1047.026832,-3330.926739,-6511.811733,10288.862594
1047.027162,-4959.379811,-5822.325785,9474.636058
1047.027492,-5181.441594,-3600.648841,7328.038826
1047.027821,-3849.070898,-3294.210641,5921.647536
1047.028151,-1554.432478,-1378.971896,4663.297435
1047.028481,1776.494261,1915.238745,4737.318029
1047.028810,5033.400406,2757.943793,5699.585753
1047.029140,5255.462188,4213.525239,7772.162391
1047.029469,1924.535449,6894.859482,10510.924376
1047.029799,-1702.473667,7737.564530,13915.871710
1047.030129,-3701.029710,7354.516781,15544.324782
1047.030458,-5033.400406,5286.058936,12805.562797
1047.030788,-4737.318029,1685.410096,8660.409521
1047.031118,-3552.988522,-3983.696590,5995.668130
1047.031447,-2886.803174,-6205.373534,6069.688724
1047.031777,-2960.823768,-3677.258390,6735.874072
1047.032107,-888.247130,-383.047749,7179.997637
1047.032436,888.247130,1455.581446,5699.585753
1047.032766,3034.844362,2451.505594,5329.482782
1047.033095,5107.421000,3677.258390,7031.956449
1047.033425,6513.812290,4596.572988,9474.636058
1047.033755,5477.523971,6588.421283,10881.027347
1047.034084,1702.473667,8120.612279,12065.356855
1047.034414,-888.247130,6358.592633,13249.686362
1047.034744,-3701.029710,2451.505594,13249.686362
1047.035073,-5847.626942,0.000000,12213.398043
1047.035403,-6587.832884,-1915.238745,10362.883188
1047.035733,-6957.935855,-3753.867940,8956.491898
1047.036062,-7179.997637,-4903.011187,8290.306550
1047.036392,-6291.750507,-4366.744339,8586.388927
1047.036722,-3552.988522,-3753.867940,8438.347739
1047.037051,-962.267725,-919.314598,6883.915261
1047.037381,1702.473667,1072.533697,5995.668130
1047.037710,4219.173869,2068.457845,7994.224174
1047.038040,4145.153275,3064.381992,10584.944971
1047.038370,2220.617826,5209.449386,12657.521608
1047.038699,370.102971,5975.544884,13915.871710
1047.039029,-370.102971,4519.963438,14434.015869
1047.039359,-2072.576638,2757.943793,13619.789333
1047.039688,-3997.112087,383.047749,12509.480420
1047.040018,-5181.441594,-3217.601092,10732.986159
1047.040348,-6217.729913,-4366.744339,9104.533087
1047.040677,-6143.709319,-3524.039291,7328.038826
1047.041007,-3478.967927,-2451.505594,6957.935855
1047.041336,-1258.350101,-2145.067394,6735.874072
1047.041666,0.000000,-306.438199,5403.503377
1047.041996,1776.494261,1149.143247,6291.750507
1047.042325,3182.885551,1532.190996,9030.512492
1047.042655,1480.411884,4136.915689,11991.336260
1047.042985,-1480.411884,6741.640382,14211.954086
1047.043314,-2738.761985,6741.640382,14359.995275
1047.043644,-2886.803174,4443.353888,12065.356855
1047.043974,-2368.659014,1072.533697,8660.409521
1047.044303,-888.247130,-2528.115143,7402.059420
1047.044633,-1776.494261,-4443.353888,7476.080014
1047.044962,-4219.173869,-2145.067394,7179.997637
1047.045292,-3552.988522,0.000000,7105.977043
1047.045622,-296.082377,-612.876398,6291.750507
1047.045951,2590.720797,-306.438199,5477.523971
1047.046281,4737.318029,1072.533697,5773.606348
1047.046611,5699.585753,3064.381992,7994.224174
1047.046940,5033.400406,5362.668486,9474.636058
1047.047270,2812.782580,7277.907231,11769.274478
1047.047600,222.061783,6971.469032,13175.665768
1047.047929,-2146.597232,4903.011187,13101.645173
1047.048259,-5551.544565,2834.553343,11621.233289
1047.048588,-6069.688724,536.266849,10362.883188
1047.048918,-5403.503377,-2145.067394,9326.594869
1047.049248,-6735.874072,-5592.497135,8290.306550
1047.049577,-7179.997637,-5209.449386,8586.388927
1047.049907,-5699.585753,-3447.429741,8512.368333
1047.050237,-1850.514855,-2145.067394,6957.935855
1047.050566,1332.370696,-1378.971896,5551.544565
1047.050896,4145.153275,0.000000,6883.915261
1047.051226,6143.709319,2528.115143,9770.718434
1047.051555,4811.338623,5056.230287,12287.418637
1047.051885,2146.597232,7737.564530,14211.954086
1047.052214,-370.102971,7584.345430,14211.954086
1047.052544,-2072.576638,4060.306139,13915.871710
1047.052874,-2294.638420,1149.143247,13545.768739
1047.053203,-2664.741391,-1685.410096,11843.295072
1047.053533,-3775.050304,-4060.306139,8660.409521
1047.053863,-5477.523971,-5056.230287,7105.977043
1047.054192,-4959.379811,-3907.087040,8290.306550
1047.054522,-2960.823768,-1991.848295,8290.306550
1047.054852,-740.205942,229.828649,5329.482782
1047.055181,1628.453072,1225.752797,4367.215058
1047.055511,3775.050304,919.314598,6143.709319
1047.055840,3849.070898,1455.581446,9918.759623
1047.056170,888.247130,4213.525239,13323.706956
1047.056500,-2516.700203,7660.954980,14508.036463
1047.056829,-4589.276840,6128.763984,12953.603985
1047.057159,-5107.421000,2604.724693,11029.068536
1047.057489,-3849.070898,-1762.019645,10140.821405
1047.057818,-2368.659014,-4366.744339,9104.533087
1047.058148,-3256.906145,-4673.182538,7254.018232
1047.058478,-3849.070898,-2374.896044,6513.812290
1047.058807,-2442.679609,-383.047749,6439.791695
1047.059137,962.267725,-612.876398,6217.729913
1047.059466,3923.091493,459.657299,6587.832884
1047.059796,6365.771101,3753.867940,7031.956449
1047.060126,7105.977043,4903.011187,6957.935855
1047.060455,4885.359217,4979.620737,8882.471304
1047.060785,2146.597232,5132.839837,12435.459826
1047.061115,-444.123565,5898.935335,14656.077652
1047.061444,-3256.906145,4826.401637,13841.851115
1047.061774,-5329.482782,2145.067394,11029.068536
1047.062104,-6069.688724,-919.314598,9474.636058
1047.062433,-6069.688724,-5286.058936,8734.430116
1047.062763,-6365.771101,-6281.983084,9178.553681
1047.063092,-6439.791695,-3217.601092,8808.450710
1047.063422,-4885.359217,-995.924147,7550.100608
1047.063752,-2072.576638,-766.095498,6143.709319
1047.064081,666.185348,0.000000,6735.874072
1047.064411,3478.967927,689.485948,8290.306550
1047.064741,3997.112087,2145.067394,9400.615463
1047.065070,2220.617826,5209.449386,10658.965565
1047.065400,592.164754,6435.202183,12805.562797
1047.065730,-518.144159,4443.353888,14508.036463
1047.066059,-2886.803174,2528.115143,13323.706956
1047.066389,-4441.235652,766.095498,10881.027347
1047.066719,-4441.235652,-1915.238745,9548.656652
1047.067048,-4219.173869,-2528.115143,9400.615463
1047.067378,-4441.235652,-2298.286494,9918.759623
1047.067707,-4441.235652,-1915.238745,8660.409521
1047.068037,-2590.720797,-919.314598,7179.997637
1047.068367,0.000000,842.705048,6587.832884
1047.068696,2886.803174,2068.457845,8068.244768
1047.069026,3701.029710,1608.800546,10066.800811
1047.069356,1110.308913,3677.258390,10732.986159
1047.069685,-1036.288319,5975.544884,11473.192101
1047.070015,-1184.329507,4749.792088,11547.212695
1047.070345,-1406.391290,2068.457845,11991.336260
1047.070674,-2516.700203,76.609550,11621.233289
1047.071004,-3923.091493,-1838.629195,10288.862594
1047.071333,-4145.153275,-2451.505594,8734.430116
1047.071663,-3923.091493,-995.924147,7772.162391
1047.071992,-1924.535449,-842.705048,6883.915261
1047.072322,444.123565,-1915.238745,5477.523971
1047.072651,3478.967927,0.000000,5477.523971
1047.072981,6143.709319,2221.676944,6587.832884
1047.073310,6809.894666,4749.792088,8438.347739
1047.073640,5329.482782,6205.373534,9474.636058
1047.073969,2368.659014,6358.592633,10658.965565
1047.074299,666.185348,5362.668486,12213.398043
1047.074628,-1406.391290,4749.792088,13027.624579
1047.074958,-3627.009116,2911.162892,12139.377449
1047.075287,-5033.400406,-306.438199,11325.150913
1047.075617,-6957.935855,-3447.429741,9326.594869
1047.075947,-7179.997637,-5515.887586,8660.409521
1047.076276,-6291.750507,-4060.306139,8142.265362
1047.076606,-3330.926739,-2374.896044,6291.750507
1047.076935,222.061783,-2987.772442,4515.256246
1047.077265,3256.906145,-1915.238745,5551.544565
1047.077594,4293.194464,2068.457845,8290.306550
1047.077924,4663.297435,5056.230287,11325.150913
1047.078253,2220.617826,6971.469032,13027.624579
1047.078583,-666.185348,8273.831378,14137.933492
1047.078912,-2442.679609,6358.592633,14582.057057
1047.079242,-2738.761985,1378.971896,13175.665768
1047.079571,-3849.070898,-1225.752797,11621.233289
1047.079901,-4737.318029,-2451.505594,10214.842000
1047.080231,-6069.688724,-4749.792088,9104.533087
1047.080560,-6883.915261,-4519.963438,8660.409521
1047.080890,-5921.647536,-3064.381992,8142.265362
1047.081219,-2812.782580,-1608.800546,8068.244768
1047.081549,-370.102971,-306.438199,6143.709319
1047.081878,1998.556043,2681.334243,5255.462188
1047.082208,4737.318029,2374.896044,7031.956449
1047.082537,4959.379811,1532.190996,10066.800811
1047.082867,1480.411884,5056.230287,12583.501014
1047.083196,-2146.597232,7201.297681,14508.036463
1047.083526,-3923.091493,5132.839837,14582.057057
1047.083855,-4515.256246,3294.210641,13249.686362
1047.084185,-4071.132681,229.828649,10288.862594
1047.084515,-2664.741391,-4673.182538,7846.182985
1047.084844,-3330.926739,-5975.544884,6735.874072
1047.085174,-4367.215058,-1762.019645,7402.059420
1047.085503,-2960.823768,-306.438199,8512.368333
1047.085833,-444.123565,536.266849,7624.121203
1047.086162,1924.535449,2374.896044,6069.688724
1047.086492,5107.421000,2374.896044,5551.544565
1047.086821,6883.915261,1915.238745,6957.935855
1047.087151,5847.626942,4290.134789,9400.615463
1047.087480,2738.761985,7048.078582,11769.274478
1047.087810,0.000000,6435.202183,12583.501014
1047.088139,-1406.391290,3753.867940,11547.212695
1047.088469,-2072.576638,1838.629195,11547.212695
1047.088799,-1554.432478,-1302.362347,10288.862594
1047.089128,-2886.803174,-3217.601092,8808.450710
1047.089458,-4885.359217,-2987.772442,7402.059420
1047.089787,-3923.091493,-1915.238745,7402.059420
1047.090117,-1258.350101,-2145.067394,7328.038826
1047.090446,0.000000,-459.657299,7105.977043
1047.090776,1184.329507,1838.629195,7328.038826
1047.091105,2590.720797,2221.676944,8364.327145
1047.091435,2812.782580,1838.629195,9696.697840
1047.091764,814.226536,4060.306139,11917.315666
1047.092094,-962.267725,5669.106685,13027.624579
1047.092423,-2516.700203,2911.162892,12879.583391
1047.092753,-4515.256246,1378.971896,11695.253884
1047.093083,-4885.359217,-842.705048,10584.944971
1047.093412,-4737.318029,-4060.306139,9400.615463
1047.093742,-6069.688724,-4826.401637,9252.574275
1047.094071,-6661.853478,-2528.115143,10140.821405
1047.094401,-4219.173869,-1532.190996,10436.903782
1047.094730,-1184.329507,-1915.238745,8586.388927
1047.095060,1406.391290,-153.219100,6735.874072
1047.095389,3627.009116,1838.629195,7920.203579
1047.095719,4515.256246,1685.410096,10362.883188
1047.096048,3552.988522,4519.963438,12139.377449
1047.096378,1480.411884,7124.688131,13471.748144
1047.096707,-592.164754,5515.887586,12435.459826
1047.097037,-2516.700203,3677.258390,11917.315666
1047.097367,-4071.132681,1225.752797,11769.274478
1047.097696,-3849.070898,-1225.752797,10658.965565
1047.098026,-5181.441594,-4060.306139,8734.430116
1047.098355,-7476.080014,-3524.039291,7624.121203
1047.098685,-5995.668130,-1991.848295,7698.141797
1047.099014,-2368.659014,-1915.238745,7105.977043
1047.099344,1628.453072,-383.047749,5847.626942
1047.099673,3775.050304,2298.286494,4441.235652
1047.100003,4293.194464,2834.553343,5033.400406
1047.100332,3849.070898,3907.087040,7550.100608
1047.100662,1702.473667,7124.688131,11621.233289
1047.100991,592.164754,8273.831378,13841.851115
1047.101321,-962.267725,5362.668486,12361.439231
1047.101651,-2738.761985,1915.238745,10807.006753
1047.101980,-2368.659014,-536.266849,9992.780217
1047.102310,-1776.494261,-4366.744339,9696.697840
1047.102639,-3034.844362,-4596.572988,8586.388927
1047.102969,-3627.009116,-383.047749,7402.059420
1047.103298,-962.267725,842.705048,7105.977043
1047.103628,3182.885551,-459.657299,5995.668130
1047.103957,5773.606348,1225.752797,6217.729913
1047.104287,6291.750507,3294.210641,7328.038826
1047.104616,4737.318029,4519.963438,9104.533087
1047.104946,2146.597232,5439.278036,11991.336260
1047.105275,-222.061783,6052.154434,14952.160028
1047.105605,-3108.864956,4596.572988,15174.221811
1047.105934,-4885.359217,1072.533697,13323.706956
1047.106264,-6143.709319,-919.314598,10584.944971
1047.106594,-4959.379811,-3447.429741,9918.759623
1047.106923,-4885.359217,-5669.106685,9030.512492
1047.107253,-6291.750507,-3677.258390,7920.203579
1047.107582,-5773.606348,-2221.676944,6957.935855
1047.107912,-2442.679609,-1608.800546,6957.935855
1047.108241,1258.350101,-459.657299,7624.121203
1047.108571,3108.864956,2145.067394,9030.512492
1047.108900,3404.947333,3370.820191,9770.718434
1047.109230,1850.514855,3294.210641,10066.800811
1047.109559,1110.308913,5515.887586,12731.542202
1047.109889,222.061783,5822.325785,14582.057057
1047.110218,-1332.370696,3140.991542,13397.727550
1047.110548,-3701.029710,1302.362347,10436.903782
1047.110878,-3923.091493,-1532.190996,9030.512492
1047.111207,-3108.864956,-3677.258390,9326.594869
1047.111537,-4071.132681,-4213.525239,9474.636058
1047.111866,-5107.421000,-2145.067394,8734.430116
1047.112196,-3997.112087,-1915.238745,7105.977043
1047.112525,-888.247130,-1532.190996,5699.585753
1047.112855,2220.617826,766.095498,5921.647536
1047.113184,5033.400406,1378.971896,7994.224174
1047.113514,4515.256246,2681.334243,8586.388927
1047.113843,1998.556043,6052.154434,9696.697840
1047.114173,740.205942,6894.859482,12361.439231
1047.114502,0.000000,5362.668486,13397.727550
1047.114832,-2368.659014,3524.039291,12657.521608
1047.115162,-4071.132681,1378.971896,10658.965565
1047.115491,-4145.153275,-1838.629195,9326.594869
1047.115821,-3627.009116,-3370.820191,8142.265362
1047.116150,-3256.906145,-2987.772442,7179.997637
1047.116480,-1776.494261,-3370.820191,6069.688724
1047.116809,0.000000,-1685.410096,4663.297435
1047.117139,2812.782580,383.047749,4293.194464
1047.117468,5625.565159,1608.800546,6735.874072
1047.117798,6587.832884,3830.477490,9474.636058
1047.118127,3627.009116,5822.325785,10436.903782
1047.118457,1110.308913,7354.516781,12805.562797
1047.118786,-592.164754,6358.592633,14582.057057
1047.119116,-2146.597232,3524.039291,14508.036463
1047.119446,-3923.091493,766.095498,12361.439231
1047.119775,-4737.318029,-1685.410096,10140.821405
1047.120105,-5181.441594,-4903.011187,9400.615463
1047.120434,-6291.750507,-5286.058936,8586.388927
1047.120764,-6365.771101,-2451.505594,7624.121203
1047.121093,-4663.297435,-1762.019645,6217.729913
1047.121423,-1480.411884,-1915.238745,5773.606348
1047.121752,1184.329507,383.047749,7105.977043
1047.122082,3256.906145,2451.505594,9622.677246
1047.122411,2516.700203,3064.381992,10658.965565
1047.122741,0.000000,5286.058936,11843.295072
1047.123070,-1628.453072,7048.078582,13915.871710
1047.123400,-1258.350101,4060.306139,14730.098246
1047.123730,-1332.370696,1149.143247,12509.480420
1047.124059,-2368.659014,-689.485948,10066.800811
1047.124389,-2368.659014,-3907.087040,9474.636058
1047.124718,-3182.885551,-5132.839837,10066.800811
1047.125048,-4515.256246,-1915.238745,9622.677246
1047.125377,-4663.297435,536.266849,7994.224174
1047.125707,-2442.679609,-306.438199,5625.565159
1047.126036,592.164754,-383.047749,4663.297435
1047.126366,3775.050304,383.047749,6291.750507
1047.126695,4737.318029,612.876398,8290.306550
1047.127025,2368.659014,3600.648841,10436.903782
1047.127354,-1184.329507,7048.078582,11991.336260
1047.127684,-2368.659014,5362.668486,12953.603985
1047.128014,-2146.597232,1149.143247,12213.398043
1047.128343,-2590.720797,536.266849,11325.150913
1047.128673,-2368.659014,76.609550,10807.006753
1047.129002,-2368.659014,-1991.848295,9474.636058
1047.129332,-3478.967927,-1991.848295,7624.121203
1047.129661,-3923.091493,-919.314598,5551.544565
1047.129991,-888.247130,-1762.019645,4885.359217
1047.130320,2886.803174,-1378.971896,5107.421000
1047.130650,5773.606348,1532.190996,6069.688724
1047.130979,6809.894666,2757.943793,7254.018232
1047.131309,4811.338623,2604.724693,8660.409521
1047.131638,1776.494261,3753.867940,11029.068536
1047.131968,-148.041188,5822.325785,14285.974681
1047.132298,-1332.370696,4903.011187,15692.365970
1047.132627,-3182.885551,2911.162892,13841.851115
1047.132957,-5033.400406,306.438199,11621.233289
1047.133286,-5403.503377,-3294.210641,10066.800811
1047.133616,-5403.503377,-5439.278036,8438.347739
1047.133945,-5625.565159,-3830.477490,8068.244768
1047.134275,-5033.400406,-1072.533697,6883.915261
1047.134604,-2886.803174,-1302.362347,5847.626942
1047.134934,370.102971,-2145.067394,5847.626942
1047.135263,3478.967927,459.657299,8068.244768
1047.135593,3775.050304,2757.943793,9844.739029
1047.135922,2368.659014,4826.401637,11325.150913
1047.136252,296.082377,7354.516781,13471.748144
1047.136581,-592.164754,6588.421283,14508.036463
1047.136911,-888.247130,2911.162892,13619.789333
1047.137241,-1776.494261,-306.438199,12361.439231
1047.137570,-3256.906145,-612.876398,11991.336260
1047.137900,-4811.338623,-2911.162892,11399.171507
1047.138229,-5699.585753,-4519.963438,10732.986159
1047.138559,-5551.544565,-2145.067394,7920.203579
1047.138888,-2442.679609,-1532.190996,4737.318029
1047.139218,1776.494261,-2374.896044,2664.741391
1047.139547,5181.441594,-766.095498,4589.276840
1047.139877,5921.647536,2528.115143,7476.080014
1047.140206,3849.070898,4749.792088,9548.656652
1047.140536,222.061783,7354.516781,10955.047942
1047.140865,-2072.576638,9652.803275,12583.501014
1047.141195,-2442.679609,5362.668486,14730.098246
1047.141525,-3330.926739,1455.581446,13915.871710
1047.141854,-4737.318029,153.219100,10807.006753
1047.142184,-5329.482782,-2681.334243,8512.368333
1047.142513,-5107.421000,-4443.353888,7846.182985
1047.142843,-4737.318029,-3370.820191,7105.977043
1047.143172,-2738.761985,-1149.143247,5181.441594
1047.143502,1184.329507,-1762.019645,2368.659014
1047.143831,5181.441594,-383.047749,2738.761985
1047.144161,8216.285956,3217.601092,6291.750507
1047.144490,7772.162391,4749.792088,9326.594869
1047.144820,4589.276840,6894.859482,10362.883188
1047.145149,666.185348,9499.584175,12287.418637
1047.145479,-888.247130,5898.935335,15544.324782
1047.145809,-1924.535449,2604.724693,16506.592507
1047.146138,-4885.359217,536.266849,14952.160028
1047.146468,-7105.977043,-1915.238745,12139.377449
1047.146797,-8068.244768,-4213.525239,9770.718434
1047.147127,-8068.244768,-5209.449386,8734.430116
1047.147456,-6439.791695,-3600.648841,6883.915261
1047.147786,-3775.050304,-3370.820191,3849.070898
1047.148115,74.020594,-2528.115143,2960.823768
1047.148445,3701.029710,-766.095498,5625.565159
1047.148774,4737.318029,2451.505594,9474.636058
1047.149104,2442.679609,5822.325785,10732.986159
1047.149433,-592.164754,7124.688131,11473.192101
1047.149763,-518.144159,7124.688131,14656.077652
1047.150093,-740.205942,5669.106685,15914.427753
1047.150422,-1036.288319,1455.581446,12287.418637
1047.150752,-1924.535449,-2834.553343,11547.212695
1047.151081,-3256.906145,-5592.497135,11917.315666
1047.151411,-6365.771101,-2834.553343,11177.109724
1047.151740,-8290.306550,-1378.971896,9030.512492
1047.152070,-5995.668130,-1915.238745,7179.997637
1047.152399,-1776.494261,-1838.629195,4811.338623
1047.152729,2294.638420,-2221.676944,3923.091493
1047.153058,5255.462188,-842.705048,5995.668130
1047.153388,5033.400406,2528.115143,8734.430116
1047.153717,1850.514855,6435.202183,10584.944971
1047.154047,-666.185348,7048.078582,12583.501014
1047.154377,-962.267725,5669.106685,14137.933492
1047.154706,-1924.535449,4060.306139,13619.789333
1047.155036,-2442.679609,919.314598,12435.459826
1047.155365,-3034.844362,-766.095498,10214.842000
1047.155695,-3849.070898,-2451.505594,8142.265362
1047.156024,-4441.235652,-3753.867940,6439.791695
1047.156354,-3627.009116,-2911.162892,5551.544565
1047.156683,-592.164754,-1762.019645,3775.050304
1047.157013,2072.576638,-1072.533697,4737.318029
1047.157342,4145.153275,1608.800546,6883.915261
1047.157672,4737.318029,5209.449386,8586.388927
1047.158001,4367.215058,5286.058936,9178.553681
1047.158331,2886.803174,5439.278036,10807.006753
1047.158661,592.164754,6818.249932,14211.954086
1047.158990,-2294.638420,4826.401637,15396.283594
1047.159320,-5329.482782,1838.629195,13693.809927
1047.159649,-6809.894666,459.657299,11695.253884
1047.159979,-6439.791695,-2451.505594,9992.780217
1047.160308,-6217.729913,-5362.668486,8660.409521
1047.160638,-6069.688724,-4596.572988,6513.812290
1047.160967,-4071.132681,-3140.991542,4367.215058
1047.161297,-740.205942,-2987.772442,4145.153275
1047.161626,1850.514855,-459.657299,5921.647536
1047.161956,2960.823768,2681.334243,9400.615463
1047.162285,2294.638420,4749.792088,11177.109724
1047.162615,666.185348,5975.544884,11843.295072
1047.162945,74.020594,7890.783629,13323.706956
1047.163274,74.020594,5209.449386,14211.954086
1047.163604,-1406.391290,1532.190996,12435.459826
1047.163933,-3701.029710,383.047749,10807.006753
1047.164263,-4441.235652,-2145.067394,11103.089130
1047.164592,-4737.318029,-5975.544884,11991.336260
1047.164922,-7254.018232,-4290.134789,10955.047942
1047.165251,-7550.100608,-842.705048,8438.347739
1047.165581,-3478.967927,-1225.752797,5921.647536
1047.165910,2146.597232,-2451.505594,4737.318029
1047.166240,6143.709319,-612.876398,5403.503377
1047.166569,6735.874072,919.314598,7179.997637
1047.166899,4663.297435,3064.381992,9326.594869
1047.167228,1036.288319,7048.078582,12731.542202
1047.167558,-666.185348,8273.831378,15544.324782
1047.167888,-1554.432478,4826.401637,15322.262999
1047.168217,-2738.761985,2374.896044,12287.418637
1047.168547,-2516.700203,-612.876398,10066.800811
1047.168876,-1702.473667,-3753.867940,8882.471304
1047.169206,-1998.556043,-4673.182538,7402.059420
1047.169535,-3034.844362,-2451.505594,5921.647536
1047.169865,-2368.659014,-612.876398,4885.359217
1047.170194,814.226536,229.828649,4663.297435
1047.170524,4589.276840,2298.286494,6513.812290
1047.170853,6217.729913,3217.601092,7698.141797
1047.171183,5255.462188,5439.278036,7846.182985
1047.171512,2738.761985,4903.011187,9178.553681
1047.171842,1184.329507,4673.182538,12953.603985
1047.172172,-888.247130,5362.668486,15544.324782
1047.172501,-4145.153275,3064.381992,14359.995275
1047.172831,-5995.668130,76.609550,12435.459826
1047.173160,-6365.771101,-919.314598,11251.130318
1047.173490,-5329.482782,-2681.334243,10140.821405
1047.173819,-4811.338623,-4596.572988,7179.997637
1047.174149,-4219.173869,-1915.238745,3997.112087
1047.174478,-1036.288319,-536.266849,3256.906145
1047.174808,2442.679609,-1302.362347,4811.338623
1047.175137,3923.091493,1685.410096,7624.121203
1047.175467,2516.700203,5975.544884,9474.636058
1047.175796,666.185348,4366.744339,10288.862594
1047.176126,-740.205942,5898.935335,13249.686362
1047.176456,-1184.329507,7124.688131,15248.242405
1047.176785,-2220.617826,2757.943793,13841.851115
1047.177115,-3997.112087,-1072.533697,9030.512492
1047.177444,-4737.318029,-2528.115143,9474.636058
1047.177774,-4959.379811,-4060.306139,12583.501014
1047.178103,-7994.224174,-2987.772442,12805.562797
1047.178433,-10658.965565,153.219100,8808.450710
1047.178762,-7254.018232,-1149.143247,6069.688724
1047.179092,-1110.308913,-3217.601092,5773.606348
1047.179421,3034.844362,-2451.505594,5551.544565
1047.179751,4737.318029,76.609550,7105.977043
1047.180081,3775.050304,2145.067394,8734.430116
1047.180410,888.247130,6205.373534,10436.903782
1047.180740,-370.102971,6818.249932,13175.665768
1047.181069,0.000000,4290.134789,13989.892304
1047.181399,-1628.453072,2451.505594,13175.665768
1047.181728,-2738.761985,689.485948,12731.542202
1047.182058,-2812.782580,-995.924147,11177.109724
1047.182387,-3627.009116,-2987.772442,10436.903782
1047.182717,-4959.379811,-3753.867940,9178.553681
1047.183046,-4737.318029,-1302.362347,6957.935855
1047.183376,-1110.308913,-1378.971896,4737.318029
1047.183705,3701.029710,-153.219100,3627.009116
1047.184035,6883.915261,612.876398,4515.256246
1047.184365,7105.977043,2374.896044,6291.750507
1047.184694,5625.565159,4826.401637,8142.265362
1047.185024,2590.720797,6281.983084,11695.253884
1047.185353,74.020594,8733.488677,13471.748144
1047.185683,-1924.535449,5592.497135,14434.015869
1047.186012,-3404.947333,842.705048,13323.706956
1047.186342,-4293.194464,306.438199,11621.233289
1047.186671,-4145.153275,-2987.772442,10436.903782
1047.187001,-4367.215058,-4366.744339,8512.368333
1047.187330,-5403.503377,-3064.381992,6513.812290
1047.187660,-4441.235652,-1991.848295,5403.503377
1047.187989,-148.041188,-1685.410096,4737.318029
1047.188319,2960.823768,689.485948,5181.441594
1047.188649,4737.318029,3830.477490,7328.038826
1047.188978,3849.070898,3524.039291,9474.636058
1047.189308,1554.432478,4596.572988,10807.006753
1047.189637,-666.185348,7431.126331,13397.727550
1047.189967,-1554.432478,5362.668486,15618.345376
1047.190296,-2886.803174,1915.238745,13619.789333
1047.190626,-5107.421000,-995.924147,12065.356855
1047.190955,-5699.585753,-4366.744339,10732.986159
1047.191285,-6217.729913,-5362.668486,10658.965565
1047.191614,-6957.935855,-3370.820191,9252.574275
1047.191944,-5699.585753,-536.266849,7179.997637
1047.192273,-2442.679609,-1915.238745,5995.668130
1047.192603,1332.370696,-2681.334243,6069.688724
1047.192933,3552.988522,1225.752797,8068.244768
1047.193262,4219.173869,3524.039291,9770.718434
1047.193592,2664.741391,5132.839837,9992.780217
1047.193921,148.041188,6818.249932,11547.212695
1047.194251,-1110.308913,6128.763984,14211.954086
1047.194580,-1036.288319,3830.477490,14359.995275
1047.194910,-3404.947333,1838.629195,12139.377449
1047.195239,-4959.379811,1302.362347,8808.450710
1047.195569,-5033.400406,-4519.963438,9992.780217
1047.195898,-5551.544565,-7354.516781,11177.109724
1047.196228,-7328.038826,-1762.019645,10066.800811
1047.196557,-6587.832884,-842.705048,7179.997637
1047.196887,-1924.535449,-1149.143247,5033.400406
1047.197217,2960.823768,766.095498,4071.132681
1047.197546,6809.894666,919.314598,4737.318029
1047.197876,8586.388927,995.924147,6143.709319
1047.198205,6661.853478,4366.744339,8142.265362
1047.198535,3552.988522,9959.241474,11177.109724
1047.198864,1554.432478,7660.954980,14211.954086
1047.199194,-1036.288319,3983.696590,14804.118840
1047.199523,-3478.967927,3600.648841,13027.624579
1047.199853,-3552.988522,-459.657299,10955.047942
1047.200182,-3775.050304,-2834.553343,9252.574275
1047.200512,-4885.359217,-3524.039291,7920.203579
1047.200842,-4145.153275,-3370.820191,6069.688724
1047.201171,-2294.638420,-2834.553343,4145.153275
1047.201501,-222.061783,0.000000,3478.967927
1047.201830,1998.556043,2757.943793,5181.441594
1047.202160,4071.132681,2068.457845,8364.327145
1047.202489,2146.597232,4366.744339,10288.862594
1047.202819,-666.185348,6435.202183,12065.356855
1047.203148,-2072.576638,5286.058936,14730.098246
1047.203478,-2516.700203,2451.505594,15766.386565
1047.203807,-4071.132681,1149.143247,14063.912898
1047.204137,-5551.544565,-766.095498,10807.006753
1047.204466,-5033.400406,-3447.429741,7698.141797
1047.204796,-4367.215058,-4903.011187,6217.729913
1047.205126,-2812.782580,-4596.572988,6957.935855
1047.205455,-1258.350101,-2298.286494,8068.244768
1047.205785,-592.164754,0.000000,8290.306550
1047.206114,1628.453072,2451.505594,8068.244768
1047.206444,3775.050304,4060.306139,9696.697840
1047.206773,4737.318029,4290.134789,11325.150913
1047.207103,2442.679609,4749.792088,12139.377449
1047.207432,-296.082377,5975.544884,12583.501014
1047.207762,-1332.370696,4366.744339,13989.892304
1047.208091,-2886.803174,76.609550,13989.892304
1047.208421,-5921.647536,-842.705048,12361.439231
1047.208750,-7846.182985,-2528.115143,10214.842000
1047.209080,-7031.956449,-6052.154434,9178.553681
1047.209410,-5625.565159,-4596.572988,7031.956449
1047.209739,-3849.070898,-1225.752797,5107.421000
1047.210069,148.041188,-2145.067394,4071.132681
1047.210398,3997.112087,-1378.971896,4515.256246
1047.210728,5255.462188,3370.820191,6809.894666
1047.211057,5773.606348,6665.030833,8882.471304
1047.211387,3923.091493,6741.640382,9844.739029
1047.211716,1332.370696,9346.365076,11547.212695
1047.212046,370.102971,7354.516781,13101.645173
1047.212375,296.082377,2145.067394,13175.665768
1047.212705,-1776.494261,76.609550,12139.377449
1047.213034,-5033.400406,-766.095498,10881.027347
1047.213364,-6735.874072,-3600.648841,9844.739029
1047.213694,-7105.977043,-4366.744339,8660.409521
1047.214023,-5477.523971,-3064.381992,7624.121203
1047.214353,-2368.659014,-1991.848295,5329.482782
1047.214682,1110.308913,-1455.581446,3182.885551
1047.215012,3627.009116,766.095498,3923.091493
1047.215341,5329.482782,3753.867940,6809.894666
1047.215671,4663.297435,4903.011187,9326.594869
1047.216000,1702.473667,6435.202183,11769.274478
1047.216330,-1554.432478,7814.174080,13471.748144
1047.216659,-2738.761985,4749.792088,14952.160028
1047.216989,-3627.009116,383.047749,14434.015869
1047.217318,-5181.441594,-1302.362347,12287.418637
1047.217648,-5773.606348,-2374.896044,10362.883188
1047.217978,-5625.565159,-5745.716235,9474.636058
1047.218307,-4959.379811,-4749.792088,8142.265362
1047.218637,-3849.070898,-1685.410096,7179.997637
1047.218966,-518.144159,-1762.019645,6883.915261
1047.219296,2516.700203,-229.828649,7328.038826
1047.219625,3627.009116,4213.525239,8438.347739
1047.219955,4811.338623,4903.011187,9992.780217
1047.220284,3701.029710,3983.696590,10807.006753
1047.220614,888.247130,6052.154434,12361.439231
1047.220943,-740.205942,4826.401637,14063.912898
1047.221273,-1036.288319,1072.533697,13989.892304
1047.221602,-3034.844362,-229.828649,13323.706956
1047.221932,-5403.503377,-919.314598,11325.150913
1047.222262,-5255.462188,-3600.648841,10066.800811
1047.222591,-5181.441594,-4136.915689,8438.347739
1047.222921,-4293.194464,-1915.238745,6587.832884
1047.223250,-2738.761985,-1378.971896,4367.215058
1047.223580,1332.370696,-766.095498,3775.050304
1047.223909,4663.297435,2374.896044,5847.626942
1047.224239,5847.626942,3370.820191,8512.368333
1047.224568,4293.194464,4903.011187,9992.780217
1047.224898,1110.308913,6741.640382,9918.759623
1047.225227,-740.205942,7048.078582,13027.624579
1047.225557,-1554.432478,4290.134789,14730.098246
1047.225887,-2664.741391,1915.238745,13397.727550
1047.226216,-3701.029710,-612.876398,10140.821405
1047.226546,-3034.844362,-3753.867940,8068.244768
1047.226875,-2442.679609,-4673.182538,6809.894666
1047.227205,-3182.885551,-2757.943793,6217.729913
1047.227534,-2664.741391,-995.924147,4811.338623
1047.227864,222.061783,-229.828649,3701.029710
1047.228193,3108.864956,919.314598,5107.421000
1047.228523,4959.379811,2374.896044,7698.141797
1047.228852,4145.153275,4213.525239,9326.594869
1047.229182,1110.308913,3753.867940,10584.944971
1047.229511,-666.185348,4290.134789,14582.057057
1047.229841,-2516.700203,5515.887586,16506.592507
1047.230171,-5107.421000,3524.039291,14211.954086
1047.230500,-6809.894666,0.000000,9918.759623
1047.230830,-6513.812290,-3064.381992,8734.430116
1047.231159,-3923.091493,-5669.106685,9252.574275
1047.231489,-4515.256246,-6358.592633,9400.615463
1047.231818,-5921.647536,-2221.676944,8364.327145
1047.232148,-4441.235652,1072.533697,6661.853478
1047.232477,-814.226536,-612.876398,5995.668130
1047.232807,3552.988522,-1302.362347,7550.100608
1047.233136,5403.503377,1762.019645,9252.574275
1047.233466,4885.359217,3140.991542,10436.903782
1047.233795,2590.720797,5132.839837,12213.398043
1047.234125,592.164754,5439.278036,15100.201217
1047.234455,-1184.329507,3830.477490,16358.551318
1047.234784,-2368.659014,1302.362347,14656.077652
1047.235114,-3552.988522,0.000000,12953.603985
1047.235443,-3108.864956,-689.485948,10584.944971
1047.235773,-3997.112087,-3907.087040,9252.574275
1047.236102,-4737.318029,-4673.182538,7031.956449
1047.236432,-3701.029710,-2145.067394,5625.565159
1047.236761,-740.205942,-459.657299,4441.235652
1047.237091,2072.576638,1225.752797,4441.235652
1047.237420,4145.153275,3294.210641,5847.626942
1047.237750,3923.091493,3294.210641,7994.224174
1047.238079,2368.659014,4903.011187,9474.636058
1047.238409,222.061783,7431.126331,11177.109724
1047.238739,-296.082377,7507.735880,13471.748144
1047.239068,-1258.350101,3064.381992,13989.892304
1047.239398,-3997.112087,0.000000,12213.398043
1047.239727,-4811.338623,-1302.362347,10436.903782
1047.240057,-3849.070898,-3064.381992,9548.656652
1047.240386,-3627.009116,-2681.334243,8660.409521
1047.240716,-3256.906145,-1149.143247,7698.141797
1047.241045,-1110.308913,-2451.505594,4589.276840
1047.241375,2886.803174,-995.924147,2886.803174
1047.241704,6957.935855,2145.067394,3478.967927
1047.242034,8438.347739,4826.401637,6661.853478
1047.242363,6217.729913,4903.011187,8956.491898
1047.242693,2146.597232,6281.983084,11621.233289
1047.243023,-1628.453072,8580.269578,13915.871710
1047.243352,-3478.967927,6358.592633,15544.324782
1047.243682,-4811.338623,2451.505594,14730.098246
1047.244011,-6143.709319,-689.485948,12435.459826
1047.244341,-6291.750507,-5209.449386,9770.718434
1047.244670,-6883.915261,-7584.345430,7994.224174
1047.245000,-7994.224174,-5209.449386,7550.100608
1047.245329,-7105.977043,-1838.629195,7254.018232
1047.245659,-3552.988522,-1915.238745,6365.771101
1047.245988,148.041188,-1608.800546,5477.523971
1047.246318,3997.112087,689.485948,6957.935855
1047.246648,5329.482782,1685.410096,8956.491898
1047.246977,3775.050304,4366.744339,11325.150913
1047.247307,814.226536,8120.612279,13323.706956
1047.247636,-296.082377,6281.983084,14508.036463
1047.247966,-814.226536,1455.581446,14656.077652
1047.248295,-2442.679609,-306.438199,13841.851115
1047.248625,-3775.050304,-1302.362347,12583.501014
1047.248954,-4293.194464,-4903.011187,11029.068536
1047.249284,-5255.462188,-5209.449386,9178.553681
1047.249613,-5329.482782,-2528.115143,6661.853478
1047.249943,-2072.576638,-2374.896044,5625.565159
1047.250272,2442.679609,-1302.362347,4811.338623
1047.250602,4885.359217,1838.629195,5921.647536
1047.250932,4367.215058,3524.039291,7105.977043
1047.251261,2812.782580,3907.087040,8882.471304
1047.251591,222.061783,5362.668486,12435.459826
1047.251920,-1776.494261,6894.859482,14804.118840
1047.252250,-3034.844362,4366.744339,14211.954086
1047.252579,-3552.988522,842.705048,10732.986159
1047.252909,-2368.659014,-995.924147,8512.368333
1047.253238,-1480.411884,-3524.039291,7846.182985
1047.253568,-1924.535449,-4519.963438,7031.956449
1047.253897,-2960.823768,-1762.019645,6217.729913
1047.254227,-2220.617826,689.485948,6069.688724
1047.254556,1776.494261,1302.362347,6143.709319
1047.254886,5033.400406,2221.676944,6883.915261
1047.255216,6735.874072,3677.258390,7624.121203
1047.255545,5625.565159,4213.525239,8216.285956
1047.255875,2960.823768,4443.353888,10288.862594
1047.256204,-222.061783,6205.373534,13619.789333
1047.256534,-2590.720797,5592.497135,15174.221811
1047.256863,-4293.194464,2451.505594,12879.583391
1047.257193,-5551.544565,-383.047749,9918.759623
1047.257522,-4737.318029,-2987.772442,9104.533087
1047.257852,-3108.864956,-4903.011187,9844.739029
1047.258181,-4589.276840,-3983.696590,8512.368333
1047.258511,-6587.832884,-153.219100,6513.812290
1047.258840,-3923.091493,995.924147,5847.626942
1047.259170,592.164754,459.657299,7031.956449
1047.259500,3478.967927,1762.019645,8068.244768
1047.259829,3701.029710,2451.505594,8956.491898
1047.260159,1628.453072,2911.162892,9326.594869
1047.260488,-370.102971,4213.525239,11695.253884
1047.260818,-1406.391290,4596.572988,15470.304188
1047.261147,-2294.638420,2604.724693,16876.695478
1047.261477,-4441.235652,1225.752797,14137.933492
1047.261806,-5699.585753,-689.485948,9992.780217
1047.262136,-3478.967927,-3524.039291,9104.533087
1047.262465,-1776.494261,-4366.744339,9400.615463
1047.262795,-2368.659014,-2221.676944,8216.285956
1047.263124,-2442.679609,0.000000,5403.503377
1047.263454,444.123565,76.609550,4737.318029
1047.263784,3627.009116,1225.752797,5995.668130
1047.264113,4737.318029,2757.943793,8364.327145
1047.264443,3034.844362,3677.258390,9400.615463
1047.264772,666.185348,4136.915689,10140.821405
1047.265102,-740.205942,3753.867940,12805.562797
1047.265431,-1184.329507,3217.601092,15322.262999
1047.265761,-3034.844362,1991.848295,14359.995275
1047.266090,-5551.544565,842.705048,10436.903782
1047.266420,-4885.359217,-1302.362347,8734.430116
1047.266749,-2442.679609,-3524.039291,8512.368333
1047.267079,-1776.494261,-3217.601092,8290.306550
1047.267408,-2590.720797,-995.924147,5773.606348
1047.267738,-518.144159,842.705048,2886.803174
1047.268068,3849.070898,612.876398,2738.761985
1047.268397,7254.018232,2221.676944,5477.523971
1047.268727,7550.100608,3370.820191,7772.162391
1047.269056,4515.256246,3677.258390,9252.574275
1047.269386,888.247130,6052.154434,11473.192101
1047.269715,-814.226536,7048.078582,14804.118840
1047.270045,-814.226536,2987.772442,16358.551318
1047.270374,-2664.741391,-383.047749,13767.830521
1047.270704,-5255.462188,-2145.067394,10807.006753
1047.271033,-5181.441594,-2604.724693,10140.821405
1047.271363,-4885.359217,-4060.306139,11177.109724
1047.271693,-6143.709319,-2451.505594,9548.656652
1047.272022,-5329.482782,0.000000,6365.771101
1047.272352,-2220.617826,-1455.581446,3923.091493
1047.272681,3108.864956,-919.314598,4219.173869
1047.273011,5107.421000,919.314598,6735.874072
1047.273340,3849.070898,2221.676944,9104.533087
1047.273670,0.000000,4673.182538,10807.006753
1047.273999,-3108.864956,7890.783629,13767.830521
1047.274329,-3775.050304,7354.516781,15618.345376
1047.274658,-3404.947333,2681.334243,14656.077652
1047.274988,-4589.276840,-2451.505594,11917.315666
1047.275317,-4959.379811,-3677.258390,10288.862594
1047.275647,-5107.421000,-4213.525239,10214.842000
1047.275976,-4737.318029,-2911.162892,9844.739029
1047.276306,-4367.215058,-995.924147,8734.430116
1047.276635,-2368.659014,-153.219100,5773.606348
1047.276965,1924.535449,0.000000,4293.194464
1047.277294,5551.544565,306.438199,5477.523971
1047.277624,6735.874072,3677.258390,8068.244768
1047.277953,4145.153275,5669.106685,9400.615463
1047.278283,370.102971,5515.887586,11029.068536
1047.278612,-1628.453072,5439.278036,13027.624579
1047.278941,-2368.659014,3983.696590,14434.015869
1047.279271,-3552.988522,1149.143247,12583.501014
1047.279600,-4811.338623,-1072.533697,10066.800811
1047.279930,-5625.565159,-3600.648841,8956.491898
1047.280259,-4811.338623,-4979.620737,8882.471304
1047.280589,-4367.215058,-2987.772442,8438.347739
1047.280918,-2072.576638,0.000000,6513.812290
1047.281248,1110.308913,1532.190996,3701.029710
1047.281577,3997.112087,1762.019645,2220.617826
1047.281907,6587.832884,2911.162892,4737.318029
1047.282236,7179.997637,3753.867940,8512.368333
1047.282566,4145.153275,5898.935335,11399.171507
1047.282895,0.000000,7431.126331,13397.727550
1047.283225,-2146.597232,4443.353888,15322.262999
1047.283554,-2664.741391,1608.800546,14878.139434
1047.283883,-3701.029710,-1455.581446,12879.583391
1047.284213,-3701.029710,-3983.696590,10807.006753
1047.284542,-3701.029710,-4826.401637,9622.677246
1047.284872,-4367.215058,-3140.991542,10362.883188
1047.285201,-3923.091493,-1072.533697,9178.553681
1047.285531,-1406.391290,229.828649,5255.462188
1047.285860,1776.494261,459.657299,2220.617826
1047.286190,5477.523971,0.000000,3701.029710
1047.286519,6957.935855,1915.238745,8364.327145
1047.286849,4219.173869,4749.792088,11843.295072
1047.287178,-814.226536,7354.516781,13545.768739
1047.287508,-4885.359217,8197.221829,13619.789333
1047.287837,-5921.647536,4136.915689,14211.954086
1047.288167,-4885.359217,-2374.896044,14285.974681
1047.288496,-5995.668130,-3294.210641,12213.398043
1047.288825,-7328.038826,-3217.601092,9030.512492
1047.289155,-7402.059420,-5286.058936,7624.121203
1047.289484,-6143.709319,-4213.525239,7994.224174
1047.289814,-4071.132681,-1302.362347,7624.121203
1047.290143,0.000000,-306.438199,6735.874072
1047.290473,2812.782580,-153.219100,6365.771101
1047.290802,3997.112087,4826.401637,7105.977043
1047.291132,4737.318029,4979.620737,8364.327145
1047.291461,4293.194464,4213.525239,10658.965565
1047.291791,1480.411884,6588.421283,13101.645173
1047.292120,-444.123565,6052.154434,13323.706956
1047.292450,-2442.679609,995.924147,12583.501014
1047.292779,-4959.379811,-536.266849,12065.356855
1047.293109,-6069.688724,-995.924147,12065.356855
1047.293438,-6069.688724,-4443.353888,10732.986159
1047.293767,-5625.565159,-3753.867940,7920.203579
1047.294097,-3997.112087,-1378.971896,5329.482782
1047.294426,222.061783,-2451.505594,4663.297435
1047.294756,3701.029710,-1685.410096,4737.318029
1047.295085,4367.215058,3677.258390,5255.462188
1047.295415,4885.359217,6205.373534,7328.038826
1047.295744,4737.318029,4903.011187,9104.533087
1047.296074,2590.720797,5592.497135,11843.295072
1047.296403,518.144159,5515.887586,14285.974681
1047.296733,-1332.370696,2604.724693,13175.665768
1047.297062,-2516.700203,1072.533697,11843.295072
1047.297392,-3330.926739,-536.266849,10658.965565
1047.297721,-3775.050304,-3064.381992,10510.924376
1047.298051,-4515.256246,-4826.401637,9400.615463
1047.298380,-4811.338623,-2145.067394,6809.894666
1047.298710,-2072.576638,-306.438199,5181.441594
1047.299039,1776.494261,76.609550,5329.482782
1047.299368,4515.256246,995.924147,6217.729913
1047.299698,4663.297435,2681.334243,7550.100608
1047.300027,3256.906145,4060.306139,9326.594869
1047.300357,1110.308913,4903.011187,12213.398043
1047.300686,-1480.411884,7201.297681,14582.057057
1047.301016,-3923.091493,4519.963438,15544.324782
1047.301345,-5107.421000,229.828649,13027.624579
1047.301675,-5551.544565,-1378.971896,9844.739029
1047.302004,-3552.988522,-3294.210641,8808.450710
1047.302334,-2516.700203,-6358.592633,8882.471304
1047.302663,-4441.235652,-3677.258390,8660.409521
1047.302993,-5625.565159,76.609550,7994.224174
1047.303322,-2738.761985,612.876398,7476.080014
1047.303652,1184.329507,1072.533697,8068.244768
1047.303981,3997.112087,3064.381992,9252.574275
1047.304310,4071.132681,2987.772442,9326.594869
1047.304640,2886.803174,2451.505594,9844.739029
1047.304969,740.205942,4826.401637,12139.377449
1047.305299,-888.247130,4826.401637,14359.995275
1047.305628,-2812.782580,2528.115143,14211.954086
1047.305958,-5107.421000,1149.143247,11695.253884
1047.306287,-5921.647536,-306.438199,10214.842000
1047.306617,-3849.070898,-3217.601092,9252.574275
1047.306946,-2886.803174,-4673.182538,8438.347739
1047.307276,-3330.926739,-2374.896044,6809.894666
1047.307605,-2738.761985,536.266849,4293.194464
1047.307935,74.020594,1072.533697,3627.009116
1047.308264,3182.885551,1991.848295,5107.421000
1047.308594,4441.235652,3600.648841,7254.018232
1047.308923,3034.844362,4443.353888,8660.409521
1047.309252,1480.411884,4979.620737,9474.636058
1047.309582,0.000000,5669.106685,12065.356855
1047.309911,-592.164754,3140.991542,14211.954086
1047.310241,-3108.864956,0.000000,13249.686362
1047.310570,-5255.462188,-995.924147,11177.109724
1047.310900,-5773.606348,-919.314598,10288.862594
1047.311229,-4145.153275,-2221.676944,11029.068536
1047.311559,-3627.009116,-2681.334243,9622.677246
1047.311888,-3108.864956,-1762.019645,6439.791695
1047.312218,-222.061783,-1072.533697,3404.947333
1047.312547,3256.906145,689.485948,3627.009116
1047.312877,5403.503377,2757.943793,6291.750507
1047.313206,5255.462188,3830.477490,9474.636058
1047.313536,2072.576638,3983.696590,10955.047942
1047.313865,-1036.288319,5975.544884,12731.542202
1047.314194,-2220.617826,5362.668486,14656.077652
1047.314524,-2368.659014,2298.286494,15692.365970
1047.314853,-4737.318029,-919.314598,12953.603985
1047.315183,-6439.791695,-1838.629195,10140.821405
1047.315512,-5329.482782,-4060.306139,9474.636058
1047.315842,-3997.112087,-5592.497135,10066.800811
1047.316171,-4737.318029,-1532.190996,9548.656652
1047.316501,-4663.297435,1149.143247,7402.059420
1047.316830,-1110.308913,229.828649,5847.626942
1047.317160,3108.864956,536.266849,6217.729913
1047.317489,4959.379811,2834.553343,8586.388927
1047.317819,4737.318029,4060.306139,10140.821405
1047.318148,1332.370696,3983.696590,10140.821405
1047.318478,-1332.370696,4903.011187,12065.356855
1047.318807,-1554.432478,2987.772442,14137.933492
1047.319137,-2294.638420,383.047749,13841.851115
1047.319466,-4145.153275,-689.485948,11695.253884
1047.319795,-4737.318029,-1149.143247,9918.759623
1047.320125,-4145.153275,-3677.258390,8216.285956
1047.320454,-3256.906145,-2987.772442,7476.080014
1047.320784,-2146.597232,-1302.362347,7105.977043
1047.321113,148.041188,229.828649,6069.688724
1047.321443,2220.617826,2298.286494,5107.421000
1047.321772,4293.194464,3524.039291,5847.626942
1047.322102,5625.565159,3830.477490,7624.121203
1047.322431,3997.112087,3753.867940,9474.636058
1047.322761,740.205942,5669.106685,11177.109724
1047.323090,-1702.473667,5669.106685,13027.624579
1047.323420,-2516.700203,2451.505594,12953.603985
1047.323749,-4145.153275,-306.438199,12139.377449
1047.324079,-5033.400406,-1608.800546,11325.150913
1047.324408,-5107.421000,-3064.381992,9992.780217
1047.324737,-4811.338623,-3983.696590,8586.388927
1047.325067,-4145.153275,-2451.505594,6883.915261
1047.325396,-1480.411884,-689.485948,5921.647536
1047.325726,1998.556043,-612.876398,4811.338623
1047.326055,4811.338623,1149.143247,4885.359217
1047.326385,6291.750507,3447.429741,6883.915261
1047.326714,5773.606348,3983.696590,9400.615463
1047.327044,2442.679609,5515.887586,11473.192101
1047.327373,-1406.391290,6511.811733,14878.139434
1047.327703,-3849.070898,4749.792088,15470.304188
1047.328032,-4367.215058,1608.800546,14063.912898
1047.328362,-4515.256246,-919.314598,12065.356855
1047.328691,-4219.173869,-3140.991542,10436.903782
1047.329021,-5329.482782,-6741.640382,9104.533087
1047.329350,-7179.997637,-3983.696590,8512.368333
1047.329679,-6291.750507,-229.828649,7994.224174
1047.330009,-2738.761985,0.000000,7328.038826
1047.330338,1554.432478,306.438199,5551.544565
1047.330668,3478.967927,1378.971896,5329.482782
1047.330997,4663.297435,1532.190996,7105.977043
1047.331327,3997.112087,2834.553343,9474.636058
1047.331656,1480.411884,6588.421283,12435.459826
1047.331986,-1332.370696,6281.983084,13989.892304
1047.332315,-2812.782580,2528.115143,14137.933492
1047.332645,-4145.153275,-306.438199,13693.809927
1047.332974,-4071.132681,-1149.143247,12287.418637
1047.333304,-3849.070898,-3524.039291,11029.068536
1047.333633,-4219.173869,-3753.867940,9548.656652
1047.333963,-4515.256246,-1608.800546,7254.018232
1047.334292,-2516.700203,0.000000,5033.400406
1047.334621,888.247130,229.828649,3034.844362
1047.334951,3552.988522,1149.143247,4219.173869
1047.335280,4811.338623,2987.772442,7328.038826
1047.335610,3034.844362,4826.401637,9252.574275
1047.335939,222.061783,7048.078582,10436.903782
1047.336269,-962.267725,7277.907231,11695.253884
1047.336598,-1184.329507,2987.772442,13545.768739
1047.336928,-2442.679609,0.000000,12805.562797
1047.337257,-4737.318029,-995.924147,11029.068536
1047.337587,-5181.441594,-2221.676944,10140.821405
1047.337916,-4441.235652,-2987.772442,10584.944971
1047.338246,-3849.070898,-2757.943793,10584.944971
1047.338575,-3627.009116,-536.266849,6809.894666
1047.338905,148.041188,-1608.800546,3775.050304
1047.339234,5699.585753,-995.924147,3923.091493
1047.339564,7402.059420,3140.991542,6439.791695
1047.339893,5255.462188,4519.963438,8512.368333
1047.340222,1702.473667,4290.134789,10658.965565
1047.340552,-1924.535449,6435.202183,12953.603985
1047.340881,-3701.029710,8120.612279,14211.954086
1047.341211,-4811.338623,3447.429741,13471.748144
1047.341540,-6069.688724,-1225.752797,11029.068536
1047.341870,-6217.729913,-2987.772442,8882.471304
1047.342199,-5551.544565,-5132.839837,8364.327145
1047.342529,-6069.688724,-5132.839837,8512.368333
1047.342858,-7402.059420,-1455.581446,8216.285956
1047.343188,-7105.977043,-153.219100,7846.182985
1047.343517,-3404.947333,-536.266849,7994.224174
1047.343847,74.020594,919.314598,8660.409521
1047.344176,2368.659014,2987.772442,9104.533087
1047.344506,2072.576638,2451.505594,8956.491898
1047.344835,-666.185348,3064.381992,11621.233289
1047.345164,-3108.864956,5286.058936,15026.180623
1047.345494,-4293.194464,4596.572988,15544.324782
1047.345823,-5921.647536,2757.943793,12361.439231
1047.346153,-6217.729913,1149.143247,9992.780217
1047.346482,-3997.112087,-2451.505594,8660.409521
1047.346812,-1628.453072,-4443.353888,8290.306550
1047.347141,-2442.679609,-3217.601092,7624.121203
1047.347471,-4811.338623,-536.266849,7105.977043
1047.347800,-5625.565159,1225.752797,7254.018232
1047.348130,-5255.462188,2451.505594,8438.347739
1047.348459,-3701.029710,2528.115143,9770.718434
1047.348789,-1702.473667,2604.724693,9548.656652
1047.349118,-888.247130,2528.115143,8290.306550
1047.349448,-1110.308913,2068.457845,7994.224174
1047.349777,-3108.864956,1072.533697,10066.800811
1047.350106,-5403.503377,2298.286494,11103.089130
1047.350436,-6587.832884,3370.820191,10436.903782
1047.350765,-6291.750507,1838.629195,9400.615463
1047.351095,-4663.297435,536.266849,8586.388927
1047.351424,-1628.453072,-306.438199,7254.018232
1047.351754,148.041188,-2145.067394,7328.038826
1047.352083,-222.061783,-1455.581446,8216.285956
1047.352413,-2812.782580,2068.457845,9178.553681
1047.352742,-5329.482782,5056.230287,9400.615463
1047.353072,-5773.606348,3524.039291,10214.842000
1047.353401,-5107.421000,1302.362347,11029.068536
1047.353731,-4367.215058,1302.362347,10881.027347
1047.354060,-2960.823768,229.828649,9252.574275
1047.354390,-1924.535449,-1532.190996,8438.347739
1047.354719,-2664.741391,-1455.581446,8586.388927
1047.355048,-6069.688724,459.657299,9918.759623
1047.355378,-7402.059420,2298.286494,10584.944971
1047.355707,-7402.059420,2068.457845,11177.109724
1047.356037,-6291.750507,1838.629195,11251.130318
1047.356366,-4885.359217,1608.800546,11029.068536
1047.356696,-3849.070898,153.219100,9030.512492
1047.357025,-3330.926739,-1225.752797,8068.244768
1047.357355,-2812.782580,536.266849,8734.430116
1047.357684,-2812.782580,2068.457845,10436.903782
1047.358014,-4219.173869,1762.019645,11029.068536
1047.358343,-6291.750507,1302.362347,10140.821405
1047.358673,-7402.059420,842.705048,9992.780217
1047.359002,-6809.894666,766.095498,10288.862594
1047.359332,-5255.462188,1378.971896,10066.800811
1047.359661,-3923.091493,459.657299,8808.450710
1047.359991,-3256.906145,-995.924147,6735.874072
1047.360320,-2146.597232,0.000000,6513.812290
1047.360649,0.000000,842.705048,7994.224174
1047.360979,518.144159,1608.800546,9326.594869
1047.361308,-1406.391290,2374.896044,9992.780217
1047.361638,-4515.256246,3370.820191,10362.883188
1047.361967,-6143.709319,2757.943793,11251.130318
1047.362297,-7105.977043,1762.019645,12361.439231
1047.362626,-7105.977043,1302.362347,11029.068536
1047.362956,-5699.585753,-1608.800546,9548.656652
1047.363285,-3701.029710,-3370.820191,7994.224174
1047.363615,-1480.411884,-2834.553343,7105.977043
1047.363944,0.000000,-1915.238745,6957.935855
1047.364274,1406.391290,76.609550,7550.100608
1047.364603,1036.288319,2528.115143,8808.450710
1047.364933,-740.205942,4290.134789,9992.780217
1047.365262,-3478.967927,4749.792088,10436.903782
1047.365591,-5773.606348,4903.011187,10807.006753
1047.365921,-7476.080014,3983.696590,11769.274478
1047.366250,-8142.265362,1608.800546,11621.233289
1047.366580,-6809.894666,-536.266849,10510.924376
1047.366909,-5033.400406,-3064.381992,8438.347739
1047.367239,-3552.988522,-3983.696590,6439.791695
1047.367568,-1332.370696,-2834.553343,6143.709319
1047.367898,814.226536,-229.828649,7179.997637
1047.368227,1850.514855,2068.457845,8660.409521
1047.368557,296.082377,4903.011187,10436.903782
1047.368886,-2664.741391,6818.249932,11325.150913
1047.369216,-5403.503377,4290.134789,14063.912898
1047.369545,-8364.327145,2604.724693,15766.386565
1047.369875,-10436.903782,2604.724693,15100.201217
1047.370204,-10510.924376,306.438199,11843.295072
1047.370533,-7846.182985,-3217.601092,7105.977043
1047.370863,-3256.906145,-4903.011187,3997.112087
1047.371192,1110.308913,-6052.154434,3552.988522
1047.371522,3627.009116,-2451.505594,4367.215058
1047.371851,3701.029710,3370.820191,6069.688724
1047.372181,1628.453072,7967.393179,7920.203579
1047.372510,148.041188,9422.974625,10288.862594
1047.372840,-2294.638420,8733.488677,13027.624579
1047.373169,-4737.318029,7201.297681,13619.789333
1047.373499,-7550.100608,2451.505594,13175.665768
1047.373828,-10436.903782,-1685.410096,14063.912898
1047.374158,-12657.521608,-3370.820191,14063.912898
1047.374487,-14359.995275,-4903.011187,11473.192101
1047.374817,-12583.501014,-5362.668486,7328.038826
1047.375146,-7105.977043,-5439.278036,4737.318029
1047.375475,-1036.288319,-3294.210641,3478.967927
1047.375805,2886.803174,-459.657299,3775.050304
1047.376134,3923.091493,2451.505594,4737.318029
1047.376464,2590.720797,7354.516781,7254.018232
1047.376793,518.144159,11031.775171,9992.780217
1047.377123,-2146.597232,9346.365076,12583.501014
1047.377452,-4515.256246,5132.839837,13619.789333
1047.377782,-7031.956449,1149.143247,11917.315666
1047.378111,-7846.182985,-2757.943793,11251.130318
1047.378441,-7920.203579,-6281.983084,10881.027347
1047.378770,-7402.059420,-6665.030833,10658.965565
1047.379100,-6735.874072,-4826.401637,9474.636058
1047.379429,-4737.318029,-2681.334243,7624.121203
1047.379758,-1480.411884,-919.314598,7476.080014
1047.380088,1258.350101,2451.505594,8660.409521
1047.380417,2442.679609,5056.230287,9696.697840
1047.380747,1480.411884,6281.983084,10658.965565
1047.381076,-1110.308913,5669.106685,11769.274478
1047.381406,-3330.926739,3907.087040,12731.542202
1047.381735,-5995.668130,2374.896044,12731.542202
1047.382065,-8216.285956,-306.438199,10658.965565
1047.382394,-8290.306550,-3753.867940,8290.306550
1047.382724,-6217.729913,-6205.373534,7105.977043
1047.383053,-3330.926739,-5515.887586,7105.977043
1047.383382,-2442.679609,-2221.676944,7179.997637
1047.383712,-1924.535449,689.485948,7254.018232
1047.384041,-1776.494261,3907.087040,8290.306550
1047.384371,-1776.494261,6818.249932,9696.697840
1047.384700,-1480.411884,7967.393179,11325.150913
1047.385030,-2368.659014,6435.202183,11621.233289
1047.385359,-3923.091493,4290.134789,11991.336260
1047.385689,-4145.153275,1762.019645,12139.377449
1047.386018,-5329.482782,306.438199,11473.192101
1047.386348,-5773.606348,-1149.143247,9992.780217
1047.386677,-6217.729913,-2451.505594,8216.285956
1047.387007,-4959.379811,-766.095498,7698.141797
1047.387336,-2664.741391,1378.971896,7550.100608
1047.387665,-1036.288319,2145.067394,7698.141797
1047.387995,-370.102971,3907.087040,7402.059420
1047.388324,-1110.308913,6128.763984,8068.244768
1047.388654,-2072.576638,6358.592633,9326.594869
1047.388983,-3034.844362,5669.106685,10510.924376
1047.389313,-4367.215058,4366.744339,10955.047942
1047.389642,-4737.318029,2911.162892,10140.821405
1047.389972,-4293.194464,612.876398,9474.636058
1047.390301,-3404.947333,-689.485948,8660.409521
1047.390631,-2590.720797,-383.047749,8660.409521
1047.390960,-2368.659014,1072.533697,8364.327145
1047.391290,-2368.659014,3370.820191,9104.533087
1047.391619,-2516.700203,4979.620737,9992.780217
1047.391948,-1998.556043,5592.497135,10436.903782
1047.392278,-1628.453072,6052.154434,10584.944971
1047.392607,-1258.350101,5132.839837,10510.924376
1047.392937,-814.226536,4366.744339,10066.800811
1047.393266,-666.185348,2604.724693,9770.718434
1047.393596,-148.041188,2451.505594,9252.574275
1047.393925,-370.102971,2068.457845,8956.491898
1047.394255,-888.247130,2528.115143,9178.553681
1047.394584,-444.123565,3064.381992,9770.718434
1047.394914,-592.164754,4366.744339,10658.965565
1047.395243,-1110.308913,6665.030833,10955.047942
1047.395573,-2516.700203,6971.469032,10807.006753
1047.395902,-3404.947333,6511.811733,10214.842000
1047.396231,-3330.926739,5822.325785,9252.574275
1047.396561,-3108.864956,4213.525239,8068.244768
1047.396890,-2146.597232,2374.896044,6587.832884
1047.397220,-962.267725,612.876398,5255.462188
1047.397549,-444.123565,229.828649,5847.626942
1047.397879,-1110.308913,1225.752797,6883.915261
1047.398208,-1998.556043,3217.601092,8438.347739
1047.398538,-2738.761985,4749.792088,9474.636058
1047.398867,-2738.761985,6665.030833,10436.903782
1047.399197,-2368.659014,6435.202183,11103.089130
1047.399526,-1628.453072,5898.935335,10881.027347
1047.399855,-518.144159,4903.011187,10288.862594
1047.400185,296.082377,4136.915689,9844.739029
1047.400514,222.061783,3907.087040,9474.636058
1047.400844,-222.061783,3677.258390,9474.636058
1047.401173,-148.041188,3294.210641,8734.430116
1047.401503,148.041188,2987.772442,8808.450710
1047.401832,740.205942,3294.210641,9030.512492
1047.402162,1184.329507,2911.162892,9918.759623
1047.402491,74.020594,2987.772442,10140.821405
1047.402821,-1628.453072,3907.087040,11177.109724
1047.403150,-2812.782580,4979.620737,11695.253884
1047.403480,-2812.782580,4673.182538,11991.336260
1047.403809,-2368.659014,4290.134789,11695.253884
1047.404138,-2368.659014,3907.087040,10436.903782
1047.404468,-1850.514855,3600.648841,9844.739029
1047.404797,-1332.370696,4290.134789,9918.759623
1047.405127,-666.185348,5132.839837,9474.636058
1047.405456,0.000000,4979.620737,8438.347739
1047.405786,296.082377,4366.744339,6883.915261
1047.406115,592.164754,2911.162892,6217.729913
1047.406445,592.164754,1762.019645,6735.874072
1047.406774,0.000000,1685.410096,7624.121203
1047.407104,-1554.432478,2221.676944,8956.491898
1047.407433,-2886.803174,3140.991542,9622.677246
1047.407763,-2516.700203,3830.477490,10881.027347
1047.408092,-1702.473667,4290.134789,11547.212695
1047.408421,-740.205942,4903.011187,11325.150913
1047.408751,0.000000,5975.544884,10214.842000
1047.409080,814.226536,6894.859482,9770.718434
1047.409410,1480.411884,7277.907231,10362.883188
1047.409739,740.205942,6818.249932,9622.677246
1047.410069,-814.226536,5822.325785,7920.203579
1047.410398,-1702.473667,4366.744339,6587.832884
1047.410728,-1850.514855,2068.457845,5995.668130
1047.411057,-1850.514855,766.095498,5921.647536
1047.411387,-2294.638420,-536.266849,6883.915261
1047.411716,-2664.741391,-919.314598,7994.224174
1047.412046,-3108.864956,459.657299,9548.656652
1047.412375,-2886.803174,2757.943793,11695.253884
1047.412704,-2368.659014,4596.572988,12879.583391
1047.413034,-1554.432478,5362.668486,12879.583391
1047.413363,-370.102971,6435.202183,13471.748144
1047.413693,0.000000,7584.345430,12953.603985
1047.414022,222.061783,6588.421283,11325.150913
1047.414352,444.123565,4290.134789,10066.800811
1047.414681,296.082377,3677.258390,8882.471304
1047.415011,-222.061783,3370.820191,8438.347739
1047.415340,-1036.288319,2987.772442,7476.080014
1047.415670,-1036.288319,2374.896044,7031.956449
1047.415999,-444.123565,612.876398,7031.956449
1047.416328,0.000000,1685.410096,7105.977043
1047.416658,592.164754,2451.505594,9252.574275
1047.416987,370.102971,3524.039291,10288.862594
1047.417317,-592.164754,4673.182538,10955.047942
1047.417646,-1776.494261,6665.030833,11769.274478
1047.417976,-2368.659014,7048.078582,12361.439231
1047.418305,-1924.535449,6281.983084,13101.645173
1047.418635,-2442.679609,5898.935335,12361.439231
1047.418964,-3997.112087,6052.154434,10658.965565
1047.419294,-4663.297435,5056.230287,7698.141797
1047.419623,-3034.844362,3370.820191,4589.276840
1047.419953,814.226536,1838.629195,3256.906145
1047.420282,3404.947333,612.876398,3627.009116
1047.420611,3775.050304,1455.581446,4737.318029
1047.420941,1554.432478,3600.648841,6439.791695
1047.421270,-1258.350101,4903.011187,8882.471304
1047.421600,-3627.009116,6818.249932,12435.459826
1047.421929,-4441.235652,7277.907231,15618.345376
1047.422259,-5181.441594,7201.297681,15988.448347
1047.422588,-4959.379811,5592.497135,14285.974681
1047.422918,-4219.173869,3370.820191,11251.130318
1047.423247,-2220.617826,1838.629195,8734.430116
1047.423577,148.041188,919.314598,7402.059420
1047.423906,2886.803174,1762.019645,5625.565159
1047.424236,4959.379811,3294.210641,4663.297435
1047.424565,6143.709319,3677.258390,5107.421000
1047.424894,4811.338623,4673.182538,7254.018232
1047.425224,1036.288319,6128.763984,9992.780217
1047.425553,-3552.988522,8963.317327,13101.645173
1047.425883,-5551.544565,9806.022374,15100.201217
1047.426212,-5477.523971,6818.249932,15248.242405
1047.426542,-4589.276840,2681.334243,12879.583391
1047.426871,-3108.864956,-536.266849,9622.677246
1047.427201,-2220.617826,-1608.800546,6291.750507
1047.427530,-1332.370696,-459.657299,5699.585753
1047.427860,-888.247130,1991.848295,7550.100608
1047.428189,-1332.370696,4519.963438,8290.306550
1047.428519,-1702.473667,5286.058936,7105.977043
1047.428848,-666.185348,4290.134789,6143.709319
1047.429177,74.020594,2911.162892,7402.059420
1047.429507,444.123565,2451.505594,10658.965565
1047.429836,-1554.432478,4213.525239,12805.562797
1047.430166,-2812.782580,5362.668486,14285.974681
1047.430495,-3034.844362,5822.325785,13915.871710
1047.430825,-2368.659014,5209.449386,12435.459826
1047.431154,-1036.288319,3983.696590,9104.533087
1047.431484,1184.329507,1455.581446,5181.441594
1047.431813,3997.112087,-1149.143247,3923.091493
1047.432143,4959.379811,-383.047749,4367.215058
1047.432472,3108.864956,1991.848295,5773.606348
1047.432801,888.247130,3064.381992,7550.100608
1047.433131,-1702.473667,3677.258390,10510.924376
1047.433460,-3404.947333,3677.258390,13027.624579
1047.433790,-3997.112087,4290.134789,13693.809927
1047.434119,-3997.112087,1991.848295,13471.748144
1047.434449,-3404.947333,229.828649,12879.583391
1047.434778,-3478.967927,1225.752797,12065.356855
1047.435108,-3108.864956,2911.162892,10955.047942
1047.435437,-2146.597232,4366.744339,9178.553681
1047.435767,-1332.370696,4903.011187,7920.203579
1047.436096,148.041188,5975.544884,7328.038826
1047.436426,1924.535449,4443.353888,5181.441594
1047.436755,3330.926739,1455.581446,3923.091493
1047.437084,2664.741391,0.000000,4367.215058
1047.437414,74.020594,-229.828649,7772.162391
1047.437743,-2294.638420,1915.238745,12731.542202
1047.438073,-4663.297435,3600.648841,15396.283594
1047.438402,-6365.771101,4596.572988,15026.180623
1047.438732,-5181.441594,3907.087040,13767.830521
1047.439061,-2516.700203,1685.410096,11991.336260
1047.439391,-592.164754,689.485948,11251.130318
1047.439720,-296.082377,2911.162892,9030.512492
1047.440050,-444.123565,4903.011187,6513.812290
1047.440379,814.226536,5056.230287,5625.565159
1047.440709,1554.432478,4443.353888,5403.503377
1047.441038,2146.597232,4136.915689,5255.462188
1047.441367,1998.556043,1991.848295,4811.338623
1047.441697,1702.473667,383.047749,5181.441594
1047.442026,444.123565,383.047749,7402.059420
1047.442356,-1258.350101,0.000000,11399.171507
1047.442685,-4515.256246,-536.266849,13915.871710
1047.443015,-6735.874072,1455.581446,14359.995275
1047.443344,-6069.688724,2681.334243,13989.892304
1047.443674,-3627.009116,1991.848295,12583.501014
1047.444003,-2146.597232,766.095498,10510.924376
1047.444333,-370.102971,-612.876398,8882.471304
1047.444662,518.144159,-229.828649,8216.285956
1047.444992,444.123565,2528.115143,7105.977043
1047.445321,1110.308913,3983.696590,5255.462188
1047.445650,3034.844362,1225.752797,4737.318029
1047.445980,3923.091493,-1072.533697,5477.523971
1047.446309,3404.947333,536.266849,7846.182985
1047.446639,2516.700203,1072.533697,9992.780217
1047.446968,74.020594,-995.924147,11621.233289
1047.447298,-3627.009116,-766.095498,13471.748144
1047.447627,-5847.626942,0.000000,14730.098246
1047.447957,-4737.318029,-995.924147,15248.242405
1047.448286,-3775.050304,-1762.019645,13989.892304
1047.448616,-4071.132681,-536.266849,11399.171507
1047.448945,-3478.967927,-1532.190996,9474.636058
1047.449274,-1924.535449,-1838.629195,9178.553681
1047.449604,74.020594,0.000000,8512.368333
1047.449933,1702.473667,1378.971896,5995.668130
1047.450263,3108.864956,-995.924147,4737.318029
1047.450592,2960.823768,-1685.410096,5995.668130
1047.450922,2072.576638,-383.047749,9326.594869
1047.451251,444.123565,459.657299,13101.645173
1047.451581,-2442.679609,2757.943793,14285.974681
1047.451910,-4737.318029,4290.134789,15248.242405
1047.452240,-4737.318029,1915.238745,14434.015869
1047.452569,-3108.864956,-1532.190996,12805.562797
1047.452899,-2368.659014,-1762.019645,10510.924376
1047.453228,-1776.494261,229.828649,8586.388927
1047.453557,-1924.535449,995.924147,6883.915261
1047.453887,-1480.411884,1838.629195,5551.544565
1047.454216,0.000000,2068.457845,4441.235652
1047.454546,1776.494261,536.266849,3552.988522
1047.454875,1850.514855,689.485948,2960.823768
1047.455205,592.164754,1608.800546,4441.235652
1047.455534,222.061783,1608.800546,7846.182985
1047.455864,-962.267725,1455.581446,11843.295072
1047.456193,-3701.029710,3907.087040,14137.933492
1047.456523,-5699.585753,5745.716235,14211.954086
1047.456852,-4219.173869,3217.601092,13175.665768
1047.457182,-3108.864956,1762.019645,12509.480420
1047.457511,-2368.659014,1915.238745,10288.862594
1047.457840,-1332.370696,-153.219100,7994.224174
1047.458170,-814.226536,-536.266849,6365.771101
1047.458499,-888.247130,1072.533697,5477.523971
1047.458829,-518.144159,995.924147,4737.318029
1047.459158,962.267725,-689.485948,5477.523971
1047.459488,1850.514855,-153.219100,6809.894666
1047.459817,2072.576638,1455.581446,8808.450710
1047.460147,2590.720797,842.705048,11769.274478
1047.460476,888.247130,1149.143247,14878.139434
1047.460806,-2072.576638,4290.134789,16136.489536
1047.461135,-3404.947333,4136.915689,16136.489536
1047.461464,-2368.659014,2451.505594,15692.365970
1047.461794,-1480.411884,2298.286494,13619.789333
1047.462123,-1554.432478,383.047749,10140.821405
1047.462453,-962.267725,-1838.629195,6809.894666
1047.462782,0.000000,-2374.896044,4959.379811
1047.463112,2146.597232,-1532.190996,4589.276840
1047.463441,3034.844362,-995.924147,4663.297435
1047.463771,2368.659014,-689.485948,4885.359217
1047.464100,1036.288319,76.609550,7402.059420
1047.464430,0.000000,919.314598,11251.130318
1047.464759,-1554.432478,3983.696590,14359.995275
1047.465089,-3849.070898,6128.763984,14952.160028
1047.465418,-3775.050304,3600.648841,13915.871710
1047.465747,-2590.720797,306.438199,12361.439231
1047.466077,-3108.864956,-1762.019645,10510.924376
1047.466406,-4145.153275,-1302.362347,8808.450710
1047.466736,-4737.318029,-1072.533697,6957.935855
1047.467065,-4293.194464,0.000000,4811.338623
1047.467395,-2072.576638,-306.438199,3775.050304
1047.467724,1480.411884,-2451.505594,3552.988522
1047.468054,3404.947333,-2298.286494,4367.215058
1047.468383,2368.659014,0.000000,5551.544565
1047.468713,888.247130,1991.848295,8142.265362
1047.469042,518.144159,3064.381992,13471.748144
1047.469372,-1332.370696,3140.991542,16876.695478
1047.469701,-3330.926739,4979.620737,17320.819043
1047.470030,-3701.029710,3294.210641,15322.262999
1047.470360,-2294.638420,-153.219100,13175.665768
1047.470689,-1628.453072,-1302.362347,10658.965565
1047.471019,-1998.556043,-2451.505594,8142.265362
1047.471348,-2072.576638,-3294.210641,7105.977043
1047.471678,-1702.473667,-1915.238745,5921.647536
1047.472007,-1258.350101,0.000000,5329.482782
1047.472337,518.144159,-689.485948,5255.462188
1047.472666,1258.350101,-1302.362347,5921.647536
1047.472996,1628.453072,1685.410096,8142.265362
1047.473325,1702.473667,2145.067394,11325.150913
1047.473655,296.082377,2145.067394,14434.015869
1047.473984,-2368.659014,3830.477490,15766.386565
1047.474313,-4145.153275,2374.896044,15026.180623
1047.474643,-3923.091493,842.705048,14063.912898
1047.474972,-2590.720797,0.000000,11917.315666
1047.475302,-1776.494261,-612.876398,9770.718434
1047.475631,-1036.288319,-2298.286494,7402.059420
1047.475961,-592.164754,-1838.629195,5255.462188
1047.476290,888.247130,153.219100,5181.441594
1047.476620,2812.782580,1225.752797,4885.359217
1047.476949,3997.112087,995.924147,5181.441594
1047.477279,3627.009116,2451.505594,7031.956449
1047.477608,2738.761985,3217.601092,9844.739029
1047.477938,1628.453072,2987.772442,13249.686362
1047.478267,-1628.453072,4749.792088,15174.221811
1047.478597,-4737.318029,5515.887586,15026.180623
1047.478926,-4959.379811,3140.991542,13693.809927
1047.479256,-4293.194464,-842.705048,11695.253884
1047.479585,-4219.173869,-1991.848295,9104.533087
1047.479915,-4737.318029,-1378.971896,6661.853478
1047.480244,-3849.070898,-1225.752797,5551.544565
1047.480573,-2146.597232,306.438199,4663.297435
1047.480903,0.000000,1532.190996,4071.132681
1047.481232,2368.659014,306.438199,3701.029710
1047.481562,3478.967927,459.657299,4885.359217
1047.481891,2220.617826,2374.896044,7402.059420
1047.482221,592.164754,3677.258390,11103.089130
1047.482550,-1258.350101,3753.867940,14211.954086
1047.482880,-3034.844362,4213.525239,15174.221811
1047.483209,-3849.070898,2834.553343,15026.180623
1047.483539,-3627.009116,0.000000,13027.624579
1047.483868,-2960.823768,-1915.238745,10807.006753
1047.484198,-2812.782580,-1991.848295,8956.491898
1047.484527,-2516.700203,-1991.848295,7698.141797
1047.484857,-1850.514855,-612.876398,6883.915261
1047.485186,-740.205942,995.924147,5033.400406
1047.485516,1628.453072,0.000000,4145.153275
1047.485845,2590.720797,-1149.143247,4663.297435
1047.486175,2294.638420,306.438199,6365.771101
1047.486504,2368.659014,1762.019645,9622.677246
1047.486834,740.205942,1762.019645,13249.686362
1047.487163,-2072.576638,1225.752797,15100.201217
1047.487493,-4885.359217,766.095498,14434.015869
1047.487822,-5181.441594,-1685.410096,14359.995275
1047.488151,-3701.029710,-3217.601092,13545.768739
1047.488481,-3182.885551,-1762.019645,11325.150913
1047.488810,-2368.659014,-1991.848295,9696.697840
1047.489140,-814.226536,-2757.943793,8660.409521
1047.489469,74.020594,-995.924147,7550.100608
1047.489799,1332.370696,1072.533697,6957.935855
1047.490128,3108.864956,612.876398,6217.729913
1047.490458,4145.153275,459.657299,7179.997637
1047.490787,3404.947333,2451.505594,9474.636058
1047.491117,2294.638420,2068.457845,11991.336260
1047.491446,0.000000,1378.971896,14137.933492
1047.491776,-3182.885551,3447.429741,14359.995275
1047.492105,-5033.400406,2834.553343,14211.954086
1047.492435,-4737.318029,0.000000,12583.501014
1047.492764,-4145.153275,-1762.019645,10510.924376
1047.493094,-4071.132681,-1838.629195,8142.265362
1047.493423,-3182.885551,-919.314598,5625.565159
1047.493753,-2442.679609,76.609550,4367.215058
1047.494082,-444.123565,1685.410096,4663.297435
1047.494412,1998.556043,1915.238745,4737.318029
1047.494741,2442.679609,1915.238745,4737.318029
1047.495071,2516.700203,2757.943793,5847.626942
1047.495400,1406.391290,2987.772442,8512.368333
1047.495729,296.082377,2681.334243,12065.356855
1047.496059,-2368.659014,4136.915689,14508.036463
1047.496388,-4515.256246,4749.792088,14508.036463
1047.496718,-4219.173869,3064.381992,12731.542202
1047.497047,-3552.988522,-766.095498,11325.150913
1047.497377,-3256.906145,-919.314598,9474.636058
1047.497706,-2812.782580,0.000000,7846.182985
1047.498036,-1924.535449,-612.876398,6143.709319
1047.498365,-1110.308913,766.095498,4441.235652
1047.498695,222.061783,1302.362347,4441.235652
1047.499024,2368.659014,459.657299,5403.503377
1047.499354,2516.700203,1225.752797,6069.688724
1047.499683,2146.597232,2528.115143,7698.141797
1047.500013,2590.720797,1991.848295,11399.171507
1047.500342,1036.288319,1838.629195,14656.077652
1047.500672,-2368.659014,2681.334243,16358.551318
1047.501001,-4737.318029,1532.190996,15618.345376
1047.501331,-4441.235652,-306.438199,14582.057057
1047.501660,-3552.988522,383.047749,13989.892304
1047.501990,-3182.885551,153.219100,11769.274478
1047.502319,-2368.659014,-1608.800546,8512.368333
1047.502649,-1036.288319,-2374.896044,6365.771101
1047.502978,740.205942,0.000000,5329.482782
1047.503308,2590.720797,612.876398,5181.441594
1047.503637,3627.009116,153.219100,5107.421000
1047.503966,3552.988522,612.876398,5403.503377
1047.504296,3034.844362,536.266849,9030.512492
1047.504625,1406.391290,1072.533697,12583.501014
1047.504955,-1406.391290,3753.867940,15322.262999
1047.505284,-4293.194464,4213.525239,15026.180623
1047.505614,-4959.379811,1532.190996,13249.686362
1047.505943,-4071.132681,-1608.800546,12213.398043
1047.506273,-3404.947333,-2068.457845,11399.171507
1047.506602,-3478.967927,-1225.752797,9104.533087
1047.506932,-3552.988522,0.000000,6069.688724
1047.507261,-1628.453072,919.314598,3775.050304
1047.507591,2368.659014,-229.828649,3923.091493
1047.507920,4737.318029,0.000000,5255.462188
1047.508250,3923.091493,2068.457845,6291.750507
1047.508579,1628.453072,3753.867940,7105.977043
1047.508909,370.102971,2528.115143,10140.821405
1047.509238,-1406.391290,2374.896044,13915.871710
1047.509568,-3627.009116,3753.867940,16284.530724
1047.509897,-5255.462188,3217.601092,15840.407159
1047.510227,-5181.441594,306.438199,12879.583391
1047.510556,-4737.318029,-995.924147,9770.718434
1047.510886,-4145.153275,-2528.115143,8364.327145
1047.511215,-2664.741391,-2528.115143,7772.162391
1047.511544,-2146.597232,-229.828649,5699.585753
1047.511874,-666.185348,1762.019645,3182.885551
1047.512203,2886.803174,229.828649,3256.906145
1047.512533,5181.441594,-383.047749,5107.421000
1047.512862,4071.132681,1455.581446,7402.059420
1047.513192,2220.617826,3830.477490,10955.047942
1047.513521,148.041188,4749.792088,14508.036463
1047.513851,-1850.514855,5132.839837,16284.530724
1047.514180,-3997.112087,3524.039291,16358.551318
1047.514510,-3997.112087,-76.609550,14582.057057
1047.514839,-3256.906145,-1225.752797,12361.439231
1047.515169,-3330.926739,-919.314598,10584.944971
1047.515498,-3552.988522,-766.095498,8364.327145
1047.515828,-3034.844362,-1378.971896,6587.832884
1047.516157,-1332.370696,-612.876398,5329.482782
1047.516487,1628.453072,1149.143247,4071.132681
1047.516816,3627.009116,383.047749,4293.194464
1047.517146,3923.091493,842.705048,5107.421000
1047.517475,2664.741391,2374.896044,8364.327145
1047.517805,962.267725,2604.724693,12139.377449
1047.518134,-1554.432478,4060.306139,15174.221811
1047.518464,-3997.112087,5669.106685,16506.592507
1047.518793,-4367.215058,4213.525239,14730.098246
1047.519123,-3701.029710,-153.219100,12657.521608
1047.519452,-2738.761985,-2221.676944,10658.965565
1047.519781,-2368.659014,-612.876398,9252.574275
1047.520111,-2146.597232,0.000000,7476.080014
1047.520440,-2368.659014,1608.800546,5403.503377
1047.520770,-296.082377,2221.676944,4071.132681
1047.521099,3034.844362,229.828649,4515.256246
1047.521429,4589.276840,919.314598,5255.462188
1047.521758,2442.679609,2068.457845,5551.544565
1047.522088,222.061783,3370.820191,8882.471304
1047.522417,-1332.370696,3140.991542,13101.645173
1047.522747,-3849.070898,4519.963438,15396.283594
1047.523076,-5107.421000,4519.963438,14285.974681
1047.523406,-4293.194464,766.095498,12213.398043
1047.523735,-3256.906145,-1149.143247,10140.821405
1047.524065,-3108.864956,-1072.533697,9178.553681
1047.524394,-3330.926739,-1302.362347,7920.203579
1047.524724,-2738.761985,0.000000,6661.853478
1047.525053,-1184.329507,1378.971896,5107.421000
1047.525383,1258.350101,1455.581446,4515.256246
1047.525712,2960.823768,-459.657299,4589.276840
1047.526042,3478.967927,-1072.533697,5995.668130
1047.526371,2294.638420,1302.362347,9474.636058
1047.526701,-370.102971,3064.381992,13027.624579
1047.527030,-2886.803174,3983.696590,15840.407159
1047.527359,-4515.256246,3370.820191,16580.613101
1047.527689,-4071.132681,766.095498,15100.201217
1047.528018,-2812.782580,-1762.019645,12361.439231
1047.528348,-1924.535449,-3064.381992,10584.944971
1047.528677,-962.267725,-1838.629195,9030.512492
1047.529007,-1702.473667,-919.314598,8216.285956
1047.529336,-1332.370696,153.219100,7105.977043
1047.529666,518.144159,689.485948,5699.585753
1047.529995,3034.844362,-306.438199,5255.462188
1047.530325,3849.070898,-919.314598,6661.853478
1047.530654,2590.720797,1072.533697,8734.430116
1047.530984,666.185348,1838.629195,11621.233289
1047.531313,-1184.329507,2221.676944,14211.954086
1047.531643,-3330.926739,3294.210641,15100.201217
1047.531972,-3701.029710,3753.867940,14359.995275
1047.532302,-2812.782580,919.314598,12731.542202
1047.532631,-2664.741391,-766.095498,10658.965565
1047.532961,-2812.782580,0.000000,8808.450710
1047.533290,-3034.844362,153.219100,7402.059420
1047.533620,-2516.700203,842.705048,6439.791695
1047.533949,-1480.411884,2451.505594,4959.379811
1047.534279,222.061783,1838.629195,4145.153275
1047.534608,2368.659014,229.828649,4071.132681
1047.534937,2516.700203,995.924147,6069.688724
1047.535267,740.205942,2911.162892,8734.430116
1047.535596,-1702.473667,3370.820191,11621.233289
1047.535926,-2368.659014,4826.401637,14285.974681
1047.536255,-3108.864956,5056.230287,13693.809927
1047.536585,-2812.782580,2987.772442,12213.398043
1047.536914,-1628.453072,0.000000,10955.047942
1047.537244,-1406.391290,-229.828649,10140.821405
1047.537573,-2368.659014,1149.143247,9326.594869
1047.537903,-3330.926739,2145.067394,8142.265362
1047.538232,-2146.597232,1685.410096,6291.750507
1047.538562,0.000000,1149.143247,4589.276840
1047.538891,2442.679609,-229.828649,3997.112087
1047.539221,3404.947333,-1072.533697,5181.441594
1047.539550,2368.659014,459.657299,7328.038826
1047.539880,444.123565,2451.505594,10955.047942
1047.540209,-2368.659014,3753.867940,14730.098246
1047.540539,-4589.276840,5286.058936,16062.468941
1047.540868,-4441.235652,4290.134789,15618.345376
1047.541198,-2368.659014,536.266849,13027.624579
1047.541527,-1406.391290,-1991.848295,10881.027347
1047.541857,-1184.329507,-1532.190996,9474.636058
1047.542186,-1480.411884,-383.047749,7994.224174
1047.542516,-1332.370696,306.438199,6291.750507
1047.542845,-518.144159,1378.971896,5329.482782
1047.543174,1184.329507,689.485948,4811.338623
1047.543504,3404.947333,-842.705048,5625.565159
1047.543833,2886.803174,-1072.533697,7179.997637
1047.544163,1036.288319,536.266849,9918.759623
1047.544492,-962.267725,1608.800546,12805.562797
1047.544822,-2960.823768,2451.505594,15544.324782
1047.545151,-4589.276840,3447.429741,15840.407159
1047.545481,-4515.256246,1685.410096,14952.160028
1047.545810,-3552.988522,-536.266849,12879.583391
1047.546140,-2738.761985,-1302.362347,10510.924376
1047.546469,-2590.720797,-1762.019645,8438.347739
1047.546799,-2146.597232,-1149.143247,7698.141797
1047.547128,-1258.350101,0.000000,6439.791695
1047.547458,0.000000,383.047749,4885.359217
1047.547787,2368.659014,-536.266849,4737.318029
1047.548117,3034.844362,-919.314598,6661.853478
1047.548446,2072.576638,1302.362347,8734.430116
1047.548776,0.000000,2451.505594,11325.150913
1047.549105,-1776.494261,2298.286494,13101.645173
1047.549435,-3256.906145,2911.162892,13915.871710
1047.549764,-3775.050304,2451.505594,13323.706956
1047.550094,-2812.782580,459.657299,12435.459826
1047.550423,-2516.700203,-1072.533697,10214.842000
1047.550752,-2590.720797,0.000000,8586.388927
1047.551082,-2368.659014,689.485948,7698.141797
1047.551411,-1776.494261,919.314598,5847.626942
1047.551741,-666.185348,1608.800546,4441.235652
1047.552070,1406.391290,1072.533697,3775.050304
1047.552400,2664.741391,-306.438199,4515.256246
1047.552729,2294.638420,612.876398,6365.771101
1047.553059,444.123565,1685.410096,9178.553681
1047.553388,-1184.329507,1991.848295,13101.645173
1047.553718,-4219.173869,3370.820191,15026.180623
1047.554047,-6143.709319,4903.011187,14582.057057
1047.554377,-4441.235652,2374.896044,13693.809927
1047.554706,-2294.638420,-995.924147,12287.418637
1047.555036,-1998.556043,-612.876398,9770.718434
1047.555365,-1628.453072,-229.828649,8068.244768
1047.555695,-592.164754,-995.924147,6883.915261
1047.556024,0.000000,842.705048,6661.853478
1047.556354,518.144159,2911.162892,5921.647536
1047.556683,2146.597232,1455.581446,5995.668130
1047.557013,3404.947333,76.609550,6661.853478
1047.557342,3034.844362,1149.143247,9326.594869
1047.557672,1480.411884,1838.629195,12435.459826
1047.558001,-1110.308913,2681.334243,14878.139434
1047.558331,-3552.988522,3447.429741,15692.365970
1047.558660,-4959.379811,3064.381992,14730.098246
1047.558989,-3701.029710,1378.971896,13619.789333
1047.559319,-2664.741391,0.000000,11621.233289
1047.559648,-2368.659014,0.000000,8660.409521
1047.559978,-1850.514855,-1225.752797,5995.668130
1047.560307,-1406.391290,-919.314598,4293.194464
1047.560637,0.000000,459.657299,4515.256246
1047.560966,1258.350101,1455.581446,4589.276840
1047.561296,1554.432478,536.266849,4885.359217
1047.561625,1184.329507,0.000000,6661.853478
1047.561955,666.185348,766.095498,9770.718434
1047.562284,-1628.453072,2528.115143,12731.542202
1047.562614,-3404.947333,3677.258390,14211.954086
1047.562943,-4071.132681,3524.039291,13989.892304
1047.563273,-3034.844362,1378.971896,12805.562797
1047.563602,-2368.659014,-536.266849,11251.130318
1047.563932,-2146.597232,-612.876398,9992.780217
1047.564261,-2368.659014,229.828649,7772.162391
1047.564591,-1628.453072,689.485948,6439.791695
1047.564920,-592.164754,76.609550,5477.523971
1047.565250,1332.370696,76.609550,5181.441594
1047.565579,2960.823768,-229.828649,5255.462188
1047.565909,2294.638420,-612.876398,5995.668130
1047.566238,1036.288319,306.438199,8142.265362
1047.566567,-370.102971,1225.752797,11917.315666
1047.566897,-2294.638420,1455.581446,14878.139434
1047.567226,-4293.194464,2757.943793,15544.324782
1047.567556,-4663.297435,1685.410096,14582.057057
1047.567885,-3182.885551,-766.095498,12583.501014
1047.568215,-2072.576638,-2681.334243,11399.171507
1047.568544,-1850.514855,-1915.238745,9992.780217
1047.568874,-2368.659014,-995.924147,8364.327145
1047.569203,-1258.350101,-995.924147,7698.141797
1047.569533,0.000000,612.876398,6735.874072
1047.569862,1110.308913,1225.752797,5699.585753
1047.570192,2442.679609,-995.924147,5921.647536
1047.570521,2886.803174,-612.876398,7994.224174
1047.570851,1258.350101,536.266849,10436.903782
1047.571180,-888.247130,1532.190996,13915.871710
1047.571510,-3256.906145,2757.943793,14730.098246
1047.571839,-4515.256246,2298.286494,13989.892304
1047.572169,-3182.885551,766.095498,12583.501014
1047.572498,-1850.514855,-995.924147,11843.295072
1047.572828,-1184.329507,536.266849,10140.821405
1047.573157,-1850.514855,1225.752797,7846.182985
1047.573487,-1776.494261,766.095498,5699.585753
1047.573816,-222.061783,1225.752797,4811.338623
1047.574145,1628.453072,1225.752797,4737.318029
1047.574475,2442.679609,995.924147,4885.359217
1047.574805,1776.494261,1072.533697,6365.771101
1047.575134,74.020594,1455.581446,8364.327145
1047.575464,-1480.411884,1991.848295,11473.192101
1047.575793,-2738.761985,2757.943793,13619.789333
1047.576123,-4145.153275,4749.792088,14211.954086
1047.576453,-3849.070898,3217.601092,13027.624579
1047.576782,-1924.535449,383.047749,11843.295072
1047.577112,-1554.432478,-766.095498,10584.944971
1047.577441,-2812.782580,689.485948,9104.533087
1047.577771,-3108.864956,1991.848295,7846.182985
1047.578101,-2368.659014,2681.334243,6661.853478
1047.578430,-296.082377,2528.115143,4515.256246
1047.578760,3256.906145,229.828649,3478.967927
1047.579089,4959.379811,-1915.238745,4293.194464
1047.579419,3997.112087,612.876398,6809.894666
1047.579749,1110.308913,3447.429741,9622.677246
1047.580078,-1776.494261,3294.210641,12657.521608
1047.580408,-3923.091493,3753.867940,15026.180623
1047.580738,-5107.421000,4136.915689,16136.489536
1047.581067,-4737.318029,2068.457845,14285.974681
1047.581397,-3256.906145,-459.657299,11695.253884
1047.581726,-3256.906145,-1838.629195,9548.656652
1047.582056,-3701.029710,-1149.143247,8216.285956
1047.582386,-3478.967927,-1225.752797,7105.977043
1047.582715,-2220.617826,-306.438199,5921.647536
1047.583045,444.123565,612.876398,4515.256246
1047.583374,1998.556043,-1225.752797,4515.256246
1047.583704,2738.761985,-1685.410096,6069.688724
1047.584034,2368.659014,-919.314598,9178.553681
1047.584363,814.226536,1072.533697,12731.542202
1047.584693,-1184.329507,2221.676944,15322.262999
1047.585022,-3182.885551,2911.162892,16284.530724
1047.585352,-3182.885551,1608.800546,15396.283594
1047.585682,-1776.494261,-1915.238745,13767.830521
1047.586011,-666.185348,-2298.286494,11843.295072
1047.586341,-592.164754,-1455.581446,9474.636058
1047.586670,-666.185348,-612.876398,7846.182985
1047.587000,-296.082377,-229.828649,6883.915261
1047.587330,592.164754,306.438199,4811.338623
1047.587659,2368.659014,-842.705048,4367.215058
1047.587989,3256.906145,-2145.067394,4959.379811
1047.588319,1998.556043,612.876398,7772.162391
1047.588648,-518.144159,1302.362347,10807.006753
1047.588978,-2886.803174,1608.800546,13693.809927
1047.589307,-5255.462188,2374.896044,14804.118840
1047.589637,-6069.688724,2834.553343,14730.098246
1047.589967,-4885.359217,1149.143247,12805.562797
1047.590296,-3478.967927,-1225.752797,11325.150913
1047.590626,-2886.803174,-842.705048,8734.430116
1047.590955,-2886.803174,383.047749,6957.935855
1047.591285,-1406.391290,919.314598,5699.585753
1047.591615,0.000000,2221.676944,5181.441594
1047.591944,2072.576638,2451.505594,4441.235652
1047.592274,3552.988522,1149.143247,4293.194464
1047.592603,4441.235652,153.219100,5847.626942
1047.592933,2738.761985,919.314598,8512.368333
1047.593263,222.061783,2834.553343,12509.480420
1047.593592,-2442.679609,3983.696590,15544.324782
1047.593922,-4589.276840,5515.887586,15988.448347
1047.594251,-4737.318029,3907.087040,14211.954086
1047.594581,-2960.823768,153.219100,12213.398043
1047.594911,-2146.597232,-1149.143247,10362.883188
1047.595240,-1998.556043,536.266849,8438.347739
1047.595570,-2368.659014,995.924147,6439.791695
1047.595900,-1702.473667,766.095498,5625.565159
1047.596229,-370.102971,2145.067394,4663.297435
1047.596559,1480.411884,536.266849,4145.153275
1047.596888,2664.741391,-1149.143247,5477.523971
1047.597218,3034.844362,766.095498,7698.141797
1047.597548,1332.370696,2681.334243,10807.006753
1047.597877,-962.267725,2757.943793,13989.892304
1047.598207,-3330.926739,3294.210641,15248.242405
1047.598536,-4071.132681,3370.820191,14804.118840
1047.598866,-2886.803174,1685.410096,14211.954086
1047.599196,-1702.473667,-766.095498,12287.418637
1047.599525,-1850.514855,-1225.752797,10066.800811
1047.599855,-1998.556043,-1149.143247,8142.265362
1047.600184,-1554.432478,-689.485948,6883.915261
1047.600514,0.000000,995.924147,5773.606348
1047.600844,1480.411884,766.095498,4737.318029
1047.601173,3552.988522,-306.438199,4737.318029
1047.601503,3552.988522,-1225.752797,6587.832884
1047.601832,2072.576638,306.438199,9696.697840
1047.602162,0.000000,2681.334243,13249.686362
1047.602492,-2368.659014,3447.429741,15470.304188
1047.602821,-4367.215058,4443.353888,15544.324782
1047.603151,-4367.215058,2911.162892,14359.995275
1047.603481,-2368.659014,-306.438199,12657.521608
1047.603810,-888.247130,-1685.410096,10510.924376
1047.604140,-2812.782580,-995.924147,7328.038826
1047.604469,-3552.988522,-995.924147,6587.832884
1047.604799,-2664.741391,-306.438199,5921.647536
1047.605129,-518.144159,1225.752797,4885.359217
1047.605458,1998.556043,383.047749,3997.112087
1047.605788,3627.009116,-766.095498,4515.256246
1047.606117,3034.844362,0.000000,6661.853478
1047.606447,592.164754,2604.724693,10362.883188
1047.606777,-2368.659014,4213.525239,14063.912898
1047.607106,-4145.153275,5132.839837,16062.468941
1047.607436,-4663.297435,4673.182538,15470.304188
1047.607765,-4219.173869,1991.848295,13545.768739
1047.608095,-2960.823768,-1149.143247,11251.130318
1047.608425,-2442.679609,-1685.410096,8660.409521
1047.608754,-2146.597232,-919.314598,7031.956449
1047.609084,-1850.514855,-76.609550,6143.709319
1047.609413,-888.247130,1225.752797,4885.359217
1047.609743,1110.308913,1302.362347,4071.132681
1047.610073,3182.885551,0.000000,3849.070898
1047.610402,4145.153275,0.000000,5773.606348
1047.610732,3330.926739,1991.848295,9252.574275
1047.611062,1406.391290,2681.334243,12953.603985
1047.611391,-1332.370696,2987.772442,15470.304188
1047.611721,-3701.029710,4060.306139,15988.448347
1047.612050,-3627.009116,2834.553343,15396.283594
1047.612380,-2368.659014,0.000000,13915.871710
1047.612710,-2220.617826,-766.095498,11621.233289
1047.613039,-2072.576638,-1072.533697,9474.636058
1047.613369,-2146.597232,-689.485948,7328.038826
1047.613698,-1036.288319,76.609550,5995.668130
1047.614028,444.123565,919.314598,4589.276840
1047.614358,2368.659014,76.609550,4293.194464
1047.614687,3478.967927,0.000000,5625.565159
1047.615017,2368.659014,842.705048,7105.977043
1047.615346,444.123565,1455.581446,10362.883188
1047.615676,-1406.391290,2145.067394,13989.892304
1047.616006,-3108.864956,4519.963438,15988.448347
1047.616335,-4367.215058,5362.668486,14582.057057
1047.616665,-3108.864956,1685.410096,12361.439231
1047.616994,-2072.576638,-1685.410096,10584.944971
1047.617324,-2146.597232,-689.485948,10066.800811
1047.617654,-3478.967927,459.657299,8734.430116
1047.617983,-3849.070898,1455.581446,5847.626942
1047.618313,-2220.617826,1378.971896,3849.070898
1047.618643,1184.329507,459.657299,3478.967927
1047.618972,3552.988522,-459.657299,4367.215058
1047.619302,3182.885551,0.000000,5551.544565
1047.619631,1628.453072,1762.019645,7550.100608
1047.619961,74.020594,3140.991542,11325.150913
1047.620291,-2812.782580,4673.182538,15692.365970
1047.620620,-4737.318029,5898.935335,17320.819043
1047.620950,-4885.359217,3140.991542,15100.201217
1047.621279,-3849.070898,76.609550,12213.398043
1047.621609,-3034.844362,-1072.533697,9622.677246
1047.621939,-2516.700203,-536.266849,8882.471304
1047.622268,-2368.659014,-229.828649,7254.018232
1047.622598,-1998.556043,306.438199,5255.462188
1047.622927,0.000000,1149.143247,3701.029710
1047.623257,2960.823768,229.828649,3478.967927
1047.623587,3997.112087,-612.876398,4959.379811
1047.623916,3478.967927,689.485948,7550.100608
1047.624246,1480.411884,1762.019645,11177.109724
1047.624575,-740.205942,3370.820191,14878.139434
1047.624905,-3404.947333,4979.620737,16358.551318
1047.625235,-4441.235652,3830.477490,15840.407159
1047.625564,-3552.988522,689.485948,13989.892304
1047.625894,-1924.535449,-1762.019645,12065.356855
1047.626224,-1406.391290,-1455.581446,9844.739029
1047.626553,-1850.514855,-459.657299,7920.203579
1047.626883,-1628.453072,0.000000,6513.812290
1047.627212,-222.061783,612.876398,5181.441594
1047.627542,1628.453072,1072.533697,5033.400406
1047.627872,3478.967927,536.266849,5181.441594
1047.628201,3256.906145,612.876398,6439.791695
1047.628531,1924.535449,919.314598,8068.244768
1047.628860,0.000000,1378.971896,11843.295072
1047.629190,-2220.617826,2451.505594,14878.139434
1047.629520,-3849.070898,3907.087040,15618.345376
1047.629849,-4219.173869,2528.115143,13989.892304
1047.630179,-3330.926739,-383.047749,11917.315666
1047.630508,-1924.535449,-1149.143247,9992.780217
1047.630838,-2220.617826,-153.219100,9104.533087
1047.631168,-2368.659014,536.266849,7550.100608
1047.631497,-1702.473667,2068.457845,5625.565159
1047.631827,74.020594,1455.581446,3849.070898
1047.632156,2664.741391,0.000000,4145.153275
1047.632486,2960.823768,-1302.362347,5033.400406
1047.632816,1406.391290,689.485948,7920.203579
1047.633145,-222.061783,2604.724693,11251.130318
1047.633475,-2664.741391,3140.991542,14063.912898
1047.633805,-4367.215058,3830.477490,15248.242405
1047.634134,-4441.235652,2681.334243,14878.139434
1047.634464,-3552.988522,1455.581446,12953.603985
1047.634793,-2368.659014,1225.752797,10955.047942
1047.635123,-2442.679609,459.657299,8290.306550
1047.635453,-2294.638420,-536.266849,6513.812290
1047.635782,-1776.494261,-612.876398,5847.626942
1047.636112,-592.164754,689.485948,4959.379811
1047.636441,962.267725,689.485948,3256.906145
1047.636771,2960.823768,-1455.581446,3552.988522
1047.637101,3478.967927,-1455.581446,6439.791695
1047.637430,2220.617826,689.485948,10732.986159
1047.637760,-518.144159,3524.039291,14878.139434
1047.638089,-2960.823768,4749.792088,16284.530724
1047.638419,-4441.235652,4366.744339,16062.468941
1047.638749,-3478.967927,2451.505594,15026.180623
1047.639078,-1480.411884,0.000000,13693.809927
1047.639408,-962.267725,-1608.800546,10732.986159
1047.639737,-1406.391290,-612.876398,7476.080014
1047.640067,-1480.411884,-919.314598,6513.812290
1047.640397,-370.102971,-306.438199,6365.771101
1047.640726,0.000000,766.095498,6069.688724
1047.641056,740.205942,306.438199,4515.256246
1047.641386,1998.556043,-1072.533697,4811.338623
1047.641715,1998.556043,-612.876398,7698.141797
1047.642045,962.267725,919.314598,11991.336260
1047.642374,-1258.350101,1455.581446,14952.160028
1047.642704,-3997.112087,4060.306139,15248.242405
1047.643034,-4515.256246,4213.525239,14434.015869
1047.643363,-3256.906145,2298.286494,13249.686362
1047.643693,-1924.535449,76.609550,11325.150913
1047.644022,-1702.473667,-459.657299,8882.471304
1047.644352,-1110.308913,-612.876398,6439.791695
1047.644682,-1184.329507,153.219100,5033.400406
1047.645011,0.000000,1378.971896,4737.318029
1047.645341,1110.308913,229.828649,4441.235652
1047.645670,2664.741391,-919.314598,5255.462188
1047.646000,1776.494261,536.266849,7179.997637
1047.646330,444.123565,2451.505594,9326.594869
1047.646659,-1480.411884,3140.991542,12805.562797
1047.646989,-3182.885551,3217.601092,14952.160028
1047.647318,-4589.276840,3907.087040,14804.118840
1047.647648,-4145.153275,3217.601092,13619.789333
1047.647978,-2664.741391,459.657299,11843.295072
1047.648307,-2664.741391,-229.828649,9104.533087
1047.648637,-3404.947333,-306.438199,7105.977043
1047.648967,-2442.679609,-1302.362347,6217.729913
1047.649296,-1184.329507,-383.047749,5625.565159
1047.649626,444.123565,919.314598,4367.215058
1047.649955,1628.453072,76.609550,3849.070898
1047.650285,2516.700203,-1838.629195,5625.565159
1047.650615,2664.741391,-383.047749,9252.574275
1047.650944,592.164754,2987.772442,12731.542202
1047.651274,-1332.370696,3294.210641,15766.386565
1047.651603,-3256.906145,4596.572988,17024.736666
1047.651933,-4071.132681,3753.867940,15100.201217
1047.652263,-2442.679609,0.000000,13101.645173
1047.652592,-222.061783,-2757.943793,11177.109724
1047.652922,-592.164754,-995.924147,8438.347739
1047.653251,-1184.329507,153.219100,6809.894666
1047.653581,-1110.308913,-689.485948,5551.544565
1047.653911,-1036.288319,-919.314598,4959.379811
1047.654240,-666.185348,0.000000,4441.235652
1047.654570,1036.288319,-536.266849,4959.379811
1047.654899,1924.535449,-842.705048,7179.997637
1047.655229,1998.556043,-306.438199,9696.697840
1047.655559,148.041188,0.000000,13545.768739
1047.655888,-2738.761985,2068.457845,16432.571912
1047.656218,-5847.626942,4903.011187,16950.716072
1047.656548,-5477.523971,4443.353888,16136.489536
1047.656877,-3034.844362,1149.143247,13545.768739
1047.657207,-1850.514855,-1915.238745,10288.862594
1047.657536,-1258.350101,-2145.067394,7328.038826
1047.657866,-888.247130,-1762.019645,5403.503377
1047.658196,74.020594,-306.438199,4737.318029
1047.658525,814.226536,995.924147,5181.441594
1047.658855,1998.556043,1149.143247,6143.709319
1047.659184,1628.453072,153.219100,6217.729913
1047.659514,1184.329507,383.047749,7920.203579
1047.659844,444.123565,1378.971896,10658.965565
1047.660173,-740.205942,2451.505594,13915.871710
1047.660503,-2886.803174,3524.039291,15100.201217
1047.660832,-4441.235652,3830.477490,14211.954086
1047.661162,-3552.988522,1685.410096,12139.377449
1047.661492,-2368.659014,-383.047749,10066.800811
1047.661821,-2146.597232,76.609550,8068.244768
1047.662151,-2442.679609,229.828649,6291.750507
1047.662480,-1554.432478,-229.828649,5033.400406
1047.662810,0.000000,229.828649,4293.194464
1047.663140,962.267725,842.705048,3849.070898
1047.663469,1924.535449,-153.219100,5329.482782
1047.663799,2146.597232,612.876398,7105.977043
1047.664129,888.247130,2068.457845,9696.697840
1047.664458,-814.226536,2298.286494,13101.645173
1047.664788,-2886.803174,3524.039291,15248.242405
1047.665117,-4219.173869,4060.306139,15396.283594
1047.665447,-3478.967927,2374.896044,14582.057057
1047.665777,-2294.638420,-459.657299,11843.295072
1047.666106,-1924.535449,-1149.143247,9104.533087
1047.666436,-1406.391290,-1302.362347,7328.038826
1047.666765,-740.205942,-1915.238745,7031.956449
1047.667095,-592.164754,306.438199,6809.894666
1047.667425,518.144159,842.705048,5847.626942
1047.667754,1480.411884,0.000000,5107.421000
1047.668084,2294.638420,-1225.752797,6513.812290
1047.668413,2146.597232,-229.828649,9326.594869
1047.668743,740.205942,766.095498,12953.603985
1047.669073,-1036.288319,1838.629195,15766.386565
1047.669402,-4293.194464,3677.258390,15766.386565
1047.669732,-4811.338623,2911.162892,15174.221811
1047.670061,-3330.926739,306.438199,14508.036463
1047.670391,-2368.659014,-1072.533697,11991.336260
1047.670721,-1776.494261,-459.657299,8734.430116
1047.671050,-1258.350101,-1685.410096,5921.647536
1047.671380,0.000000,-919.314598,5033.400406
1047.671710,222.061783,1685.410096,5329.482782
1047.672039,1258.350101,2298.286494,4737.318029
1047.672369,2294.638420,612.876398,4737.318029
1047.672698,1850.514855,76.609550,6587.832884
1047.673028,296.082377,766.095498,9770.718434
1047.673358,-1480.411884,1302.362347,13175.665768
1047.673687,-3775.050304,2221.676944,14730.098246
1047.674017,-4737.318029,3907.087040,14211.954086
1047.674346,-4145.153275,2221.676944,13619.789333
1047.674676,-2812.782580,229.828649,12213.398043
1047.675006,-2664.741391,229.828649,9918.759623
1047.675335,-2368.659014,1072.533697,7550.100608
1047.675665,-1332.370696,689.485948,5921.647536
1047.675994,74.020594,229.828649,5033.400406
1047.676324,1480.411884,1072.533697,4663.297435
1047.676654,2146.597232,76.609550,4737.318029
1047.676983,2220.617826,-383.047749,6143.709319
1047.677313,814.226536,1225.752797,8438.347739
1047.677642,-518.144159,1915.238745,11991.336260
1047.677972,-2368.659014,1915.238745,14656.077652
1047.678302,-4293.194464,3140.991542,15100.201217
1047.678631,-3552.988522,2451.505594,14063.912898
1047.678961,-2072.576638,0.000000,12213.398043
1047.679290,-1406.391290,-842.705048,10510.924376
1047.679620,-1258.350101,153.219100,8956.491898
1047.679949,-1332.370696,76.609550,7254.018232
1047.680279,-444.123565,0.000000,6365.771101
1047.680609,74.020594,1225.752797,6291.750507
1047.680938,1036.288319,842.705048,4737.318029
1047.681268,1998.556043,-1915.238745,5921.647536
1047.681597,1924.535449,-1991.848295,8068.244768
1047.681927,148.041188,0.000000,11621.233289
1047.682256,-1998.556043,1915.238745,14434.015869
1047.682586,-4367.215058,3064.381992,15914.427753
1047.682916,-4589.276840,3370.820191,15174.221811
1047.683245,-2590.720797,995.924147,13471.748144
1047.683575,-1332.370696,-229.828649,11843.295072
1047.683904,-1036.288319,-383.047749,9252.574275
1047.684234,-1258.350101,0.000000,7476.080014
1047.684563,-962.267725,612.876398,6291.750507
1047.684893,-592.164754,1149.143247,5625.565159
1047.685223,518.144159,995.924147,5181.441594
1047.685552,1850.514855,-459.657299,5107.421000
1047.685882,2072.576638,-612.876398,7105.977043
1047.686211,962.267725,919.314598,9326.594869
1047.686541,-1258.350101,1838.629195,11769.274478
1047.686870,-2368.659014,2298.286494,13915.871710
1047.687200,-3849.070898,3677.258390,14508.036463
1047.687530,-3849.070898,3983.696590,14211.954086
1047.687859,-2738.761985,1838.629195,12139.377449
1047.688189,-2294.638420,459.657299,9400.615463
1047.688518,-2516.700203,383.047749,6883.915261
1047.688848,-2664.741391,536.266849,6661.853478
1047.689177,-1702.473667,306.438199,5921.647536
1047.689507,-1036.288319,1302.362347,4959.379811
1047.689837,-222.061783,229.828649,3775.050304
1047.690166,1998.556043,-1302.362347,4737.318029
1047.690496,2146.597232,-612.876398,7624.121203
1047.690825,518.144159,1302.362347,11103.089130
1047.691155,-1702.473667,2221.676944,13841.851115
1047.691484,-3701.029710,3524.039291,15248.242405
1047.691814,-4293.194464,5362.668486,14952.160028
1047.692144,-2516.700203,2528.115143,14063.912898
1047.692473,-814.226536,-842.705048,11843.295072
1047.692803,-296.082377,-1378.971896,9696.697840
1047.693132,-592.164754,153.219100,8068.244768
1047.693462,-814.226536,0.000000,7105.977043
1047.693791,-740.205942,383.047749,5995.668130
1047.694121,222.061783,0.000000,5107.421000
1047.694451,1110.308913,-153.219100,5329.482782
1047.694780,1998.556043,153.219100,6883.915261
1047.695110,2294.638420,995.924147,8956.491898
1047.695439,814.226536,1608.800546,11695.253884
1047.695769,-1332.370696,1149.143247,14730.098246
1047.696098,-4737.318029,2528.115143,15470.304188
1047.696428,-5847.626942,3370.820191,14952.160028
1047.696758,-4663.297435,995.924147,13323.706956
1047.697087,-2886.803174,-1685.410096,11103.089130
1047.697417,-2146.597232,-1455.581446,8734.430116
1047.697746,-1554.432478,-1302.362347,7105.977043
1047.698076,-814.226536,-383.047749,5033.400406
1047.698406,814.226536,689.485948,3923.091493
1047.698735,1998.556043,842.705048,4589.276840
1047.699065,3849.070898,306.438199,6661.853478
1047.699394,2516.700203,1302.362347,8660.409521
1047.699724,666.185348,2681.334243,10436.903782
1047.700053,-1036.288319,2757.943793,12953.603985
1047.700383,-2368.659014,3140.991542,15322.262999
1047.700713,-4293.194464,3600.648841,15766.386565
1047.701042,-4145.153275,2068.457845,14137.933492
1047.701372,-3330.926739,-459.657299,11473.192101
1047.701701,-2886.803174,-1072.533697,8586.388927
1047.702031,-2960.823768,-536.266849,6883.915261
1047.702360,-2294.638420,995.924147,6587.832884
1047.702690,-444.123565,1532.190996,5181.441594
1047.703020,1184.329507,2374.896044,3849.070898
1047.703349,2738.761985,1838.629195,4071.132681
1047.703679,3404.947333,766.095498,5403.503377
1047.704008,2368.659014,1149.143247,8068.244768
1047.704338,518.144159,3064.381992,11177.109724
1047.704667,-2368.659014,4673.182538,14211.954086
1047.704997,-4663.297435,5592.497135,14656.077652
1047.705327,-4811.338623,3600.648841,14211.954086
1047.705656,-4145.153275,-153.219100,11917.315666
