#time,accel_x,accel_y,accel_z
1055.258247,-1110.308913,1072.533697,9622.677246
1055.258576,-1184.329507,766.095498,9474.636058
1055.258906,-1110.308913,919.314598,9548.656652
1055.259235,-814.226536,1225.752797,9400.615463
1055.259565,-962.267725,689.485948,9178.553681
1055.259894,-1036.288319,766.095498,9326.594869
1055.260224,-1036.288319,842.705048,9548.656652
1055.260554,-962.267725,919.314598,9622.677246
1055.260883,-962.267725,1378.971896,9474.636058
1055.261213,-888.247130,1149.143247,9622.677246
1055.261542,-1184.329507,842.705048,9474.636058
1055.261872,-962.267725,612.876398,9548.656652
1055.262201,-814.226536,842.705048,9474.636058
1055.262531,-1258.350101,766.095498,9326.594869
1055.262860,-888.247130,612.876398,9252.574275
1055.263190,-1036.288319,842.705048,9622.677246
1055.263519,-962.267725,995.924147,9622.677246
1055.263849,-1110.308913,919.314598,9474.636058
1055.264179,-1184.329507,1072.533697,9696.697840
1055.264508,-592.164754,1149.143247,9622.677246
1055.264838,-1258.350101,919.314598,9474.636058
1055.265167,-1036.288319,842.705048,9770.718434
1055.265497,-1036.288319,842.705048,9474.636058
1055.265826,-1110.308913,689.485948,9622.677246
1055.266156,-962.267725,689.485948,9178.553681
1055.266485,-1184.329507,995.924147,9474.636058
1055.266815,-1036.288319,919.314598,9474.636058
1055.267145,-962.267725,919.314598,9622.677246
1055.267474,-962.267725,842.705048,9622.677246
1055.267804,-888.247130,995.924147,9178.553681
1055.268133,-1110.308913,842.705048,9400.615463
1055.268463,-1110.308913,842.705048,9622.677246
1055.268792,-1110.308913,766.095498,9474.636058
1055.269122,-1184.329507,919.314598,9474.636058
1055.269451,-1184.329507,1455.581446,8956.491898
1055.269781,-962.267725,536.266849,9474.636058
1055.270110,-1036.288319,842.705048,9400.615463
1055.270440,-962.267725,842.705048,9474.636058
1055.270770,-888.247130,995.924147,9474.636058
1055.271099,-962.267725,919.314598,9548.656652
1055.271429,-814.226536,689.485948,9474.636058
1055.271758,-962.267725,536.266849,9400.615463
1055.272088,-1110.308913,919.314598,9474.636058
1055.272417,-888.247130,995.924147,9548.656652
1055.272747,-1036.288319,766.095498,9622.677246
1055.273076,-814.226536,995.924147,9474.636058
1055.273406,-666.185348,459.657299,9400.615463
1055.273735,-1036.288319,995.924147,9548.656652
1055.274065,-1184.329507,842.705048,9474.636058
1055.274395,-1184.329507,766.095498,9622.677246
1055.274724,-962.267725,1378.971896,9696.697840
1055.275054,-1036.288319,689.485948,9400.615463
1055.275383,-1184.329507,1072.533697,9548.656652
1055.275713,-1184.329507,919.314598,9326.594869
1055.276042,-1036.288319,919.314598,9474.636058
1055.276372,-1184.329507,995.924147,9548.656652
1055.276701,-1332.370696,766.095498,9548.656652
1055.277031,-1110.308913,766.095498,9400.615463
1055.277361,-1110.308913,919.314598,9622.677246
1055.277690,-1036.288319,919.314598,9548.656652
1055.278020,-1258.350101,766.095498,9548.656652
1055.278349,-962.267725,1149.143247,9474.636058
1055.278679,-814.226536,919.314598,9400.615463
1055.279008,-1036.288319,919.314598,9622.677246
1055.279338,-1184.329507,919.314598,9622.677246
1055.279667,-1184.329507,995.924147,9622.677246
1055.279997,-1110.308913,919.314598,9474.636058
1055.280326,-1184.329507,536.266849,9622.677246
1055.280656,-962.267725,689.485948,9548.656652
1055.280986,-1110.308913,766.095498,9474.636058
1055.281315,-1184.329507,766.095498,9474.636058
1055.281645,-962.267725,842.705048,9474.636058
1055.281974,-1110.308913,612.876398,9178.553681
1055.282304,-666.185348,766.095498,8882.471304
1055.282633,0.000000,842.705048,9178.553681
1055.282963,666.185348,459.657299,9178.553681
1055.283292,888.247130,766.095498,9030.512492
1055.283622,666.185348,689.485948,8808.450710
1055.283952,666.185348,306.438199,9622.677246
1055.284281,-296.082377,995.924147,10288.862594
1055.284611,-888.247130,842.705048,10658.965565
1055.284940,-814.226536,612.876398,10510.924376
1055.285270,-518.144159,153.219100,9844.739029
1055.285599,296.082377,383.047749,9252.574275
1055.285929,1332.370696,76.609550,9252.574275
1055.286258,2368.659014,383.047749,8882.471304
1055.286588,3182.885551,842.705048,8660.409521
1055.286917,3256.906145,1455.581446,8882.471304
1055.287247,3478.967927,1762.019645,8660.409521
1055.287577,3627.009116,1915.238745,9548.656652
1055.287906,3182.885551,1455.581446,10140.821405
1055.288236,2368.659014,842.705048,10362.883188
1055.288565,1332.370696,842.705048,10584.944971
1055.288895,1258.350101,306.438199,10881.027347
1055.289224,1332.370696,0.000000,10584.944971
1055.289554,1554.432478,0.000000,10066.800811
1055.289883,2368.659014,-153.219100,9474.636058
1055.290213,3404.947333,0.000000,9030.512492
1055.290543,4515.256246,1149.143247,8956.491898
1055.290872,4589.276840,2374.896044,9252.574275
1055.291202,3849.070898,2757.943793,9844.739029
1055.291531,2960.823768,3140.991542,10436.903782
1055.291861,1332.370696,3064.381992,10436.903782
1055.292190,-814.226536,2757.943793,9918.759623
1055.292520,-1850.514855,2068.457845,9326.594869
1055.292849,-1406.391290,153.219100,8512.368333
1055.293179,0.000000,-1072.533697,7698.141797
1055.293508,1480.411884,-1225.752797,6735.874072
1055.293838,2886.803174,-1455.581446,6291.750507
1055.294168,3849.070898,-383.047749,6439.791695
1055.294497,3701.029710,1302.362347,8290.306550
1055.294827,2590.720797,3907.087040,10214.842000
1055.295156,1850.514855,4519.963438,11843.295072
1055.295486,592.164754,3907.087040,12731.542202
1055.295815,-592.164754,2374.896044,12361.439231
1055.296145,-1258.350101,229.828649,11991.336260
1055.296474,-1480.411884,-1838.629195,11325.150913
1055.296804,-962.267725,-2374.896044,10066.800811
1055.297133,0.000000,-2528.115143,8734.430116
1055.297463,1554.432478,-1991.848295,8068.244768
1055.297793,2960.823768,-689.485948,7105.977043
1055.298122,4441.235652,153.219100,7402.059420
1055.298452,4885.359217,2145.067394,7698.141797
1055.298781,4589.276840,3140.991542,8734.430116
1055.299111,4145.153275,3524.039291,9770.718434
1055.299440,3552.988522,3753.867940,10732.986159
1055.299770,2368.659014,2681.334243,11251.130318
1055.300099,1036.288319,1455.581446,11843.295072
1055.300429,222.061783,-459.657299,11325.150913
1055.300759,-592.164754,-1302.362347,10955.047942
1055.301088,-814.226536,-1455.581446,10658.965565
1055.301418,-222.061783,-1915.238745,10955.047942
1055.301747,0.000000,-842.705048,10288.862594
1055.302077,666.185348,0.000000,9474.636058
1055.302406,1776.494261,536.266849,8364.327145
1055.302736,2960.823768,842.705048,7846.182985
1055.303065,4367.215058,612.876398,7698.141797
1055.303395,4959.379811,842.705048,7994.224174
1055.303724,4737.318029,612.876398,8290.306550
1055.304054,4293.194464,919.314598,9178.553681
1055.304384,3330.926739,1149.143247,9770.718434
1055.304713,2146.597232,1532.190996,10140.821405
1055.305043,1036.288319,2145.067394,10510.924376
1055.305372,1480.411884,1762.019645,10955.047942
1055.305702,1332.370696,2068.457845,10510.924376
1055.306031,1628.453072,1762.019645,9696.697840
1055.306361,2146.597232,1455.581446,8586.388927
1055.306690,2590.720797,995.924147,8142.265362
1055.307020,3256.906145,612.876398,7846.182985
1055.307350,3256.906145,995.924147,8142.265362
1055.307679,2368.659014,766.095498,9178.553681
1055.308009,1480.411884,995.924147,10066.800811
1055.308338,148.041188,1149.143247,10140.821405
1055.308668,-1036.288319,1149.143247,10362.883188
1055.308997,-1184.329507,459.657299,10955.047942
1055.309327,-1702.473667,76.609550,11177.109724
1055.309656,-2072.576638,383.047749,10881.027347
1055.309986,-1702.473667,0.000000,9474.636058
1055.310315,148.041188,306.438199,8734.430116
1055.310645,2664.741391,383.047749,8216.285956
1055.310975,5699.585753,1225.752797,8068.244768
1055.311304,7994.224174,1991.848295,7920.203579
1055.311634,9474.636058,2757.943793,8586.388927
1055.311963,8512.368333,4443.353888,9474.636058
1055.312293,6587.832884,4826.401637,10510.924376
1055.312622,4071.132681,3677.258390,12435.459826
1055.312952,1332.370696,2834.553343,14285.974681
1055.313281,-2368.659014,1685.410096,14656.077652
1055.313611,-5403.503377,0.000000,12805.562797
1055.313940,-6809.894666,-2068.457845,11029.068536
1055.314270,-6217.729913,-3140.991542,8512.368333
1055.314600,-3108.864956,-3294.210641,4515.256246
1055.314929,2072.576638,-4519.963438,1924.535449
1055.315259,7772.162391,-3600.648841,2368.659014
1055.315588,9252.574275,766.095498,3775.050304
1055.315918,7920.203579,4826.401637,5699.585753
1055.316247,6957.935855,7124.688131,8290.306550
1055.316577,5403.503377,8273.831378,11991.336260
1055.316906,2220.617826,8656.879127,15174.221811
1055.317236,-1998.556043,5362.668486,16580.613101
1055.317566,-5181.441594,306.438199,16506.592507
1055.317895,-6883.915261,-1915.238745,14730.098246
1055.318225,-6217.729913,-3753.867940,11917.315666
1055.318554,-2294.638420,-6818.249932,9770.718434
1055.318884,2294.638420,-6971.469032,6735.874072
1055.319213,6735.874072,-4213.525239,2960.823768
1055.319543,10955.047942,-2451.505594,2220.617826
1055.319872,13323.706956,459.657299,5033.400406
1055.320202,11473.192101,5975.544884,8956.491898
1055.320531,6217.729913,9193.145976,11769.274478
1055.320861,518.144159,9039.926876,14285.974681
1055.321191,-2368.659014,7660.954980,15248.242405
1055.321520,-2442.679609,2374.896044,14508.036463
1055.321850,-1480.411884,-2987.772442,12213.398043
1055.322179,-1184.329507,-6741.640382,7698.141797
1055.322509,148.041188,-7660.954980,5255.462188
1055.322838,2442.679609,-6511.811733,5625.565159
1055.323168,2738.761985,-2528.115143,7179.997637
1055.323497,1924.535449,1915.238745,8438.347739
1055.323827,1702.473667,4366.744339,9326.594869
1055.324157,2664.741391,5592.497135,10510.924376
1055.324486,3108.864956,5362.668486,11473.192101
1055.324816,2812.782580,3524.039291,11843.295072
1055.325145,1924.535449,229.828649,11991.336260
1055.325475,-666.185348,-1762.019645,11843.295072
1055.325804,-2812.782580,-2145.067394,11399.171507
1055.326134,-3849.070898,-2451.505594,9696.697840
1055.326463,-1924.535449,-4060.306139,7105.977043
1055.326793,2368.659014,-3600.648841,5847.626942
1055.327122,7254.018232,-2221.676944,5255.462188
1055.327452,10436.903782,153.219100,5107.421000
1055.327782,10732.986159,3753.867940,5699.585753
1055.328111,9178.553681,5975.544884,8734.430116
1055.328441,5329.482782,8044.002729,12583.501014
1055.328770,1332.370696,9422.974625,15100.201217
1055.329100,-1554.432478,6665.030833,15692.365970
1055.329429,-2960.823768,1225.752797,15248.242405
1055.329759,-5255.462188,-3524.039291,13841.851115
1055.330089,-7476.080014,-4979.620737,11695.253884
1055.330418,-6735.874072,-6128.763984,10732.986159
1055.330748,-5995.668130,-5439.278036,8438.347739
1055.331077,-4885.359217,-2911.162892,4441.235652
1055.331407,-592.164754,-1225.752797,2220.617826
1055.331737,6439.791695,-1225.752797,3330.926739
1055.332066,11251.130318,2221.676944,5995.668130
1055.332396,11029.068536,7507.735880,7328.038826
1055.332725,9696.697840,10572.117872,6809.894666
1055.333055,7698.141797,8886.707777,9696.697840
1055.333385,4515.256246,7354.516781,15026.180623
1055.333714,0.000000,8733.488677,17024.736666
1055.334044,-3775.050304,5822.325785,14285.974681
1055.334374,-5033.400406,-766.095498,12287.418637
1055.334703,-5329.482782,-4366.744339,11991.336260
1055.335033,-5773.606348,-5669.106685,11695.253884
1055.335362,-6883.915261,-5286.058936,9622.677246
1055.335692,-6809.894666,-1532.190996,5255.462188
1055.336022,-2220.617826,2681.334243,1480.411884
1055.336351,5847.626942,-766.095498,518.144159
1055.336681,11991.336260,-2604.724693,2664.741391
1055.337010,11695.253884,2298.286494,4737.318029
1055.337340,7550.100608,6741.640382,7772.162391
1055.337670,3330.926739,10112.460574,11473.192101
1055.337999,296.082377,10112.460574,14211.954086
1055.338329,-2146.597232,4826.401637,16210.510130
1055.338658,-5329.482782,-1762.019645,16580.613101
1055.338988,-7105.977043,-2451.505594,15322.262999
1055.339318,-7328.038826,-3217.601092,13397.727550
1055.339647,-7254.018232,-7201.297681,11029.068536
1055.339977,-8438.347739,-5592.497135,6661.853478
1055.340306,-7105.977043,-3140.991542,3997.112087
1055.340636,0.000000,-4749.792088,5773.606348
1055.340966,5255.462188,-229.828649,5329.482782
1055.341295,6069.688724,6818.249932,4071.132681
1055.341625,7105.977043,3064.381992,4367.215058
1055.341954,5847.626942,612.876398,10066.800811
1055.342284,1998.556043,4979.620737,15174.221811
1055.342614,-1332.370696,6588.421283,18653.189738
1055.342943,-5181.441594,3753.867940,18801.230927
1055.343273,-9178.553681,2987.772442,15470.304188
1055.343603,-8734.430116,-2604.724693,12509.480420
1055.343932,-4515.256246,-12180.918418,11399.171507
1055.344262,-3701.029710,-7584.345430,8364.327145
1055.344591,-4589.276840,-1838.629195,4737.318029
1055.344921,-1702.473667,-1762.019645,4959.379811
1055.345251,3182.885551,0.000000,3849.070898
1055.345580,7105.977043,3907.087040,2812.782580
1055.345910,9326.594869,3140.991542,3330.926739
1055.346239,6957.935855,4519.963438,8216.285956
1055.346569,2368.659014,9882.631924,13619.789333
1055.346899,-2072.576638,8886.707777,17320.819043
1055.347228,-5921.647536,5898.935335,17616.901420
1055.347558,-9992.780217,5745.716235,13989.892304
1055.347887,-9696.697840,689.485948,10066.800811
1055.348217,-6513.812290,-8427.050478,7698.141797
1055.348547,-4367.215058,-7814.174080,5921.647536
1055.348876,-3997.112087,-5056.230287,3997.112087
1055.349206,-814.226536,-2911.162892,2664.741391
1055.349535,2960.823768,-689.485948,3478.967927
1055.349865,6217.729913,2528.115143,5477.523971
1055.350195,7994.224174,4060.306139,6439.791695
1055.350524,7846.182985,6205.373534,8808.450710
1055.350854,6365.771101,10035.851024,12213.398043
1055.351183,3627.009116,11261.603821,14582.057057
1055.351513,1406.391290,5975.544884,15766.386565
1055.351843,-3034.844362,1149.143247,16136.489536
1055.352172,-7920.203579,76.609550,13767.830521
1055.352502,-9696.697840,-2145.067394,10732.986159
1055.352832,-8290.306550,-5592.497135,9178.553681
1055.353161,-5625.565159,-6052.154434,7031.956449
1055.353491,-2294.638420,-5669.106685,3404.947333
1055.353820,1924.535449,-6128.763984,3552.988522
1055.354150,4811.338623,-2834.553343,5773.606348
1055.354480,3552.988522,6358.592633,6735.874072
1055.354809,1036.288319,7814.174080,8512.368333
1055.355139,740.205942,6741.640382,12879.583391
1055.355468,1184.329507,7737.564530,16876.695478
1055.355798,666.185348,5898.935335,16728.654289
1055.356128,-1924.535449,1991.848295,15396.283594
1055.356457,-6735.874072,766.095498,11991.336260
1055.356787,-8956.491898,-2528.115143,9178.553681
1055.357116,-7624.121203,-7814.174080,8956.491898
1055.357446,-5403.503377,-6052.154434,9548.656652
1055.357776,-2664.741391,-1455.581446,5477.523971
1055.358105,1480.411884,-1532.190996,1998.556043
1055.358435,5921.647536,-2221.676944,2664.741391
1055.358764,7179.997637,1225.752797,5477.523971
1055.359094,5403.503377,4213.525239,9104.533087
1055.359424,962.267725,8197.221829,14285.974681
1055.359753,-2738.761985,12180.918418,18135.045579
1055.360083,-3997.112087,9806.022374,16654.633695
1055.360412,-3701.029710,2068.457845,12583.501014
1055.360742,-3404.947333,-5898.935335,9622.677246
1055.361072,-4219.173869,-6741.640382,6143.709319
1055.361401,-5033.400406,-5439.278036,5847.626942
1055.361731,-3997.112087,-3830.477490,5625.565159
1055.362061,-1998.556043,-2451.505594,4589.276840
1055.362390,1258.350101,-3524.039291,3108.864956
1055.362720,5699.585753,-1915.238745,4367.215058
1055.363049,8290.306550,2298.286494,6587.832884
1055.363379,6957.935855,6894.859482,9474.636058
1055.363709,2368.659014,8963.317327,13767.830521
1055.364038,0.000000,9652.803275,16802.674883
1055.364368,-666.185348,7201.297681,15988.448347
1055.364697,-2220.617826,995.924147,15470.304188
1055.365027,-6069.688724,-766.095498,13027.624579
1055.365357,-10807.006753,-2834.553343,8956.491898
1055.365686,-10807.006753,-7890.783629,6883.915261
1055.366016,-6291.750507,-7660.954980,6291.750507
1055.366345,-1998.556043,-6128.763984,5477.523971
1055.366675,962.267725,-5822.325785,4959.379811
1055.367005,2368.659014,-2451.505594,4589.276840
1055.367334,4663.297435,2451.505594,4959.379811
1055.367664,7105.977043,3447.429741,8808.450710
1055.367993,6069.688724,7201.297681,14582.057057
1055.368323,2294.638420,13636.499864,19097.313304
1055.368653,-592.164754,10572.117872,19319.375086
1055.368982,-3256.906145,4903.011187,17024.736666
1055.369312,-5699.585753,4136.915689,12213.398043
1055.369641,-6217.729913,-3600.648841,7920.203579
1055.369971,-5625.565159,-10572.117872,7846.182985
1055.370301,-5403.503377,-6358.592633,8068.244768
1055.370630,-3997.112087,-3753.867940,5773.606348
1055.370960,-814.226536,-3524.039291,2294.638420
1055.371290,1554.432478,-229.828649,1776.494261
1055.371619,5107.421000,3140.991542,3849.070898
1055.371949,6513.812290,3983.696590,9326.594869
1055.372278,3256.906145,8580.269578,13767.830521
1055.372608,-740.205942,14325.985813,16358.551318
1055.372938,-3775.050304,11338.213370,16062.468941
1055.373267,-5329.482782,7048.078582,13693.809927
1055.373597,-4811.338623,1302.362347,10214.842000
1055.373926,-4811.338623,-6971.469032,6661.853478
1055.374256,-5403.503377,-7277.907231,4441.235652
1055.374586,-5107.421000,-4903.011187,4737.318029
1055.374915,-1036.288319,-4903.011187,4959.379811
1055.375245,2590.720797,-3830.477490,3404.947333
1055.375574,5033.400406,-1149.143247,3627.009116
1055.375904,6883.915261,1915.238745,5625.565159
1055.376234,6143.709319,6511.811733,9844.739029
1055.376563,4367.215058,11568.042020,14137.933492
1055.376893,2220.617826,11184.994271,16876.695478
1055.377222,-296.082377,8197.221829,16062.468941
1055.377552,-3404.947333,3907.087040,14359.995275
1055.377882,-6809.894666,-1838.629195,12213.398043
1055.378211,-8956.491898,-5975.544884,9474.636058
1055.378541,-10066.800811,-7277.907231,7550.100608
1055.378870,-8068.244768,-9039.926876,7550.100608
1055.379200,-3923.091493,-8120.612279,7328.038826
1055.379530,-592.164754,-5669.106685,5403.503377
1055.379859,2442.679609,-2987.772442,4367.215058
1055.380189,5033.400406,459.657299,4811.338623
1055.380519,5847.626942,4290.134789,9474.636058
1055.380848,5403.503377,8733.488677,15174.221811
1055.381178,2442.679609,10495.508323,19615.457463
1055.381507,-1258.350101,8963.317327,19615.457463
1055.381837,-5033.400406,5822.325785,16950.716072
1055.382167,-6883.915261,1225.752797,12953.603985
1055.382496,-6809.894666,-6052.154434,8882.471304
1055.382826,-6513.812290,-10265.679673,6661.853478
1055.383155,-5329.482782,-8350.440928,6365.771101
1055.383485,-2812.782580,-4749.792088,4367.215058
1055.383815,222.061783,-2987.772442,1554.432478
1055.384144,2960.823768,-1225.752797,2368.659014
1055.384474,4737.318029,2145.067394,5921.647536
1055.384803,4145.153275,6052.154434,11251.130318
1055.385133,1628.453072,11414.822920,15618.345376
1055.385463,-1406.391290,14555.814462,17320.819043
1055.385792,-3775.050304,10878.556072,14804.118840
1055.386122,-4071.132681,3370.820191,12287.418637
1055.386451,-3849.070898,-4136.915689,10140.821405
1055.386781,-5033.400406,-5209.449386,6809.894666
1055.387111,-6513.812290,-4213.525239,3849.070898
1055.387440,-4071.132681,-4136.915689,3108.864956
1055.387770,222.061783,-4596.572988,3330.926739
1055.388099,4367.215058,-3524.039291,2738.761985
1055.388429,6809.894666,612.876398,3182.885551
1055.388759,7920.203579,5669.106685,5699.585753
1055.389088,7105.977043,10878.556072,10732.986159
1055.389418,3330.926739,12563.966167,15618.345376
1055.389748,-1554.432478,11108.384721,17542.880825
1055.390077,-4589.276840,8427.050478,16136.489536
1055.390407,-6809.894666,3753.867940,15100.201217
1055.390736,-8364.327145,-1762.019645,12731.542202
1055.391066,-10732.986159,-7354.516781,9030.512492
1055.391396,-11399.171507,-10112.460574,6217.729913
1055.391725,-8142.265362,-8273.831378,5255.462188
1055.392055,-2442.679609,-6665.030833,4367.215058
1055.392384,2738.761985,-6435.202183,3627.009116
1055.392714,5255.462188,-1302.362347,3997.112087
1055.393044,6217.729913,3753.867940,6217.729913
1055.393373,6809.894666,7354.516781,10732.986159
1055.393703,5995.668130,11108.384721,16358.551318
1055.394032,2516.700203,12104.308868,19171.333898
1055.394362,-814.226536,8350.440928,19245.354492
1055.394692,-4737.318029,4290.134789,17098.757260
1055.395021,-5995.668130,459.657299,12509.480420
1055.395351,-6365.771101,-6971.469032,8290.306550
1055.395680,-7179.997637,-10189.070123,6883.915261
1055.396010,-5773.606348,-7354.516781,7402.059420
1055.396340,-3256.906145,-4673.182538,5181.441594
1055.396669,74.020594,-2451.505594,2368.659014
1055.396999,2590.720797,-153.219100,1628.453072
1055.397328,4219.173869,919.314598,5773.606348
1055.397658,3256.906145,4443.353888,11547.212695
1055.397988,370.102971,11184.994271,16358.551318
1055.398317,-2220.617826,12870.404366,17394.839637
1055.398647,-4737.318029,8963.317327,14730.098246
1055.398977,-6143.709319,2221.676944,11843.295072
1055.399306,-5921.647536,-3753.867940,9326.594869
1055.399636,-4515.256246,-7201.297681,7328.038826
1055.399965,-4589.276840,-6511.811733,5477.523971
1055.400295,-3330.926739,-3907.087040,4811.338623
1055.400625,-666.185348,-3524.039291,4071.132681
1055.400954,4145.153275,-2681.334243,3701.029710
1055.401284,8068.244768,1225.752797,4145.153275
1055.401613,9252.574275,5209.449386,6069.688724
1055.401943,7179.997637,9959.241474,9844.739029
1055.402273,3256.906145,11797.870669,14508.036463
1055.402602,666.185348,10572.117872,16876.695478
1055.402932,-1924.535449,7431.126331,15544.324782
1055.403261,-4885.359217,3294.210641,13323.706956
1055.403591,-8068.244768,-1532.190996,11103.089130
1055.403921,-9770.718434,-6511.811733,8364.327145
1055.404250,-9548.656652,-8733.488677,7179.997637
1055.404580,-6661.853478,-7814.174080,6735.874072
1055.404909,-3478.967927,-5745.716235,4441.235652
1055.405239,-222.061783,-3600.648841,4145.153275
1055.405569,3108.864956,-1378.971896,5181.441594
1055.405898,5255.462188,2834.553343,6957.935855
1055.406228,5181.441594,5515.887586,9696.697840
1055.406557,4367.215058,9193.145976,14656.077652
1055.406887,1702.473667,10572.117872,18579.169144
1055.407217,-962.267725,8350.440928,18801.230927
1055.407546,-4441.235652,4136.915689,15914.427753
1055.407876,-6587.832884,-842.705048,11547.212695
1055.408206,-6735.874072,-5362.668486,8808.450710
1055.408535,-5847.626942,-6741.640382,8364.327145
1055.408865,-3701.029710,-6435.202183,8364.327145
1055.409194,-1184.329507,-5362.668486,6217.729913
1055.409524,1258.350101,-2528.115143,3108.864956
1055.409854,3775.050304,-153.219100,3182.885551
1055.410183,6143.709319,1915.238745,7105.977043
1055.410513,4515.256246,6435.202183,11991.336260
1055.410842,1998.556043,10801.946522,14434.015869
1055.411172,-666.185348,10418.898773,14878.139434
1055.411502,-3256.906145,6971.469032,14211.954086
1055.411831,-5255.462188,2298.286494,13249.686362
1055.412161,-6439.791695,-3294.210641,11547.212695
1055.412490,-7624.121203,-5515.887586,7476.080014
1055.412820,-7105.977043,-4749.792088,5107.421000
1055.413150,-2812.782580,-5362.668486,4589.276840
1055.413479,1406.391290,-5439.278036,3552.988522
1055.413809,4589.276840,-2374.896044,2294.638420
1055.414138,6513.812290,1838.629195,4219.173869
1055.414468,7550.100608,6435.202183,7328.038826
1055.414798,5699.585753,10725.336972,10807.006753
1055.415127,1924.535449,11414.822920,14285.974681
1055.415457,-2072.576638,9422.974625,15248.242405
1055.415786,-5107.421000,7277.907231,14582.057057
1055.416116,-6513.812290,1532.190996,13101.645173
1055.416446,-7698.141797,-4519.963438,11251.130318
1055.416775,-10140.821405,-8350.440928,8512.368333
1055.417105,-9696.697840,-8656.879127,6587.832884
1055.417435,-5477.523971,-7277.907231,5403.503377
1055.417764,148.041188,-6435.202183,3997.112087
1055.418094,3775.050304,-3524.039291,3997.112087
1055.418423,5551.544565,1455.581446,6217.729913
1055.418753,6735.874072,5209.449386,9030.512492
1055.419083,6291.750507,8963.317327,11473.192101
1055.419412,2442.679609,10801.946522,15470.304188
1055.419742,-592.164754,10189.070123,17098.757260
1055.420071,-2664.741391,5362.668486,17246.798449
1055.420401,-4515.256246,459.657299,15100.201217
1055.420731,-6587.832884,-2451.505594,11029.068536
1055.421060,-8956.491898,-7354.516781,7846.182985
1055.421390,-8438.347739,-8273.831378,7994.224174
1055.421719,-5625.565159,-6971.469032,8142.265362
1055.422049,-2072.576638,-4366.744339,6439.791695
1055.422379,1406.391290,-919.314598,3404.947333
1055.422708,4293.194464,842.705048,4145.153275
1055.423038,6069.688724,2757.943793,8142.265362
1055.423367,4515.256246,7048.078582,12731.542202
1055.423697,1184.329507,11568.042020,15544.324782
1055.424027,-1184.329507,11721.261119,15322.262999
1055.424356,-2960.823768,6894.859482,13841.851115
1055.424686,-4737.318029,842.705048,12731.542202
1055.425016,-5181.441594,-5592.497135,9992.780217
1055.425345,-5699.585753,-7584.345430,7476.080014
1055.425675,-5847.626942,-3600.648841,6439.791695
1055.426004,-2220.617826,-2451.505594,5107.421000
1055.426334,2368.659014,-3983.696590,3627.009116
1055.426664,6143.709319,-2298.286494,2442.679609
1055.426993,8290.306550,1608.800546,3997.112087
1055.427323,7994.224174,6971.469032,7476.080014
1055.427652,5773.606348,12104.308868,11251.130318
1055.427982,1776.494261,12563.966167,13767.830521
1055.428311,-814.226536,8427.050478,14730.098246
1055.428641,-2738.761985,4366.744339,14804.118840
1055.428970,-4737.318029,1149.143247,14063.912898
1055.429299,-7772.162391,-2604.724693,10288.862594
1055.429629,-10436.903782,-6128.763984,6365.771101
1055.429958,-8882.471304,-7354.516781,6069.688724
1055.430288,-3923.091493,-6435.202183,5477.523971
1055.430617,740.205942,-5209.449386,3775.050304
1055.430947,3404.947333,-2451.505594,3330.926739
1055.431276,4959.379811,612.876398,4663.297435
1055.431605,4885.359217,4673.182538,9400.615463
1055.431935,3034.844362,8963.317327,13619.789333
1055.432264,74.020594,11031.775171,16284.530724
1055.432594,-1850.514855,8810.098227,16432.571912
1055.432923,-3849.070898,4366.744339,15174.221811
1055.433252,-5995.668130,306.438199,13989.892304
1055.433582,-8512.368333,-3907.087040,11473.192101
1055.433911,-10288.862594,-7737.564530,8216.285956
1055.434241,-9030.512492,-7048.078582,8364.327145
1055.434570,-4737.318029,-4979.620737,8364.327145
1055.434899,0.000000,-4213.525239,5181.441594
1055.435229,3108.864956,-2911.162892,2368.659014
1055.435558,5699.585753,0.000000,3849.070898
1055.435888,6809.894666,3830.477490,9252.574275
1055.436217,4515.256246,8580.269578,15174.221811
1055.436547,814.226536,12487.356617,18431.127956
1055.436876,-2664.741391,10572.117872,15766.386565
1055.437205,-4811.338623,3830.477490,12805.562797
1055.437535,-3997.112087,-3983.696590,12731.542202
1055.437864,-4737.318029,-6588.421283,10732.986159
1055.438194,-6957.935855,-6052.154434,7328.038826
1055.438523,-6957.935855,-5515.887586,5107.421000
1055.438852,-3034.844362,-3447.429741,5033.400406
1055.439182,2812.782580,-3140.991542,3256.906145
1055.439511,6883.915261,-2068.457845,2516.700203
1055.439841,7994.224174,2145.067394,3775.050304
1055.440170,5551.544565,7507.735880,7402.059420
1055.440500,2368.659014,12640.575717,12583.501014
1055.440829,148.041188,13100.233016,15322.262999
1055.441158,-1184.329507,8273.831378,13989.892304
1055.441488,-2442.679609,1072.533697,12583.501014
1055.441817,-3701.029710,-2834.553343,12139.377449
1055.442147,-5995.668130,-4443.353888,9474.636058
1055.442476,-6957.935855,-7507.735880,7328.038826
1055.442805,-5995.668130,-6128.763984,6217.729913
1055.443135,-2368.659014,-2757.943793,5033.400406
1055.443464,4219.173869,-2681.334243,3701.029710
1055.443794,7624.121203,-1991.848295,5107.421000
1055.444123,7772.162391,3140.991542,6809.894666
1055.444453,4515.256246,7814.174080,8142.265362
1055.444782,2516.700203,9193.145976,12657.521608
1055.445111,1554.432478,8810.098227,16950.716072
1055.445441,-1110.308913,7277.907231,17838.963202
1055.445770,-5255.462188,1915.238745,15396.283594
1055.446100,-8734.430116,-2068.457845,11991.336260
1055.446429,-10140.821405,-6052.154434,9918.759623
1055.446758,-10066.800811,-7890.783629,8438.347739
1055.447088,-8586.388927,-6511.811733,7105.977043
1055.447417,-4589.276840,-5898.935335,6883.915261
1055.447747,222.061783,-4903.011187,5625.565159
1055.448076,3108.864956,-229.828649,5107.421000
1055.448406,4885.359217,4213.525239,5847.626942
1055.448735,4515.256246,5975.544884,8660.409521
1055.449064,3478.967927,8963.317327,13767.830521
1055.449394,1184.329507,11261.603821,17542.880825
1055.449723,0.000000,7354.516781,17246.798449
1055.450053,-3256.906145,3677.258390,13989.892304
1055.450382,-6143.709319,766.095498,9992.780217
1055.450711,-7328.038826,-4596.572988,7994.224174
1055.451041,-6587.832884,-8427.050478,7105.977043
1055.451370,-4663.297435,-6358.592633,7920.203579
1055.451700,-2738.761985,-3600.648841,6661.853478
1055.452029,-148.041188,-2528.115143,4219.173869
1055.452359,2886.803174,383.047749,3627.009116
1055.452688,5329.482782,2757.943793,5477.523971
1055.453017,5995.668130,5362.668486,7994.224174
1055.453347,3701.029710,10572.117872,11251.130318
1055.453676,2294.638420,11951.089769,14285.974681
1055.454006,74.020594,7354.516781,15026.180623
1055.454335,-3108.864956,3140.991542,13767.830521
1055.454664,-6217.729913,383.047749,10807.006753
1055.454994,-7254.018232,-3753.867940,7920.203579
1055.455323,-6291.750507,-5975.544884,7031.956449
1055.455653,-3627.009116,-4366.744339,5625.565159
1055.455982,296.082377,-4749.792088,3256.906145
1055.456311,4663.297435,-4903.011187,2590.720797
1055.456641,6661.853478,-153.219100,4367.215058
1055.456970,6143.709319,4596.572988,7772.162391
1055.457300,4219.173869,8350.440928,10584.944971
1055.457629,1628.453072,10725.336972,13767.830521
1055.457959,0.000000,10189.070123,15692.365970
1055.458288,-740.205942,4519.963438,17098.757260
1055.458617,-4071.132681,-383.047749,16876.695478
1055.458947,-8142.265362,-1608.800546,13989.892304
1055.459276,-11103.089130,-5515.887586,10140.821405
1055.459606,-9844.739029,-8197.221829,7772.162391
1055.459935,-6069.688724,-6052.154434,6661.853478
1055.460264,-1110.308913,-6435.202183,3256.906145
1055.460594,3627.009116,-6894.859482,2220.617826
1055.460923,6587.832884,-2068.457845,5551.544565
1055.461253,6143.709319,5056.230287,9252.574275
1055.461582,3701.029710,8810.098227,12139.377449
1055.461912,1110.308913,11568.042020,15544.324782
1055.462241,222.061783,10955.165621,17468.860231
1055.462570,444.123565,6971.469032,15914.427753
1055.462900,-2072.576638,1149.143247,12805.562797
1055.463229,-4885.359217,-3447.429741,10658.965565
1055.463559,-7402.059420,-7048.078582,9918.759623
1055.463888,-7994.224174,-6588.421283,9622.677246
1055.464217,-6291.750507,-3677.258390,7698.141797
1055.464547,-3478.967927,-3753.867940,3256.906145
1055.464876,666.185348,-4596.572988,1332.370696
1055.465206,4737.318029,-2145.067394,2886.803174
1055.465535,6735.874072,3217.601092,6957.935855
1055.465865,4811.338623,7277.907231,10436.903782
1055.466194,518.144159,12410.747068,13101.645173
1055.466523,-1332.370696,11644.651570,14508.036463
1055.466853,-1554.432478,4979.620737,14434.015869
1055.467182,-1332.370696,-536.266849,13767.830521
1055.467512,-3404.947333,-1302.362347,10584.944971
1055.467841,-5921.647536,-2757.943793,7402.059420
1055.468170,-5403.503377,-5362.668486,6439.791695
1055.468500,-2590.720797,-4519.963438,5625.565159
1055.468829,1702.473667,-3294.210641,2812.782580
1055.469159,5551.544565,-3600.648841,1480.411884
1055.469488,7550.100608,536.266849,4959.379811
1055.469818,7031.956449,6358.592633,8956.491898
1055.470147,4367.215058,9116.536426,10807.006753
1055.470476,1332.370696,9959.241474,13175.665768
1055.470806,-296.082377,8427.050478,16950.716072
1055.471135,-2738.761985,4213.525239,18505.148550
1055.471465,-6661.853478,1838.629195,16062.468941
1055.471794,-9844.739029,-1532.190996,11399.171507
1055.472123,-10510.924376,-6741.640382,7328.038826
1055.472453,-8882.471304,-8503.660028,5625.565159
1055.472782,-4959.379811,-7507.735880,4515.256246
1055.473112,-148.041188,-6511.811733,3034.844362
1055.473441,2812.782580,-5056.230287,4293.194464
1055.473771,3256.906145,1225.752797,6661.853478
1055.474100,2812.782580,5898.935335,10066.800811
1055.474429,3330.926739,8886.707777,12583.501014
1055.474759,2886.803174,10955.165621,16580.613101
1055.475088,2368.659014,9882.631924,17616.901420
1055.475418,0.000000,6588.421283,15470.304188
1055.475747,-3034.844362,2374.896044,12213.398043
1055.476076,-5551.544565,-1225.752797,10214.842000
1055.476406,-7179.997637,-5745.716235,9326.594869
1055.476735,-7698.141797,-7124.688131,8956.491898
1055.477065,-5625.565159,-5822.325785,7846.182985
1055.477394,-2960.823768,-5209.449386,5181.441594
1055.477723,888.247130,-3677.258390,2664.741391
1055.478053,4071.132681,-995.924147,3627.009116
1055.478382,5847.626942,2374.896044,6957.935855
1055.478712,4145.153275,6205.373534,10881.027347
1055.479041,1480.411884,10342.289223,14508.036463
1055.479371,0.000000,10265.679673,15988.448347
1055.479700,-1628.453072,6128.763984,15248.242405
1055.480029,-3552.988522,2068.457845,12805.562797
1055.480359,-4515.256246,-536.266849,9696.697840
1055.480688,-5255.462188,-4519.963438,6513.812290
1055.481018,-4293.194464,-5209.449386,3627.009116
1055.481347,-1332.370696,-4673.182538,2738.761985
1055.481676,2516.700203,-5439.278036,3404.947333
1055.482006,4885.359217,-2911.162892,4293.194464
1055.482335,4441.235652,2528.115143,5847.626942
1055.482665,3627.009116,6358.592633,7254.018232
1055.482994,3404.947333,8503.660028,10436.903782
1055.483324,2664.741391,10189.070123,14137.933492
1055.483653,1924.535449,7354.516781,15988.448347
1055.483982,-1258.350101,306.438199,16580.613101
1055.484312,-6365.771101,-995.924147,15544.324782
1055.484641,-11029.068536,-153.219100,13101.645173
1055.484971,-11695.253884,-6128.763984,11029.068536
1055.485300,-8882.471304,-6665.030833,7772.162391
1055.485629,-3923.091493,-5592.497135,2738.761985
1055.485959,3923.091493,-8656.879127,-1110.308913
1055.486288,8216.285956,-8963.317327,444.123565
1055.486618,7624.121203,76.609550,6365.771101
1055.486947,4441.235652,8273.831378,11991.336260
1055.487277,888.247130,10878.556072,15544.324782
1055.487606,0.000000,14555.814462,18801.230927
1055.487935,296.082377,12793.794817,18505.148550
1055.488265,1036.288319,1838.629195,16358.551318
1055.488594,-1480.411884,-5056.230287,14211.954086
1055.488924,-6291.750507,-2604.724693,11473.192101
1055.489253,-10881.027347,-4290.134789,8734.430116
1055.489582,-10584.944971,-6741.640382,7402.059420
1055.489912,-6883.915261,-4903.011187,5403.503377
1055.490241,-1036.288319,-6511.811733,2664.741391
1055.490571,4885.359217,-7048.078582,2146.597232
1055.490900,7254.018232,0.000000,3478.967927
1055.491230,5699.585753,7890.783629,6883.915261
1055.491559,2886.803174,9576.193725,11547.212695
1055.491888,1184.329507,12104.308868,15396.283594
1055.492218,-370.102971,12410.747068,16950.716072
1055.492547,-1258.350101,4979.620737,15914.427753
1055.492877,-3256.906145,919.314598,13397.727550
1055.493206,-6957.935855,0.000000,10140.821405
1055.493535,-7772.162391,-5515.887586,7846.182985
1055.493865,-5995.668130,-6741.640382,5921.647536
1055.494194,-2812.782580,-3677.258390,2294.638420
1055.494524,2146.597232,-4749.792088,-1702.473667
1055.494853,6587.832884,-4903.011187,148.041188
1055.495183,8438.347739,1149.143247,5033.400406
1055.495512,6513.812290,7660.954980,9178.553681
1055.495841,2590.720797,11721.261119,11843.295072
1055.496171,148.041188,14938.862211,14211.954086
1055.496500,-666.185348,10418.898773,17320.819043
1055.496830,-2072.576638,612.876398,17468.860231
1055.497159,-5773.606348,-2221.676944,14508.036463
1055.497488,-10288.862594,-2374.896044,10807.006753
1055.497818,-11103.089130,-6128.763984,8660.409521
1055.498147,-8808.450710,-6588.421283,7105.977043
1055.498477,-5255.462188,-5898.935335,4071.132681
1055.498806,962.267725,-7737.564530,888.247130
1055.499136,5181.441594,-7201.297681,2146.597232
1055.499465,6069.688724,1762.019645,5921.647536
1055.499794,3997.112087,7354.516781,10955.047942
1055.500124,1554.432478,9193.145976,14137.933492
1055.500453,74.020594,12793.794817,17764.942608
1055.500783,518.144159,10955.165621,18653.189738
1055.501112,296.082377,3677.258390,15840.407159
1055.501441,-2590.720797,-1762.019645,12657.521608
1055.501771,-6587.832884,-4673.182538,10881.027347
1055.502100,-8512.368333,-8044.002729,10436.903782
1055.502430,-8216.285956,-6358.592633,9548.656652
1055.502759,-4811.338623,-3217.601092,7105.977043
1055.503088,-148.041188,-4826.401637,2664.741391
1055.503418,3775.050304,-5515.887586,1924.535449
1055.503747,5995.668130,-689.485948,4219.173869
1055.504077,5699.585753,4519.963438,8364.327145
1055.504406,2812.782580,9959.241474,12435.459826
1055.504736,-222.061783,12947.013916,16136.489536
1055.505065,-1480.411884,8733.488677,17912.983796
1055.505394,-3330.926739,3524.039291,16358.551318
1055.505724,-5329.482782,229.828649,12139.377449
1055.506053,-6883.915261,-1608.800546,8364.327145
1055.506383,-6957.935855,-5209.449386,6069.688724
1055.506712,-4589.276840,-5056.230287,4959.379811
1055.507041,-962.267725,-5056.230287,1776.494261
1055.507371,3701.029710,-5898.935335,-0.000000
1055.507700,6587.832884,-1991.848295,1998.556043
1055.508030,6291.750507,4826.401637,6217.729913
1055.508359,3849.070898,8810.098227,9918.759623
1055.508689,1480.411884,12487.356617,12139.377449
1055.509018,444.123565,12947.013916,15248.242405
1055.509347,1110.308913,8044.002729,16432.571912
1055.509677,-1480.411884,229.828649,16802.674883
1055.510006,-6957.935855,-1302.362347,13767.830521
1055.510336,-12361.439231,-2298.286494,9696.697840
1055.510665,-11991.336260,-6665.030833,7105.977043
1055.510994,-7846.182985,-4903.011187,6883.915261
1055.511324,-2738.761985,-4060.306139,3627.009116
1055.511653,2812.782580,-8044.002729,-0.000000
1055.511983,5699.585753,-7201.297681,222.061783
1055.512312,5551.544565,2451.505594,5255.462188
1055.512642,3478.967927,7967.393179,12065.356855
1055.512971,1036.288319,10878.556072,16506.592507
1055.513300,-1850.514855,14172.766713,18579.169144
1055.513630,-1480.411884,9882.631924,16802.674883
1055.513959,-370.102971,0.000000,15470.304188
1055.514289,-1554.432478,-4673.182538,15174.221811
1055.514618,-7105.977043,-4060.306139,12361.439231
1055.514947,-11843.295072,-5439.278036,8364.327145
1055.515277,-9696.697840,-4519.963438,6143.709319
1055.515606,-3330.926739,-4826.401637,4811.338623
1055.515936,3330.926739,-7507.735880,4071.132681
1055.516265,5329.482782,-5286.058936,2960.823768
1055.516595,4885.359217,1455.581446,5107.421000
1055.516924,4145.153275,7967.393179,9326.594869
1055.517253,2664.741391,10342.289223,13397.727550
1055.517583,1702.473667,8733.488677,17246.798449
1055.517912,-370.102971,7201.297681,17098.757260
1055.518242,-2368.659014,3217.601092,14656.077652
1055.518571,-3330.926739,-383.047749,12435.459826
1055.518900,-4441.235652,-2298.286494,10214.842000
1055.519230,-5921.647536,-4903.011187,7328.038826
1055.519559,-5255.462188,-5286.058936,3997.112087
1055.519889,0.000000,-4749.792088,888.247130
1055.520218,7105.977043,-4366.744339,518.144159
1055.520548,9252.574275,-2298.286494,3108.864956
1055.520877,6661.853478,4290.134789,5995.668130
1055.521206,2886.803174,9422.974625,9474.636058
1055.521536,2146.597232,11951.089769,12583.501014
1055.521865,1702.473667,12487.356617,17690.922014
1055.522195,-592.164754,6741.640382,18875.251521
1055.522524,-4885.359217,842.705048,15100.201217
1055.522853,-8142.265362,-1149.143247,10140.821405
1055.523183,-7920.203579,-4443.353888,9474.636058
1055.523512,-7846.182985,-6741.640382,9252.574275
1055.523842,-8956.491898,-4903.011187,4885.359217
1055.524171,-4811.338623,-4749.792088,740.205942
1055.524500,3108.864956,-7431.126331,814.226536
1055.524830,7105.977043,-2451.505594,4219.173869
1055.525159,5995.668130,5209.449386,6883.915261
1055.525489,3034.844362,6281.983084,9696.697840
1055.525818,222.061783,10495.508323,13323.706956
1055.526148,74.020594,14938.862211,17912.983796
1055.526477,592.164754,9269.755526,19097.313304
1055.526806,-1702.473667,1149.143247,14878.139434
1055.527136,-7105.977043,-766.095498,9474.636058
1055.527465,-9918.759623,-5286.058936,8586.388927
1055.527795,-8586.388927,-10035.851024,10955.047942
1055.528124,-8142.265362,-5822.325785,10288.862594
1055.528453,-7179.997637,-2987.772442,6957.935855
1055.528783,-2664.741391,-5745.716235,4737.318029
1055.529112,2738.761985,-3447.429741,5033.400406
1055.529442,5625.565159,1532.190996,6143.709319
1055.529771,5329.482782,4366.744339,8438.347739
1055.530101,2072.576638,9269.755526,11843.295072
1055.530430,962.267725,13176.842566,15544.324782
1055.530760,1406.391290,6358.592633,17394.839637
1055.531090,-1332.370696,1149.143247,15470.304188
1055.531419,-6661.853478,1991.848295,11621.233289
1055.531749,-8512.368333,-3294.210641,9104.533087
1055.532078,-6291.750507,-6205.373534,8660.409521
1055.532408,-3552.988522,-3140.991542,6809.894666
1055.532738,0.000000,-4749.792088,2960.823768
1055.533067,3923.091493,-6818.249932,518.144159
1055.533397,5477.523971,-459.657299,2960.823768
1055.533727,5551.544565,6128.763984,7031.956449
1055.534056,4515.256246,8886.707777,11029.068536
1055.534386,2368.659014,12793.794817,12657.521608
1055.534715,1258.350101,11261.603821,15322.262999
1055.535045,444.123565,2451.505594,15396.283594
1055.535375,-1776.494261,76.609550,13323.706956
1055.535704,-5033.400406,153.219100,10658.965565
1055.536034,-7254.018232,-5439.278036,8512.368333
1055.536364,-7772.162391,-5286.058936,8808.450710
1055.536693,-6217.729913,-2757.943793,6883.915261
1055.537023,-1332.370696,-4826.401637,1406.391290
1055.537352,4219.173869,-5592.497135,-1480.411884
1055.537682,7846.182985,-1378.971896,2738.761985
1055.538012,9178.553681,3370.820191,8586.388927
1055.538341,4515.256246,6894.859482,11843.295072
1055.538671,-1110.308913,12947.013916,12657.521608
1055.539001,-2368.659014,11951.089769,17172.777854
1055.539330,-1850.514855,4826.401637,22058.137072
1055.539660,-3701.029710,689.485948,20429.683999
1055.539989,-8142.265362,-2298.286494,12287.418637
1055.540319,-11843.295072,-5745.716235,3552.988522
1055.540649,-9548.656652,-8350.440928,2516.700203
1055.540978,-4589.276840,-9422.974625,6439.791695
1055.541308,-962.267725,-7584.345430,7846.182985
1055.541637,74.020594,-3830.477490,5847.626942
1055.541967,1110.308913,2374.896044,5625.565159
1055.542297,3775.050304,5822.325785,7772.162391
1055.542626,5625.565159,5515.887586,10140.821405
1055.542956,4441.235652,7048.078582,13841.851115
1055.543286,2812.782580,10495.508323,16432.571912
1055.543615,1554.432478,9269.755526,15396.283594
1055.543945,-2294.638420,2528.115143,15174.221811
1055.544274,-7328.038826,-2451.505594,14952.160028
1055.544604,-12287.418637,-4366.744339,12287.418637
1055.544934,-12361.439231,-6511.811733,9104.533087
1055.545263,-6291.750507,-4519.963438,5403.503377
1055.545593,-888.247130,-4366.744339,2294.638420
1055.545923,3775.050304,-6818.249932,148.041188
1055.546252,5921.647536,-4596.572988,1036.288319
1055.546582,6439.791695,3447.429741,5181.441594
1055.546911,5329.482782,12104.308868,10436.903782
1055.547241,2812.782580,15781.567259,13693.809927
1055.547571,814.226536,13866.328514,14285.974681
1055.547900,-296.082377,5592.497135,13027.624579
1055.548230,-222.061783,-1991.848295,12583.501014
1055.548560,-2294.638420,-459.657299,11029.068536
1055.548889,-7254.018232,-2757.943793,9030.512492
1055.549219,-10288.862594,-6281.983084,9326.594869
1055.549548,-9474.636058,-3907.087040,7698.141797
1055.549878,-2960.823768,-4673.182538,3923.091493
1055.550208,4959.379811,-5898.935335,592.164754
1055.550537,7402.059420,-766.095498,1998.556043
1055.550867,6291.750507,5132.839837,6217.729913
1055.551197,4219.173869,6741.640382,11177.109724
1055.551526,2146.597232,9806.022374,15026.180623
1055.551856,-370.102971,13483.280765,17246.798449
1055.552185,-3034.844362,8427.050478,17394.839637
1055.552515,-5995.668130,-306.438199,16136.489536
1055.552845,-7624.121203,-2987.772442,12139.377449
1055.553174,-8660.409521,-7660.954980,7105.977043
1055.553504,-6883.915261,-8503.660028,4589.276840
1055.553833,-4219.173869,-5898.935335,5255.462188
1055.554163,-444.123565,-6588.421283,7031.956449
1055.554493,2368.659014,-3677.258390,6587.832884
1055.554822,3256.906145,1608.800546,6291.750507
1055.555152,4885.359217,5975.544884,8660.409521
1055.555482,4959.379811,9193.145976,12731.542202
1055.555811,2368.659014,11951.089769,16580.613101
1055.556141,888.247130,10878.556072,15988.448347
1055.556470,-222.061783,2757.943793,14285.974681
1055.556800,-3627.009116,-1532.190996,13693.809927
1055.557130,-8660.409521,-1455.581446,13915.871710
1055.557459,-11473.192101,-6052.154434,11769.274478
1055.557789,-10362.883188,-6588.421283,7772.162391
1055.558119,-6661.853478,-4979.620737,3701.029710
1055.558448,222.061783,-6358.592633,370.102971
1055.558778,6365.771101,-6358.592633,370.102971
1055.559107,8364.327145,-766.095498,3552.988522
1055.559437,6365.771101,7890.783629,8808.450710
1055.559767,2664.741391,13406.671215,12361.439231
1055.560096,1110.308913,15551.738609,14137.933492
1055.560426,888.247130,10955.165621,16284.530724
1055.560756,-296.082377,2911.162892,15470.304188
1055.561085,-3108.864956,-153.219100,12435.459826
1055.561415,-5699.585753,-2528.115143,8956.491898
1055.561744,-7698.141797,-6741.640382,8142.265362
1055.562074,-9696.697840,-5286.058936,5847.626942
1055.562404,-7179.997637,-4060.306139,2886.803174
1055.562733,1110.308913,-7277.907231,1184.329507
1055.563063,6217.729913,-5592.497135,3330.926739
1055.563392,5921.647536,4673.182538,5847.626942
1055.563722,3701.029710,7967.393179,8586.388927
1055.564052,2442.679609,8733.488677,11029.068536
1055.564381,518.144159,13789.718964,14211.954086
1055.564711,0.000000,9422.974625,18949.272115
1055.565041,-1332.370696,1991.848295,18949.272115
1055.565370,-7698.141797,995.924147,13101.645173
1055.565700,-11843.295072,-2528.115143,7402.059420
1055.566029,-9918.759623,-10572.117872,7402.059420
1055.566359,-6661.853478,-10112.460574,8364.327145
1055.566689,-5107.421000,-5515.887586,6809.894666
1055.567018,-592.164754,-7431.126331,5181.441594
1055.567348,3478.967927,-2681.334243,5107.421000
1055.567678,6217.729913,4443.353888,6735.874072
1055.568007,7920.203579,3370.820191,10362.883188
1055.568337,5625.565159,8810.098227,13619.789333
1055.568666,2294.638420,15934.786358,16580.613101
1055.568996,2886.803174,9346.365076,19467.416275
1055.569326,962.267725,612.876398,17468.860231
1055.569655,-5329.482782,1302.362347,13693.809927
1055.569985,-8734.430116,-3140.991542,10362.883188
1055.570315,-7328.038826,-10189.070123,9770.718434
1055.570644,-6661.853478,-5362.668486,7550.100608
1055.570974,-4737.318029,-3447.429741,2516.700203
1055.571303,740.205942,-7814.174080,-370.102971
1055.571633,5773.606348,-4596.572988,1924.535449
1055.571963,7031.956449,5515.887586,6513.812290
1055.572292,5107.421000,8580.269578,9474.636058
1055.572622,2220.617826,11951.089769,10510.924376
1055.572952,0.000000,14785.643111,12731.542202
1055.573281,814.226536,8427.050478,16136.489536
1055.573611,888.247130,995.924147,15766.386565
1055.573940,-3404.947333,-153.219100,11473.192101
1055.574270,-7698.141797,-2987.772442,7254.018232
1055.574600,-8882.471304,-7354.516781,7328.038826
1055.574929,-7031.956449,-5439.278036,8882.471304
1055.575259,-3478.967927,-2681.334243,5403.503377
1055.575588,1998.556043,-4596.572988,296.082377
1055.575918,6439.791695,-2528.115143,148.041188
1055.576248,8734.430116,3294.210641,5551.544565
1055.576577,7105.977043,5975.544884,9992.780217
1055.576907,2886.803174,10342.289223,11843.295072
1055.577237,-962.267725,13789.718964,14878.139434
1055.577566,-1554.432478,9729.412825,18357.107362
1055.577896,-2960.823768,1991.848295,18431.127956
1055.578225,-6883.915261,-2145.067394,13767.830521
1055.578555,-10436.903782,-5898.935335,7328.038826
1055.578885,-10436.903782,-8810.098227,5477.523971
1055.579214,-7402.059420,-7660.954980,7402.059420
1055.579544,-4367.215058,-6052.154434,7994.224174
1055.579874,-1628.453072,-6281.983084,4959.379811
1055.580203,1184.329507,-2374.896044,4367.215058
1055.580533,4441.235652,2911.162892,7476.080014
1055.580862,5477.523971,5822.325785,11325.150913
1055.581192,3923.091493,9806.022374,13841.851115
1055.581522,888.247130,11721.261119,16136.489536
1055.581851,1184.329507,7584.345430,15470.304188
1055.582181,0.000000,1225.752797,15692.365970
1055.582511,-3478.967927,-1225.752797,14656.077652
1055.582840,-8956.491898,-3217.601092,11473.192101
1055.583170,-10955.047942,-7277.907231,8512.368333
1055.583499,-7994.224174,-5898.935335,7402.059420
1055.583829,-2738.761985,-4136.915689,5255.462188
1055.584159,1628.453072,-5362.668486,1554.432478
1055.584488,4737.318029,-2987.772442,1628.453072
1055.584818,6069.688724,2528.115143,5033.400406
1055.585147,6217.729913,7584.345430,9844.739029
1055.585477,3923.091493,10418.898773,13767.830521
1055.585807,814.226536,12717.185267,16136.489536
1055.586136,-1924.535449,9346.365076,15766.386565
1055.586466,-1924.535449,1991.848295,13915.871710
1055.586796,-2516.700203,459.657299,10732.986159
1055.587125,-4737.318029,-2757.943793,7179.997637
1055.587455,-6439.791695,-7048.078582,5403.503377
1055.587784,-6069.688724,-5439.278036,3849.070898
1055.588114,-1480.411884,-2987.772442,3701.029710
1055.588444,3775.050304,-3600.648841,2220.617826
1055.588773,5921.647536,-229.828649,3330.926739
1055.589103,5921.647536,5898.935335,5699.585753
1055.589433,5255.462188,6358.592633,10362.883188
1055.589762,3108.864956,8044.002729,14508.036463
1055.590092,-1184.329507,13636.499864,17098.757260
1055.590421,-3034.844362,8273.831378,17098.757260
1055.590751,-3552.988522,-153.219100,14508.036463
1055.591081,-5921.647536,-1608.800546,11473.192101
1055.591410,-8660.409521,-4596.572988,9252.574275
1055.591740,-9770.718434,-8580.269578,5847.626942
1055.592070,-7994.224174,-5056.230287,5033.400406
1055.592399,-2146.597232,-3447.429741,4663.297435
1055.592729,4145.153275,-6818.249932,4293.194464
1055.593058,6069.688724,-3600.648841,5033.400406
1055.593388,5181.441594,4290.134789,7179.997637
1055.593718,3552.988522,7584.345430,11399.171507
1055.594047,1850.514855,11951.089769,16210.510130
1055.594377,666.185348,14019.547613,18949.272115
1055.594706,444.123565,5209.449386,20059.581028
1055.595036,-3108.864956,-2221.676944,16136.489536
1055.595366,-7698.141797,-1149.143247,12065.356855
1055.595695,-9252.574275,-5669.106685,9474.636058
1055.596025,-8290.306550,-8886.707777,7772.162391
1055.596355,-6587.832884,-5822.325785,5699.585753
1055.596684,-2294.638420,-4519.963438,2368.659014
1055.597014,4145.153275,-7048.078582,1332.370696
1055.597343,7105.977043,-2451.505594,3330.926739
1055.597673,5255.462188,6358.592633,7476.080014
1055.598003,3404.947333,8810.098227,10955.047942
1055.598332,1776.494261,12793.794817,13175.665768
1055.598662,444.123565,11721.261119,15470.304188
1055.598992,0.000000,4443.353888,17098.757260
1055.599321,-3182.885551,612.876398,14582.057057
1055.599651,-6513.812290,-1378.971896,11325.150913
1055.599980,-7402.059420,-4749.792088,8586.388927
1055.600310,-7994.224174,-6971.469032,7624.121203
1055.600640,-6513.812290,-4366.744339,5107.421000
1055.600969,-962.267725,-4060.306139,1036.288319
1055.601299,5995.668130,-4903.011187,-370.102971
1055.601629,10066.800811,1378.971896,2146.597232
1055.601958,9474.636058,6052.154434,6291.750507
1055.602288,5625.565159,7584.345430,10214.842000
1055.602617,1258.350101,11644.651570,14137.933492
1055.602947,-1628.453072,13636.499864,18357.107362
1055.603277,-1998.556043,8656.879127,17912.983796
1055.603606,-3404.947333,229.828649,14730.098246
1055.603936,-5921.647536,-3983.696590,10807.006753
1055.604266,-7624.121203,-6588.421283,8290.306550
1055.604595,-8660.409521,-8044.002729,8068.244768
1055.604925,-7698.141797,-4060.306139,6587.832884
1055.605254,-4293.194464,-1915.238745,2368.659014
1055.605584,2516.700203,-4366.744339,1702.473667
1055.605914,7402.059420,-2604.724693,4737.318029
1055.606243,6661.853478,2834.553343,7476.080014
1055.606573,3108.864956,8656.879127,10362.883188
1055.606902,370.102971,11414.822920,12953.603985
1055.607232,-592.164754,11108.384721,18875.251521
1055.607562,-962.267725,5209.449386,20947.828159
1055.607891,-3701.029710,-536.266849,16876.695478
1055.608221,-7698.141797,-2987.772442,10658.965565
1055.608551,-7920.203579,-5362.668486,7328.038826
1055.608880,-5551.544565,-6818.249932,8290.306550
1055.609210,-2368.659014,-4903.011187,7550.100608
1055.609539,222.061783,-4519.963438,4293.194464
1055.609869,2960.823768,-3600.648841,2442.679609
1055.610199,5107.421000,1532.190996,4885.359217
1055.610528,5403.503377,5439.278036,9178.553681
1055.610858,3997.112087,6971.469032,12509.480420
1055.611188,518.144159,8963.317327,15026.180623
1055.611517,-962.267725,8733.488677,17320.819043
1055.611847,-1554.432478,4826.401637,15692.365970
1055.612176,-3775.050304,1838.629195,11843.295072
1055.612506,-5699.585753,-2145.067394,8364.327145
1055.612836,-6143.709319,-7584.345430,6291.750507
1055.613165,-5625.565159,-6588.421283,5625.565159
1055.613495,-2886.803174,-2374.896044,4663.297435
1055.613825,962.267725,-2528.115143,1998.556043
1055.614154,5181.441594,-2221.676944,2072.576638
1055.614484,7105.977043,2681.334243,4293.194464
1055.614813,6587.832884,6741.640382,7254.018232
1055.615143,3256.906145,8733.488677,8882.471304
1055.615473,-148.041188,11031.775171,12953.603985
1055.615802,-1332.370696,7201.297681,18135.045579
1055.616132,-2590.720797,2068.457845,17542.880825
1055.616461,-5847.626942,-842.705048,13323.706956
1055.616791,-7994.224174,-3217.601092,9474.636058
1055.617121,-7920.203579,-7201.297681,8808.450710
1055.617450,-7476.080014,-7507.735880,9474.636058
1055.617780,-5477.523971,-3983.696590,7105.977043
1055.618110,-370.102971,-1838.629195,2590.720797
1055.618439,5255.462188,-2298.286494,814.226536
1055.618769,8586.388927,-766.095498,4737.318029
1055.619098,6957.935855,3677.258390,9474.636058
1055.619428,1628.453072,8810.098227,12435.459826
1055.619758,-1776.494261,12793.794817,15100.201217
1055.620087,-1702.473667,10342.289223,19023.292709
1055.620417,-2368.659014,2451.505594,20281.642811
1055.620747,-5921.647536,-2681.334243,16062.468941
1055.621076,-9030.512492,-5056.230287,9252.574275
1055.621406,-8364.327145,-7048.078582,6069.688724
1055.621735,-6365.771101,-6128.763984,7772.162391
1055.622065,-4885.359217,-3600.648841,7920.203579
1055.622395,-1258.350101,-3064.381992,4737.318029
1055.622724,3478.967927,-3217.601092,3627.009116
1055.623054,7550.100608,2145.067394,5403.503377
1055.623384,7476.080014,6894.859482,7920.203579
1055.623713,4441.235652,8273.831378,9622.677246
1055.624043,1258.350101,8963.317327,13323.706956
1055.624372,74.020594,6894.859482,16728.654289
1055.624702,-1406.391290,4903.011187,17468.860231
1055.625032,-5181.441594,2068.457845,13545.768739
1055.625361,-7846.182985,-2834.553343,9844.739029
1055.625691,-8068.244768,-6818.249932,8142.265362
1055.626021,-6439.791695,-5592.497135,6217.729913
1055.626350,-2812.782580,-3294.210641,2368.659014
1055.626680,2590.720797,-3524.039291,-74.020594
1055.627009,6439.791695,-1762.019645,1036.288319
1055.627339,7550.100608,3370.820191,5181.441594
1055.627669,6735.874072,6435.202183,8364.327145
1055.627998,3701.029710,10725.336972,9548.656652
1055.628328,962.267725,12870.404366,12879.583391
1055.628657,-148.041188,7737.564530,17172.777854
1055.628987,-1628.453072,1072.533697,17764.942608
1055.629317,-4441.235652,-1532.190996,13989.892304
1055.629646,-7105.977043,-3064.381992,9622.677246
1055.629976,-8882.471304,-6128.763984,8660.409521
1055.630306,-9326.594869,-5362.668486,9918.759623
1055.630635,-5477.523971,-3370.820191,6957.935855
1055.630965,1332.370696,-4443.353888,1628.453072
1055.631294,7328.038826,-3830.477490,148.041188
1055.631624,8586.388927,383.047749,4367.215058
1055.631954,5921.647536,4519.963438,8734.430116
1055.632283,1258.350101,8810.098227,12435.459826
1055.632613,-2146.597232,13176.842566,15914.427753
1055.632943,-2886.803174,10955.165621,17838.963202
1055.633272,-3627.009116,2528.115143,18135.045579
1055.633602,-6143.709319,-4060.306139,14656.077652
1055.633931,-8660.409521,-5286.058936,9178.553681
1055.634261,-8364.327145,-8503.660028,6587.832884
1055.634591,-7105.977043,-8350.440928,8438.347739
1055.634920,-6291.750507,-3524.039291,9474.636058
1055.635250,-2516.700203,-1915.238745,6809.894666
1055.635580,2368.659014,-2221.676944,4737.318029
1055.635909,6513.812290,1149.143247,5329.482782
1055.636239,7105.977043,6435.202183,7698.141797
1055.636569,5551.544565,7354.516781,11103.089130
1055.636898,2368.659014,8503.660028,15100.201217
1055.637228,-518.144159,9116.536426,16136.489536
1055.637557,-2812.782580,4060.306139,14878.139434
1055.637887,-5773.606348,-1149.143247,12509.480420
1055.638217,-7179.997637,-3524.039291,10436.903782
1055.638546,-7476.080014,-6588.421283,7698.141797
1055.638876,-4959.379811,-5975.544884,5477.523971
1055.639206,-1480.411884,-3983.696590,2886.803174
1055.639535,2886.803174,-1838.629195,1110.308913
1055.639865,5181.441594,-229.828649,2442.679609
1055.640194,6069.688724,3677.258390,5699.585753
1055.640524,5107.421000,9422.974625,8660.409521
1055.640854,2886.803174,10878.556072,11029.068536
1055.641183,444.123565,9116.536426,14952.160028
1055.641513,-1332.370696,5286.058936,17320.819043
1055.641843,-3034.844362,919.314598,14952.160028
1055.642172,-5033.400406,-2604.724693,11103.089130
1055.642502,-6661.853478,-6052.154434,9178.553681
1055.642831,-7254.018232,-5515.887586,9104.533087
1055.643161,-6957.935855,-4213.525239,10066.800811
1055.643491,-3034.844362,-3753.867940,5181.441594
1055.643820,2886.803174,-1685.410096,-0.000000
1055.644150,7920.203579,-1455.581446,1480.411884
1055.644480,9696.697840,1685.410096,6291.750507
1055.644809,6439.791695,6511.811733,9844.739029
1055.645139,2072.576638,10418.898773,11917.315666
1055.645469,0.000000,11108.384721,15322.262999
1055.645798,-1332.370696,7814.174080,18579.169144
1055.646128,-3849.070898,1455.581446,18209.066173
1055.646457,-7105.977043,-3907.087040,13693.809927
1055.646787,-9548.656652,-5362.668486,7994.224174
1055.647117,-8882.471304,-6665.030833,6587.832884
1055.647446,-7179.997637,-6741.640382,8586.388927
1055.647776,-4737.318029,-3140.991542,8068.244768
1055.648106,148.041188,-2757.943793,5477.523971
1055.648435,4885.359217,-2451.505594,5181.441594
1055.648765,6957.935855,3447.429741,6883.915261
1055.649094,4885.359217,7431.126331,8808.450710
1055.649424,1998.556043,8886.707777,11177.109724
1055.649754,518.144159,9422.974625,14211.954086
1055.650083,296.082377,7201.297681,16506.592507
1055.650413,-1628.453072,689.485948,16358.551318
1055.650743,-6661.853478,-1915.238745,12657.521608
1055.651072,-10584.944971,-3600.648841,9548.656652
1055.651402,-9326.594869,-6741.640382,7846.182985
1055.651731,-5477.523971,-5515.887586,6661.853478
1055.652061,-1702.473667,-2604.724693,4367.215058
1055.652391,2664.741391,-2681.334243,2146.597232
1055.652720,6217.729913,-1302.362347,2738.761985
1055.653050,6957.935855,5515.887586,5921.647536
1055.653380,5995.668130,9346.365076,9252.574275
1055.653709,3182.885551,11108.384721,11177.109724
1055.654039,592.164754,11108.384721,12953.603985
1055.654369,0.000000,5286.058936,14582.057057
1055.654698,-1406.391290,-842.705048,14434.015869
1055.655028,-5773.606348,-1915.238745,11325.150913
1055.655357,-9030.512492,-3753.867940,9326.594869
1055.655687,-9104.533087,-6588.421283,9548.656652
1055.656017,-8290.306550,-3907.087040,8660.409521
1055.656346,-4145.153275,-2604.724693,5033.400406
1055.656676,2146.597232,-4596.572988,1628.453072
1055.657006,6143.709319,-1915.238745,2220.617826
1055.657335,7105.977043,4519.963438,6439.791695
1055.657665,5329.482782,6281.983084,10362.883188
1055.657994,1480.411884,9499.584175,13471.748144
1055.658324,-2516.700203,11797.870669,15100.201217
1055.658654,-3330.926739,7507.735880,17024.736666
1055.658983,-2812.782580,536.266849,16284.530724
1055.659313,-4737.318029,-3370.820191,13027.624579
1055.659643,-7402.059420,-6665.030833,8586.388927
1055.659972,-8290.306550,-8427.050478,7920.203579
1055.660302,-7105.977043,-4903.011187,8808.450710
1055.660631,-3478.967927,-2221.676944,7550.100608
1055.660961,1850.514855,-2221.676944,4737.318029
1055.661291,5329.482782,0.000000,5181.441594
1055.661620,7105.977043,3600.648841,7402.059420
1055.661950,6217.729913,5898.935335,9696.697840
1055.662280,3108.864956,9116.536426,12065.356855
1055.662609,148.041188,9269.755526,15618.345376
1055.662939,-740.205942,5056.230287,17838.963202
1055.663269,-4441.235652,995.924147,15914.427753
1055.663598,-7698.141797,-1915.238745,12139.377449
1055.663928,-8734.430116,-5209.449386,9178.553681
1055.664257,-7105.977043,-7124.688131,7402.059420
1055.664587,-4071.132681,-4290.134789,5107.421000
1055.664917,-1332.370696,-2451.505594,1332.370696
1055.665246,3552.988522,-3217.601092,74.020594
1055.665576,6957.935855,-229.828649,3108.864956
1055.665906,6735.874072,5669.106685,8068.244768
1055.666235,3923.091493,10342.289223,10955.047942
1055.666565,814.226536,12640.575717,11843.295072
1055.666894,444.123565,10189.070123,13989.892304
1055.667224,1110.308913,2451.505594,15470.304188
1055.667554,-1332.370696,-2911.162892,13545.768739
1055.667883,-5773.606348,-2221.676944,9622.677246
1055.668213,-7624.121203,-4366.744339,8734.430116
1055.668543,-7105.977043,-5975.544884,10436.903782
1055.668872,-6587.832884,-2834.553343,10584.944971
1055.669202,-3108.864956,-2451.505594,4293.194464
1055.669531,3330.926739,-4443.353888,370.102971
1055.669861,8956.491898,-1225.752797,1406.391290
1055.670191,10140.821405,3907.087040,6957.935855
1055.670520,6069.688724,5592.497135,10510.924376
1055.670850,370.102971,9729.412825,12879.583391
1055.671180,-2442.679609,12104.308868,16728.654289
1055.671509,-2738.761985,7737.564530,17764.942608
1055.671839,-4737.318029,689.485948,16506.592507
1055.672169,-7994.224174,-5056.230287,12213.398043
1055.672498,-9918.759623,-7814.174080,7846.182985
1055.672828,-9548.656652,-7737.564530,6439.791695
1055.673157,-6809.894666,-5056.230287,7476.080014
1055.673487,-3034.844362,-4443.353888,6883.915261
1055.673817,-222.061783,-3677.258390,5181.441594
1055.674146,2590.720797,-229.828649,5255.462188
1055.674476,5329.482782,4213.525239,7624.121203
1055.674806,5625.565159,7277.907231,10362.883188
1055.675135,3552.988522,9959.241474,12361.439231
1055.675465,1258.350101,10035.851024,14804.118840
1055.675794,740.205942,4290.134789,16432.571912
1055.676124,-1702.473667,766.095498,15248.242405
1055.676454,-6587.832884,0.000000,12361.439231
1055.676783,-9178.553681,-4366.744339,10288.862594
1055.677113,-9252.574275,-7124.688131,8364.327145
1055.677443,-6365.771101,-4290.134789,6365.771101
1055.677772,-962.267725,-3753.867940,2738.761985
1055.678102,4367.215058,-4826.401637,1628.453072
1055.678431,5847.626942,229.828649,3849.070898
1055.678761,4737.318029,6511.811733,7550.100608
1055.679091,2960.823768,8580.269578,10658.965565
1055.679420,1702.473667,12257.527968,12509.480420
1055.679750,296.082377,10878.556072,14804.118840
1055.680080,-1036.288319,4443.353888,15470.304188
1055.680409,-4145.153275,-306.438199,12583.501014
1055.680739,-5699.585753,-2374.896044,9252.574275
1055.681069,-6217.729913,-5822.325785,8882.471304
1055.681398,-7920.203579,-6052.154434,9992.780217
1055.681728,-8956.491898,-2451.505594,8438.347739
1055.682057,-5329.482782,-3524.039291,2738.761985
1055.682387,1554.432478,-4366.744339,296.082377
1055.682717,7105.977043,-766.095498,2590.720797
1055.683046,7698.141797,4136.915689,7476.080014
1055.683376,4145.153275,7354.516781,10807.006753
1055.683706,-592.164754,12104.308868,12731.542202
1055.684035,-1406.391290,12947.013916,15470.304188
1055.684365,-1258.350101,8350.440928,16284.530724
1055.684694,-3478.967927,1608.800546,14063.912898
1055.685024,-6735.874072,-4903.011187,11103.089130
1055.685354,-9770.718434,-8273.831378,9030.512492
1055.685683,-12435.459826,-7354.516781,9622.677246
1055.686013,-13175.665768,-5209.449386,11177.109724
1055.686343,-11251.130318,-3064.381992,9326.594869
1055.686672,-5995.668130,-3677.258390,5699.585753
1055.687002,518.144159,-3983.696590,3849.070898
1055.687331,5329.482782,-1378.971896,5033.400406
1055.687661,5403.503377,3753.867940,8882.471304
1055.687991,1924.535449,8886.707777,13175.665768
1055.688320,-222.061783,12717.185267,16284.530724
1055.688650,-1702.473667,11338.213370,14508.036463
1055.688980,-2738.761985,3677.258390,11917.315666
1055.689309,-4219.173869,-919.314598,9992.780217
1055.689639,-5921.647536,-2604.724693,9400.615463
1055.689969,-7179.997637,-5898.935335,9326.594869
1055.690298,-9474.636058,-5286.058936,8364.327145
1055.690628,-11251.130318,-3447.429741,7105.977043
1055.690957,-9770.718434,-3753.867940,7846.182985
1055.691287,-6735.874072,-2221.676944,9104.533087
1055.691617,-3552.988522,2681.334243,8660.409521
1055.691946,222.061783,5286.058936,6809.894666
1055.692276,2072.576638,3370.820191,7179.997637
1055.692606,1480.411884,4673.182538,10436.903782
1055.692935,-1036.288319,6052.154434,11843.295072
1055.693265,-3923.091493,5209.449386,10510.924376
1055.693594,-5403.503377,4443.353888,8290.306550
1055.693924,-5403.503377,689.485948,7994.224174
1055.694254,-3849.070898,-2987.772442,8586.388927
1055.694583,-2368.659014,-3217.601092,8290.306550
1055.694913,-2738.761985,-3753.867940,7772.162391
1055.695243,-3404.947333,-1915.238745,7846.182985
1055.695572,-4885.359217,2145.067394,8142.265362
1055.695902,-4737.318029,4136.915689,9622.677246
1055.696231,-2738.761985,2221.676944,11325.150913
1055.696561,-1850.514855,2987.772442,12065.356855
1055.696891,-1480.411884,5286.058936,10955.047942
1055.697220,-1776.494261,3140.991542,9548.656652
1055.697550,-3552.988522,-383.047749,9400.615463
1055.697880,-6735.874072,-536.266849,9548.656652
1055.698209,-9992.780217,0.000000,9474.636058
1055.698539,-9992.780217,0.000000,10066.800811
1055.698869,-8364.327145,-612.876398,10362.883188
1055.699198,-6069.688724,-919.314598,9844.739029
1055.699528,-3182.885551,-919.314598,7994.224174
1055.699857,-1184.329507,-1608.800546,6809.894666
1055.700187,0.000000,766.095498,7698.141797
1055.700517,-222.061783,3830.477490,10436.903782
1055.700846,-2368.659014,4519.963438,12509.480420
1055.701176,-4737.318029,3600.648841,12953.603985
1055.701506,-6217.729913,2757.943793,12509.480420
1055.701835,-7476.080014,995.924147,11843.295072
1055.702165,-6661.853478,-995.924147,10881.027347
1055.702494,-5921.647536,-2451.505594,9030.512492
1055.702824,-4737.318029,-3217.601092,7031.956449
1055.703154,-2886.803174,-2987.772442,6291.750507
1055.703483,-666.185348,-536.266849,7105.977043
1055.703813,888.247130,1685.410096,8364.327145
1055.704143,-222.061783,3370.820191,9104.533087
1055.704472,-2368.659014,5056.230287,9844.739029
1055.704802,-4367.215058,5975.544884,10807.006753
1055.705132,-5403.503377,4213.525239,11399.171507
1055.705461,-6809.894666,2681.334243,11399.171507
1055.705791,-6809.894666,-383.047749,9474.636058
1055.706120,-5329.482782,-3294.210641,7920.203579
1055.706450,-3701.029710,-4060.306139,7031.956449
1055.706780,-1702.473667,-3217.601092,6439.791695
1055.707109,-1036.288319,-919.314598,6957.935855
1055.707439,-814.226536,1149.143247,8438.347739
1055.707769,-2072.576638,3447.429741,9918.759623
1055.708098,-3701.029710,4519.963438,11399.171507
1055.708428,-4959.379811,4903.011187,11843.295072
1055.708757,-5699.585753,4290.134789,12435.459826
1055.709087,-6217.729913,2451.505594,11621.233289
1055.709417,-5477.523971,229.828649,9992.780217
1055.709746,-3627.009116,-2451.505594,8216.285956
1055.710076,-2220.617826,-3830.477490,6513.812290
1055.710406,-1258.350101,-2757.943793,5625.565159
1055.710735,0.000000,-995.924147,6439.791695
1055.711065,740.205942,1532.190996,8142.265362
1055.711394,0.000000,3983.696590,10214.842000
1055.711724,-2516.700203,5592.497135,11547.212695
1055.712054,-4959.379811,6281.983084,13101.645173
1055.712383,-7772.162391,5209.449386,13545.768739
1055.712713,-9252.574275,2834.553343,14063.912898
1055.713043,-9400.615463,0.000000,13101.645173
1055.713372,-8438.347739,-1991.848295,9918.759623
1055.713702,-6217.729913,-3907.087040,7105.977043
1055.714032,-2590.720797,-5362.668486,5773.606348
1055.714361,148.041188,-3064.381992,5995.668130
1055.714691,1332.370696,536.266849,6143.709319
1055.715020,814.226536,3753.867940,7698.141797
1055.715350,-74.020594,6435.202183,9770.718434
1055.715680,-1702.473667,8350.440928,11473.192101
1055.716009,-3552.988522,7048.078582,12287.418637
1055.716339,-5625.565159,3524.039291,12657.521608
1055.716669,-7550.100608,842.705048,12361.439231
1055.716998,-8956.491898,-1685.410096,11769.274478
1055.717328,-9104.533087,-3830.477490,9696.697840
1055.717657,-7772.162391,-4366.744339,7772.162391
1055.717987,-5033.400406,-4519.963438,5699.585753
1055.718317,-1702.473667,-2528.115143,4737.318029
1055.718646,1184.329507,0.000000,5403.503377
1055.718976,2146.597232,2298.286494,6513.812290
1055.719306,592.164754,5745.716235,8068.244768
1055.719635,-1850.514855,7814.174080,9770.718434
1055.719965,-4737.318029,6894.859482,11991.336260
1055.720294,-7476.080014,3983.696590,13249.686362
1055.720624,-9474.636058,1685.410096,13101.645173
1055.720954,-10436.903782,-2911.162892,11177.109724
1055.721283,-9844.739029,-5669.106685,10066.800811
1055.721613,-7254.018232,-6818.249932,8882.471304
1055.721943,-4515.256246,-5515.887586,7846.182985
1055.722272,-1628.453072,-2374.896044,6513.812290
1055.722602,1110.308913,536.266849,6513.812290
1055.722932,2442.679609,3064.381992,8438.347739
1055.723261,3034.844362,6205.373534,10658.965565
1055.723591,1480.411884,7737.564530,12139.377449
1055.723920,-1554.432478,6511.811733,12805.562797
1055.724250,-4589.276840,3983.696590,13323.706956
1055.724580,-7105.977043,842.705048,13693.809927
1055.724909,-8734.430116,-1762.019645,13101.645173
1055.725239,-10066.800811,-4290.134789,10436.903782
1055.725569,-8290.306550,-5592.497135,7624.121203
1055.725898,-4663.297435,-4673.182538,6439.791695
1055.726228,-1850.514855,-3064.381992,5477.523971
1055.726557,222.061783,-536.266849,6069.688724
1055.726887,370.102971,3217.601092,6661.853478
1055.727217,-518.144159,7354.516781,8364.327145
1055.727546,-1702.473667,9806.022374,10881.027347
1055.727876,-3627.009116,8273.831378,12435.459826
1055.728206,-5995.668130,5286.058936,12953.603985
1055.728535,-7105.977043,1991.848295,12583.501014
1055.728865,-7624.121203,-612.876398,11695.253884
1055.729194,-7402.059420,-2451.505594,9844.739029
1055.729524,-5995.668130,-4213.525239,7476.080014
1055.729854,-3627.009116,-2298.286494,6809.894666
1055.730183,-1554.432478,0.000000,5699.585753
1055.730513,888.247130,2145.067394,6291.750507
1055.730843,1702.473667,4749.792088,7254.018232
1055.731172,1332.370696,7277.907231,8660.409521
1055.731502,0.000000,8197.221829,9918.759623
1055.731832,-1850.514855,6588.421283,11769.274478
1055.732161,-3478.967927,5209.449386,11991.336260
1055.732491,-4589.276840,3064.381992,11103.089130
1055.732820,-4811.338623,842.705048,9474.636058
1055.733150,-4219.173869,-919.314598,8512.368333
1055.733480,-2886.803174,-1915.238745,7846.182985
1055.733809,-2146.597232,-229.828649,7772.162391
1055.734139,-1702.473667,2757.943793,7846.182985
1055.734469,-1850.514855,3983.696590,8808.450710
1055.734798,-2368.659014,5362.668486,10214.842000
1055.735128,-1998.556043,6665.030833,11325.150913
1055.735458,-1924.535449,6511.811733,11843.295072
1055.735787,-2368.659014,4979.620737,11843.295072
1055.736117,-2368.659014,3447.429741,11547.212695
1055.736447,-1332.370696,2068.457845,10658.965565
1055.736776,-1110.308913,1302.362347,9104.533087
1055.737106,-962.267725,1225.752797,8586.388927
1055.737436,-370.102971,2451.505594,8512.368333
1055.737766,0.000000,4213.525239,9474.636058
1055.738095,-296.082377,6435.202183,10288.862594
1055.738425,-1184.329507,7890.783629,10066.800811
1055.738755,-2220.617826,7737.564530,9474.636058
1055.739084,-2294.638420,7048.078582,8956.491898
1055.739414,-2738.761985,5209.449386,8512.368333
1055.739744,-2738.761985,2834.553343,7254.018232
1055.740073,-1776.494261,1149.143247,5921.647536
1055.740403,-888.247130,-306.438199,6291.750507
1055.740733,-1628.453072,0.000000,7254.018232
1055.741063,-2516.700203,1685.410096,8290.306550
1055.741392,-3108.864956,3830.477490,9326.594869
1055.741722,-3256.906145,5822.325785,10362.883188
1055.742052,-2368.659014,6511.811733,11103.089130
1055.742381,-1628.453072,7201.297681,10732.986159
1055.742711,-666.185348,6052.154434,10288.862594
1055.743041,0.000000,4443.353888,9696.697840
1055.743370,-518.144159,3907.087040,9770.718434
1055.743700,-222.061783,3370.820191,9474.636058
1055.744030,-444.123565,2451.505594,8734.430116
1055.744359,0.000000,1685.410096,8734.430116
1055.744689,592.164754,1838.629195,8956.491898
1055.745019,1036.288319,1991.848295,9844.739029
1055.745349,740.205942,3064.381992,10140.821405
1055.745678,-1184.329507,4136.915689,11177.109724
1055.746008,-1998.556043,5745.716235,12435.459826
1055.746338,-1924.535449,6281.983084,12509.480420
1055.746667,-1110.308913,5439.278036,12139.377449
1055.746997,-1184.329507,4596.572988,10140.821405
1055.747327,-222.061783,3217.601092,8808.450710
1055.747656,0.000000,3294.210641,9030.512492
1055.747986,370.102971,4826.401637,9400.615463
1055.748316,370.102971,5056.230287,8808.450710
1055.748645,0.000000,5056.230287,7402.059420
1055.748975,-148.041188,3524.039291,6587.832884
1055.749305,-444.123565,2298.286494,7328.038826
1055.749635,-1036.288319,2681.334243,8660.409521
1055.749964,-2590.720797,2757.943793,9474.636058
1055.750294,-3997.112087,3370.820191,9548.656652
1055.750624,-3627.009116,3294.210641,10214.842000
1055.750953,-2886.803174,3600.648841,10362.883188
1055.751283,-1480.411884,4060.306139,10362.883188
1055.751613,-518.144159,5209.449386,9474.636058
1055.751942,74.020594,5745.716235,8882.471304
1055.752272,740.205942,6052.154434,8586.388927
1055.752602,888.247130,6205.373534,8882.471304
1055.752932,518.144159,6128.763984,8734.430116
1055.753261,-296.082377,5515.887586,8068.244768
1055.753591,-962.267725,3524.039291,7920.203579
1055.753921,-1480.411884,2681.334243,7846.182985
1055.754250,-2738.761985,1149.143247,7624.121203
1055.754580,-2516.700203,153.219100,8290.306550
1055.754910,-2368.659014,0.000000,9252.574275
1055.755239,-1702.473667,1532.190996,10436.903782
1055.755569,-1110.308913,3294.210641,11029.068536
1055.755899,-444.123565,4443.353888,11843.295072
1055.756228,-148.041188,5515.887586,12065.356855
1055.756558,-296.082377,6894.859482,12139.377449
1055.756888,0.000000,6665.030833,11843.295072
1055.757218,-296.082377,5209.449386,11251.130318
1055.757547,-1036.288319,4596.572988,10288.862594
1055.757877,-1554.432478,2987.772442,9178.553681
1055.758207,-1998.556043,2145.067394,8660.409521
1055.758536,-1998.556043,1685.410096,8586.388927
1055.758866,-1406.391290,1378.971896,8290.306550
1055.759196,-296.082377,1455.581446,8290.306550
1055.759525,814.226536,1838.629195,8364.327145
1055.759855,962.267725,2681.334243,8808.450710
1055.760185,666.185348,3753.867940,9622.677246
1055.760514,-222.061783,6052.154434,11029.068536
1055.760844,-740.205942,7507.735880,11769.274478
1055.761174,-666.185348,7660.954980,12213.398043
1055.761504,-1554.432478,6741.640382,11695.253884
1055.761833,-2886.803174,6281.983084,9992.780217
1055.762163,-2960.823768,5592.497135,7624.121203
1055.762493,-1480.411884,3600.648841,4959.379811
1055.762822,518.144159,1685.410096,3849.070898
1055.763152,1924.535449,1532.190996,4441.235652
1055.763482,1480.411884,1072.533697,5033.400406
1055.763811,-296.082377,2374.896044,6957.935855
1055.764141,-2590.720797,4596.572988,9326.594869
1055.764471,-4293.194464,6435.202183,11843.295072
1055.764801,-4737.318029,6511.811733,13471.748144
1055.765130,-4145.153275,5669.106685,14434.015869
1055.765460,-4145.153275,5362.668486,13693.809927
1055.765790,-3923.091493,4596.572988,11991.336260
1055.766119,-2590.720797,4136.915689,9918.759623
1055.766449,-592.164754,3064.381992,8068.244768
1055.766779,2368.659014,1991.848295,5773.606348
1055.767108,4885.359217,2221.676944,4959.379811
1055.767438,5403.503377,2757.943793,5921.647536
1055.767768,3404.947333,3600.648841,7402.059420
1055.768097,-148.041188,5669.106685,10214.842000
1055.768427,-3404.947333,7584.345430,12805.562797
1055.768757,-5033.400406,8197.221829,14730.098246
1055.769087,-4441.235652,5515.887586,14211.954086
1055.769416,-2590.720797,2451.505594,11917.315666
1055.769746,-1036.288319,0.000000,9252.574275
1055.770076,-444.123565,153.219100,7105.977043
1055.770405,-592.164754,2068.457845,7402.059420
1055.770735,-962.267725,4366.744339,8216.285956
1055.771065,-962.267725,5669.106685,8882.471304
1055.771394,-1184.329507,5362.668486,7846.182985
1055.771724,-1332.370696,3140.991542,5921.647536
1055.772054,-814.226536,689.485948,6587.832884
1055.772383,-1480.411884,1225.752797,9622.677246
1055.772713,-2442.679609,3140.991542,12287.418637
1055.773043,-3404.947333,4673.182538,13471.748144
1055.773373,-2590.720797,5056.230287,12731.542202
1055.773702,-2146.597232,4826.401637,11325.150913
1055.774032,-888.247130,4136.915689,9326.594869
1055.774362,1110.308913,3064.381992,6513.812290
1055.774691,2738.761985,1455.581446,5477.523971
1055.775021,3849.070898,1608.800546,6439.791695
1055.775351,2590.720797,3600.648841,7402.059420
1055.775680,1036.288319,4136.915689,8882.471304
1055.776010,-1184.329507,3907.087040,10955.047942
1055.776340,-3034.844362,4366.744339,11843.295072
1055.776669,-3701.029710,4826.401637,12065.356855
1055.776999,-3108.864956,3064.381992,12287.418637
1055.777329,-2368.659014,1072.533697,11473.192101
1055.777659,-2886.803174,1838.629195,9992.780217
1055.777988,-2368.659014,2451.505594,8512.368333
1055.778318,-1480.411884,3294.210641,8364.327145
1055.778648,-592.164754,5439.278036,8512.368333
1055.778977,0.000000,6128.763984,7105.977043
1055.779307,1554.432478,3830.477490,6217.729913
1055.779637,2960.823768,1455.581446,6365.771101
1055.779966,2072.576638,2221.676944,7994.224174
1055.780296,-666.185348,2374.896044,10362.883188
1055.780626,-3256.906145,3677.258390,13471.748144
1055.780956,-4737.318029,5286.058936,14878.139434
1055.781285,-5403.503377,6435.202183,14211.954086
1055.781615,-3627.009116,3677.258390,12583.501014
1055.781945,-1406.391290,383.047749,10510.924376
1055.782274,-962.267725,383.047749,7624.121203
1055.782604,-666.185348,1762.019645,5699.585753
1055.782934,0.000000,2604.724693,5181.441594
1055.783263,888.247130,3907.087040,6143.709319
1055.783593,1036.288319,4979.620737,7105.977043
1055.783923,1628.453072,5592.497135,7179.997637
1055.784252,1406.391290,4673.182538,6735.874072
1055.784582,2146.597232,3294.210641,7994.224174
1055.784912,1406.391290,1838.629195,10140.821405
1055.785242,-1776.494261,1455.581446,12583.501014
1055.785571,-4737.318029,2451.505594,12879.583391
1055.785901,-5551.544565,1838.629195,12065.356855
1055.786231,-4589.276840,153.219100,10955.047942
1055.786560,-3404.947333,-1149.143247,9030.512492
1055.786890,-2146.597232,-1915.238745,7698.141797
1055.787220,-962.267725,-1991.848295,6809.894666
1055.787549,-1036.288319,0.000000,6069.688724
1055.787879,-518.144159,2298.286494,6513.812290
1055.788209,1184.329507,2757.943793,8068.244768
1055.788538,2590.720797,995.924147,9030.512492
1055.788868,2590.720797,1762.019645,10140.821405
1055.789198,1776.494261,2298.286494,11473.192101
1055.789528,888.247130,306.438199,12805.562797
1055.789857,-1776.494261,-689.485948,13545.768739
1055.790187,-3849.070898,-536.266849,14656.077652
1055.790517,-3256.906145,-1838.629195,14434.015869
1055.790846,-2368.659014,-2681.334243,12509.480420
1055.791176,-3108.864956,-1685.410096,10584.944971
1055.791506,-2516.700203,-1302.362347,9548.656652
1055.791835,-1258.350101,-995.924147,7698.141797
1055.792165,1110.308913,612.876398,6365.771101
1055.792495,3478.967927,1455.581446,5699.585753
1055.792825,4441.235652,1455.581446,5921.647536
1055.793154,3627.009116,2221.676944,5995.668130
1055.793484,1998.556043,1378.971896,8364.327145
1055.793814,74.020594,0.000000,12139.377449
1055.794143,-3256.906145,2298.286494,14211.954086
1055.794473,-5699.585753,3524.039291,13989.892304
1055.794803,-5921.647536,-1225.752797,13101.645173
1055.795132,-5995.668130,-4136.915689,11695.253884
1055.795462,-6291.750507,-1762.019645,10288.862594
1055.795792,-4959.379811,76.609550,9622.677246
1055.796121,-3478.967927,1378.971896,8216.285956
1055.796451,-1628.453072,3524.039291,5477.523971
1055.796781,1480.411884,2374.896044,4293.194464
1055.797111,4145.153275,153.219100,4293.194464
1055.797440,3923.091493,2451.505594,5033.400406
1055.797770,2368.659014,4290.134789,6661.853478
1055.798100,1332.370696,2528.115143,9918.759623
1055.798429,-370.102971,2221.676944,13249.686362
1055.798759,-2960.823768,2604.724693,14434.015869
1055.799089,-3849.070898,919.314598,14359.995275
1055.799418,-4293.194464,-306.438199,13027.624579
1055.799748,-4441.235652,1608.800546,11621.233289
1055.800078,-3404.947333,536.266849,10066.800811
1055.800407,-1924.535449,-612.876398,7698.141797
1055.800737,-1036.288319,306.438199,5033.400406
1055.801067,1258.350101,919.314598,4145.153275
1055.801397,3552.988522,1225.752797,4663.297435
1055.801726,2960.823768,2604.724693,5181.441594
1055.802056,2590.720797,2834.553343,6809.894666
1055.802386,1998.556043,1455.581446,9918.759623
1055.802715,-296.082377,1225.752797,13397.727550
1055.803045,-3108.864956,1838.629195,15840.407159
1055.803375,-5181.441594,612.876398,16358.551318
1055.803704,-5995.668130,0.000000,16062.468941
1055.804034,-5847.626942,919.314598,14508.036463
1055.804364,-4663.297435,-459.657299,11399.171507
1055.804694,-2294.638420,-1762.019645,7994.224174
1055.805023,444.123565,0.000000,4663.297435
1055.805353,4293.194464,-153.219100,3108.864956
1055.805683,6735.874072,-1072.533697,2368.659014
1055.806012,6217.729913,0.000000,3256.906145
1055.806342,4515.256246,2374.896044,7105.977043
1055.806672,1776.494261,3677.258390,11843.295072
1055.807001,-1554.432478,5898.935335,14582.057057
1055.807331,-3627.009116,4213.525239,15248.242405
1055.807661,-3701.029710,-612.876398,15174.221811
1055.807990,-4737.318029,-1991.848295,14434.015869
1055.808320,-5625.565159,-1378.971896,13397.727550
1055.808650,-6661.853478,-1149.143247,10955.047942
1055.808980,-5699.585753,-306.438199,6661.853478
1055.809309,-2886.803174,459.657299,3478.967927
1055.809639,2368.659014,-1455.581446,2590.720797
1055.809969,6217.729913,-1838.629195,2738.761985
1055.810298,5181.441594,1378.971896,2664.741391
1055.810628,2072.576638,2987.772442,4293.194464
1055.810958,-370.102971,3677.258390,8734.430116
1055.811287,-2886.803174,4596.572988,14137.933492
1055.811617,-4589.276840,2834.553343,17468.860231
1055.811947,-5847.626942,0.000000,17394.839637
1055.812276,-7254.018232,-1072.533697,14359.995275
1055.812606,-6809.894666,-2298.286494,12287.418637
1055.812936,-5107.421000,-4443.353888,9918.759623
1055.813266,-3627.009116,-3217.601092,6735.874072
1055.813595,-444.123565,-1225.752797,4811.338623
1055.813925,3108.864956,-383.047749,4071.132681
1055.814255,5551.544565,766.095498,3478.967927
1055.814584,5551.544565,2451.505594,4515.256246
1055.814914,5107.421000,2834.553343,7476.080014
1055.815244,3627.009116,3753.867940,12287.418637
1055.815573,444.123565,5592.497135,16136.489536
1055.815903,-2960.823768,3524.039291,18357.107362
1055.816233,-5181.441594,229.828649,17838.963202
1055.816563,-6587.832884,-1072.533697,16062.468941
1055.816892,-6661.853478,-1838.629195,13619.789333
1055.817222,-5329.482782,-3140.991542,10288.862594
1055.817552,-2812.782580,-1991.848295,6069.688724
1055.817881,-222.061783,-1225.752797,2664.741391
1055.818211,3701.029710,-1915.238745,1332.370696
1055.818541,6143.709319,-842.705048,1850.514855
1055.818870,5995.668130,3064.381992,3775.050304
1055.819200,3775.050304,6281.983084,7698.141797
1055.819530,888.247130,5898.935335,12213.398043
1055.819859,-1702.473667,6205.373534,15692.365970
1055.820189,-3404.947333,4366.744339,17320.819043
1055.820519,-4589.276840,1532.190996,16284.530724
1055.820849,-5551.544565,0.000000,14063.912898
1055.821178,-6587.832884,-1532.190996,11029.068536
1055.821508,-5773.606348,-2451.505594,8882.471304
1055.821838,-4737.318029,-1378.971896,5329.482782
1055.822167,-888.247130,842.705048,2146.597232
1055.822497,4515.256246,-842.705048,1184.329507
1055.822827,7624.121203,-306.438199,1406.391290
1055.823156,6365.771101,3294.210641,3256.906145
1055.823486,2960.823768,4673.182538,6143.709319
1055.823816,0.000000,5515.887586,11029.068536
1055.824145,-2442.679609,6894.859482,16136.489536
1055.824475,-4441.235652,4903.011187,19393.395680
1055.824805,-5847.626942,842.705048,17246.798449
1055.825135,-7179.997637,-2451.505594,12953.603985
1055.825464,-7179.997637,-4366.744339,9844.739029
1055.825794,-6069.688724,-5056.230287,8808.450710
1055.826124,-4811.338623,-2298.286494,5625.565159
1055.826453,-1776.494261,-842.705048,3849.070898
1055.826783,2812.782580,-2451.505594,3034.844362
1055.827113,5255.462188,-536.266849,3330.926739
1055.827442,5329.482782,2145.067394,5255.462188
1055.827772,4589.276840,3370.820191,8660.409521
1055.828102,2146.597232,4366.744339,13249.686362
1055.828432,-740.205942,5362.668486,17024.736666
1055.828761,-2738.761985,2911.162892,18727.210333
1055.829091,-4663.297435,-1072.533697,16728.654289
1055.829421,-5699.585753,-2681.334243,14582.057057
1055.829750,-5995.668130,-3600.648841,11473.192101
1055.830080,-4811.338623,-5286.058936,9474.636058
1055.830410,-2812.782580,-4979.620737,5255.462188
1055.830739,148.041188,-4366.744339,3256.906145
1055.831069,4071.132681,-3064.381992,3404.947333
1055.831399,6069.688724,919.314598,4885.359217
1055.831728,5551.544565,3830.477490,6661.853478
1055.832058,4219.173869,4826.401637,9918.759623
1055.832388,1628.453072,5286.058936,14508.036463
1055.832718,-1998.556043,6588.421283,17616.901420
1055.833047,-3627.009116,4366.744339,18505.148550
1055.833377,-5107.421000,229.828649,15840.407159
1055.833706,-6809.894666,-1915.238745,12213.398043
1055.834036,-7550.100608,-3600.648841,9992.780217
1055.834366,-6439.791695,-3447.429741,7476.080014
1055.834695,-4441.235652,-2145.067394,3701.029710
1055.835025,-444.123565,-689.485948,1554.432478
1055.835354,4071.132681,-1072.533697,962.267725
1055.835684,5847.626942,229.828649,1702.473667
1055.836014,4589.276840,3830.477490,3923.091493
1055.836343,2664.741391,5592.497135,8142.265362
1055.836673,296.082377,7124.688131,13619.789333
1055.837002,-2738.761985,8656.879127,17394.839637
1055.837332,-4737.318029,5669.106685,17690.922014
1055.837662,-5551.544565,536.266849,14730.098246
1055.837991,-6217.729913,-2145.067394,11325.150913
1055.838321,-5477.523971,-2987.772442,9030.512492
1055.838650,-4811.338623,-4060.306139,6069.688724
1055.838980,-3552.988522,-2298.286494,4145.153275
1055.839310,-740.205942,-306.438199,3330.926739
1055.839639,3182.885551,153.219100,2886.803174
1055.839969,4737.318029,1149.143247,3108.864956
1055.840298,4737.318029,2528.115143,4737.318029
1055.840628,4589.276840,4443.353888,9622.677246
1055.840958,2294.638420,4903.011187,14508.036463
1055.841287,-1184.329507,4519.963438,17542.880825
1055.841617,-4367.215058,2221.676944,18357.107362
1055.841946,-5551.544565,-383.047749,16950.716072
1055.842276,-6587.832884,-1072.533697,15618.345376
1055.842606,-5699.585753,-1915.238745,13249.686362
1055.842935,-4737.318029,-3907.087040,9474.636058
1055.843265,-3108.864956,-4213.525239,3627.009116
1055.843594,1184.329507,-3830.477490,1554.432478
1055.843924,5921.647536,-2757.943793,2812.782580
1055.844254,7550.100608,995.924147,4737.318029
1055.844583,5551.544565,4903.011187,6439.791695
1055.844913,2886.803174,5592.497135,10436.903782
1055.845242,740.205942,6588.421283,14656.077652
1055.845572,-1332.370696,7048.078582,17098.757260
1055.845902,-3108.864956,3294.210641,17468.860231
1055.846231,-4145.153275,-612.876398,14804.118840
1055.846561,-5921.647536,-1915.238745,11843.295072
1055.846890,-7105.977043,-3753.867940,9770.718434
1055.847220,-6661.853478,-3677.258390,8364.327145
1055.847550,-5551.544565,-1149.143247,5403.503377
1055.847879,-1036.288319,76.609550,1036.288319
1055.848209,4959.379811,-2681.334243,-814.226536
1055.848538,8882.471304,-2834.553343,1406.391290
1055.848868,6809.894666,2374.896044,4293.194464
1055.849198,2294.638420,7584.345430,8216.285956
1055.849527,-1036.288319,9039.926876,13397.727550
1055.849857,-2590.720797,8350.440928,18431.127956
1055.850186,-3701.029710,5745.716235,20355.663405
1055.850516,-5773.606348,1302.362347,16950.716072
1055.850846,-7254.018232,-3294.210641,11843.295072
1055.851175,-7105.977043,-3907.087040,8734.430116
1055.851505,-6365.771101,-2911.162892,6809.894666
1055.851834,-4367.215058,-2681.334243,4885.359217
1055.852164,-592.164754,-2528.115143,3701.029710
1055.852494,3256.906145,-1149.143247,2294.638420
1055.852823,4811.338623,766.095498,2738.761985
1055.853153,4737.318029,3064.381992,4663.297435
1055.853482,3627.009116,3907.087040,9770.718434
1055.853812,1480.411884,4979.620737,15396.283594
1055.854142,-1924.535449,7048.078582,18949.272115
1055.854471,-4515.256246,5439.278036,18949.272115
1055.854801,-5477.523971,1149.143247,16506.592507
1055.855130,-6143.709319,-1838.629195,13471.748144
1055.855460,-5329.482782,-3140.991542,10288.862594
1055.855790,-3330.926739,-3830.477490,7031.956449
1055.856119,-296.082377,-3294.210641,2960.823768
1055.856449,3108.864956,-2374.896044,2220.617826
1055.856778,5625.565159,-1685.410096,2516.700203
1055.857108,5625.565159,1455.581446,3627.009116
1055.857438,4737.318029,4213.525239,7254.018232
1055.857767,2812.782580,5822.325785,12435.459826
1055.858097,-222.061783,7660.954980,16728.654289
1055.858426,-2960.823768,6511.811733,17764.942608
1055.858756,-3701.029710,1838.629195,16358.551318
1055.859086,-4515.256246,-2221.676944,13915.871710
1055.859415,-6143.709319,-1838.629195,12361.439231
1055.859745,-7105.977043,-1608.800546,10510.924376
1055.860074,-6957.935855,-2604.724693,8808.450710
1055.860404,-4737.318029,-842.705048,4663.297435
1055.860734,1036.288319,536.266849,1184.329507
1055.861063,6883.915261,-2145.067394,-0.000000
1055.861393,8586.388927,-689.485948,1554.432478
1055.861722,4737.318029,4519.963438,4811.338623
1055.862052,1406.391290,7354.516781,9844.739029
1055.862381,-962.267725,9116.536426,15692.365970
1055.862711,-2368.659014,8963.317327,18579.169144
1055.863041,-3552.988522,4749.792088,17024.736666
1055.863370,-4441.235652,-2068.457845,13397.727550
1055.863700,-5181.441594,-4366.744339,9992.780217
1055.864029,-6143.709319,-2068.457845,8734.430116
1055.864359,-6661.853478,-1378.971896,7550.100608
1055.864689,-4589.276840,-689.485948,3552.988522
1055.865018,222.061783,-1072.533697,2664.741391
1055.865348,4737.318029,-2298.286494,2886.803174
1055.865677,5625.565159,689.485948,2590.720797
1055.866007,3627.009116,2757.943793,4663.297435
1055.866337,1258.350101,3370.820191,10362.883188
1055.866666,-1110.308913,6588.421283,16950.716072
1055.866996,-3849.070898,7584.345430,20281.642811
1055.867325,-4071.132681,3830.477490,19763.498651
1055.867655,-5181.441594,-1685.410096,15470.304188
1055.867985,-6069.688724,-2604.724693,11991.336260
1055.868314,-4959.379811,-3140.991542,9326.594869
1055.868644,-3182.885551,-4290.134789,7402.059420
1055.868973,-962.267725,-1762.019645,4959.379811
1055.869303,1628.453072,-612.876398,3404.947333
1055.869633,4959.379811,-1455.581446,3330.926739
1055.869962,6735.874072,0.000000,4959.379811
1055.870292,4589.276840,2987.772442,8586.388927
1055.870621,888.247130,4903.011187,12583.501014
1055.870951,-1480.411884,6588.421283,16580.613101
1055.871281,-2072.576638,5056.230287,18283.086767
1055.871610,-2664.741391,1991.848295,16062.468941
1055.871940,-4367.215058,-1225.752797,12805.562797
1055.872269,-4811.338623,-2221.676944,10658.965565
1055.872599,-4959.379811,-1685.410096,9326.594869
1055.872929,-4663.297435,-536.266849,6957.935855
1055.873258,-1850.514855,1149.143247,3108.864956
1055.873588,2812.782580,-1455.581446,1776.494261
1055.873917,5995.668130,-2068.457845,1850.514855
1055.874247,5033.400406,2145.067394,3108.864956
1055.874577,2072.576638,4903.011187,6513.812290
1055.874906,-296.082377,5975.544884,11769.274478
1055.875236,-2368.659014,7967.393179,16284.530724
1055.875565,-4737.318029,6971.469032,17764.942608
1055.875895,-4663.297435,1838.629195,15174.221811
1055.876225,-4441.235652,-1762.019645,11843.295072
1055.876554,-5255.462188,-2145.067394,9696.697840
1055.876884,-5995.668130,-1302.362347,8586.388927
1055.877213,-6069.688724,-383.047749,6883.915261
1055.877543,-2368.659014,1072.533697,3478.967927
1055.877873,2664.741391,-153.219100,1776.494261
1055.878202,6661.853478,-1608.800546,1554.432478
1055.878532,6957.935855,842.705048,2738.761985
1055.878861,4737.318029,2681.334243,5995.668130
1055.879191,1628.453072,4979.620737,12361.439231
1055.879521,-1850.514855,8350.440928,18135.045579
1055.879850,-3701.029710,7967.393179,20429.683999
1055.880180,-4071.132681,2681.334243,18801.230927
1055.880509,-4589.276840,-1149.143247,14359.995275
1055.880839,-5033.400406,-2068.457845,10510.924376
1055.881169,-4219.173869,-3370.820191,8586.388927
1055.881498,-3404.947333,-2987.772442,6513.812290
1055.881828,-2072.576638,0.000000,4145.153275
1055.882157,1628.453072,-1302.362347,2738.761985
1055.882487,4293.194464,-2834.553343,1924.535449
1055.882817,4441.235652,0.000000,3849.070898
1055.883146,2886.803174,2681.334243,8660.409521
1055.883476,962.267725,4903.011187,13915.871710
1055.883805,-1628.453072,6435.202183,17394.839637
1055.884135,-3034.844362,3983.696590,18431.127956
1055.884465,-3997.112087,612.876398,17320.819043
1055.884794,-5255.462188,0.000000,15174.221811
1055.885124,-5329.482782,0.000000,13027.624579
1055.885453,-4515.256246,-2068.457845,9474.636058
1055.885783,-2960.823768,-2221.676944,5181.441594
1055.886113,666.185348,-1302.362347,2886.803174
1055.886442,4441.235652,-2451.505594,2368.659014
1055.886772,6513.812290,-306.438199,2294.638420
1055.887101,4811.338623,2528.115143,3404.947333
1055.887431,2664.741391,4060.306139,7179.997637
1055.887761,74.020594,5362.668486,13397.727550
1055.888090,-3256.906145,7354.516781,17024.736666
1055.888420,-5107.421000,4749.792088,16728.654289
1055.888749,-5107.421000,0.000000,14434.015869
1055.889079,-5625.565159,-2834.553343,11843.295072
1055.889409,-5773.606348,-1991.848295,10362.883188
1055.889738,-6143.709319,-2528.115143,8438.347739
1055.890068,-4885.359217,-766.095498,4737.318029
1055.890397,-1628.453072,842.705048,1998.556043
1055.890727,3552.988522,-1225.752797,1036.288319
1055.891057,6809.894666,-153.219100,2146.597232
1055.891386,5625.565159,2068.457845,3330.926739
1055.891716,2886.803174,3600.648841,7402.059420
1055.892045,296.082377,5439.278036,13545.768739
1055.892375,-2812.782580,7354.516781,18949.272115
1055.892705,-4737.318029,5822.325785,19837.519246
1055.893034,-5181.441594,689.485948,17542.880825
1055.893364,-5255.462188,-1762.019645,13619.789333
1055.893693,-4737.318029,-2451.505594,10510.924376
1055.894023,-3923.091493,-3370.820191,9030.512492
1055.894353,-2516.700203,-1225.752797,5847.626942
1055.894682,74.020594,0.000000,2886.803174
1055.895012,4145.153275,-1762.019645,2368.659014
1055.895341,5921.647536,0.000000,3775.050304
1055.895671,4885.359217,2298.286494,5033.400406
1055.896001,2664.741391,3370.820191,8808.450710
1055.896330,518.144159,4596.572988,14211.954086
1055.896660,-2294.638420,5975.544884,18431.127956
1055.896989,-4071.132681,4979.620737,19837.519246
1055.897319,-5033.400406,1149.143247,17320.819043
1055.897649,-5847.626942,-459.657299,13767.830521
1055.897978,-5033.400406,-1532.190996,10955.047942
1055.898308,-4441.235652,-2451.505594,8364.327145
1055.898637,-2516.700203,-842.705048,3997.112087
1055.898967,666.185348,-306.438199,1628.453072
1055.899297,4737.318029,-1225.752797,518.144159
1055.899626,7179.997637,306.438199,1702.473667
1055.899956,4663.297435,2681.334243,4071.132681
1055.900285,1628.453072,3907.087040,8438.347739
1055.900615,-1480.411884,5515.887586,13915.871710
1055.900945,-3478.967927,6971.469032,17690.922014
1055.901274,-4293.194464,4519.963438,17764.942608
1055.901604,-4441.235652,0.000000,14359.995275
1055.901933,-5181.441594,-2987.772442,11399.171507
1055.902263,-5921.647536,-2834.553343,9918.759623
1055.902593,-5995.668130,-1072.533697,9030.512492
1055.902922,-4663.297435,459.657299,4959.379811
1055.903252,74.020594,229.828649,1036.288319
1055.903581,5477.523971,-3524.039291,444.123565
1055.903911,7550.100608,-2911.162892,1998.556043
1055.904241,5329.482782,1072.533697,4737.318029
1055.904570,1702.473667,3983.696590,9400.615463
1055.904900,-2220.617826,5669.106685,15544.324782
1055.905229,-3849.070898,7507.735880,20281.642811
1055.905559,-4737.318029,3524.039291,21243.910535
1055.905889,-5033.400406,-1762.019645,17098.757260
1055.906218,-5847.626942,-3217.601092,12435.459826
1055.906548,-5625.565159,-3064.381992,9252.574275
1055.906877,-3849.070898,-4060.306139,7476.080014
1055.907207,-2368.659014,-2451.505594,5699.585753
1055.907536,666.185348,-766.095498,3478.967927
1055.907866,3923.091493,-1685.410096,1776.494261
1055.908196,5625.565159,-1149.143247,2812.782580
1055.908525,5181.441594,842.705048,5255.462188
1055.908855,2146.597232,2757.943793,10214.842000
1055.909184,-666.185348,4290.134789,16062.468941
1055.909514,-3404.947333,5439.278036,19023.292709
1055.909844,-4145.153275,3830.477490,19171.333898
1055.910173,-4367.215058,-306.438199,16358.551318
1055.910503,-5477.523971,-2374.896044,12509.480420
1055.910832,-4589.276840,-2298.286494,10362.883188
1055.911162,-3701.029710,-1915.238745,6661.853478
1055.911492,-1776.494261,0.000000,3034.844362
1055.911821,2220.617826,0.000000,1776.494261
1055.912151,5551.544565,-766.095498,1628.453072
1055.912480,6143.709319,842.705048,2590.720797
1055.912810,3404.947333,3064.381992,5255.462188
1055.913140,592.164754,4060.306139,10140.821405
1055.913469,-2368.659014,6128.763984,15322.262999
1055.913799,-4219.173869,6588.421283,18727.210333
1055.914128,-4367.215058,2757.943793,17172.777854
1055.914458,-4071.132681,-995.924147,13471.748144
1055.914788,-4737.318029,-1762.019645,11473.192101
1055.915117,-5403.503377,-766.095498,10140.821405
1055.915447,-5699.585753,842.705048,8734.430116
1055.915776,-3478.967927,2298.286494,4219.173869
1055.916106,1850.514855,1455.581446,666.185348
1055.916436,7105.977043,-2374.896044,-296.082377
1055.916765,7772.162391,-1072.533697,1036.288319
1055.917095,4515.256246,2451.505594,3849.070898
1055.917424,814.226536,4290.134789,9622.677246
1055.917754,-2368.659014,7507.735880,15988.448347
1055.918084,-4885.359217,8120.612279,19689.478057
1055.918413,-5551.544565,2451.505594,19023.292709
1055.918743,-5847.626942,-2757.943793,15396.283594
1055.919072,-5921.647536,-2911.162892,11695.253884
1055.919402,-5921.647536,-1532.190996,9400.615463
1055.919732,-5255.462188,-2298.286494,7402.059420
1055.920061,-3478.967927,-1225.752797,4737.318029
1055.920391,888.247130,-1302.362347,3034.844362
1055.920720,4959.379811,-2987.772442,3256.906145
1055.921050,5477.523971,-689.485948,2960.823768
1055.921380,4367.215058,536.266849,4885.359217
1055.921709,2664.741391,1072.533697,10658.965565
1055.922039,0.000000,3140.991542,17764.942608
1055.922368,-2664.741391,5745.716235,22132.157666
1055.922698,-3775.050304,3753.867940,19763.498651
1055.923028,-4737.318029,-919.314598,15618.345376
1055.923357,-4663.297435,-3217.601092,12953.603985
1055.923687,-3256.906145,-2987.772442,11325.150913
1055.924016,-2516.700203,-2374.896044,7624.121203
1055.924346,-740.205942,0.000000,2072.576638
1055.924676,2590.720797,-2298.286494,296.082377
1055.925005,6513.812290,-3370.820191,1776.494261
1055.925335,6069.688724,76.609550,3997.112087
1055.925664,2664.741391,2528.115143,6069.688724
1055.925994,-1332.370696,4213.525239,10066.800811
1055.926324,-2886.803174,5439.278036,15544.324782
1055.926653,-4367.215058,4903.011187,18727.210333
1055.926983,-4959.379811,1455.581446,17542.880825
1055.927312,-5773.606348,-2374.896044,13915.871710
1055.927642,-6143.709319,-1532.190996,10510.924376
1055.927972,-6069.688724,-229.828649,9696.697840
1055.928301,-5329.482782,-229.828649,6957.935855
1055.928631,-2368.659014,612.876398,2664.741391
1055.928960,3034.844362,-1455.581446,592.164754
1055.929290,7105.977043,-995.924147,1258.350101
1055.929620,6439.791695,2221.676944,2960.823768
1055.929949,3108.864956,3600.648841,5255.462188
1055.930279,296.082377,4060.306139,10288.862594
1055.930608,-2516.700203,5822.325785,16876.695478
1055.930938,-4293.194464,7431.126331,20281.642811
1055.931268,-5255.462188,2987.772442,18209.066173
1055.931597,-5329.482782,-1762.019645,13989.892304
1055.931927,-6069.688724,-2528.115143,10140.821405
1055.932256,-5033.400406,-2451.505594,9400.615463
1055.932586,-3997.112087,-842.705048,7031.956449
1055.932916,-1332.370696,1378.971896,3404.947333
1055.933245,2886.803174,0.000000,1776.494261
1055.933575,6513.812290,-1532.190996,1480.411884
1055.933904,6883.915261,0.000000,2960.823768
1055.934234,4811.338623,2451.505594,5921.647536
1055.934564,1110.308913,4596.572988,11843.295072
1055.934893,-1776.494261,6818.249932,17542.880825
1055.935223,-4515.256246,6052.154434,20503.704593
1055.935552,-5107.421000,1225.752797,18653.189738
1055.935882,-5477.523971,-2298.286494,14952.160028
1055.936212,-5995.668130,-3140.991542,12065.356855
1055.936541,-5107.421000,-2451.505594,10436.903782
1055.936871,-4885.359217,-1991.848295,7105.977043
1055.937201,-2220.617826,-1149.143247,2960.823768
1055.937530,3256.906145,-1149.143247,1406.391290
1055.937860,7698.141797,-2374.896044,1998.556043
1055.938190,7846.182985,1149.143247,4293.194464
1055.938519,4145.153275,3140.991542,6439.791695
1055.938849,370.102971,4519.963438,10955.047942
1055.939179,-1850.514855,6511.811733,16802.674883
1055.939508,-3034.844362,6358.592633,21095.869347
1055.939838,-3849.070898,2911.162892,19023.292709
1055.940168,-4737.318029,-306.438199,14063.912898
1055.940497,-5477.523971,-2604.724693,10584.944971
1055.940827,-4885.359217,-2528.115143,8882.471304
1055.941157,-5255.462188,-766.095498,7698.141797
1055.941486,-2738.761985,1072.533697,3256.906145
1055.941816,2664.741391,0.000000,-962.267725
1055.942146,7105.977043,-3064.381992,-666.185348
1055.942475,6809.894666,0.000000,1258.350101
1055.942805,3330.926739,2604.724693,4737.318029
1055.943135,-814.226536,4290.134789,10584.944971
1055.943464,-4145.153275,8733.488677,16580.613101
1055.943794,-5403.503377,8044.002729,20059.581028
1055.944124,-5477.523971,2374.896044,18283.086767
1055.944453,-5921.647536,-2911.162892,13619.789333
1055.944783,-6513.812290,-3524.039291,9918.759623
1055.945113,-5033.400406,-2451.505594,7994.224174
1055.945442,-3627.009116,-995.924147,6365.771101
1055.945772,-1184.329507,1072.533697,4367.215058
1055.946102,2590.720797,-306.438199,2442.679609
1055.946431,6069.688724,-1915.238745,2146.597232
1055.946761,6069.688724,1149.143247,3627.009116
1055.947091,4737.318029,2834.553343,7105.977043
1055.947420,2072.576638,2528.115143,13323.706956
1055.947750,-1628.453072,4903.011187,18875.251521
1055.948080,-4293.194464,4903.011187,20503.704593
1055.948409,-4737.318029,1225.752797,18505.148550
1055.948739,-4737.318029,-1378.971896,15026.180623
1055.949069,-5033.400406,-2374.896044,11917.315666
1055.949398,-3997.112087,-3677.258390,9178.553681
1055.949728,-2664.741391,-3524.039291,5921.647536
1055.950058,222.061783,-766.095498,3330.926739
1055.950387,4589.276840,-995.924147,2516.700203
1055.950717,7105.977043,-766.095498,3701.029710
1055.951047,5699.585753,1455.581446,4737.318029
1055.951376,3256.906145,2757.943793,8364.327145
1055.951706,814.226536,5515.887586,13397.727550
1055.952036,-1776.494261,8273.831378,18283.086767
1055.952365,-3330.926739,6358.592633,18431.127956
1055.952695,-3404.947333,1915.238745,15692.365970
1055.953025,-4071.132681,-2451.505594,11325.150913
1055.953354,-4959.379811,-3217.601092,9474.636058
1055.953684,-6587.832884,-1685.410096,9030.512492
1055.954014,-6809.894666,1378.971896,7550.100608
1055.954343,-4219.173869,1838.629195,2442.679609
1055.954673,2294.638420,-1378.971896,-444.123565
1055.955003,7402.059420,-3294.210641,-1110.308913
1055.955332,7105.977043,-383.047749,1480.411884
1055.955662,2812.782580,4060.306139,5329.482782
1055.955992,-1036.288319,8044.002729,11177.109724
1055.956321,-3182.885551,9269.755526,17542.880825
1055.956651,-4441.235652,7890.783629,19837.519246
1055.956981,-4737.318029,3217.601092,18579.169144
1055.957310,-4589.276840,-1838.629195,14508.036463
1055.957640,-5403.503377,-2298.286494,10436.903782
1055.957969,-5329.482782,153.219100,7994.224174
1055.958299,-4441.235652,-612.876398,6513.812290
1055.958629,-1554.432478,-612.876398,4811.338623
1055.958958,1924.535449,-306.438199,3034.844362
1055.959288,5403.503377,-1149.143247,2220.617826
1055.959618,5255.462188,459.657299,3478.967927
1055.959947,3404.947333,1762.019645,6735.874072
1055.960277,888.247130,3830.477490,13545.768739
1055.960607,-2368.659014,6588.421283,18579.169144
1055.960936,-4293.194464,6435.202183,19763.498651
1055.961266,-4441.235652,2911.162892,17098.757260
1055.961596,-4811.338623,-1149.143247,13767.830521
1055.961925,-4515.256246,-2834.553343,10955.047942
1055.962255,-3701.029710,-3677.258390,9326.594869
1055.962585,-2368.659014,-1915.238745,6291.750507
1055.962914,-296.082377,766.095498,3034.844362
1055.963244,3182.885551,-1608.800546,3552.988522
1055.963574,5033.400406,-306.438199,4293.194464
1055.963903,5181.441594,2451.505594,5181.441594
1055.964233,3478.967927,3217.601092,8808.450710
1055.964563,888.247130,4673.182538,13027.624579
1055.964892,-1554.432478,6358.592633,16802.674883
1055.965222,-3182.885551,3907.087040,17690.922014
1055.965552,-4219.173869,536.266849,15322.262999
1055.965881,-4885.359217,0.000000,12065.356855
1055.966211,-4885.359217,-1225.752797,9844.739029
1055.966541,-4663.297435,-2681.334243,8586.388927
1055.966870,-4145.153275,-536.266849,6143.709319
1055.967200,-888.247130,-1302.362347,1332.370696
1055.967530,4737.318029,-3064.381992,-0.000000
1055.967859,6883.915261,-2068.457845,1776.494261
1055.968189,5403.503377,1685.410096,4441.235652
1055.968519,1998.556043,3370.820191,8438.347739
1055.968848,-888.247130,5286.058936,13841.851115
1055.969178,-3182.885551,8197.221829,18357.107362
1055.969508,-4219.173869,7277.907231,19245.354492
1055.969837,-4367.215058,1838.629195,16506.592507
1055.970167,-4737.318029,-2221.676944,11991.336260
1055.970497,-5921.647536,-2145.067394,8956.491898
1055.970826,-5921.647536,-1072.533697,7105.977043
1055.971156,-4515.256246,-1225.752797,5403.503377
1055.971486,-1110.308913,-1302.362347,2590.720797
1055.971815,2368.659014,-2451.505594,2664.741391
1055.972145,3775.050304,-1991.848295,2072.576638
1055.972475,3627.009116,536.266849,3552.988522
1055.972804,2590.720797,1378.971896,7550.100608
1055.973134,0.000000,3600.648841,14656.077652
1055.973464,-2368.659014,6741.640382,19911.539840
1055.973793,-3849.070898,5669.106685,20429.683999
1055.974123,-3849.070898,1455.581446,17394.839637
1055.974453,-4515.256246,-842.705048,13989.892304
1055.974782,-4145.153275,-2068.457845,11177.109724
1055.975112,-2368.659014,-2604.724693,8956.491898
1055.975442,-1406.391290,-995.924147,5773.606348
1055.975771,1184.329507,229.828649,3849.070898
1055.976101,3256.906145,-1915.238745,2886.803174
1055.976431,4737.318029,-995.924147,3478.967927
1055.976760,4145.153275,2068.457845,6143.709319
1055.977090,2220.617826,3294.210641,9178.553681
1055.977420,0.000000,4290.134789,14137.933492
1055.977749,-2590.720797,5669.106685,16728.654289
1055.978079,-4219.173869,3447.429741,17172.777854
1055.978409,-4737.318029,919.314598,14804.118840
1055.978738,-5033.400406,689.485948,12287.418637
1055.979068,-4737.318029,-689.485948,9918.759623
1055.979398,-4737.318029,-612.876398,8586.388927
1055.979727,-3775.050304,536.266849,4071.132681
1055.980057,740.205942,0.000000,1110.308913
1055.980387,5773.606348,-2604.724693,592.164754
1055.980716,7105.977043,-1302.362347,888.247130
1055.981046,4959.379811,2987.772442,5329.482782
1055.981376,1332.370696,4979.620737,9252.574275
1055.981705,-1924.535449,7431.126331,14063.912898
1055.982035,-2960.823768,8273.831378,17912.983796
1055.982365,-4219.173869,5822.325785,17838.963202
1055.982694,-4367.215058,766.095498,15470.304188
1055.983024,-5403.503377,-1991.848295,11991.336260
1055.983354,-6069.688724,-1532.190996,9400.615463
1055.983683,-6291.750507,-995.924147,7920.203579
1055.984013,-4737.318029,-306.438199,4737.318029
1055.984343,-740.205942,-995.924147,2516.700203
1055.984672,3552.988522,-4213.525239,1480.411884
1055.985002,5033.400406,-2298.286494,1924.535449
1055.985331,3775.050304,1225.752797,3923.091493
1055.985661,2442.679609,2681.334243,8216.285956
1055.985991,0.000000,4673.182538,14508.036463
1055.986320,-2072.576638,6435.202183,20059.581028
1055.986650,-3627.009116,5132.839837,21095.869347
1055.986980,-3923.091493,1302.362347,18431.127956
1055.987309,-5329.482782,76.609550,13693.809927
1055.987639,-3923.091493,-1378.971896,10436.903782
1055.987969,-2368.659014,-3983.696590,7846.182985
1055.988298,-1110.308913,-2681.334243,4515.256246
1055.988628,1110.308913,-1378.971896,2738.761985
1055.988958,3108.864956,-4060.306139,1776.494261
1055.989287,4145.153275,-919.314598,2368.659014
1055.989617,3034.844362,612.876398,5181.441594
1055.989947,1776.494261,1225.752797,10066.800811
1055.990276,-1184.329507,3294.210641,15470.304188
1055.990606,-4071.132681,5898.935335,18061.024985
1055.990936,-4737.318029,3677.258390,18135.045579
1055.991265,-4885.359217,0.000000,16580.613101
1055.991595,-5329.482782,0.000000,13693.809927
1055.991925,-4811.338623,-1302.362347,10955.047942
1055.992254,-3627.009116,-2068.457845,7179.997637
1055.992584,-1554.432478,-766.095498,3404.947333
1055.992914,2886.803174,-995.924147,1702.473667
1055.993243,6217.729913,-2068.457845,3256.906145
1055.993573,5921.647536,1455.581446,3182.885551
1055.993903,3478.967927,2987.772442,5033.400406
1055.994232,1554.432478,4060.306139,9326.594869
1055.994562,-370.102971,5439.278036,15396.283594
1055.994892,-2664.741391,6358.592633,18579.169144
1055.995221,-4663.297435,4213.525239,17172.777854
1055.995551,-5329.482782,459.657299,13841.851115
1055.995881,-5921.647536,-1762.019645,11103.089130
1055.996210,-5921.647536,-1532.190996,9474.636058
1055.996540,-5625.565159,-612.876398,7624.121203
1055.996870,-3701.029710,76.609550,3552.988522
1055.997199,0.000000,-842.705048,-0.000000
1055.997529,4959.379811,-2451.505594,-222.061783
1055.997859,5995.668130,-995.924147,2368.659014
1055.998188,4071.132681,1915.238745,4071.132681
1055.998518,666.185348,3600.648841,8586.388927
1055.998848,-1554.432478,5515.887586,14804.118840
1055.999177,-3182.885551,6894.859482,19837.519246
1055.999507,-4367.215058,4596.572988,20947.828159
1055.999837,-4367.215058,0.000000,16580.613101
1056.000166,-4959.379811,-1762.019645,12139.377449
1056.000496,-4219.173869,-2298.286494,9326.594869
1056.000826,-3108.864956,-2987.772442,8438.347739
1056.001155,-1554.432478,-1685.410096,5403.503377
1056.001485,444.123565,-995.924147,3108.864956
1056.001815,4589.276840,-2911.162892,1628.453072
1056.002144,5255.462188,-459.657299,3256.906145
1056.002474,3775.050304,1072.533697,5847.626942
1056.002804,1702.473667,1302.362347,10658.965565
1056.003133,-1184.329507,3524.039291,16358.551318
1056.003463,-3108.864956,6052.154434,19837.519246
1056.003793,-3923.091493,3600.648841,19763.498651
1056.004122,-4441.235652,0.000000,16580.613101
1056.004452,-5403.503377,-1532.190996,13249.686362
1056.004782,-4737.318029,-1762.019645,10362.883188
1056.005111,-3256.906145,-995.924147,7550.100608
1056.005441,-222.061783,1072.533697,2738.761985
1056.005771,3108.864956,-1149.143247,1776.494261
1056.006100,5329.482782,-1532.190996,1110.308913
1056.006430,5181.441594,459.657299,2146.597232
1056.006760,3330.926739,1378.971896,5255.462188
1056.007089,0.000000,3830.477490,9696.697840
1056.007419,-3108.864956,5898.935335,15692.365970
1056.007749,-4515.256246,5056.230287,18505.148550
1056.008078,-5181.441594,2451.505594,16950.716072
1056.008408,-5477.523971,0.000000,13397.727550
1056.008738,-5403.503377,-1608.800546,11029.068536
1056.009067,-5699.585753,-1608.800546,10362.883188
1056.009397,-5551.544565,766.095498,8068.244768
1056.009727,-2886.803174,1378.971896,3256.906145
1056.010056,1702.473667,-1685.410096,-0.000000
1056.010386,6069.688724,-2987.772442,-0.000000
1056.010716,6587.832884,-612.876398,2812.782580
1056.011045,4589.276840,1685.410096,5773.606348
1056.011375,1036.288319,4443.353888,10584.944971
1056.011705,-1924.535449,6588.421283,15618.345376
1056.012034,-3478.967927,5822.325785,19467.416275
1056.012364,-3552.988522,1455.581446,19763.498651
1056.012693,-4219.173869,-536.266849,15988.448347
1056.013023,-4737.318029,-1838.629195,11991.336260
1056.013353,-4589.276840,-2068.457845,9696.697840
1056.013682,-3701.029710,-2068.457845,7846.182985
1056.014012,-2220.617826,-612.876398,5255.462188
1056.014342,1554.432478,-1685.410096,1480.411884
1056.014671,4885.359217,-2987.772442,2146.597232
1056.015001,4811.338623,-612.876398,3256.906145
1056.015331,3404.947333,1072.533697,5921.647536
1056.015660,888.247130,2528.115143,11177.109724
1056.015990,-1924.535449,4443.353888,16728.654289
1056.016320,-3627.009116,5515.887586,20207.622217
1056.016649,-4219.173869,2834.553343,19541.436869
1056.016979,-5033.400406,153.219100,16062.468941
1056.017309,-5625.565159,-1072.533697,12731.542202
1056.017638,-4515.256246,-2068.457845,10214.842000
1056.017968,-3256.906145,-842.705048,7698.141797
1056.018298,-888.247130,612.876398,2294.638420
1056.018627,3182.885551,-1762.019645,1406.391290
1056.018957,6587.832884,-2757.943793,962.267725
1056.019287,6217.729913,-229.828649,2368.659014
1056.019616,3478.967927,2757.943793,5403.503377
1056.019946,0.000000,4903.011187,10510.924376
1056.020276,-2516.700203,6665.030833,15840.407159
1056.020605,-3701.029710,6128.763984,18653.189738
1056.020935,-4219.173869,2757.943793,17468.860231
1056.021265,-5107.421000,-306.438199,13693.809927
1056.021594,-5921.647536,-2068.457845,10955.047942
1056.021924,-6365.771101,-1149.143247,9622.677246
1056.022254,-6217.729913,0.000000,7254.018232
1056.022583,-3182.885551,1072.533697,3849.070898
1056.022913,2220.617826,-1149.143247,666.185348
1056.023243,5699.585753,-1915.238745,518.144159
1056.023572,6143.709319,0.000000,2220.617826
1056.023902,3775.050304,1685.410096,4737.318029
1056.024232,592.164754,2757.943793,10214.842000
1056.024561,-2368.659014,6128.763984,16728.654289
1056.024891,-4737.318029,7660.954980,20281.642811
1056.025221,-5033.400406,2987.772442,19171.333898
1056.025550,-5329.482782,-766.095498,15544.324782
1056.025880,-5551.544565,-1991.848295,11843.295072
1056.026210,-4589.276840,-1762.019645,10066.800811
1056.026539,-3034.844362,-2987.772442,7920.203579
1056.026869,-1480.411884,-1072.533697,3404.947333
1056.027199,2738.761985,-2221.676944,1184.329507
1056.027528,5699.585753,-2451.505594,2146.597232
1056.027858,6661.853478,1225.752797,3552.988522
1056.028188,4811.338623,3677.258390,6291.750507
1056.028517,2516.700203,3294.210641,11325.150913
1056.028847,-740.205942,4596.572988,17690.922014
1056.029177,-3775.050304,5439.278036,20577.725188
1056.029506,-5551.544565,2298.286494,19689.478057
1056.029836,-6809.894666,-766.095498,15766.386565
1056.030166,-7105.977043,-1685.410096,12213.398043
1056.030495,-6069.688724,-2298.286494,10214.842000
1056.030825,-4441.235652,-2681.334243,6957.935855
1056.031155,-814.226536,-1532.190996,3034.844362
1056.031484,3552.988522,-1915.238745,1258.350101
1056.031814,6587.832884,-1532.190996,1036.288319
1056.032144,6365.771101,995.924147,2664.741391
1056.032473,3997.112087,2757.943793,5625.565159
1056.032803,1036.288319,4290.134789,11769.274478
1056.033133,-1110.308913,8120.612279,17246.798449
1056.033462,-2738.761985,7507.735880,19689.478057
1056.033792,-3552.988522,2604.724693,17764.942608
1056.034122,-4589.276840,-1455.581446,14211.954086
1056.034451,-5625.565159,-2221.676944,11103.089130
1056.034781,-5181.441594,-1149.143247,9400.615463
1056.035110,-4367.215058,-229.828649,6735.874072
1056.035440,-1776.494261,1225.752797,2886.803174
1056.035769,3034.844362,-766.095498,296.082377
1056.036099,6513.812290,-1149.143247,1480.411884
1056.036429,5847.626942,1225.752797,2146.597232
1056.036758,2442.679609,2681.334243,4293.194464
1056.037088,-814.226536,3753.867940,10140.821405
1056.037417,-3701.029710,6205.373534,16950.716072
1056.037747,-5477.523971,6435.202183,20725.766376
1056.038077,-6069.688724,2451.505594,19171.333898
1056.038406,-7105.977043,-1378.971896,14211.954086
1056.038736,-6883.915261,-2451.505594,11251.130318
1056.039065,-4885.359217,-2145.067394,9918.759623
1056.039395,-3182.885551,-1072.533697,7179.997637
1056.039724,296.082377,1378.971896,2516.700203
1056.040054,3552.988522,-1378.971896,370.102971
1056.040384,7698.141797,-1608.800546,814.226536
1056.040713,6883.915261,2145.067394,3775.050304
1056.041043,4219.173869,4519.963438,6735.874072
1056.041372,592.164754,4903.011187,11473.192101
1056.041702,-2368.659014,5209.449386,15618.345376
1056.042032,-4145.153275,3140.991542,18949.272115
1056.042361,-4441.235652,-766.095498,18579.169144
1056.042691,-5995.668130,-2604.724693,15026.180623
1056.043020,-7031.956449,-2451.505594,11991.336260
1056.043350,-5847.626942,-2068.457845,11769.274478
1056.043680,-4219.173869,-1149.143247,9178.553681
1056.044009,-1258.350101,153.219100,5625.565159
1056.044339,4885.359217,-1072.533697,2072.576638
1056.044668,8216.285956,-612.876398,2294.638420
1056.044998,8216.285956,2068.457845,3034.844362
1056.045327,5255.462188,3447.429741,6439.791695
1056.045657,1998.556043,4903.011187,11547.212695
1056.045987,-1554.432478,6894.859482,17394.839637
1056.046316,-3330.926739,7201.297681,20503.704593
1056.046646,-4515.256246,2451.505594,17912.983796
1056.046975,-5625.565159,-2757.943793,13323.706956
1056.047305,-6957.935855,-3753.867940,10288.862594
1056.047635,-7105.977043,-1608.800546,8438.347739
1056.047964,-6143.709319,76.609550,6957.935855
1056.048294,-2368.659014,766.095498,2368.659014
1056.048623,2294.638420,-689.485948,370.102971
1056.048953,6143.709319,-2451.505594,-444.123565
1056.049282,5625.565159,0.000000,1776.494261
1056.049612,2294.638420,3677.258390,3997.112087
1056.049942,-1184.329507,5286.058936,9252.574275
1056.050271,-3478.967927,6281.983084,15988.448347
1056.050601,-5033.400406,5822.325785,20281.642811
1056.050930,-5181.441594,2068.457845,19097.313304
1056.051260,-6513.812290,-1991.848295,14434.015869
1056.051590,-6661.853478,-2528.115143,10584.944971
1056.051919,-4737.318029,-2298.286494,9104.533087
1056.052249,-2590.720797,-2451.505594,6661.853478
1056.052578,814.226536,0.000000,4071.132681
1056.052908,3478.967927,-919.314598,2442.679609
1056.053237,5995.668130,-153.219100,2146.597232
1056.053567,5995.668130,2145.067394,4219.173869
1056.053897,4515.256246,2221.676944,7846.182985
1056.054226,1480.411884,2834.553343,12953.603985
1056.054556,-1332.370696,4519.963438,17542.880825
1056.054885,-3997.112087,3370.820191,19763.498651
1056.055215,-5181.441594,459.657299,18505.148550
1056.055545,-6661.853478,-1762.019645,15544.324782
1056.055874,-6217.729913,-2604.724693,13175.665768
1056.056204,-5033.400406,-2145.067394,11251.130318
1056.056533,-3182.885551,-229.828649,7698.141797
1056.056863,666.185348,0.000000,2442.679609
1056.057192,5625.565159,-1149.143247,1850.514855
1056.057522,7328.038826,-229.828649,1554.432478
1056.057852,6365.771101,2757.943793,2738.761985
1056.058181,3775.050304,4596.572988,6587.832884
1056.058511,222.061783,5745.716235,11917.315666
1056.058840,-3182.885551,7660.954980,16506.592507
1056.059170,-4441.235652,5822.325785,18061.024985
1056.059500,-4737.318029,766.095498,15174.221811
1056.059829,-5403.503377,-2757.943793,12287.418637
1056.060159,-7105.977043,-2451.505594,10955.047942
1056.060488,-7772.162391,-306.438199,9474.636058
1056.060818,-6365.771101,1685.410096,7994.224174
1056.061148,-1850.514855,2068.457845,3108.864956
1056.061477,3997.112087,995.924147,-592.164754
1056.061807,7846.182985,-2068.457845,-1184.329507
1056.062136,8586.388927,76.609550,2442.679609
1056.062466,4589.276840,5669.106685,6069.688724
1056.062795,-888.247130,7814.174080,10214.842000
1056.063125,-3404.947333,6971.469032,15840.407159
