#time,accel_x,accel_y,accel_z
1084.503205,-962.267725,919.314598,9696.697840
1084.503534,-666.185348,459.657299,9474.636058
1084.503864,-1110.308913,1149.143247,9474.636058
1084.504194,-1258.350101,766.095498,9474.636058
1084.504524,-1110.308913,766.095498,9474.636058
1084.504853,-1184.329507,766.095498,9474.636058
1084.505183,-888.247130,536.266849,9770.718434
1084.505513,-1036.288319,842.705048,9474.636058
1084.505842,-1036.288319,919.314598,9474.636058
1084.506172,-962.267725,842.705048,9622.677246
1084.506502,-962.267725,919.314598,9474.636058
1084.506831,-962.267725,1072.533697,9474.636058
1084.507161,-888.247130,689.485948,9474.636058
1084.507491,-888.247130,766.095498,9474.636058
1084.507820,-1036.288319,1072.533697,9696.697840
1084.508150,-1036.288319,766.095498,9622.677246
1084.508480,-962.267725,689.485948,9622.677246
1084.508810,-888.247130,1378.971896,9622.677246
1084.509139,-666.185348,919.314598,9400.615463
1084.509469,-962.267725,919.314598,9770.718434
1084.509799,-888.247130,766.095498,9474.636058
1084.510128,-1184.329507,1072.533697,9400.615463
1084.510458,-666.185348,1608.800546,9474.636058
1084.510788,-1036.288319,995.924147,9474.636058
1084.511117,-962.267725,612.876398,9548.656652
1084.511447,-1036.288319,1072.533697,9474.636058
1084.511777,-1110.308913,842.705048,9474.636058
1084.512107,-962.267725,1149.143247,9474.636058
1084.512436,-814.226536,842.705048,9178.553681
1084.512766,-1110.308913,919.314598,9548.656652
1084.513096,-962.267725,766.095498,9474.636058
1084.513425,-1110.308913,919.314598,9474.636058
1084.513755,-962.267725,919.314598,9548.656652
1084.514085,-1110.308913,1685.410096,9400.615463
1084.514414,-1036.288319,612.876398,9622.677246
1084.514744,-888.247130,842.705048,9696.697840
1084.515074,-1036.288319,1149.143247,9622.677246
1084.515404,-1036.288319,919.314598,9548.656652
1084.515733,-1184.329507,766.095498,9474.636058
1084.516063,-1110.308913,1072.533697,9622.677246
1084.516393,-888.247130,766.095498,9622.677246
1084.516722,-814.226536,842.705048,9548.656652
1084.517052,-962.267725,842.705048,9696.697840
1084.517382,-592.164754,612.876398,9474.636058
1084.517711,-1036.288319,383.047749,9474.636058
1084.518041,-1110.308913,766.095498,9696.697840
1084.518371,-1110.308913,995.924147,9400.615463
1084.518700,-1110.308913,612.876398,9548.656652
1084.519030,-888.247130,842.705048,9770.718434
1084.519360,-814.226536,842.705048,9770.718434
1084.519690,-1184.329507,995.924147,9548.656652
1084.520019,-1110.308913,919.314598,9622.677246
1084.520349,-962.267725,766.095498,9622.677246
1084.520679,-888.247130,919.314598,9622.677246
1084.521008,-1184.329507,1378.971896,9474.636058
1084.521338,-1332.370696,995.924147,9400.615463
1084.521668,-1110.308913,1072.533697,9548.656652
1084.521997,-962.267725,766.095498,9474.636058
1084.522327,-962.267725,1225.752797,9474.636058
1084.522657,-1110.308913,612.876398,9474.636058
1084.522987,-1036.288319,1072.533697,9548.656652
1084.523316,-1036.288319,842.705048,9474.636058
1084.523646,-1184.329507,766.095498,9474.636058
1084.523976,-1110.308913,995.924147,9770.718434
1084.524305,-1258.350101,919.314598,9696.697840
1084.524635,-1036.288319,1149.143247,9104.533087
1084.524965,-962.267725,1072.533697,9474.636058
1084.525294,-814.226536,1072.533697,9622.677246
1084.525624,-888.247130,919.314598,9252.574275
1084.525954,-296.082377,919.314598,8956.491898
1084.526284,518.144159,306.438199,9326.594869
1084.526613,814.226536,995.924147,9326.594869
1084.526943,740.205942,766.095498,9178.553681
1084.527273,518.144159,689.485948,9474.636058
1084.527602,0.000000,689.485948,10214.842000
1084.527932,-518.144159,383.047749,10214.842000
1084.528262,-296.082377,919.314598,10658.965565
1084.528591,-592.164754,536.266849,10362.883188
1084.528921,-148.041188,0.000000,9400.615463
1084.529251,1110.308913,0.000000,9400.615463
1084.529580,1998.556043,-229.828649,9030.512492
1084.529910,2960.823768,536.266849,8660.409521
1084.530240,3330.926739,1225.752797,8808.450710
1084.530570,3478.967927,1532.190996,9178.553681
1084.530899,3404.947333,2145.067394,9474.636058
1084.531229,3330.926739,1685.410096,9918.759623
1084.531559,2812.782580,842.705048,9992.780217
1084.531888,2220.617826,536.266849,10288.862594
1084.532218,1406.391290,536.266849,10584.944971
1084.532548,1184.329507,0.000000,10658.965565
1084.532877,1776.494261,0.000000,10436.903782
1084.533207,2220.617826,-383.047749,9770.718434
1084.533537,3182.885551,536.266849,8660.409521
1084.533867,3849.070898,153.219100,9178.553681
1084.534196,4515.256246,1225.752797,9104.533087
1084.534526,4219.173869,2451.505594,9474.636058
1084.534856,3256.906145,2757.943793,9844.739029
1084.535185,1702.473667,2987.772442,10214.842000
1084.535515,0.000000,2757.943793,10362.883188
1084.535845,-1702.473667,2374.896044,9622.677246
1084.536174,-1776.494261,766.095498,9104.533087
1084.536504,-962.267725,-612.876398,8068.244768
1084.536834,740.205942,-1532.190996,6661.853478
1084.537164,2368.659014,-995.924147,6883.915261
1084.537493,3330.926739,-306.438199,6957.935855
1084.537823,3701.029710,1072.533697,7698.141797
1084.538153,3182.885551,2987.772442,9474.636058
1084.538482,1776.494261,4903.011187,11251.130318
1084.538812,1184.329507,3753.867940,11917.315666
1084.539142,0.000000,2757.943793,12583.501014
1084.539471,-888.247130,1608.800546,12287.418637
1084.539801,-1184.329507,-919.314598,11325.150913
1084.540131,-888.247130,-2221.676944,10807.006753
1084.540460,-148.041188,-2451.505594,9104.533087
1084.540790,962.267725,-2221.676944,8512.368333
1084.541120,2664.741391,-995.924147,7920.203579
1084.541450,4071.132681,0.000000,7476.080014
1084.541779,4663.297435,1072.533697,7476.080014
1084.542109,4367.215058,2298.286494,7772.162391
1084.542439,4071.132681,3600.648841,9104.533087
1084.542768,3108.864956,4136.915689,10066.800811
1084.543098,2368.659014,3217.601092,10732.986159
1084.543428,1628.453072,1838.629195,11177.109724
1084.543757,592.164754,459.657299,11177.109724
1084.544087,0.000000,-383.047749,10881.027347
1084.544417,-814.226536,-1149.143247,10584.944971
1084.544747,-740.205942,-995.924147,10658.965565
1084.545076,-222.061783,-995.924147,10584.944971
1084.545406,296.082377,-842.705048,10214.842000
1084.545736,1258.350101,229.828649,8956.491898
1084.546065,2220.617826,459.657299,7846.182985
1084.546395,3552.988522,0.000000,7698.141797
1084.546725,4737.318029,612.876398,7994.224174
1084.547054,5107.421000,306.438199,7994.224174
1084.547384,4737.318029,459.657299,8734.430116
1084.547714,4145.153275,1762.019645,9770.718434
1084.548044,2738.761985,2145.067394,10510.924376
1084.548373,1554.432478,2451.505594,11103.089130
1084.548703,1406.391290,2221.676944,11177.109724
1084.549033,1554.432478,2145.067394,10510.924376
1084.549362,1554.432478,1378.971896,9844.739029
1084.549692,1628.453072,1302.362347,8882.471304
1084.550022,2516.700203,306.438199,8068.244768
1084.550351,3034.844362,-229.828649,7772.162391
1084.550681,3034.844362,459.657299,8068.244768
1084.551011,2146.597232,1225.752797,8438.347739
1084.551340,1406.391290,842.705048,9326.594869
1084.551670,0.000000,1072.533697,9770.718434
1084.552000,-1628.453072,1455.581446,10510.924376
1084.552330,-1998.556043,536.266849,11399.171507
1084.552659,-1702.473667,76.609550,11843.295072
1084.552989,-2516.700203,153.219100,11029.068536
1084.553319,-1850.514855,-612.876398,10066.800811
1084.553648,370.102971,-919.314598,9400.615463
1084.553978,2442.679609,-306.438199,8512.368333
1084.554308,4811.338623,1378.971896,7624.121203
1084.554637,7476.080014,2374.896044,7550.100608
1084.554967,9474.636058,3294.210641,8290.306550
1084.555297,9474.636058,4136.915689,9104.533087
1084.555627,7772.162391,5362.668486,10510.924376
1084.555956,5329.482782,5439.278036,11547.212695
1084.556286,2738.761985,4136.915689,13027.624579
1084.556616,-1110.308913,1378.971896,14211.954086
1084.556945,-5107.421000,0.000000,13545.768739
1084.557275,-7624.121203,-1378.971896,12065.356855
1084.557605,-7254.018232,-3140.991542,9770.718434
1084.557934,-4885.359217,-3370.820191,6143.709319
1084.558264,-296.082377,-3907.087040,2516.700203
1084.558594,5033.400406,-4060.306139,1628.453072
1084.558924,8882.471304,-1762.019645,2220.617826
1084.559253,9252.574275,3064.381992,4737.318029
1084.559583,8216.285956,7124.688131,8216.285956
1084.559913,6365.771101,8886.707777,11251.130318
1084.560242,2886.803174,9652.803275,13989.892304
1084.560572,-740.205942,6894.859482,15174.221811
1084.560902,-3552.988522,2221.676944,15914.427753
1084.561231,-5477.523971,-1762.019645,15692.365970
1084.561561,-6069.688724,-3753.867940,13545.768739
1084.561891,-4293.194464,-5056.230287,10955.047942
1084.562220,-370.102971,-6205.373534,7550.100608
1084.562550,4737.318029,-5822.325785,4293.194464
1084.562880,9622.677246,-3524.039291,2294.638420
1084.563210,13397.727550,-919.314598,3552.988522
1084.563539,13397.727550,2834.553343,7772.162391
1084.563869,8512.368333,7660.954980,10881.027347
1084.564199,2368.659014,9806.022374,13545.768739
1084.564528,-1776.494261,8350.440928,14804.118840
1084.564858,-2960.823768,4366.744339,15100.201217
1084.565188,-2294.638420,-459.657299,13545.768739
1084.565517,-1924.535449,-4903.011187,9474.636058
1084.565847,-592.164754,-7431.126331,5847.626942
1084.566177,2072.576638,-7277.907231,4293.194464
1084.566507,2886.803174,-4673.182538,6439.791695
1084.566836,2664.741391,76.609550,8216.285956
1084.567166,1036.288319,3370.820191,8512.368333
1084.567496,1258.350101,5286.058936,9548.656652
1084.567825,2590.720797,5592.497135,11843.295072
1084.568155,3182.885551,4136.915689,12953.603985
1084.568485,2368.659014,1532.190996,12583.501014
1084.568814,74.020594,-995.924147,11769.274478
1084.569144,-2220.617826,-1915.238745,11473.192101
1084.569474,-4219.173869,-2145.067394,10436.903782
1084.569804,-2960.823768,-3217.601092,8438.347739
1084.570133,740.205942,-4213.525239,6439.791695
1084.570463,5847.626942,-3294.210641,4885.359217
1084.570793,9400.615463,-842.705048,5255.462188
1084.571122,11029.068536,2834.553343,5255.462188
1084.571452,10510.924376,4903.011187,7254.018232
1084.571782,7402.059420,6511.811733,10732.986159
1084.572111,3034.844362,9422.974625,13693.809927
1084.572441,-518.144159,9039.926876,15396.283594
1084.572771,-2442.679609,3064.381992,16062.468941
1084.573101,-4663.297435,-2451.505594,15100.201217
1084.573430,-6809.894666,-4443.353888,12731.542202
1084.573760,-6365.771101,-5515.887586,10732.986159
1084.574090,-5107.421000,-5975.544884,9252.574275
1084.574419,-4811.338623,-3753.867940,7031.956449
1084.574749,-2516.700203,-1302.362347,3552.988522
1084.575079,3478.967927,-383.047749,2664.741391
1084.575408,10362.883188,536.266849,4145.153275
1084.575738,12361.439231,4749.792088,5995.668130
1084.576068,11029.068536,8963.317327,6883.915261
1084.576398,9030.512492,8427.050478,9918.759623
1084.576727,5847.626942,9193.145976,12361.439231
1084.577057,2220.617826,9576.193725,13767.830521
1084.577387,1036.288319,5286.058936,14508.036463
1084.577717,296.082377,-1608.800546,15544.324782
1084.578046,-1702.473667,-2068.457845,13101.645173
1084.578376,-3849.070898,-2834.553343,10955.047942
1084.578706,-3701.029710,-4903.011187,10066.800811
1084.579035,-3330.926739,-1608.800546,8808.450710
1084.579365,-962.267725,1685.410096,6587.832884
1084.579695,3849.070898,0.000000,2960.823768
1084.580025,9104.533087,229.828649,-0.000000
1084.580354,12213.398043,1608.800546,1480.411884
1084.580684,11991.336260,1302.362347,5551.544565
1084.581014,6587.832884,5515.887586,9844.739029
1084.581344,1184.329507,9806.022374,11843.295072
1084.581673,148.041188,5745.716235,14211.954086
1084.582003,-1184.329507,995.924147,16432.571912
1084.582333,-2590.720797,-306.438199,17024.736666
1084.582662,-3478.967927,-4290.134789,15026.180623
1084.582992,-5921.647536,-6588.421283,9992.780217
1084.583322,-8808.450710,-2757.943793,6661.853478
1084.583652,-6513.812290,-2528.115143,7105.977043
1084.583981,-222.061783,-3600.648841,7476.080014
1084.584311,4515.256246,-2451.505594,6291.750507
1084.584641,5477.523971,-459.657299,6735.874072
1084.584971,6143.709319,2451.505594,5921.647536
1084.585300,5181.441594,4596.572988,8142.265362
1084.585630,4589.276840,3600.648841,12509.480420
1084.585960,3182.885551,4596.572988,16580.613101
1084.586289,-592.164754,6588.421283,17616.901420
1084.586619,-4589.276840,4596.572988,15988.448347
1084.586949,-7698.141797,-919.314598,11621.233289
1084.587279,-7476.080014,-3753.867940,8956.491898
1084.587608,-3701.029710,-6665.030833,7698.141797
1084.587938,1258.350101,-7431.126331,6661.853478
1084.588268,2664.741391,-3447.429741,5329.482782
1084.588598,1998.556043,-1302.362347,4441.235652
1084.588927,1998.556043,459.657299,4737.318029
1084.589257,2442.679609,4060.306139,8512.368333
1084.589587,3256.906145,7354.516781,13249.686362
1084.589916,2516.700203,10035.851024,15396.283594
1084.590246,-1628.453072,8810.098227,14508.036463
1084.590576,-6217.729913,4136.915689,11325.150913
1084.590906,-8808.450710,76.609550,8882.471304
1084.591235,-7624.121203,-2221.676944,8438.347739
1084.591565,-3034.844362,-3753.867940,7179.997637
1084.591895,0.000000,-5669.106685,5699.585753
1084.592225,1406.391290,-4673.182538,2812.782580
1084.592554,2664.741391,-2221.676944,444.123565
1084.592884,6661.853478,-1378.971896,2368.659014
1084.593214,8660.409521,2987.772442,7031.956449
1084.593543,6513.812290,8656.879127,12509.480420
1084.593873,1776.494261,12104.308868,15618.345376
1084.594203,-3256.906145,9652.803275,16580.613101
1084.594533,-6587.832884,2604.724693,17542.880825
1084.594862,-8068.244768,536.266849,16432.571912
1084.595192,-8512.368333,-919.314598,12953.603985
1084.595522,-6587.832884,-4519.963438,8364.327145
1084.595852,-2960.823768,-8273.831378,3923.091493
1084.596181,814.226536,-9959.241474,1110.308913
1084.596511,4589.276840,-7201.297681,2146.597232
1084.596841,6883.915261,1225.752797,4219.173869
1084.597170,6365.771101,8503.660028,7031.956449
1084.597500,5477.523971,9806.022374,11547.212695
1084.597830,2368.659014,9806.022374,16580.613101
1084.598160,-3552.988522,8810.098227,17764.942608
1084.598489,-8290.306550,6281.983084,16802.674883
1084.598819,-10288.862594,4443.353888,16506.592507
1084.599149,-9252.574275,459.657299,13989.892304
1084.599479,-6883.915261,-8120.612279,9696.697840
1084.599808,-4219.173869,-13483.280765,5181.441594
1084.600138,-1332.370696,-8963.317327,2590.720797
1084.600468,2442.679609,-2451.505594,2368.659014
1084.600798,6587.832884,536.266849,4959.379811
1084.601127,7994.224174,2834.553343,7402.059420
1084.601457,6217.729913,7737.564530,10214.842000
1084.601787,3552.988522,11721.261119,11621.233289
1084.602116,-296.082377,12334.137518,12435.459826
1084.602446,-3034.844362,8963.317327,14211.954086
1084.602776,-5625.565159,1915.238745,14359.995275
1084.603106,-6143.709319,-4060.306139,12805.562797
1084.603435,-6217.729913,-6894.859482,7772.162391
1084.603765,-4589.276840,-7967.393179,1702.473667
1084.604095,-222.061783,-8120.612279,1924.535449
1084.604425,3923.091493,-6358.592633,3182.885551
1084.604754,6217.729913,-2604.724693,4737.318029
1084.605084,4663.297435,2451.505594,7698.141797
1084.605414,0.000000,9959.241474,11103.089130
1084.605743,-3256.906145,14019.547613,13323.706956
1084.606073,-5921.647536,8810.098227,14582.057057
1084.606403,-6439.791695,2145.067394,15248.242405
1084.606733,-6365.771101,-1608.800546,13619.789333
1084.607062,-5773.606348,-4213.525239,10658.965565
1084.607392,-4441.235652,-9499.584175,7476.080014
1084.607722,-2960.823768,-10648.727422,6069.688724
1084.608052,-666.185348,-6511.811733,6883.915261
1084.608381,4071.132681,-1378.971896,6587.832884
1084.608711,7550.100608,1991.848295,7550.100608
1084.609041,7105.977043,4596.572988,8512.368333
1084.609370,3256.906145,8273.831378,11843.295072
1084.609700,0.000000,9116.536426,16506.592507
1084.610030,-2812.782580,9652.803275,19393.395680
1084.610360,-5699.585753,7814.174080,17468.860231
1084.610689,-7179.997637,2987.772442,13175.665768
1084.611019,-7105.977043,-5286.058936,8734.430116
1084.611349,-3701.029710,-10955.165621,5847.626942
1084.611679,296.082377,-9959.241474,5699.585753
1084.612008,2812.782580,-3753.867940,5181.441594
1084.612338,2812.782580,1455.581446,3775.050304
1084.612668,2294.638420,3217.601092,5847.626942
1084.612997,1554.432478,5669.106685,8734.430116
1084.613327,962.267725,10495.508323,11621.233289
1084.613657,-1110.308913,11951.089769,13249.686362
1084.613987,-2146.597232,9882.631924,11769.274478
1084.614316,-3256.906145,4136.915689,10510.924376
1084.614646,-3478.967927,-2221.676944,8586.388927
1084.614976,-3404.947333,-6435.202183,5847.626942
1084.615306,-1776.494261,-7277.907231,4737.318029
1084.615635,74.020594,-4136.915689,5477.523971
1084.615965,1776.494261,-1915.238745,6587.832884
1084.616295,2442.679609,0.000000,7698.141797
1084.616624,1702.473667,1455.581446,7846.182985
1084.616954,296.082377,5286.058936,8660.409521
1084.617284,0.000000,9499.584175,11621.233289
1084.617614,-1184.329507,8120.612279,13323.706956
1084.617943,-2590.720797,3370.820191,13101.645173
1084.618273,-3997.112087,0.000000,10955.047942
1084.618603,-3997.112087,-3524.039291,8142.265362
1084.618933,-1628.453072,-6205.373534,8142.265362
1084.619262,370.102971,-6052.154434,8956.491898
1084.619592,1480.411884,-2757.943793,7179.997637
1084.619922,1776.494261,-2221.676944,7105.977043
1084.620251,1110.308913,-1302.362347,9400.615463
1084.620581,-1258.350101,4290.134789,12361.439231
1084.620911,-3404.947333,8886.707777,15396.283594
1084.621241,-3923.091493,7201.297681,17542.880825
1084.621570,-5403.503377,5209.449386,17172.777854
1084.621900,-6143.709319,2298.286494,14137.933492
1084.622230,-5477.523971,-3447.429741,8882.471304
1084.622560,-2812.782580,-7431.126331,5995.668130
1084.622889,370.102971,-6818.249932,6587.832884
1084.623219,2442.679609,-4136.915689,7031.956449
1084.623549,3775.050304,-2451.505594,8068.244768
1084.623878,2294.638420,842.705048,8068.244768
1084.624208,0.000000,4826.401637,8586.388927
1084.624538,-370.102971,8273.831378,10881.027347
1084.624868,296.082377,10265.679673,12435.459826
1084.625197,666.185348,7124.688131,11473.192101
1084.625527,740.205942,3217.601092,8660.409521
1084.625857,-370.102971,-689.485948,6291.750507
1084.626187,-1332.370696,-2374.896044,4145.153275
1084.626516,-2738.761985,-3907.087040,5107.421000
1084.626846,-3108.864956,-3677.258390,6883.915261
1084.627176,-2368.659014,229.828649,8438.347739
1084.627505,-2146.597232,1072.533697,8586.388927
1084.627835,-3034.844362,842.705048,8364.327145
1084.628165,-4367.215058,3140.991542,8290.306550
1084.628495,-4515.256246,5362.668486,9992.780217
1084.628824,-2664.741391,4749.792088,10584.944971
1084.629154,-2664.741391,2145.067394,10807.006753
1084.629484,-3552.988522,153.219100,9622.677246
1084.629814,-2664.741391,-1455.581446,7920.203579
1084.630143,-518.144159,-3753.867940,6809.894666
1084.630473,2516.700203,-3217.601092,6069.688724
1084.630803,4071.132681,-1685.410096,6069.688724
1084.631132,5107.421000,-919.314598,9474.636058
1084.631462,3108.864956,1532.190996,13915.871710
1084.631792,-1998.556043,4979.620737,15766.386565
1084.632122,-5551.544565,9422.974625,16876.695478
1084.632451,-5847.626942,7201.297681,17838.963202
1084.632781,-3775.050304,3600.648841,16506.592507
1084.633111,-3552.988522,-612.876398,12065.356855
1084.633441,-3034.844362,-4826.401637,7105.977043
1084.633770,-1184.329507,-6435.202183,5477.523971
1084.634100,222.061783,-4519.963438,6291.750507
1084.634430,592.164754,-383.047749,7550.100608
1084.634759,1332.370696,766.095498,8882.471304
1084.635089,74.020594,2451.505594,9400.615463
1084.635419,-1480.411884,5515.887586,9252.574275
1084.635749,-2220.617826,6818.249932,10955.047942
1084.636078,-1998.556043,6741.640382,11843.295072
1084.636408,-2590.720797,5286.058936,10584.944971
1084.636738,-2812.782580,1225.752797,8956.491898
1084.637068,-2146.597232,-1532.190996,6809.894666
1084.637397,-1332.370696,-3447.429741,4737.318029
1084.637727,1406.391290,-3447.429741,4589.276840
1084.638057,3627.009116,-2298.286494,5033.400406
1084.638386,4515.256246,-153.219100,6143.709319
1084.638716,3923.091493,2834.553343,7031.956449
1084.639046,1332.370696,4366.744339,8142.265362
1084.639376,-1850.514855,5822.325785,8956.491898
1084.639705,-3478.967927,6588.421283,11399.171507
1084.640035,-4219.173869,4443.353888,13175.665768
1084.640365,-4737.318029,1608.800546,12287.418637
1084.640695,-5773.606348,-2528.115143,9178.553681
1084.641024,-4515.256246,-5592.497135,5773.606348
1084.641354,-1776.494261,-7584.345430,5699.585753
1084.641684,1184.329507,-6665.030833,7179.997637
1084.642014,2590.720797,-2911.162892,8956.491898
1084.642343,1776.494261,919.314598,10510.924376
1084.642673,-148.041188,4213.525239,11769.274478
1084.643003,-2072.576638,6052.154434,13397.727550
1084.643332,-2146.597232,6128.763984,17024.736666
1084.643662,-2368.659014,5745.716235,17172.777854
1084.643992,-3775.050304,2604.724693,14359.995275
1084.644322,-3701.029710,-842.705048,12139.377449
1084.644651,-2072.576638,-4366.744339,9474.636058
1084.644981,370.102971,-6511.811733,8660.409521
1084.645311,1702.473667,-5056.230287,8068.244768
1084.645641,3404.947333,-1225.752797,8068.244768
1084.645970,4145.153275,2451.505594,8660.409521
1084.646300,2812.782580,2681.334243,11029.068536
1084.646630,-740.205942,6435.202183,10510.924376
1084.646959,-2886.803174,8273.831378,10807.006753
1084.647289,-2664.741391,5439.278036,11621.233289
1084.647619,-2738.761985,3830.477490,11399.171507
1084.647949,-2738.761985,1149.143247,10510.924376
1084.648278,-3701.029710,-2987.772442,5773.606348
1084.648608,-4441.235652,-4903.011187,2220.617826
1084.648938,-2146.597232,-4136.915689,2812.782580
1084.649268,1554.432478,-1762.019645,5107.421000
1084.649597,3034.844362,306.438199,6661.853478
1084.649927,1258.350101,3064.381992,7179.997637
1084.650257,-1776.494261,5669.106685,8068.244768
1084.650586,-3256.906145,8044.002729,9252.574275
1084.650916,-2516.700203,7048.078582,11029.068536
1084.651246,-3256.906145,2911.162892,11029.068536
1084.651576,-4293.194464,383.047749,10732.986159
1084.651905,-4515.256246,-1072.533697,9030.512492
1084.652235,-3182.885551,-4903.011187,6809.894666
1084.652565,-444.123565,-5822.325785,5477.523971
1084.652895,1184.329507,-4290.134789,5625.565159
1084.653224,4145.153275,-1149.143247,8808.450710
1084.653554,3849.070898,1762.019645,11547.212695
1084.653884,518.144159,5056.230287,12287.418637
1084.654213,-2368.659014,7431.126331,13101.645173
1084.654543,-3404.947333,6511.811733,15766.386565
1084.654873,-3701.029710,4749.792088,16358.551318
1084.655203,-3997.112087,1685.410096,15322.262999
1084.655532,-4737.318029,-2834.553343,12435.459826
1084.655862,-4219.173869,-5132.839837,8882.471304
1084.656192,-2220.617826,-6818.249932,8290.306550
1084.656522,370.102971,-5362.668486,9474.636058
1084.656851,2220.617826,-1685.410096,9696.697840
1084.657181,2442.679609,1455.581446,9992.780217
1084.657511,740.205942,4366.744339,10066.800811
1084.657840,-1184.329507,7431.126331,9474.636058
1084.658170,-1184.329507,7507.735880,11177.109724
1084.658500,-666.185348,5286.058936,12361.439231
1084.658830,-1628.453072,3064.381992,11473.192101
1084.659159,-3404.947333,1225.752797,8660.409521
1084.659489,-3034.844362,-2757.943793,5773.606348
1084.659819,-740.205942,-5286.058936,4071.132681
1084.660149,2220.617826,-4979.620737,4589.276840
1084.660478,4367.215058,-995.924147,5477.523971
1084.660808,4959.379811,2451.505594,6883.915261
1084.661138,2886.803174,4826.401637,7476.080014
1084.661467,-592.164754,6741.640382,7698.141797
1084.661797,-2220.617826,7737.564530,9474.636058
1084.662127,-2960.823768,6511.811733,12731.542202
1084.662457,-3849.070898,3753.867940,12435.459826
1084.662786,-5181.441594,842.705048,10214.842000
1084.663116,-5847.626942,-3294.210641,5847.626942
1084.663446,-4589.276840,-7431.126331,3330.926739
1084.663776,-1258.350101,-7737.564530,3849.070898
1084.664105,1554.432478,-4060.306139,6957.935855
1084.664435,2220.617826,306.438199,10510.924376
1084.664765,0.000000,3370.820191,12805.562797
1084.665094,-3256.906145,6741.640382,12287.418637
1084.665424,-3997.112087,7431.126331,13693.809927
1084.665754,-3849.070898,5439.278036,14656.077652
1084.666084,-2960.823768,3294.210641,14804.118840
1084.666413,-2294.638420,-536.266849,13545.768739
1084.666743,-1850.514855,-4519.963438,11029.068536
1084.667073,-2960.823768,-5898.935335,8438.347739
1084.667403,-1776.494261,-5209.449386,7994.224174
1084.667732,1258.350101,-3524.039291,9326.594869
1084.668062,3849.070898,-383.047749,10955.047942
1084.668392,4441.235652,3064.381992,12361.439231
1084.668721,2146.597232,5592.497135,11325.150913
1084.669051,-1332.370696,7507.735880,10066.800811
1084.669381,-2368.659014,7507.735880,11251.130318
1084.669711,-2442.679609,4673.182538,13693.809927
1084.670040,-3404.947333,1455.581446,12509.480420
1084.670370,-5773.606348,0.000000,8882.471304
1084.670700,-6957.935855,-5056.230287,4293.194464
1084.671030,-3108.864956,-6281.983084,2812.782580
1084.671359,740.205942,-5209.449386,3701.029710
1084.671689,3552.988522,-3524.039291,5255.462188
1084.672019,4441.235652,1685.410096,7254.018232
1084.672348,2442.679609,6971.469032,8142.265362
1084.672678,518.144159,8810.098227,7846.182985
1084.673008,0.000000,6511.811733,9770.718434
1084.673338,-1702.473667,6588.421283,12953.603985
1084.673667,-2738.761985,5898.935335,13471.748144
1084.673997,-2516.700203,-459.657299,11547.212695
1084.674326,-3627.009116,-2528.115143,6217.729913
1084.674656,-2960.823768,-4673.182538,2886.803174
1084.674985,444.123565,-8733.488677,3701.029710
1084.675315,3997.112087,-5515.887586,7031.956449
1084.675644,4441.235652,536.266849,10140.821405
1084.675974,666.185348,5132.839837,11399.171507
1084.676303,-2960.823768,6665.030833,11547.212695
1084.676633,-4219.173869,7507.735880,12583.501014
1084.676962,-3849.070898,5439.278036,14434.015869
1084.677292,-3923.091493,1455.581446,15174.221811
1084.677622,-4663.297435,-612.876398,13027.624579
1084.677951,-5477.523971,-3140.991542,10362.883188
1084.678281,-4811.338623,-6741.640382,9030.512492
1084.678610,-1924.535449,-6894.859482,9400.615463
1084.678940,1110.308913,-4366.744339,9696.697840
1084.679269,3404.947333,153.219100,10288.862594
1084.679599,2738.761985,3830.477490,11621.233289
1084.679928,1184.329507,7124.688131,11843.295072
1084.680258,0.000000,8044.002729,11177.109724
1084.680587,-888.247130,6358.592633,12435.459826
1084.680917,-2368.659014,6358.592633,13619.789333
1084.681246,-3701.029710,3677.258390,11843.295072
1084.681576,-4219.173869,-1838.629195,8364.327145
1084.681905,-3182.885551,-5898.935335,5329.482782
1084.682235,-962.267725,-6205.373534,4737.318029
1084.682564,1776.494261,-4213.525239,4589.276840
1084.682894,3775.050304,-1225.752797,5181.441594
1084.683223,3923.091493,2451.505594,7402.059420
1084.683553,1480.411884,7201.297681,8216.285956
1084.683882,-1110.308913,8886.707777,8068.244768
1084.684212,-1036.288319,6894.859482,11325.150913
1084.684541,-1924.535449,6971.469032,12583.501014
1084.684871,-3330.926739,5056.230287,11251.130318
1084.685200,-3330.926739,-306.438199,7920.203579
1084.685530,-3701.029710,-5132.839837,4589.276840
1084.685859,-2368.659014,-6435.202183,2294.638420
1084.686189,444.123565,-4979.620737,4293.194464
1084.686518,3552.988522,-3140.991542,7476.080014
1084.686848,3404.947333,1608.800546,11177.109724
1084.687177,-296.082377,6205.373534,11769.274478
1084.687507,-2590.720797,6741.640382,10214.842000
1084.687836,-2664.741391,5515.887586,12361.439231
1084.688166,-3182.885551,3524.039291,16210.510130
1084.688495,-5107.421000,3907.087040,16358.551318
1084.688825,-6069.688724,-306.438199,12953.603985
1084.689154,-5625.565159,-5209.449386,7994.224174
1084.689484,-3256.906145,-7507.735880,5181.441594
1084.689813,1184.329507,-9039.926876,6957.935855
1084.690143,4441.235652,-6358.592633,9548.656652
1084.690472,4515.256246,-229.828649,11325.150913
1084.690802,2516.700203,5822.325785,12361.439231
1084.691131,888.247130,8350.440928,11843.295072
1084.691461,-370.102971,7967.393179,12509.480420
1084.691790,-2220.617826,5669.106685,14656.077652
1084.692120,-4219.173869,4673.182538,14952.160028
1084.692449,-5329.482782,2681.334243,13249.686362
1084.692779,-4737.318029,-2374.896044,9400.615463
1084.693108,-5033.400406,-8273.831378,5551.544565
1084.693438,-3404.947333,-9116.536426,4367.215058
1084.693767,592.164754,-5209.449386,5329.482782
1084.694097,5403.503377,-2374.896044,5773.606348
1084.694426,5847.626942,1915.238745,7328.038826
1084.694756,1998.556043,6052.154434,7698.141797
1084.695086,222.061783,9346.365076,10362.883188
1084.695415,666.185348,8273.831378,13471.748144
1084.695745,-888.247130,8656.879127,12435.459826
1084.696074,-2220.617826,6281.983084,9992.780217
1084.696404,-1850.514855,-689.485948,6661.853478
1084.696733,-1258.350101,-5439.278036,4145.153275
1084.697063,-444.123565,-7277.907231,2368.659014
1084.697392,740.205942,-4979.620737,3849.070898
1084.697722,1776.494261,-1762.019645,7105.977043
1084.698051,1110.308913,2451.505594,10584.944971
1084.698381,-1480.411884,4979.620737,10658.965565
1084.698710,-3775.050304,6052.154434,9104.533087
1084.699040,-3627.009116,5286.058936,11473.192101
1084.699369,-4219.173869,4136.915689,14878.139434
1084.699699,-5995.668130,3524.039291,14582.057057
1084.700028,-6587.832884,-306.438199,11843.295072
1084.700358,-5625.565159,-4903.011187,7328.038826
1084.700687,-3627.009116,-6894.859482,5255.462188
1084.701017,0.000000,-7660.954980,6735.874072
1084.701346,3256.906145,-5056.230287,9474.636058
1084.701676,4589.276840,383.047749,11325.150913
1084.702005,2368.659014,4979.620737,12213.398043
1084.702335,-296.082377,7507.735880,12065.356855
1084.702664,-1702.473667,9193.145976,13915.871710
1084.702994,-2072.576638,8044.002729,15396.283594
1084.703323,-2294.638420,4903.011187,14582.057057
1084.703653,-2664.741391,1225.752797,12139.377449
1084.703982,-3182.885551,-2374.896044,9400.615463
1084.704312,-3775.050304,-6052.154434,7105.977043
1084.704641,-2368.659014,-6894.859482,5847.626942
1084.704971,74.020594,-4519.963438,6069.688724
1084.705300,3034.844362,-2374.896044,6883.915261
1084.705630,3108.864956,1991.848295,8586.388927
1084.705959,592.164754,4443.353888,9622.677246
1084.706289,-888.247130,6281.983084,10510.924376
1084.706618,-1628.453072,7890.783629,11917.315666
1084.706948,-2960.823768,6588.421283,11547.212695
1084.707277,-2812.782580,4596.572988,9918.759623
1084.707607,-2368.659014,0.000000,5773.606348
1084.707936,-888.247130,-4903.011187,2368.659014
1084.708266,592.164754,-6665.030833,1998.556043
1084.708595,1554.432478,-4596.572988,5181.441594
1084.708925,1998.556043,0.000000,7772.162391
1084.709254,666.185348,2451.505594,9178.553681
1084.709584,-1628.453072,3217.601092,10214.842000
1084.709913,-2664.741391,4290.134789,11695.253884
1084.710243,-2738.761985,4596.572988,14434.015869
1084.710572,-3552.988522,4213.525239,14804.118840
1084.710902,-4219.173869,2528.115143,12139.377449
1084.711231,-4145.153275,-689.485948,9548.656652
1084.711561,-2072.576638,-4290.134789,5921.647536
1084.711890,814.226536,-7354.516781,4515.256246
1084.712220,4071.132681,-6971.469032,5921.647536
1084.712549,6069.688724,-2374.896044,7846.182985
1084.712879,4737.318029,2221.676944,10510.924376
1084.713209,1110.308913,3830.477490,12657.521608
1084.713538,-2516.700203,6665.030833,13841.851115
1084.713868,-3627.009116,7354.516781,16580.613101
1084.714197,-3330.926739,4443.353888,18135.045579
1084.714527,-5033.400406,2528.115143,16654.633695
1084.714856,-5699.585753,-612.876398,12287.418637
1084.715186,-4367.215058,-4979.620737,8216.285956
1084.715515,-1702.473667,-8427.050478,5329.482782
1084.715845,444.123565,-5745.716235,5181.441594
1084.716174,2960.823768,-1991.848295,6439.791695
1084.716504,4811.338623,842.705048,7920.203579
1084.716833,3997.112087,4749.792088,9770.718434
1084.717163,666.185348,7890.783629,9474.636058
1084.717492,-1480.411884,8197.221829,9770.718434
1084.717822,-1480.411884,6741.640382,12065.356855
1084.718151,-1776.494261,5439.278036,12953.603985
1084.718481,-2146.597232,2911.162892,11029.068536
1084.718810,-3330.926739,-1302.362347,6883.915261
1084.719140,-3775.050304,-4443.353888,3849.070898
1084.719469,-1110.308913,-4903.011187,3256.906145
1084.719799,1332.370696,-2987.772442,4219.173869
1084.720128,2812.782580,-459.657299,5921.647536
1084.720458,1998.556043,2757.943793,7846.182985
1084.720787,-592.164754,5669.106685,9104.533087
1084.721117,-3775.050304,7660.954980,9474.636058
1084.721446,-4441.235652,6588.421283,11991.336260
1084.721776,-5181.441594,5209.449386,14211.954086
1084.722105,-5181.441594,3524.039291,13545.768739
1084.722435,-5181.441594,-1302.362347,9104.533087
1084.722764,-3923.091493,-5286.058936,4737.318029
1084.723094,-1258.350101,-7890.783629,3849.070898
1084.723423,1480.411884,-6435.202183,6069.688724
1084.723753,3108.864956,-2298.286494,8956.491898
1084.724082,2738.761985,2145.067394,12805.562797
1084.724412,370.102971,4979.620737,13915.871710
1084.724741,-2294.638420,8120.612279,12805.562797
1084.725071,-2590.720797,7048.078582,13915.871710
1084.725400,-1702.473667,2987.772442,15100.201217
1084.725730,-1776.494261,995.924147,15692.365970
1084.726059,-2812.782580,612.876398,13915.871710
1084.726389,-4071.132681,-2451.505594,9548.656652
1084.726718,-2812.782580,-5822.325785,6513.812290
1084.727048,296.082377,-5898.935335,6883.915261
1084.727377,3404.947333,-3294.210641,7105.977043
1084.727707,4959.379811,-536.266849,7698.141797
1084.728036,3627.009116,2221.676944,9104.533087
1084.728366,0.000000,5515.887586,10214.842000
1084.728695,-3108.864956,7507.735880,11843.295072
1084.729025,-3849.070898,6588.421283,13619.789333
1084.729354,-3627.009116,5669.106685,12435.459826
1084.729684,-3182.885551,2681.334243,9474.636058
1084.730013,-3256.906145,-2451.505594,6143.709319
1084.730343,-2664.741391,-4749.792088,3404.947333
1084.730673,-592.164754,-4903.011187,3478.967927
1084.731002,2442.679609,-2604.724693,5107.421000
1084.731332,2886.803174,612.876398,6809.894666
1084.731661,518.144159,3524.039291,7994.224174
1084.731991,-1850.514855,4673.182538,9178.553681
1084.732320,-2812.782580,4673.182538,10955.047942
1084.732650,-3552.988522,7201.297681,12361.439231
1084.732979,-3775.050304,5669.106685,11991.336260
1084.733309,-3701.029710,229.828649,10066.800811
1084.733638,-2960.823768,-2834.553343,7031.956449
1084.733968,-1702.473667,-5592.497135,4589.276840
1084.734297,0.000000,-5822.325785,4885.359217
1084.734627,2368.659014,-2911.162892,7402.059420
1084.734956,3330.926739,766.095498,9992.780217
1084.735286,2368.659014,3370.820191,11695.253884
1084.735615,-1480.411884,3294.210641,11473.192101
1084.735945,-3404.947333,5209.449386,13323.706956
1084.736274,-3849.070898,5975.544884,16136.489536
1084.736604,-4515.256246,3600.648841,16876.695478
1084.736933,-5107.421000,76.609550,15100.201217
1084.737263,-4885.359217,-1838.629195,11251.130318
1084.737592,-2590.720797,-5132.839837,7476.080014
1084.737922,592.164754,-7584.345430,6291.750507
1084.738251,3182.885551,-4903.011187,6735.874072
1084.738581,5033.400406,229.828649,7402.059420
1084.738910,6365.771101,2145.067394,9770.718434
1084.739240,4811.338623,3524.039291,11695.253884
1084.739569,1406.391290,7354.516781,11991.336260
1084.739899,-1110.308913,7584.345430,13101.645173
1084.740228,-1554.432478,5822.325785,13693.809927
1084.740558,-1332.370696,3447.429741,12361.439231
1084.740887,-1332.370696,383.047749,9918.759623
1084.741217,-2294.638420,-3600.648841,5329.482782
1084.741546,-1554.432478,-4903.011187,3034.844362
1084.741876,1702.473667,-4290.134789,3701.029710
1084.742205,3923.091493,-1378.971896,5255.462188
1084.742535,2960.823768,2834.553343,6809.894666
1084.742864,518.144159,4903.011187,7772.162391
1084.743194,-1776.494261,5132.839837,9252.574275
1084.743523,-3330.926739,5975.544884,11029.068536
1084.743853,-5107.421000,6511.811733,13693.809927
1084.744182,-5995.668130,3830.477490,12731.542202
1084.744512,-5551.544565,229.828649,10066.800811
1084.744841,-4367.215058,-3600.648841,5995.668130
1084.745171,-2368.659014,-5515.887586,2960.823768
1084.745500,1036.288319,-6052.154434,3404.947333
1084.745830,3997.112087,-4213.525239,6217.729913
1084.746159,3849.070898,536.266849,9326.594869
1084.746489,1776.494261,5286.058936,11695.253884
1084.746818,-148.041188,6741.640382,12139.377449
1084.747148,-2146.597232,7660.954980,12435.459826
1084.747477,-3034.844362,5362.668486,14730.098246
1084.747807,-3478.967927,2374.896044,15840.407159
1084.748137,-4293.194464,0.000000,15174.221811
1084.748466,-5329.482782,-2757.943793,11769.274478
1084.748796,-5995.668130,-5286.058936,8808.450710
1084.749125,-3627.009116,-6435.202183,7328.038826
1084.749455,0.000000,-5132.839837,7254.018232
1084.749784,3478.967927,-3217.601092,8512.368333
1084.750114,3923.091493,1302.362347,9622.677246
1084.750443,1628.453072,5592.497135,9844.739029
1084.750773,-1554.432478,6511.811733,10584.944971
1084.751102,-2590.720797,6052.154434,13619.789333
1084.751432,-4145.153275,6511.811733,14582.057057
1084.751761,-4441.235652,4519.963438,12361.439231
1084.752091,-3701.029710,-689.485948,9696.697840
1084.752420,-3108.864956,-3907.087040,6809.894666
1084.752750,-962.267725,-4979.620737,4811.338623
1084.753079,2220.617826,-5056.230287,4811.338623
1084.753409,4737.318029,-1532.190996,4737.318029
1084.753738,4737.318029,3447.429741,6217.729913
1084.754068,3701.029710,4903.011187,9474.636058
1084.754397,1480.411884,6205.373534,10510.924376
1084.754727,-1480.411884,8656.879127,10436.903782
1084.755056,-3552.988522,6894.859482,10955.047942
1084.755386,-2960.823768,3064.381992,11843.295072
1084.755715,-2812.782580,-689.485948,10584.944971
1084.756045,-3627.009116,-4826.401637,7105.977043
1084.756374,-2886.803174,-5822.325785,3256.906145
1084.756704,-370.102971,-4826.401637,2664.741391
1084.757033,2960.823768,-2068.457845,4515.256246
1084.757363,3997.112087,459.657299,7105.977043
1084.757692,1998.556043,2834.553343,10288.862594
1084.758022,-1258.350101,6511.811733,11325.150913
1084.758351,-3552.988522,7967.393179,13101.645173
1084.758681,-5107.421000,5362.668486,16062.468941
1084.759010,-7105.977043,3907.087040,16876.695478
1084.759340,-6365.771101,-612.876398,14508.036463
1084.759669,-3849.070898,-6128.763984,10732.986159
1084.759999,-1702.473667,-7354.516781,7254.018232
1084.760328,0.000000,-6205.373534,6143.709319
1084.760658,2368.659014,-4673.182538,7772.162391
1084.760987,5255.462188,-1838.629195,9696.697840
1084.761317,4885.359217,3907.087040,11473.192101
1084.761646,3182.885551,6894.859482,11547.212695
1084.761976,1554.432478,7584.345430,12583.501014
1084.762305,-1110.308913,7201.297681,15100.201217
1084.762635,-3256.906145,5975.544884,15248.242405
1084.762964,-4219.173869,2604.724693,13027.624579
1084.763294,-4293.194464,0.000000,9696.697840
1084.763623,-4293.194464,-4673.182538,6439.791695
1084.763953,-2738.761985,-6665.030833,4367.215058
1084.764282,-222.061783,-5592.497135,4145.153275
1084.764612,2812.782580,-1685.410096,4589.276840
1084.764941,3034.844362,2451.505594,6809.894666
1084.765271,1110.308913,6358.592633,8216.285956
1084.765601,-1184.329507,8503.660028,9252.574275
1084.765930,-2220.617826,7354.516781,11843.295072
1084.766260,-4293.194464,6818.249932,13323.706956
1084.766589,-5477.523971,5286.058936,11843.295072
1084.766919,-4737.318029,842.705048,9252.574275
1084.767248,-3627.009116,-4443.353888,6069.688724
1084.767578,-2294.638420,-6894.859482,3552.988522
1084.767907,0.000000,-6205.373534,3404.947333
1084.768237,2664.741391,-2757.943793,4663.297435
1084.768566,3997.112087,2834.553343,7179.997637
1084.768896,2738.761985,4903.011187,9178.553681
1084.769225,0.000000,5669.106685,10066.800811
1084.769555,-2294.638420,7814.174080,12213.398043
1084.769884,-4071.132681,6511.811733,15248.242405
1084.770214,-4663.297435,4060.306139,16136.489536
1084.770543,-5255.462188,1072.533697,13915.871710
1084.770873,-4811.338623,-3294.210641,10214.842000
1084.771202,-2886.803174,-7354.516781,6883.915261
1084.771532,0.000000,-8580.269578,6513.812290
1084.771861,3108.864956,-5209.449386,7698.141797
1084.772191,4737.318029,-995.924147,10510.924376
1084.772520,3034.844362,3907.087040,11547.212695
1084.772850,222.061783,6971.469032,11473.192101
1084.773179,-888.247130,6665.030833,14063.912898
1084.773509,-1924.535449,6511.811733,17616.901420
1084.773838,-4885.359217,6511.811733,16284.530724
1084.774168,-5773.606348,2681.334243,12435.459826
1084.774497,-3775.050304,-2757.943793,8438.347739
1084.774827,-1554.432478,-6894.859482,5773.606348
1084.775156,0.000000,-7507.735880,3775.050304
1084.775486,1776.494261,-5822.325785,4071.132681
1084.775815,3627.009116,-1225.752797,5477.523971
1084.776145,3478.967927,4673.182538,8438.347739
1084.776474,1628.453072,7048.078582,10140.821405
1084.776804,296.082377,8044.002729,9696.697840
1084.777134,-740.205942,6665.030833,12139.377449
1084.777463,-1924.535449,6052.154434,13249.686362
1084.777793,-3701.029710,4060.306139,11843.295072
1084.778122,-3552.988522,-459.657299,9548.656652
1084.778452,-3997.112087,-4060.306139,5551.544565
1084.778782,-3478.967927,-5515.887586,1628.453072
1084.779111,-962.267725,-5362.668486,296.082377
1084.779441,2590.720797,-4903.011187,2738.761985
1084.779770,3627.009116,-536.266849,7550.100608
1084.780100,0.000000,5056.230287,9622.677246
1084.780430,-4145.153275,6971.469032,10955.047942
1084.780759,-4885.359217,8120.612279,11917.315666
1084.781089,-5329.482782,6358.592633,14878.139434
1084.781418,-3997.112087,1455.581446,15618.345376
1084.781748,-3849.070898,-1762.019645,12953.603985
1084.782078,-4589.276840,-3447.429741,8956.491898
1084.782407,-3256.906145,-5745.716235,7698.141797
1084.782737,666.185348,-6818.249932,7994.224174
1084.783066,3330.926739,-3983.696590,8808.450710
1084.783396,4959.379811,-766.095498,9696.697840
1084.783726,4589.276840,2068.457845,11917.315666
1084.784055,2590.720797,6511.811733,13397.727550
1084.784385,-222.061783,7584.345430,14137.933492
1084.784714,-2812.782580,6511.811733,15396.283594
1084.785044,-4071.132681,5898.935335,15322.262999
1084.785374,-2886.803174,2451.505594,13915.871710
1084.785703,-1850.514855,-2068.457845,9400.615463
1084.786033,-2368.659014,-5132.839837,4441.235652
1084.786362,-1406.391290,-6435.202183,2886.803174
1084.786692,1184.329507,-5669.106685,4885.359217
1084.787022,3330.926739,-689.485948,7846.182985
1084.787351,2368.659014,4519.963438,9548.656652
1084.787681,-1480.411884,6588.421283,9104.533087
1084.788010,-2664.741391,7048.078582,10214.842000
1084.788340,-2516.700203,6128.763984,13175.665768
1084.788670,-3034.844362,6588.421283,13175.665768
1084.788999,-3256.906145,4903.011187,10807.006753
1084.789329,-2442.679609,-459.657299,7550.100608
1084.789658,-2812.782580,-4213.525239,3701.029710
1084.789988,-518.144159,-5056.230287,370.102971
1084.790318,2368.659014,-5209.449386,1998.556043
1084.790647,4959.379811,-1991.848295,4811.338623
1084.790977,3256.906145,2911.162892,7624.121203
1084.791306,296.082377,5056.230287,9770.718434
1084.791636,-2072.576638,4979.620737,11177.109724
1084.791966,-3923.091493,6205.373534,13397.727550
1084.792295,-6069.688724,5592.497135,15470.304188
1084.792625,-6291.750507,3370.820191,15248.242405
1084.792954,-5551.544565,-766.095498,12657.521608
1084.793284,-3404.947333,-5592.497135,8438.347739
1084.793613,-2220.617826,-7354.516781,5107.421000
1084.793943,370.102971,-6818.249932,5255.462188
1084.794273,3256.906145,-3907.087040,8068.244768
1084.794602,4145.153275,383.047749,11177.109724
1084.794932,2294.638420,4749.792088,12361.439231
1084.795261,148.041188,7048.078582,12139.377449
1084.795591,-740.205942,6971.469032,13471.748144
1084.795921,-1554.432478,5362.668486,16136.489536
1084.796250,-3182.885551,2911.162892,16506.592507
1084.796580,-4441.235652,153.219100,14137.933492
1084.796909,-5403.503377,-2451.505594,10955.047942
1084.797239,-5477.523971,-5515.887586,7994.224174
1084.797569,-3256.906145,-6281.983084,6735.874072
1084.797898,1036.288319,-4443.353888,5403.503377
1084.798228,4071.132681,-2528.115143,4811.338623
1084.798557,4663.297435,1991.848295,6143.709319
1084.798887,1998.556043,5745.716235,7994.224174
1084.799217,370.102971,7431.126331,11103.089130
1084.799546,-1628.453072,7967.393179,13249.686362
1084.799876,-3701.029710,8886.707777,13249.686362
1084.800205,-3478.967927,6818.249932,10584.944971
1084.800535,-1850.514855,-306.438199,6291.750507
1084.800865,-1628.453072,-6281.983084,3034.844362
1084.801194,-666.185348,-6052.154434,1110.308913
1084.801524,370.102971,-4749.792088,3182.885551
1084.801853,2146.597232,-1762.019645,5995.668130
1084.802183,666.185348,3064.381992,9030.512492
1084.802513,-2590.720797,5132.839837,10066.800811
1084.802842,-3775.050304,5286.058936,10807.006753
1084.803172,-3627.009116,4826.401637,13101.645173
1084.803501,-5329.482782,5898.935335,14137.933492
1084.803831,-6809.894666,4749.792088,13175.665768
1084.804161,-5181.441594,-842.705048,10510.924376
1084.804490,-3404.947333,-4060.306139,5921.647536
1084.804820,-1036.288319,-6971.469032,2812.782580
1084.805149,2146.597232,-7584.345430,4959.379811
1084.805479,5403.503377,-2987.772442,8512.368333
1084.805809,4811.338623,2298.286494,12213.398043
1084.806138,2368.659014,4903.011187,12435.459826
1084.806468,222.061783,6435.202183,12435.459826
1084.806797,-1110.308913,5362.668486,16654.633695
1084.807127,-1998.556043,5286.058936,19467.416275
1084.807457,-4293.194464,5362.668486,17468.860231
1084.807786,-3849.070898,1149.143247,13471.748144
1084.808116,-2368.659014,-4443.353888,9178.553681
1084.808445,-1850.514855,-7431.126331,6587.832884
1084.808775,-444.123565,-6818.249932,5921.647536
1084.809104,1332.370696,-3753.867940,4737.318029
1084.809434,2516.700203,459.657299,6143.709319
1084.809764,1924.535449,3370.820191,8882.471304
1084.810093,-444.123565,4903.011187,9622.677246
1084.810423,-2442.679609,6588.421283,10288.862594
1084.810752,-2960.823768,7124.688131,12213.398043
1084.811082,-3034.844362,6511.811733,12805.562797
1084.811412,-3404.947333,4213.525239,10066.800811
1084.811741,-2886.803174,-1455.581446,6291.750507
1084.812071,-2220.617826,-5515.887586,3552.988522
1084.812400,-296.082377,-5439.278036,2886.803174
1084.812730,2220.617826,-3064.381992,4219.173869
1084.813060,3701.029710,-459.657299,6365.771101
1084.813389,2664.741391,3294.210641,7772.162391
1084.813719,-296.082377,4903.011187,9696.697840
1084.814048,-2146.597232,5439.278036,10955.047942
1084.814378,-3182.885551,7584.345430,13175.665768
1084.814708,-4367.215058,5209.449386,13693.809927
1084.815037,-4441.235652,3294.210641,13101.645173
1084.815367,-3478.967927,-995.924147,8882.471304
1084.815696,-2664.741391,-5745.716235,4589.276840
1084.816026,-1406.391290,-6741.640382,3330.926739
1084.816356,222.061783,-5362.668486,5477.523971
1084.816685,2368.659014,-1685.410096,8660.409521
1084.817015,3108.864956,306.438199,11695.253884
1084.817344,1332.370696,4749.792088,12435.459826
1084.817674,-1036.288319,6205.373534,12583.501014
1084.818004,-1850.514855,3294.210641,16136.489536
1084.818333,-3256.906145,5822.325785,18283.086767
1084.818663,-4441.235652,5515.887586,17320.819043
1084.818992,-2960.823768,459.657299,14582.057057
1084.819322,-2072.576638,-2681.334243,10362.883188
1084.819652,-2072.576638,-5286.058936,6143.709319
1084.819981,888.247130,-6128.763984,5329.482782
1084.820311,4071.132681,-5286.058936,5847.626942
1084.820640,4885.359217,1072.533697,7328.038826
1084.820970,2812.782580,3983.696590,9992.780217
1084.821300,518.144159,5132.839837,11991.336260
1084.821629,-2368.659014,8580.269578,11991.336260
1084.821959,-3701.029710,8810.098227,10436.903782
1084.822288,-3997.112087,5745.716235,8068.244768
1084.822618,-1850.514855,995.924147,9474.636058
1084.822948,-1184.329507,-2221.676944,7402.059420
1084.823277,-2664.741391,-4749.792088,4219.173869
1084.823607,-2368.659014,-5209.449386,2738.761985
1084.823936,-148.041188,-689.485948,4071.132681
1084.824266,3108.864956,153.219100,6069.688724
1084.824595,3849.070898,229.828649,8290.306550
1084.824925,1184.329507,4136.915689,9770.718434
1084.825255,-2072.576638,7431.126331,10732.986159
1084.825584,-3849.070898,6894.859482,13101.645173
1084.825914,-5329.482782,5209.449386,13989.892304
1084.826243,-6587.832884,3907.087040,12213.398043
1084.826573,-5181.441594,-995.924147,7476.080014
1084.826903,-2442.679609,-6435.202183,4293.194464
1084.827232,-148.041188,-6665.030833,3701.029710
1084.827562,1110.308913,-5056.230287,6439.791695
1084.827891,1406.391290,-3140.991542,9030.512492
1084.828221,222.061783,2374.896044,10955.047942
1084.828551,-1924.535449,4903.011187,11843.295072
1084.828880,-2368.659014,6052.154434,13175.665768
1084.829210,-2738.761985,5515.887586,15988.448347
1084.829539,-3627.009116,3907.087040,16654.633695
1084.829869,-3330.926739,919.314598,16284.530724
1084.830199,-2738.761985,-1302.362347,14063.912898
1084.830528,-2516.700203,-2451.505594,10140.821405
1084.830858,-2072.576638,-6435.202183,7328.038826
1084.831187,740.205942,-5975.544884,7031.956449
1084.831517,4589.276840,-2528.115143,7105.977043
1084.831847,6439.791695,153.219100,8068.244768
1084.832176,3997.112087,3064.381992,9400.615463
1084.832506,-296.082377,5669.106685,11399.171507
1084.832835,-2516.700203,7354.516781,13101.645173
1084.833165,-3923.091493,7048.078582,13249.686362
1084.833495,-3256.906145,6435.202183,11103.089130
1084.833824,-1554.432478,1532.190996,8290.306550
1084.834154,-740.205942,-4290.134789,5329.482782
1084.834483,-888.247130,-6052.154434,3108.864956
1084.834813,518.144159,-4443.353888,3478.967927
1084.835143,2368.659014,-766.095498,4515.256246
1084.835472,3256.906145,2451.505594,6217.729913
1084.835802,1332.370696,3294.210641,8956.491898
1084.836131,-962.267725,4826.401637,10214.842000
1084.836461,-2368.659014,5439.278036,11621.233289
1084.836791,-3108.864956,6894.859482,13027.624579
1084.837120,-4589.276840,5515.887586,12435.459826
1084.837450,-4663.297435,1838.629195,9844.739029
1084.837779,-3552.988522,-2834.553343,7328.038826
1084.838109,-1776.494261,-5515.887586,3701.029710
1084.838439,74.020594,-5132.839837,2664.741391
1084.838768,3034.844362,-3907.087040,5551.544565
1084.839098,3849.070898,-1149.143247,9400.615463
1084.839427,1554.432478,3677.258390,11843.295072
1084.839757,-1406.391290,5669.106685,11917.315666
1084.840086,-2886.803174,7277.907231,11843.295072
1084.840416,-3256.906145,6971.469032,14804.118840
1084.840746,-3923.091493,3370.820191,17690.922014
1084.841075,-4737.318029,1378.971896,17246.798449
1084.841405,-6291.750507,-306.438199,13249.686362
1084.841734,-5625.565159,-4366.744339,8956.491898
1084.842064,-2738.761985,-7124.688131,7698.141797
1084.842394,1702.473667,-6052.154434,8142.265362
1084.842723,4293.194464,-3370.820191,7179.997637
1084.843053,5921.647536,-383.047749,9104.533087
1084.843382,2738.761985,5132.839837,9400.615463
1084.843712,-1332.370696,8273.831378,9696.697840
1084.844042,-2590.720797,6435.202183,12509.480420
1084.844371,-3182.885551,6052.154434,13989.892304
1084.844701,-3849.070898,5592.497135,12287.418637
1084.845030,-3256.906145,0.000000,8808.450710
1084.845360,-2590.720797,-4673.182538,5847.626942
1084.845690,-2146.597232,-5592.497135,4293.194464
1084.846019,592.164754,-5822.325785,4145.153275
1084.846349,3404.947333,-2834.553343,5033.400406
1084.846678,4219.173869,2911.162892,6809.894666
1084.847008,2220.617826,5669.106685,8364.327145
1084.847338,222.061783,4596.572988,9622.677246
1084.847667,-962.267725,5669.106685,11695.253884
1084.847997,-3849.070898,7048.078582,12953.603985
1084.848326,-4663.297435,5362.668486,12583.501014
1084.848656,-3997.112087,919.314598,10658.965565
1084.848986,-3034.844362,-4136.915689,7031.956449
1084.849315,-2664.741391,-7124.688131,2590.720797
1084.849645,-592.164754,-6818.249932,2812.782580
1084.849974,2664.741391,-3217.601092,4737.318029
1084.850304,4737.318029,76.609550,7994.224174
1084.850634,3627.009116,2681.334243,11399.171507
1084.850963,740.205942,6358.592633,11621.233289
1084.851293,-1776.494261,6358.592633,12361.439231
1084.851622,-2886.803174,5132.839837,16358.551318
1084.851952,-3923.091493,5515.887586,19023.292709
1084.852282,-4959.379811,2298.286494,17616.901420
1084.852611,-4589.276840,-2681.334243,12435.459826
1084.852941,-3552.988522,-6435.202183,8216.285956
1084.853270,-592.164754,-6894.859482,6883.915261
1084.853600,2812.782580,-5515.887586,6735.874072
1084.853930,4885.359217,-2298.286494,7105.977043
1084.854259,4885.359217,2604.724693,9474.636058
1084.854589,2516.700203,5439.278036,11547.212695
1084.854918,-592.164754,8197.221829,12361.439231
1084.855248,-2960.823768,8733.488677,13915.871710
1084.855577,-4737.318029,6128.763984,13027.624579
1084.855907,-4959.379811,3294.210641,11769.274478
1084.856237,-3923.091493,-306.438199,9770.718434
1084.856566,-4293.194464,-5515.887586,6069.688724
1084.856896,-3108.864956,-6894.859482,2664.741391
1084.857225,-1258.350101,-5132.839837,3478.967927
1084.857555,2368.659014,-1149.143247,4885.359217
1084.857885,3775.050304,2145.067394,7031.956449
1084.858214,2664.741391,5209.449386,7994.224174
1084.858544,222.061783,7737.564530,8882.471304
1084.858873,-1480.411884,8656.879127,11177.109724
1084.859203,-3478.967927,7814.174080,13323.706956
1084.859533,-4589.276840,5515.887586,12805.562797
1084.859862,-4367.215058,1685.410096,10214.842000
1084.860192,-4737.318029,-3677.258390,5403.503377
1084.860521,-3330.926739,-6894.859482,2368.659014
1084.860851,0.000000,-7431.126331,3330.926739
1084.861181,2738.761985,-4673.182538,5847.626942
1084.861510,3256.906145,0.000000,8216.285956
1084.861840,1480.411884,3524.039291,10066.800811
1084.862169,-1480.411884,5669.106685,11251.130318
1084.862499,-3478.967927,6894.859482,14656.077652
1084.862829,-4737.318029,6281.983084,18727.210333
1084.863158,-5255.462188,5898.935335,17912.983796
1084.863488,-4293.194464,1225.752797,14137.933492
1084.863817,-2368.659014,-4213.525239,9326.594869
1084.864147,-444.123565,-8503.660028,6587.832884
1084.864477,1332.370696,-8733.488677,7105.977043
1084.864806,2886.803174,-5056.230287,7772.162391
1084.865136,4441.235652,306.438199,9918.759623
1084.865465,4145.153275,3830.477490,12509.480420
1084.865795,1998.556043,6588.421283,12583.501014
1084.866125,-666.185348,6971.469032,11843.295072
1084.866454,-1258.350101,5362.668486,13545.768739
1084.866784,-2368.659014,4903.011187,13397.727550
1084.867113,-3108.864956,2987.772442,12139.377449
1084.867443,-4219.173869,-919.314598,8882.471304
1084.867773,-3923.091493,-5898.935335,4737.318029
1084.868102,-1332.370696,-7048.078582,3182.885551
1084.868432,2368.659014,-5515.887586,3849.070898
1084.868761,4663.297435,-2221.676944,4293.194464
1084.869091,4589.276840,3294.210641,6513.812290
1084.869421,1998.556043,5439.278036,9474.636058
1084.869750,-148.041188,7354.516781,10955.047942
1084.870080,-2368.659014,9116.536426,12509.480420
1084.870409,-3552.988522,7431.126331,12731.542202
1084.870739,-2590.720797,3370.820191,11695.253884
1084.871068,-1554.432478,-1072.533697,9400.615463
1084.871398,-2146.597232,-5439.278036,5995.668130
1084.871728,-2146.597232,-7507.735880,2146.597232
1084.872057,-370.102971,-6511.811733,2960.823768
1084.872387,2960.823768,-2451.505594,5403.503377
1084.872716,4293.194464,1378.971896,9030.512492
1084.873046,1628.453072,3983.696590,10807.006753
1084.873376,-2294.638420,5975.544884,10807.006753
1084.873705,-4959.379811,6128.763984,14211.954086
1084.874035,-7476.080014,7048.078582,17764.942608
1084.874364,-8956.491898,5822.325785,18061.024985
1084.874694,-8438.347739,306.438199,13397.727550
1084.875024,-6365.771101,-5209.449386,7624.121203
1084.875353,-3404.947333,-9422.974625,4145.153275
1084.875683,-370.102971,-9806.022374,5329.482782
1084.876012,1480.411884,-5209.449386,8438.347739
1084.876342,1998.556043,1225.752797,10732.986159
1084.876672,592.164754,6741.640382,12805.562797
1084.877001,-666.185348,8427.050478,12287.418637
1084.877331,-1850.514855,8427.050478,12731.542202
1084.877660,-4145.153275,8350.440928,13471.748144
1084.877990,-6365.771101,5286.058936,13619.789333
1084.878320,-7105.977043,1991.848295,13249.686362
1084.878649,-7402.059420,-2221.676944,10955.047942
1084.878979,-7920.203579,-6894.859482,6661.853478
1084.879309,-6439.791695,-8580.269578,3627.009116
1084.879638,-2886.803174,-7584.345430,3701.029710
1084.879968,2072.576638,-2604.724693,4293.194464
1084.880298,4367.215058,2298.286494,6883.915261
1084.880627,3182.885551,6894.859482,7994.224174
1084.880957,148.041188,10112.460574,8512.368333
1084.881287,-3997.112087,8886.707777,13027.624579
1084.881616,-7772.162391,8503.660028,15692.365970
1084.881946,-11621.233289,8503.660028,14656.077652
1084.882276,-11325.150913,2604.724693,9918.759623
1084.882605,-7698.141797,-5669.106685,4959.379811
1084.882935,-3775.050304,-11261.603821,1924.535449
1084.883265,-740.205942,-11721.261119,2368.659014
1084.883594,-222.061783,-7354.516781,3034.844362
1084.883924,0.000000,689.485948,5847.626942
1084.884254,592.164754,7431.126331,9326.594869
1084.884583,1480.411884,9806.022374,12213.398043
1084.884913,666.185348,11261.603821,14211.954086
1084.885243,-3997.112087,11184.994271,13915.871710
1084.885572,-7550.100608,6741.640382,12953.603985
1084.885902,-9696.697840,2068.457845,13545.768739
1084.886232,-10066.800811,-2145.067394,13767.830521
1084.886561,-10214.842000,-7814.174080,11473.192101
1084.886891,-8290.306550,-10572.117872,7105.977043
1084.887221,-4441.235652,-10955.165621,5181.441594
1084.887550,0.000000,-8273.831378,5551.544565
1084.887880,2146.597232,-2145.067394,7846.182985
1084.888210,3552.988522,5132.839837,10584.944971
1084.888539,3849.070898,11721.261119,12879.583391
1084.888869,2294.638420,13636.499864,14359.995275
1084.889199,-2072.576638,12334.137518,14285.974681
1084.889528,-5921.647536,5975.544884,15174.221811
1084.889858,-9474.636058,766.095498,14582.057057
1084.890188,-12435.459826,-689.485948,11917.315666
1084.890517,-11991.336260,-6128.763984,7402.059420
1084.890847,-8808.450710,-11644.651570,4219.173869
1084.891177,-5847.626942,-14019.547613,2220.617826
1084.891506,-2516.700203,-9039.926876,2146.597232
1084.891836,814.226536,-689.485948,3034.844362
1084.892166,2516.700203,6281.983084,6513.812290
1084.892495,2072.576638,12334.137518,11029.068536
1084.892825,296.082377,14709.033562,14508.036463
1084.893155,-2812.782580,14172.766713,14508.036463
1084.893484,-4589.276840,11031.775171,12509.480420
1084.893814,-5921.647536,5362.668486,10214.842000
1084.894144,-6439.791695,-2374.896044,8216.285956
1084.894473,-6883.915261,-9652.803275,6883.915261
1084.894803,-7846.182985,-12947.013916,6809.894666
1084.895133,-8586.388927,-8963.317327,6365.771101
1084.895462,-9104.533087,-4443.353888,5625.565159
1084.895792,-5107.421000,-1455.581446,6587.832884
1084.896122,-1850.514855,689.485948,8142.265362
1084.896451,814.226536,5132.839837,9622.677246
1084.896781,2960.823768,10495.508323,11103.089130
1084.897111,2886.803174,10265.679673,12139.377449
1084.897441,-444.123565,8044.002729,13767.830521
1084.897770,-5773.606348,5592.497135,13027.624579
1084.898100,-9178.553681,919.314598,12583.501014
1084.898430,-9696.697840,-2604.724693,11103.089130
1084.898759,-8660.409521,-5439.278036,9770.718434
1084.899089,-7179.997637,-6358.592633,8068.244768
1084.899419,-4811.338623,-7124.688131,6661.853478
1084.899748,-2220.617826,-5439.278036,6217.729913
1084.900078,-666.185348,0.000000,7254.018232
1084.900408,-666.185348,4903.011187,10510.924376
1084.900737,-2738.761985,9652.803275,13101.645173
1084.901067,-5033.400406,9806.022374,14063.912898
1084.901397,-6957.935855,6665.030833,12953.603985
1084.901726,-6291.750507,3524.039291,11917.315666
1084.902056,-4737.318029,-842.705048,10140.821405
1084.902386,-5329.482782,-4826.401637,7179.997637
1084.902715,-5477.523971,-7354.516781,4885.359217
1084.903045,-3923.091493,-7124.688131,5033.400406
1084.903375,-1406.391290,-3447.429741,6365.771101
1084.903704,-1036.288319,-459.657299,7328.038826
1084.904034,-1924.535449,2757.943793,8660.409521
1084.904364,-2738.761985,5898.935335,10140.821405
1084.904693,-2590.720797,8580.269578,11843.295072
1084.905023,-2812.782580,7584.345430,13323.706956
1084.905353,-3701.029710,5132.839837,12139.377449
1084.905682,-4219.173869,1608.800546,9844.739029
1084.906012,-3997.112087,-1991.848295,8660.409521
1084.906342,-3108.864956,-4290.134789,7624.121203
1084.906671,-2516.700203,-4136.915689,7328.038826
1084.907001,-2664.741391,-2987.772442,7402.059420
1084.907331,-3182.885551,-1072.533697,7994.224174
1084.907660,-4959.379811,1532.190996,9548.656652
1084.907990,-6291.750507,3753.867940,11177.109724
1084.908320,-6587.832884,4979.620737,11843.295072
1084.908649,-5921.647536,4673.182538,11991.336260
1084.908979,-5477.523971,2911.162892,10658.965565
1084.909309,-3923.091493,842.705048,9326.594869
1084.909638,-1850.514855,-1762.019645,7476.080014
1084.909968,-888.247130,-2528.115143,6661.853478
1084.910298,-814.226536,-1455.581446,7105.977043
1084.910627,-296.082377,306.438199,8142.265362
1084.910957,-148.041188,2221.676944,9326.594869
1084.911287,-1554.432478,2604.724693,10362.883188
1084.911616,-3997.112087,4596.572988,11917.315666
1084.911946,-6365.771101,4903.011187,12657.521608
1084.912276,-7624.121203,4213.525239,13545.768739
1084.912605,-8660.409521,2834.553343,13101.645173
1084.912935,-8956.491898,459.657299,11029.068536
1084.913265,-7031.956449,-1838.629195,8438.347739
1084.913594,-4071.132681,-4366.744339,6365.771101
1084.913924,-1480.411884,-4366.744339,5773.606348
1084.914254,74.020594,-1838.629195,6069.688724
1084.914583,740.205942,689.485948,6217.729913
1084.914913,0.000000,3294.210641,8290.306550
1084.915243,-2294.638420,5439.278036,10807.006753
1084.915572,-3997.112087,6741.640382,11695.253884
1084.915902,-5625.565159,5209.449386,11991.336260
1084.916232,-7328.038826,1532.190996,12287.418637
1084.916561,-8734.430116,-153.219100,12287.418637
1084.916891,-8882.471304,-2068.457845,11177.109724
1084.917221,-7698.141797,-2834.553343,8956.491898
1084.917550,-5033.400406,-3907.087040,7402.059420
1084.917880,-2664.741391,-3600.648841,6069.688724
1084.918210,222.061783,-1225.752797,5699.585753
1084.918539,888.247130,1455.581446,6735.874072
1084.918869,222.061783,4596.572988,8364.327145
1084.919199,-1850.514855,6971.469032,9474.636058
1084.919528,-3775.050304,7890.783629,10732.986159
1084.919858,-5995.668130,4060.306139,12287.418637
1084.920188,-8734.430116,1762.019645,12879.583391
1084.920517,-10658.965565,-766.095498,11769.274478
1084.920847,-10362.883188,-3600.648841,10510.924376
1084.921177,-8660.409521,-5975.544884,9696.697840
1084.921506,-6291.750507,-5515.887586,8364.327145
1084.921836,-2960.823768,-3830.477490,7105.977043
1084.922166,0.000000,-1302.362347,6365.771101
1084.922495,2368.659014,1838.629195,7624.121203
1084.922825,2812.782580,5132.839837,9770.718434
1084.923155,1850.514855,7507.735880,11251.130318
1084.923484,-666.185348,7890.783629,11917.315666
1084.923814,-3923.091493,5286.058936,12805.562797
1084.924144,-6069.688724,2298.286494,13767.830521
1084.924473,-8512.368333,0.000000,12953.603985
1084.924803,-9326.594869,-2298.286494,10658.965565
1084.925133,-8068.244768,-5439.278036,7476.080014
1084.925462,-5329.482782,-5745.716235,5921.647536
1084.925792,-2516.700203,-3600.648841,5329.482782
1084.926122,0.000000,-1378.971896,5477.523971
1084.926451,888.247130,2068.457845,6365.771101
1084.926781,74.020594,6971.469032,7920.203579
1084.927111,-962.267725,9269.755526,9696.697840
1084.927440,-2886.803174,8810.098227,11843.295072
1084.927770,-5255.462188,6665.030833,12805.562797
1084.928100,-7105.977043,3983.696590,12731.542202
1084.928429,-7994.224174,612.876398,11769.274478
1084.928759,-8586.388927,-1762.019645,10955.047942
1084.929089,-8290.306550,-3524.039291,9400.615463
1084.929418,-6587.832884,-3370.820191,8068.244768
1084.929748,-3775.050304,-1225.752797,7328.038826
1084.930078,-518.144159,1225.752797,6883.915261
1084.930407,1480.411884,2987.772442,7031.956449
1084.930737,1110.308913,5286.058936,7920.203579
1084.931067,74.020594,7354.516781,9400.615463
1084.931396,-1184.329507,7507.735880,10955.047942
1084.931726,-2590.720797,5745.716235,11917.315666
1084.932056,-3775.050304,4749.792088,11621.233289
1084.932385,-4293.194464,1455.581446,10288.862594
1084.932715,-4293.194464,-842.705048,9104.533087
1084.933045,-3256.906145,-1991.848295,8216.285956
1084.933374,-2220.617826,-1072.533697,8290.306550
1084.933704,-1554.432478,2374.896044,8068.244768
1084.934034,-1850.514855,3064.381992,8660.409521
1084.934363,-2220.617826,4826.401637,9770.718434
1084.934693,-2516.700203,6281.983084,10584.944971
1084.935023,-2368.659014,7048.078582,11029.068536
1084.935352,-2220.617826,5898.935335,11251.130318
1084.935682,-2960.823768,3907.087040,11029.068536
1084.936012,-2516.700203,2374.896044,10288.862594
1084.936342,-2072.576638,1455.581446,9104.533087
1084.936671,-1702.473667,842.705048,8216.285956
1084.937001,-1258.350101,1532.190996,8142.265362
1084.937331,-370.102971,2451.505594,8512.368333
1084.937660,148.041188,5056.230287,9474.636058
1084.937990,-592.164754,6894.859482,10288.862594
1084.938320,-1480.411884,7814.174080,10214.842000
1084.938649,-1998.556043,7584.345430,9622.677246
1084.938979,-2368.659014,6281.983084,9030.512492
1084.939309,-2368.659014,4290.134789,8364.327145
1084.939638,-1776.494261,2068.457845,7179.997637
1084.939968,-814.226536,536.266849,6365.771101
1084.940298,-740.205942,0.000000,7031.956449
1084.940627,-1924.535449,1455.581446,7846.182985
1084.940957,-2886.803174,2681.334243,8660.409521
1084.941287,-3256.906145,5132.839837,9696.697840
1084.941616,-3108.864956,6741.640382,10881.027347
1084.941946,-2442.679609,7124.688131,11103.089130
1084.942276,-1406.391290,6205.373534,10658.965565
1084.942605,-518.144159,5286.058936,10436.903782
1084.942935,-444.123565,4443.353888,9696.697840
1084.943265,-592.164754,3983.696590,9770.718434
1084.943594,-740.205942,2834.553343,9474.636058
1084.943924,-666.185348,2145.067394,8956.491898
1084.944254,0.000000,2221.676944,8882.471304
1084.944583,592.164754,1991.848295,9400.615463
1084.944913,740.205942,2374.896044,9918.759623
1084.945243,-222.061783,3983.696590,10955.047942
1084.945572,-2072.576638,5745.716235,11399.171507
1084.945902,-2294.638420,5975.544884,11917.315666
1084.946232,-1702.473667,5975.544884,11843.295072
1084.946561,-1110.308913,5056.230287,11103.089130
1084.946891,-1184.329507,4290.134789,9474.636058
1084.947221,-740.205942,3830.477490,8660.409521
1084.947550,0.000000,4213.525239,8586.388927
1084.947880,296.082377,4519.963438,8512.368333
1084.948210,-222.061783,4826.401637,7179.997637
1084.948539,0.000000,4060.306139,6661.853478
1084.948869,-222.061783,2451.505594,6735.874072
1084.949199,-740.205942,2451.505594,7550.100608
1084.949528,-1776.494261,2681.334243,8586.388927
1084.949858,-3330.926739,3447.429741,9622.677246
1084.950188,-3627.009116,3294.210641,9918.759623
1084.950517,-3034.844362,3294.210641,10807.006753
1084.950847,-1998.556043,3677.258390,11177.109724
1084.951177,-1332.370696,4366.744339,10140.821405
1084.951506,-592.164754,5515.887586,9326.594869
1084.951836,0.000000,5975.544884,9474.636058
1084.952166,518.144159,5975.544884,9770.718434
1084.952495,592.164754,5898.935335,9326.594869
1084.952825,0.000000,5362.668486,8660.409521
1084.953155,-962.267725,4136.915689,8142.265362
1084.953484,-1776.494261,2068.457845,7698.141797
1084.953814,-2368.659014,1225.752797,7772.162391
1084.954144,-2812.782580,0.000000,8216.285956
1084.954473,-2516.700203,-459.657299,8956.491898
1084.954803,-1924.535449,306.438199,10140.821405
1084.955133,-1406.391290,2374.896044,10658.965565
1084.955462,-666.185348,3753.867940,11251.130318
1084.955792,74.020594,4979.620737,11917.315666
1084.956122,74.020594,6818.249932,12361.439231
1084.956451,148.041188,7584.345430,12361.439231
1084.956781,0.000000,6971.469032,11177.109724
1084.957111,-444.123565,5056.230287,9992.780217
1084.957440,-888.247130,3524.039291,8882.471304
1084.957770,-1554.432478,2145.067394,8142.265362
1084.958100,-2146.597232,2145.067394,8438.347739
1084.958429,-1924.535449,2068.457845,7846.182985
1084.958759,-1850.514855,1455.581446,7476.080014
1084.959089,-1332.370696,1378.971896,7550.100608
1084.959418,-296.082377,1991.848295,8364.327145
1084.959748,0.000000,3064.381992,9548.656652
1084.960078,-444.123565,5209.449386,10288.862594
1084.960407,-1184.329507,7124.688131,11325.150913
1084.960737,-1258.350101,7277.907231,11843.295072
1084.961067,-1554.432478,7048.078582,12435.459826
1084.961396,-2516.700203,6971.469032,11547.212695
1084.961726,-2812.782580,6511.811733,9326.594869
1084.962056,-1924.535449,4596.572988,6291.750507
1084.962385,222.061783,2298.286494,4441.235652
1084.962715,2442.679609,383.047749,4367.215058
1084.963045,3256.906145,459.657299,4663.297435
1084.963374,2220.617826,1532.190996,5995.668130
1084.963704,0.000000,3370.820191,8364.327145
1084.964034,-2664.741391,6052.154434,10881.027347
1084.964363,-4219.173869,7431.126331,13619.789333
1084.964693,-4219.173869,7048.078582,15322.262999
1084.965023,-4219.173869,6511.811733,14878.139434
1084.965352,-4589.276840,4979.620737,12879.583391
1084.965682,-3923.091493,3447.429741,10362.883188
1084.966012,-2960.823768,2145.067394,8734.430116
1084.966341,-222.061783,2145.067394,6883.915261
1084.966671,2516.700203,2451.505594,5181.441594
1084.967001,4589.276840,2068.457845,4663.297435
1084.967330,4589.276840,2681.334243,5699.585753
1084.967660,1850.514855,4290.134789,8290.306550
1084.967990,-1554.432478,6971.469032,11103.089130
1084.968319,-4441.235652,8580.269578,13323.706956
1084.968649,-4959.379811,7890.783629,14434.015869
1084.968979,-3701.029710,5439.278036,13397.727550
1084.969308,-2072.576638,1685.410096,11103.089130
1084.969638,-518.144159,229.828649,8512.368333
1084.969968,148.041188,919.314598,6661.853478
1084.970297,0.000000,1991.848295,6957.935855
1084.970627,0.000000,4443.353888,8586.388927
1084.970957,-888.247130,6052.154434,8956.491898
1084.971286,-740.205942,5056.230287,7031.956449
1084.971616,-444.123565,2528.115143,6069.688724
1084.971946,-666.185348,1455.581446,8068.244768
1084.972275,-1628.453072,2528.115143,11399.171507
1084.972605,-3256.906145,4213.525239,12657.521608
1084.972935,-3923.091493,4749.792088,12953.603985
1084.973264,-3182.885551,4673.182538,12435.459826
1084.973594,-2072.576638,4213.525239,11325.150913
1084.973924,-962.267725,3217.601092,8216.285956
1084.974254,740.205942,1608.800546,5995.668130
1084.974583,2442.679609,919.314598,6217.729913
1084.974913,1850.514855,3753.867940,7105.977043
1084.975243,1480.411884,4673.182538,8438.347739
1084.975572,814.226536,3983.696590,10066.800811
1084.975902,-1258.350101,3830.477490,11547.212695
1084.976232,-3256.906145,5822.325785,11843.295072
1084.976561,-3108.864956,5056.230287,11843.295072
1084.976891,-1924.535449,2604.724693,11991.336260
1084.977220,-1406.391290,1838.629195,11917.315666
1084.977550,-1850.514855,2911.162892,10436.903782
1084.977880,-1702.473667,3907.087040,9104.533087
1084.978209,-1184.329507,4366.744339,7624.121203
1084.978539,-370.102971,5515.887586,7105.977043
1084.978869,1480.411884,4903.011187,6439.791695
1084.979198,2812.782580,2987.772442,5551.544565
1084.979528,2516.700203,1762.019645,6365.771101
1084.979858,962.267725,3064.381992,8142.265362
1084.980187,-1406.391290,5132.839837,11769.274478
1084.980517,-3404.947333,7277.907231,14582.057057
1084.980847,-5107.421000,8503.660028,14804.118840
1084.981176,-4293.194464,7584.345430,13397.727550
1084.981506,-2664.741391,4979.620737,11991.336260
1084.981835,-1184.329507,3217.601092,9992.780217
1084.982165,-1628.453072,3370.820191,7698.141797
1084.982495,-2442.679609,3447.429741,5033.400406
1084.982824,-1406.391290,3677.258390,3478.967927
1084.983154,888.247130,2987.772442,4441.235652
1084.983484,2368.659014,2681.334243,5625.565159
1084.983813,1702.473667,4673.182538,5403.503377
1084.984143,1184.329507,4366.744339,5255.462188
1084.984473,1776.494261,3140.991542,8068.244768
1084.984802,518.144159,3907.087040,12361.439231
1084.985132,-2664.741391,5898.935335,15618.345376
1084.985462,-4441.235652,6281.983084,16136.489536
1084.985791,-4071.132681,4519.963438,15322.262999
1084.986121,-3997.112087,4366.744339,13175.665768
1084.986450,-3034.844362,2911.162892,10584.944971
1084.986780,-1628.453072,-612.876398,8142.265362
1084.987110,-888.247130,-153.219100,5847.626942
1084.987439,0.000000,766.095498,4145.153275
1084.987769,1998.556043,459.657299,3923.091493
1084.988099,2738.761985,766.095498,4737.318029
1084.988428,1924.535449,1991.848295,6883.915261
1084.988758,1258.350101,2528.115143,9474.636058
1084.989088,666.185348,2068.457845,12361.439231
1084.989417,-370.102971,2451.505594,14878.139434
1084.989747,-2368.659014,2451.505594,16136.489536
1084.990077,-4293.194464,1838.629195,16506.592507
1084.990406,-5107.421000,1225.752797,14730.098246
1084.990736,-4441.235652,919.314598,12657.521608
1084.991065,-2442.679609,0.000000,9400.615463
1084.991395,148.041188,-766.095498,6735.874072
1084.991725,3478.967927,-995.924147,4811.338623
1084.992054,5551.544565,-306.438199,4071.132681
1084.992384,5107.421000,1608.800546,3552.988522
1084.992714,3330.926739,3983.696590,4663.297435
1084.993043,2220.617826,3600.648841,7550.100608
1084.993373,740.205942,2834.553343,11843.295072
1084.993703,-1628.453072,4213.525239,15026.180623
1084.994032,-5625.565159,4290.134789,14952.160028
1084.994362,-8142.265362,1532.190996,12287.418637
1084.994692,-8882.471304,-1685.410096,10288.862594
1084.995021,-7624.121203,-3217.601092,8290.306550
1084.995351,-4589.276840,-3907.087040,6809.894666
1084.995680,-1480.411884,-3370.820191,5255.462188
1084.996010,518.144159,-1149.143247,3849.070898
1084.996340,2220.617826,766.095498,3478.967927
1084.996669,3775.050304,2451.505594,5255.462188
1084.996999,4219.173869,4290.134789,9252.574275
1084.997329,3034.844362,5592.497135,12731.542202
1084.997658,-296.082377,6588.421283,15174.221811
1084.997988,-3849.070898,5286.058936,15692.365970
1084.998318,-5625.565159,1455.581446,15544.324782
1084.998647,-5477.523971,-1149.143247,13619.789333
1084.998977,-3182.885551,-2681.334243,10881.027347
1084.999306,-814.226536,-4060.306139,9326.594869
1084.999636,-296.082377,-3830.477490,6217.729913
1084.999966,0.000000,-2604.724693,3923.091493
1085.000295,2664.741391,-1302.362347,3701.029710
1085.000625,5107.421000,919.314598,6957.935855
1085.000955,6439.791695,4366.744339,10955.047942
1085.001284,2738.761985,5975.544884,12953.603985
1085.001614,-2442.679609,4979.620737,12287.418637
1085.001944,-5107.421000,3140.991542,13619.789333
1085.002273,-6143.709319,1838.629195,15026.180623
1085.002603,-5847.626942,229.828649,14211.954086
1085.002933,-3627.009116,-2834.553343,10436.903782
1085.003262,-1554.432478,-5362.668486,5773.606348
1085.003592,296.082377,-5669.106685,2590.720797
1085.003921,2886.803174,-3677.258390,3627.009116
1085.004251,4219.173869,459.657299,6957.935855
1085.004581,3552.988522,4903.011187,9992.780217
1085.004910,1332.370696,7354.516781,11843.295072
1085.005240,-962.267725,7431.126331,12879.583391
1085.005570,-1702.473667,5362.668486,13767.830521
1085.005899,-3034.844362,3524.039291,13471.748144
1085.006229,-3627.009116,1608.800546,12435.459826
1085.006559,-3701.029710,-1072.533697,9474.636058
1085.006888,-2886.803174,-3753.867940,6883.915261
1085.007218,-1924.535449,-4290.134789,4219.173869
1085.007548,-592.164754,-2374.896044,3108.864956
1085.007877,2072.576638,-919.314598,3923.091493
1085.008207,3997.112087,766.095498,5329.482782
1085.008536,2960.823768,2681.334243,8290.306550
1085.008866,-1036.288319,5439.278036,10510.924376
1085.009196,-3923.091493,6205.373534,12065.356855
1085.009525,-4219.173869,5286.058936,14137.933492
1085.009855,-4293.194464,2987.772442,13397.727550
1085.010185,-3923.091493,-612.876398,11473.192101
1085.010514,-2664.741391,-3753.867940,9474.636058
1085.010844,-1628.453072,-5362.668486,6661.853478
1085.011174,-1406.391290,-4136.915689,5403.503377
1085.011503,-296.082377,-2145.067394,6587.832884
1085.011833,2220.617826,-612.876398,8586.388927
1085.012163,2738.761985,1378.971896,11251.130318
1085.012492,962.267725,3907.087040,13027.624579
1085.012822,-1036.288319,5209.449386,12731.542202
1085.013151,-1332.370696,4903.011187,13249.686362
1085.013481,-1332.370696,3217.601092,13619.789333
1085.013811,-1258.350101,1685.410096,13101.645173
1085.014140,-296.082377,-612.876398,11325.150913
1085.014470,444.123565,-2911.162892,7994.224174
1085.014800,740.205942,-3294.210641,5847.626942
1085.015129,296.082377,-2145.067394,5921.647536
1085.015459,1702.473667,-1149.143247,7550.100608
1085.015789,2590.720797,689.485948,10584.944971
1085.016118,518.144159,4903.011187,11991.336260
1085.016448,-2664.741391,6205.373534,10955.047942
1085.016777,-3923.091493,4749.792088,10658.965565
1085.017107,-3478.967927,3217.601092,11251.130318
1085.017437,-2886.803174,1838.629195,10881.027347
1085.017766,-2368.659014,306.438199,10066.800811
1085.018096,-2220.617826,-459.657299,7031.956449
1085.018426,-2368.659014,-2451.505594,3627.009116
1085.018755,-1406.391290,-3370.820191,2812.782580
1085.019085,0.000000,-2451.505594,5329.482782
1085.019415,1184.329507,-153.219100,8364.327145
1085.019744,296.082377,2911.162892,11251.130318
1085.020074,-2442.679609,4903.011187,11547.212695
1085.020404,-3404.947333,4213.525239,10955.047942
1085.020733,-2738.761985,1991.848295,11473.192101
1085.021063,-1702.473667,1685.410096,11251.130318
1085.021392,-444.123565,1608.800546,10510.924376
1085.021722,1184.329507,-919.314598,9474.636058
1085.022052,1036.288319,-2451.505594,6957.935855
1085.022381,296.082377,-2221.676944,5255.462188
1085.022711,592.164754,-1685.410096,6365.771101
1085.023041,2368.659014,-306.438199,8808.450710
1085.023370,2886.803174,1455.581446,11547.212695
1085.023700,222.061783,2298.286494,12361.439231
1085.024030,-2960.823768,2221.676944,12139.377449
1085.024359,-4737.318029,1991.848295,12509.480420
1085.024689,-4293.194464,2451.505594,12805.562797
1085.025019,-2664.741391,1608.800546,11917.315666
1085.025348,-740.205942,-766.095498,10658.965565
1085.025678,370.102971,-3140.991542,7550.100608
1085.026007,148.041188,-3907.087040,5551.544565
1085.026337,148.041188,-2451.505594,6143.709319
1085.026667,962.267725,0.000000,8660.409521
1085.026996,1480.411884,1532.190996,12435.459826
1085.027326,-1258.350101,3830.477490,14063.912898
1085.027656,-3552.988522,4519.963438,13175.665768
1085.027985,-3849.070898,2604.724693,12065.356855
1085.028315,-3256.906145,2068.457845,11769.274478
1085.028645,-2368.659014,1532.190996,10362.883188
1085.028974,-1110.308913,766.095498,9474.636058
1085.029304,444.123565,-766.095498,7105.977043
1085.029634,592.164754,-842.705048,4145.153275
1085.029963,370.102971,-153.219100,3627.009116
1085.030293,1184.329507,536.266849,5181.441594
1085.030622,2220.617826,1378.971896,7994.224174
1085.030952,74.020594,2987.772442,10658.965565
1085.031282,-3478.967927,4290.134789,10807.006753
1085.031611,-5329.482782,2757.943793,10066.800811
1085.031941,-5477.523971,919.314598,10584.944971
1085.032271,-4737.318029,383.047749,9474.636058
1085.032600,-2812.782580,-153.219100,9252.574275
1085.032930,-592.164754,-1915.238745,7772.162391
1085.033260,-518.144159,-3140.991542,5773.606348
1085.033589,-814.226536,-1072.533697,4959.379811
1085.033919,888.247130,1149.143247,6661.853478
1085.034248,3775.050304,1149.143247,8882.471304
1085.034578,3552.988522,1378.971896,11029.068536
1085.034908,518.144159,1532.190996,12731.542202
1085.035237,-2886.803174,2068.457845,14582.057057
1085.035567,-4589.276840,2987.772442,16136.489536
1085.035897,-4737.318029,2757.943793,14508.036463
1085.036226,-3552.988522,306.438199,12435.459826
1085.036556,-222.061783,-3600.648841,10584.944971
1085.036886,1480.411884,-4749.792088,8290.306550
1085.037215,1406.391290,-2451.505594,5847.626942
1085.037545,2220.617826,0.000000,5181.441594
1085.037875,4663.297435,306.438199,7550.100608
1085.038204,4145.153275,1838.629195,11103.089130
1085.038534,1258.350101,4596.572988,13693.809927
1085.038863,-2146.597232,5822.325785,12953.603985
1085.039193,-2960.823768,3983.696590,11917.315666
1085.039523,-3627.009116,1838.629195,11843.295072
1085.039852,-4663.297435,76.609550,10955.047942
1085.040182,-4219.173869,-1608.800546,9918.759623
1085.040512,-3034.844362,-1455.581446,7920.203579
1085.040841,-2442.679609,0.000000,3997.112087
1085.041171,-1258.350101,-995.924147,2516.700203
1085.041501,1406.391290,-2757.943793,3997.112087
1085.041830,2812.782580,-1532.190996,7031.956449
1085.042160,-296.082377,3370.820191,9770.718434
1085.042490,-3552.988522,6894.859482,10955.047942
1085.042819,-4515.256246,5975.544884,11251.130318
1085.043149,-4293.194464,2604.724693,12731.542202
1085.043478,-3923.091493,689.485948,12139.377449
1085.043808,-3108.864956,-306.438199,10214.842000
1085.044138,-888.247130,-1302.362347,7698.141797
1085.044467,518.144159,-2451.505594,4959.379811
1085.044797,666.185348,-2911.162892,4441.235652
1085.045127,1998.556043,-2374.896044,5995.668130
1085.045456,3034.844362,0.000000,9030.512492
1085.045786,1702.473667,3983.696590,11621.233289
1085.046116,-962.267725,6205.373534,11843.295072
1085.046445,-2368.659014,3447.429741,12213.398043
1085.046775,-2072.576638,-153.219100,13027.624579
1085.047105,-2812.782580,229.828649,12657.521608
1085.047434,-2664.741391,766.095498,11843.295072
1085.047764,-1776.494261,153.219100,9918.759623
1085.048093,-962.267725,-2451.505594,7920.203579
1085.048423,-518.144159,-2528.115143,7105.977043
1085.048753,962.267725,-1685.410096,8142.265362
1085.049082,2368.659014,0.000000,9696.697840
1085.049412,1998.556043,3370.820191,11251.130318
1085.049742,-962.267725,4826.401637,12731.542202
1085.050071,-3256.906145,4136.915689,12953.603985
1085.050401,-3182.885551,3140.991542,13915.871710
1085.050731,-3404.947333,2451.505594,13471.748144
1085.051060,-3478.967927,2221.676944,11991.336260
1085.051390,-2664.741391,-229.828649,9474.636058
1085.051720,-1110.308913,-2374.896044,6587.832884
1085.052049,0.000000,-3064.381992,3849.070898
1085.052379,888.247130,-995.924147,4071.132681
1085.052708,2368.659014,1608.800546,5773.606348
1085.053038,2294.638420,2911.162892,8438.347739
1085.053368,-370.102971,4136.915689,10288.862594
1085.053697,-2516.700203,6052.154434,10732.986159
1085.054027,-2516.700203,4903.011187,10658.965565
1085.054357,-2590.720797,3370.820191,9992.780217
1085.054686,-2590.720797,1455.581446,8956.491898
1085.055016,-1554.432478,-1225.752797,7772.162391
1085.055346,-1036.288319,-1991.848295,6735.874072
1085.055675,-1110.308913,-919.314598,4663.297435
1085.056005,-666.185348,-689.485948,4737.318029
1085.056334,592.164754,-1225.752797,6143.709319
1085.056664,1332.370696,229.828649,8586.388927
1085.056994,0.000000,1072.533697,11177.109724
1085.057323,-2516.700203,3524.039291,12509.480420
1085.057653,-4293.194464,4136.915689,12731.542202
1085.057983,-4071.132681,1685.410096,13767.830521
1085.058312,-3775.050304,612.876398,14211.954086
1085.058642,-2664.741391,76.609550,13767.830521
1085.058972,-1628.453072,-612.876398,10658.965565
1085.059301,222.061783,-2834.553343,7476.080014
1085.059631,1332.370696,-3294.210641,7031.956449
1085.059961,2442.679609,-1685.410096,8660.409521
1085.060290,2738.761985,229.828649,9992.780217
1085.060620,1480.411884,1915.238745,11917.315666
1085.060949,-1554.432478,4136.915689,13397.727550
1085.061279,-3034.844362,5362.668486,13989.892304
1085.061609,-2516.700203,3524.039291,13915.871710
1085.061938,-2072.576638,995.924147,11695.253884
1085.062268,-2072.576638,-689.485948,9548.656652
1085.062598,-1924.535449,-536.266849,8216.285956
1085.062927,-1406.391290,-459.657299,6735.874072
1085.063257,-888.247130,536.266849,5033.400406
1085.063587,-222.061783,766.095498,4589.276840
1085.063916,962.267725,842.705048,5329.482782
1085.064246,74.020594,1225.752797,7624.121203
1085.064576,-2368.659014,3447.429741,9770.718434
1085.064905,-4737.318029,5592.497135,10288.862594
1085.065235,-5033.400406,5132.839837,10732.986159
1085.065564,-4515.256246,2374.896044,9696.697840
1085.065894,-3478.967927,689.485948,9400.615463
1085.066224,-2220.617826,-689.485948,9400.615463
1085.066553,-1332.370696,0.000000,7698.141797
1085.066883,-1184.329507,612.876398,4959.379811
1085.067213,296.082377,-306.438199,3849.070898
1085.067542,2220.617826,-1455.581446,5773.606348
1085.067872,3182.885551,689.485948,9622.677246
1085.068202,1924.535449,2911.162892,12509.480420
1085.068531,-1184.329507,4366.744339,12065.356855
1085.068861,-2738.761985,3983.696590,11843.295072
1085.069191,-2294.638420,2068.457845,13397.727550
1085.069520,-1258.350101,842.705048,13619.789333
1085.069850,-222.061783,842.705048,11843.295072
1085.070179,962.267725,-766.095498,8882.471304
1085.070509,1332.370696,-2374.896044,6143.709319
1085.070839,666.185348,-1072.533697,6957.935855
1085.071168,740.205942,306.438199,9326.594869
1085.071498,666.185348,612.876398,10955.047942
1085.071828,-1036.288319,1532.190996,12509.480420
1085.072157,-4071.132681,2834.553343,12583.501014
1085.072487,-5329.482782,2451.505594,12731.542202
1085.072817,-5033.400406,0.000000,12805.562797
1085.073146,-4441.235652,76.609550,12287.418637
1085.073476,-3478.967927,459.657299,11029.068536
1085.073805,-2294.638420,612.876398,10658.965565
1085.074135,-740.205942,1072.533697,7994.224174
1085.074465,0.000000,153.219100,5033.400406
1085.074794,1554.432478,-1072.533697,4293.194464
1085.075124,2590.720797,-229.828649,6957.935855
1085.075454,1776.494261,2528.115143,9992.780217
1085.075783,-1184.329507,4673.182538,11399.171507
1085.076113,-3701.029710,4903.011187,10510.924376
1085.076443,-3997.112087,3217.601092,10584.944971
1085.076772,-3256.906145,1991.848295,10362.883188
1085.077102,-2072.576638,459.657299,9326.594869
1085.077432,-444.123565,-536.266849,7846.182985
1085.077761,0.000000,-919.314598,5403.503377
1085.078091,-370.102971,0.000000,4145.153275
1085.078420,0.000000,1149.143247,5033.400406
1085.078750,740.205942,2221.676944,7105.977043
1085.079080,814.226536,2757.943793,8882.471304
1085.079412,-592.164754,2834.553343,10510.924376
1085.079741,-2368.659014,1991.848295,10955.047942
1085.080071,-3849.070898,689.485948,12213.398043
1085.080401,-4515.256246,919.314598,13249.686362
1085.080730,-4293.194464,1608.800546,12287.418637
1085.081060,-2072.576638,153.219100,11473.192101
1085.081390,-666.185348,-1072.533697,9844.739029
1085.081719,222.061783,-1302.362347,8734.430116
1085.082049,518.144159,-383.047749,8438.347739
1085.082379,1702.473667,1378.971896,8956.491898
1085.082708,2960.823768,1838.629195,9474.636058
1085.083038,1998.556043,2145.067394,12139.377449
1085.083368,-518.144159,2681.334243,13027.624579
1085.083697,-2590.720797,3677.258390,13175.665768
1085.084027,-2812.782580,2681.334243,12805.562797
1085.084357,-2220.617826,1838.629195,11843.295072
1085.084686,-1110.308913,1072.533697,10066.800811
1085.085016,0.000000,-459.657299,8734.430116
1085.085346,888.247130,-919.314598,5773.606348
1085.085675,1258.350101,306.438199,4737.318029
1085.086005,1184.329507,919.314598,5773.606348
1085.086335,444.123565,1762.019645,7476.080014
1085.086664,-1998.556043,3677.258390,10288.862594
1085.086994,-3775.050304,4290.134789,10807.006753
1085.087324,-4367.215058,3370.820191,10066.800811
1085.087653,-3997.112087,1302.362347,9844.739029
1085.087983,-4515.256246,0.000000,9474.636058
1085.088313,-4885.359217,-459.657299,8364.327145
1085.088643,-3256.906145,-919.314598,8142.265362
1085.088972,-1480.411884,0.000000,6883.915261
1085.089302,-296.082377,153.219100,6069.688724
1085.089632,1110.308913,306.438199,5773.606348
1085.089961,1628.453072,-153.219100,6217.729913
1085.090291,1998.556043,-383.047749,9326.594869
1085.090621,-222.061783,2298.286494,12139.377449
1085.090950,-2886.803174,4290.134789,13027.624579
1085.091280,-3552.988522,2911.162892,13323.706956
1085.091610,-3182.885551,383.047749,12139.377449
1085.091939,-666.185348,0.000000,11177.109724
1085.092269,740.205942,-536.266849,10214.842000
1085.092599,1628.453072,-1915.238745,7994.224174
1085.092928,1480.411884,-1762.019645,6439.791695
1085.093258,1776.494261,-689.485948,7328.038826
1085.093588,2368.659014,0.000000,8882.471304
1085.093917,1554.432478,1149.143247,11251.130318
1085.094247,-1258.350101,2451.505594,13471.748144
1085.094577,-3330.926739,3677.258390,14063.912898
1085.094906,-4145.153275,3370.820191,14211.954086
1085.095236,-3701.029710,1302.362347,13323.706956
1085.095566,-3330.926739,153.219100,11399.171507
1085.095895,-3108.864956,-612.876398,10214.842000
1085.096225,-2146.597232,0.000000,8586.388927
1085.096555,-1036.288319,1149.143247,6661.853478
1085.096884,592.164754,306.438199,5847.626942
1085.097214,1110.308913,-153.219100,5477.523971
1085.097544,666.185348,459.657299,7698.141797
1085.097873,-370.102971,2298.286494,10658.965565
1085.098203,-2590.720797,4979.620737,10955.047942
1085.098533,-3775.050304,4826.401637,10362.883188
1085.098862,-3108.864956,2834.553343,10140.821405
1085.099192,-2664.741391,1149.143247,10066.800811
1085.099522,-1924.535449,1149.143247,9770.718434
1085.099851,-592.164754,1762.019645,7624.121203
1085.100181,0.000000,842.705048,4663.297435
1085.100511,1406.391290,536.266849,3701.029710
1085.100840,2812.782580,689.485948,4737.318029
1085.101170,2664.741391,536.266849,6217.729913
1085.101500,1480.411884,1302.362347,8734.430116
1085.101829,-1628.453072,3524.039291,11769.274478
1085.102159,-4663.297435,6052.154434,12287.418637
1085.102489,-5699.585753,2451.505594,11621.233289
1085.102818,-4589.276840,-1149.143247,11103.089130
1085.103148,-2812.782580,-1915.238745,9622.677246
1085.103478,-1480.411884,-2604.724693,9918.759623
1085.103807,-1258.350101,-2451.505594,8216.285956
1085.104137,-1332.370696,-2068.457845,6735.874072
1085.104467,0.000000,-2451.505594,7179.997637
1085.104796,1776.494261,-536.266849,10658.965565
1085.105126,2146.597232,1149.143247,13101.645173
1085.105456,74.020594,2374.896044,14211.954086
1085.105785,-1850.514855,2068.457845,13397.727550
1085.106115,-2442.679609,1378.971896,13767.830521
1085.106445,-1924.535449,1149.143247,14434.015869
1085.106774,-1332.370696,459.657299,13101.645173
1085.107104,-444.123565,0.000000,10955.047942
1085.107434,444.123565,-919.314598,7846.182985
1085.107763,1184.329507,-995.924147,6587.832884
1085.108093,1924.535449,-1685.410096,5995.668130
1085.108423,1776.494261,-1915.238745,6809.894666
1085.108752,888.247130,689.485948,8882.471304
1085.109082,-1628.453072,3064.381992,11177.109724
1085.109412,-4515.256246,4060.306139,11621.233289
1085.109741,-5181.441594,3217.601092,10881.027347
1085.110071,-5107.421000,2068.457845,10732.986159
1085.110401,-4441.235652,1378.971896,9918.759623
1085.110730,-3034.844362,0.000000,7994.224174
1085.111060,-1850.514855,-1455.581446,5921.647536
1085.111390,-814.226536,-1838.629195,3997.112087
1085.111719,-296.082377,-229.828649,3849.070898
1085.112049,740.205942,1225.752797,5477.523971
1085.112379,1628.453072,1149.143247,7624.121203
1085.112708,962.267725,2221.676944,10881.027347
1085.113038,-2072.576638,4060.306139,12287.418637
1085.113368,-3849.070898,3753.867940,12287.418637
1085.113697,-3775.050304,2068.457845,11843.295072
1085.114027,-2368.659014,689.485948,11399.171507
1085.114357,-444.123565,-612.876398,10436.903782
1085.114686,1036.288319,-995.924147,9474.636058
1085.115016,1258.350101,-1072.533697,7402.059420
1085.115346,666.185348,229.828649,5773.606348
1085.115675,1776.494261,0.000000,5995.668130
1085.116005,3849.070898,229.828649,8364.327145
1085.116335,3701.029710,1225.752797,11325.150913
1085.116664,666.185348,3294.210641,13249.686362
1085.116994,-2960.823768,3294.210641,12509.480420
1085.117324,-3701.029710,1762.019645,13693.809927
1085.117653,-3775.050304,1455.581446,14359.995275
1085.117983,-3404.947333,1915.238745,13545.768739
1085.118313,-1554.432478,1455.581446,10584.944971
1085.118642,-148.041188,-1225.752797,7105.977043
1085.118972,296.082377,-2681.334243,4293.194464
1085.119302,666.185348,-1608.800546,4959.379811
1085.119632,1110.308913,-1225.752797,7920.203579
1085.119961,74.020594,1915.238745,10140.821405
1085.120291,-2812.782580,4596.572988,11473.192101
1085.120621,-4589.276840,4290.134789,11399.171507
1085.120950,-4145.153275,1685.410096,11843.295072
1085.121280,-3108.864956,0.000000,12879.583391
1085.121610,-3701.029710,1378.971896,11325.150913
1085.121939,-3108.864956,536.266849,8808.450710
1085.122269,-1332.370696,-842.705048,6957.935855
1085.122599,592.164754,-229.828649,5255.462188
1085.122928,1998.556043,0.000000,4145.153275
1085.123258,3108.864956,-229.828649,4293.194464
1085.123588,3701.029710,306.438199,6069.688724
1085.123917,2220.617826,1915.238745,9992.780217
1085.124247,-1258.350101,3524.039291,12361.439231
1085.124577,-3997.112087,3830.477490,12583.501014
1085.124906,-4663.297435,2298.286494,11843.295072
1085.125236,-4071.132681,383.047749,11325.150913
1085.125566,-2886.803174,-689.485948,10584.944971
1085.125895,-888.247130,-1149.143247,9474.636058
1085.126225,-370.102971,-2374.896044,6439.791695
1085.126555,-1036.288319,-2681.334243,3627.009116
1085.126884,370.102971,-2987.772442,4145.153275
1085.127214,2590.720797,-1762.019645,8216.285956
1085.127544,1850.514855,766.095498,11621.233289
1085.127873,-1332.370696,2451.505594,13101.645173
1085.128203,-3404.947333,2374.896044,13471.748144
1085.128533,-3108.864956,1225.752797,15914.427753
1085.128862,-3330.926739,995.924147,16358.551318
1085.129192,-2960.823768,1532.190996,14434.015869
1085.129522,-814.226536,-766.095498,10732.986159
1085.129851,2220.617826,-3140.991542,7476.080014
1085.130181,3256.906145,-3140.991542,6291.750507
1085.130511,3108.864956,-536.266849,5995.668130
1085.130840,2960.823768,76.609550,7920.203579
1085.131170,2590.720797,2145.067394,9548.656652
1085.131500,-148.041188,4519.963438,11473.192101
1085.131829,-2368.659014,4366.744339,11769.274478
1085.132159,-2516.700203,2451.505594,12065.356855
1085.132489,-2738.761985,1149.143247,12139.377449
1085.132818,-3923.091493,1838.629195,11177.109724
1085.133148,-3923.091493,536.266849,9844.739029
1085.133478,-3478.967927,0.000000,7476.080014
1085.133807,-2442.679609,612.876398,4737.318029
1085.134137,-740.205942,612.876398,3404.947333
1085.134467,1480.411884,-229.828649,2886.803174
1085.134796,2442.679609,-612.876398,5033.400406
1085.135126,296.082377,1225.752797,8068.244768
1085.135456,-2812.782580,4060.306139,10955.047942
1085.135785,-4811.338623,5898.935335,12139.377449
1085.136115,-4663.297435,4060.306139,12731.542202
1085.136445,-4441.235652,2221.676944,12287.418637
1085.136774,-2960.823768,229.828649,11695.253884
1085.137104,-740.205942,-536.266849,10140.821405
1085.137434,814.226536,-1838.629195,6883.915261
1085.137763,444.123565,-766.095498,4663.297435
1085.138093,1998.556043,-995.924147,5403.503377
1085.138423,3627.009116,0.000000,7920.203579
1085.138752,3404.947333,1838.629195,10732.986159
1085.139082,962.267725,2604.724693,12287.418637
1085.139412,-1850.514855,4903.011187,12731.542202
1085.139741,-2664.741391,3064.381992,13693.809927
1085.140071,-2368.659014,1072.533697,14434.015869
1085.140401,-1628.453072,306.438199,13249.686362
1085.140730,-444.123565,-766.095498,11399.171507
1085.141060,0.000000,-612.876398,7994.224174
1085.141390,-296.082377,-1149.143247,6069.688724
1085.141719,1036.288319,-689.485948,5995.668130
1085.142049,1924.535449,-306.438199,8142.265362
1085.142379,1998.556043,1149.143247,9844.739029
1085.142708,-666.185348,3217.601092,11177.109724
1085.143038,-3627.009116,3140.991542,10807.006753
1085.143368,-4885.359217,2374.896044,10955.047942
1085.143697,-4515.256246,536.266849,11695.253884
1085.144027,-3627.009116,-229.828649,11991.336260
1085.144357,-3108.864956,612.876398,11991.336260
1085.144686,-2072.576638,919.314598,9030.512492
1085.145016,-1628.453072,153.219100,4663.297435
1085.145346,888.247130,-2374.896044,3404.947333
1085.145675,2886.803174,-2451.505594,4219.173869
1085.146005,3627.009116,919.314598,7698.141797
1085.146335,1480.411884,3753.867940,10658.965565
1085.146664,-2220.617826,5515.887586,11029.068536
1085.146994,-4145.153275,4903.011187,10955.047942
1085.147324,-3627.009116,1225.752797,11621.233289
1085.147653,-2294.638420,0.000000,11547.212695
1085.147983,-1406.391290,0.000000,10066.800811
1085.148313,-222.061783,-612.876398,8142.265362
1085.148642,-296.082377,-1608.800546,5921.647536
1085.148972,-296.082377,-1762.019645,6217.729913
1085.149302,148.041188,0.000000,7624.121203
1085.149631,1406.391290,1532.190996,8216.285956
1085.149961,1702.473667,1685.410096,9918.759623
1085.150291,0.000000,1991.848295,11177.109724
1085.150620,-2812.782580,1915.238745,11399.171507
1085.150950,-3923.091493,459.657299,12731.542202
1085.151280,-3627.009116,459.657299,13841.851115
1085.151610,-2812.782580,2068.457845,13693.809927
1085.151939,-2294.638420,919.314598,11769.274478
1085.152269,-962.267725,-2068.457845,8586.388927
1085.152599,296.082377,-2834.553343,6587.832884
1085.152928,1702.473667,-1762.019645,6439.791695
1085.153258,3034.844362,306.438199,7920.203579
1085.153588,2886.803174,2068.457845,10584.944971
1085.153917,444.123565,4443.353888,12805.562797
1085.154247,-1924.535449,5669.106685,12657.521608
1085.154577,-2516.700203,3983.696590,11917.315666
1085.154906,-2146.597232,2451.505594,11473.192101
1085.155236,-1554.432478,1685.410096,10510.924376
1085.155566,-740.205942,1149.143247,10510.924376
1085.155895,-740.205942,306.438199,7624.121203
1085.156225,-1036.288319,-306.438199,4737.318029
1085.156555,-592.164754,0.000000,4663.297435
1085.156884,444.123565,153.219100,6291.750507
1085.157214,0.000000,1991.848295,8438.347739
1085.157544,-1406.391290,3217.601092,10140.821405
1085.157873,-3849.070898,3983.696590,9252.574275
1085.158203,-4885.359217,3447.429741,9178.553681
1085.158533,-3627.009116,2451.505594,10510.924376
1085.158862,-3330.926739,1915.238745,10066.800811
1085.159192,-2442.679609,306.438199,9030.512492
1085.159522,-1258.350101,-1225.752797,8142.265362
1085.159851,-1258.350101,-1378.971896,7772.162391
1085.160181,-2072.576638,-306.438199,7328.038826
1085.160511,-1036.288319,383.047749,6513.812290
1085.160840,1406.391290,76.609550,7698.141797
1085.161170,3108.864956,0.000000,10955.047942
1085.161500,1924.535449,1455.581446,12879.583391
1085.161829,-1258.350101,3064.381992,12879.583391
1085.162159,-2146.597232,2681.334243,12435.459826
1085.162489,-2072.576638,2374.896044,12139.377449
1085.162818,0.000000,1685.410096,12139.377449
1085.163148,1554.432478,-459.657299,11769.274478
1085.163478,666.185348,-2451.505594,7994.224174
1085.163807,0.000000,-1608.800546,5625.565159
1085.164137,1554.432478,-1532.190996,6513.812290
1085.164467,2886.803174,-1149.143247,9548.656652
1085.164796,1924.535449,1762.019645,12731.542202
1085.165126,-1702.473667,3370.820191,12657.521608
1085.165456,-4145.153275,4366.744339,10066.800811
1085.165785,-3923.091493,2221.676944,10584.944971
1085.166115,-2812.782580,1608.800546,11547.212695
1085.166445,-2072.576638,1991.848295,11473.192101
1085.166774,-1924.535449,459.657299,9474.636058
1085.167104,-1924.535449,-1225.752797,6217.729913
1085.167434,-1554.432478,-1302.362347,4737.318029
1085.167763,-1480.411884,-1532.190996,5329.482782
1085.168093,-814.226536,-612.876398,7920.203579
1085.168423,-296.082377,536.266849,9770.718434
1085.168752,-1258.350101,2604.724693,11473.192101
1085.169082,-2442.679609,4290.134789,11473.192101
1085.169412,-2738.761985,4519.963438,11177.109724
1085.169741,-2368.659014,2911.162892,10658.965565
1085.170071,-814.226536,2068.457845,9400.615463
1085.170401,740.205942,1532.190996,8808.450710
1085.170730,1924.535449,536.266849,7994.224174
1085.171060,666.185348,0.000000,5551.544565
1085.171390,296.082377,-995.924147,4367.215058
1085.171719,1628.453072,-1915.238745,6365.771101
1085.172049,1776.494261,0.000000,9178.553681
1085.172379,148.041188,1685.410096,12287.418637
1085.172708,-2368.659014,3064.381992,12287.418637
1085.173038,-4367.215058,2604.724693,11547.212695
1085.173368,-3627.009116,1302.362347,11917.315666
1085.173697,-2072.576638,1455.581446,11843.295072
1085.174027,-814.226536,766.095498,11399.171507
1085.174357,-444.123565,-383.047749,8882.471304
1085.174686,-1184.329507,-1072.533697,6661.853478
1085.175016,-740.205942,-1838.629195,5921.647536
1085.175346,518.144159,-2298.286494,7698.141797
1085.175675,740.205942,-229.828649,11251.130318
1085.176005,-518.144159,1762.019645,12657.521608
1085.176335,-3034.844362,3064.381992,12879.583391
1085.176664,-3182.885551,1762.019645,12361.439231
1085.176994,-2368.659014,1762.019645,13175.665768
1085.177324,-1998.556043,2145.067394,12805.562797
1085.177653,-962.267725,2681.334243,10955.047942
1085.177983,740.205942,2145.067394,9104.533087
1085.178313,1702.473667,153.219100,6143.709319
1085.178642,1628.453072,383.047749,4737.318029
1085.178972,1924.535449,-459.657299,5477.523971
1085.179301,2146.597232,766.095498,6883.915261
1085.179631,518.144159,2681.334243,9252.574275
1085.179961,-1850.514855,3294.210641,10510.924376
1085.180290,-4071.132681,3677.258390,11473.192101
1085.180620,-4515.256246,3140.991542,11843.295072
1085.180949,-4071.132681,3600.648841,11177.109724
1085.181279,-3849.070898,1838.629195,9178.553681
1085.181609,-2294.638420,306.438199,7994.224174
1085.181938,-1850.514855,-153.219100,6587.832884
1085.182268,-1184.329507,0.000000,5107.421000
1085.182597,-1184.329507,229.828649,4663.297435
1085.182927,0.000000,-612.876398,5033.400406
1085.183257,888.247130,-612.876398,8734.430116
1085.183586,-592.164754,995.924147,12361.439231
1085.183916,-3478.967927,3140.991542,13323.706956
1085.184245,-4145.153275,3370.820191,12213.398043
1085.184575,-2886.803174,1302.362347,11991.336260
1085.184904,-592.164754,459.657299,12361.439231
1085.185234,1332.370696,1378.971896,13027.624579
1085.185564,1628.453072,459.657299,10140.821405
1085.185893,2220.617826,0.000000,6439.791695
1085.186223,2664.741391,-766.095498,5773.606348
1085.186552,3256.906145,-536.266849,7994.224174
1085.186882,2812.782580,153.219100,9622.677246
1085.187212,740.205942,306.438199,11695.253884
1085.187541,-1850.514855,2298.286494,12287.418637
1085.187871,-4441.235652,3217.601092,13027.624579
1085.188200,-4737.318029,1685.410096,13989.892304
1085.188530,-3997.112087,689.485948,13101.645173
1085.188860,-3108.864956,612.876398,10732.986159
1085.189189,-1998.556043,153.219100,8290.306550
1085.189519,-1036.288319,-459.657299,5995.668130
1085.189848,-444.123565,0.000000,5181.441594
1085.190178,0.000000,-306.438199,5477.523971
1085.190507,0.000000,536.266849,6957.935855
1085.190837,-1258.350101,2068.457845,9992.780217
1085.191167,-3404.947333,3217.601092,11843.295072
1085.191496,-5329.482782,3524.039291,11325.150913
1085.191826,-5625.565159,2298.286494,10436.903782
1085.192155,-3478.967927,229.828649,10658.965565
1085.192485,-1776.494261,1072.533697,10288.862594
1085.192815,-814.226536,1378.971896,9252.574275
1085.193144,74.020594,612.876398,6365.771101
1085.193474,592.164754,536.266849,4441.235652
1085.193803,1406.391290,0.000000,3849.070898
1085.194133,2812.782580,536.266849,5995.668130
1085.194463,2072.576638,995.924147,8512.368333
1085.194792,74.020594,1149.143247,10881.027347
1085.195122,-2442.679609,1685.410096,12065.356855
1085.195451,-4441.235652,1302.362347,12065.356855
1085.195781,-4145.153275,612.876398,12435.459826
1085.196110,-2516.700203,-766.095498,12213.398043
1085.196440,-1036.288319,-229.828649,11547.212695
1085.196770,-518.144159,-612.876398,10066.800811
1085.197099,-592.164754,-919.314598,7624.121203
1085.197429,148.041188,-689.485948,6365.771101
1085.197758,1776.494261,-306.438199,8216.285956
1085.198088,2886.803174,-229.828649,10214.842000
1085.198418,1406.391290,536.266849,12657.521608
1085.198747,-1998.556043,2068.457845,13249.686362
1085.199077,-4737.318029,2757.943793,13397.727550
1085.199406,-4737.318029,1762.019645,14137.933492
1085.199736,-3478.967927,1378.971896,13767.830521
1085.200065,-1628.453072,76.609550,11769.274478
1085.200395,-666.185348,-1302.362347,8438.347739
1085.200725,444.123565,-1072.533697,4885.359217
1085.201054,1258.350101,-383.047749,4589.276840
1085.201384,2220.617826,0.000000,4959.379811
1085.201713,2146.597232,1302.362347,7328.038826
1085.202043,222.061783,2757.943793,10066.800811
1085.202373,-2220.617826,4366.744339,10658.965565
1085.202702,-3701.029710,4366.744339,10140.821405
1085.203032,-3552.988522,1762.019645,10362.883188
1085.203361,-3404.947333,689.485948,11029.068536
1085.203691,-3256.906145,1455.581446,10732.986159
1085.204021,-2590.720797,1915.238745,9696.697840
1085.204350,-2220.617826,1608.800546,6883.915261
1085.204680,-1776.494261,153.219100,4441.235652
1085.205009,-296.082377,-536.266849,4737.318029
1085.205339,814.226536,153.219100,6809.894666
1085.205668,888.247130,1532.190996,9252.574275
1085.205998,-1258.350101,2068.457845,10510.924376
1085.206328,-4737.318029,2528.115143,10732.986159
1085.206657,-5551.544565,1302.362347,11769.274478
1085.206987,-4293.194464,1072.533697,12805.562797
1085.207316,-2220.617826,995.924147,12065.356855
1085.207646,222.061783,-306.438199,10214.842000
1085.207976,1184.329507,-2374.896044,8660.409521
1085.208305,1258.350101,-1149.143247,7920.203579
1085.208635,1480.411884,1532.190996,7624.121203
1085.208964,3478.967927,2374.896044,7105.977043
1085.209294,5107.421000,2681.334243,8216.285956
1085.209624,3849.070898,2451.505594,10732.986159
1085.209953,-296.082377,3370.820191,11843.295072
1085.210283,-3256.906145,3064.381992,11769.274478
1085.210612,-4293.194464,842.705048,11843.295072
1085.210942,-4145.153275,0.000000,11991.336260
1085.211271,-3701.029710,-536.266849,11695.253884
1085.211601,-3182.885551,-2604.724693,9918.759623
1085.211931,-2368.659014,-2681.334243,6439.791695
1085.212260,-814.226536,-2298.286494,5329.482782
1085.212590,814.226536,-306.438199,8068.244768
1085.212919,1480.411884,2451.505594,10955.047942
1085.213249,-370.102971,4213.525239,11843.295072
1085.213579,-1924.535449,4519.963438,10881.027347
1085.213908,-2368.659014,2221.676944,9918.759623
1085.214238,-2516.700203,842.705048,11399.171507
1085.214567,-2442.679609,1915.238745,12435.459826
1085.214897,-2368.659014,2298.286494,11695.253884
1085.215227,-1998.556043,459.657299,9030.512492
1085.215556,-1184.329507,-689.485948,6365.771101
1085.215886,-296.082377,-2528.115143,4811.338623
1085.216215,740.205942,-2221.676944,5403.503377
1085.216545,1332.370696,229.828649,6809.894666
1085.216874,888.247130,2145.067394,8734.430116
1085.217204,-1998.556043,2987.772442,10732.986159
1085.217534,-4589.276840,3447.429741,11177.109724
1085.217863,-5255.462188,2298.286494,11399.171507
1085.218193,-4071.132681,612.876398,9918.759623
1085.218522,-2516.700203,-1838.629195,8290.306550
1085.218852,-962.267725,-3753.867940,8956.491898
1085.219182,-888.247130,-2987.772442,8882.471304
1085.219511,-2368.659014,-459.657299,7105.977043
1085.219841,-1036.288319,153.219100,6735.874072
1085.220170,2146.597232,306.438199,8734.430116
1085.220500,3478.967927,612.876398,11251.130318
1085.220830,2072.576638,1838.629195,14137.933492
1085.221159,-296.082377,2451.505594,13249.686362
1085.221489,-2146.597232,1838.629195,12361.439231
1085.221818,-2442.679609,1608.800546,12657.521608
1085.222148,-1554.432478,1225.752797,13841.851115
1085.222477,-1184.329507,-306.438199,12361.439231
1085.222807,-592.164754,-1302.362347,9548.656652
1085.223137,-222.061783,-766.095498,5255.462188
1085.223466,1110.308913,-842.705048,4811.338623
1085.223796,2886.803174,-1762.019645,6735.874072
1085.224125,2812.782580,1378.971896,9104.533087
1085.224455,1110.308913,3753.867940,10436.903782
1085.224785,-1036.288319,5286.058936,11029.068536
1085.225114,-2960.823768,5439.278036,10955.047942
1085.225444,-3849.070898,4136.915689,11843.295072
1085.225773,-4219.173869,2681.334243,12361.439231
1085.226103,-4145.153275,2145.067394,11177.109724
1085.226433,-3627.009116,1455.581446,8142.265362
1085.226762,-2960.823768,-536.266849,5255.462188
1085.227092,-1776.494261,-1685.410096,3552.988522
1085.227421,-666.185348,-995.924147,4145.153275
1085.227751,518.144159,-306.438199,6439.791695
1085.228080,0.000000,2681.334243,9918.759623
1085.228410,-2368.659014,5669.106685,11621.233289
1085.228740,-4737.318029,4213.525239,10807.006753
1085.229069,-3775.050304,1762.019645,10214.842000
1085.229399,-2368.659014,842.705048,10510.924376
1085.229728,-888.247130,1608.800546,10436.903782
1085.230058,0.000000,612.876398,10140.821405
1085.230388,148.041188,0.000000,8142.265362
1085.230717,-444.123565,-766.095498,6365.771101
1085.231047,0.000000,-459.657299,6883.915261
1085.231376,1998.556043,-612.876398,7476.080014
1085.231706,3404.947333,-229.828649,9104.533087
1085.232036,2442.679609,0.000000,11399.171507
1085.232365,-592.164754,1991.848295,12287.418637
1085.232695,-3034.844362,2451.505594,13101.645173
1085.233024,-3849.070898,2374.896044,13767.830521
1085.233354,-3404.947333,2145.067394,13175.665768
1085.233683,-2146.597232,0.000000,11325.150913
1085.234013,-1184.329507,-3447.429741,8660.409521
1085.234343,-222.061783,-4290.134789,6883.915261
1085.234672,-1036.288319,-2298.286494,6587.832884
1085.235002,0.000000,0.000000,7994.224174
1085.235331,1110.308913,76.609550,10140.821405
1085.235661,296.082377,2068.457845,12509.480420
1085.235991,-1628.453072,3140.991542,12731.542202
1085.236320,-2738.761985,3907.087040,11769.274478
1085.236650,-2146.597232,2451.505594,11547.212695
1085.236979,-1554.432478,1149.143247,11251.130318
1085.237309,-1406.391290,842.705048,10807.006753
1085.237638,-1258.350101,306.438199,9474.636058
1085.237968,-1628.453072,-766.095498,6513.812290
1085.238298,-1554.432478,-1149.143247,4293.194464
1085.238627,-148.041188,-995.924147,5033.400406
1085.238957,1776.494261,-383.047749,7550.100608
1085.239286,1406.391290,1915.238745,9474.636058
1085.239616,-1110.308913,4596.572988,8734.430116
1085.239946,-2664.741391,4136.915689,8364.327145
1085.240275,-2368.659014,2604.724693,9548.656652
1085.240605,-2146.597232,3447.429741,10955.047942
1085.240934,-2072.576638,3524.039291,10436.903782
1085.241264,-1776.494261,536.266849,8438.347739
1085.241594,-2072.576638,-2221.676944,5625.565159
1085.241923,-2220.617826,-2604.724693,5773.606348
1085.242253,-1480.411884,-2298.286494,7698.141797
1085.242582,148.041188,-536.266849,8438.347739
1085.242912,1258.350101,766.095498,9474.636058
1085.243241,518.144159,1455.581446,11991.336260
1085.243571,-1258.350101,2757.943793,13989.892304
1085.243901,-2590.720797,4136.915689,15026.180623
1085.244230,-2294.638420,3907.087040,13841.851115
1085.244560,-814.226536,2834.553343,11769.274478
1085.244889,0.000000,229.828649,11399.171507
1085.245219,666.185348,-995.924147,10362.883188
1085.245549,-222.061783,-1378.971896,7550.100608
1085.245878,0.000000,-995.924147,6217.729913
1085.246208,1628.453072,0.000000,7698.141797
1085.246537,2294.638420,689.485948,10510.924376
1085.246867,740.205942,1762.019645,12065.356855
1085.247197,-1924.535449,2145.067394,10807.006753
1085.247526,-3108.864956,3140.991542,10288.862594
1085.247856,-2738.761985,4136.915689,11769.274478
1085.248185,-2294.638420,3600.648841,12361.439231
1085.248515,-2368.659014,3217.601092,10732.986159
1085.248844,-2294.638420,995.924147,7402.059420
1085.249174,-2072.576638,-612.876398,4441.235652
1085.249504,-1406.391290,-1378.971896,3627.009116
1085.249833,0.000000,-1378.971896,4885.359217
1085.250163,-148.041188,-383.047749,7105.977043
1085.250492,-814.226536,1838.629195,10066.800811
1085.250822,-2960.823768,4596.572988,11177.109724
1085.251152,-4293.194464,5056.230287,10807.006753
1085.251481,-3478.967927,3370.820191,10288.862594
1085.251811,-1480.411884,1838.629195,10288.862594
1085.252140,444.123565,919.314598,9622.677246
1085.252470,1332.370696,-153.219100,9326.594869
1085.252800,-296.082377,-229.828649,6957.935855
1085.253129,-1776.494261,-689.485948,4959.379811
1085.253459,-592.164754,-1838.629195,5995.668130
1085.253788,2072.576638,-1302.362347,8290.306550
1085.254118,3108.864956,459.657299,11325.150913
1085.254447,1924.535449,1838.629195,12361.439231
1085.254777,-962.267725,1991.848295,11547.212695
1085.255107,-2516.700203,1685.410096,11991.336260
1085.255436,-1998.556043,1991.848295,13619.789333
1085.255766,-1406.391290,3294.210641,13841.851115
1085.256095,-740.205942,2757.943793,12583.501014
1085.256425,-518.144159,-306.438199,9252.574275
1085.256755,-814.226536,-3370.820191,6143.709319
1085.257084,-814.226536,-3370.820191,5847.626942
1085.257414,148.041188,-2834.553343,8438.347739
1085.257743,518.144159,-459.657299,10881.027347
1085.258073,-1184.329507,1302.362347,12509.480420
1085.258403,-3256.906145,2757.943793,12139.377449
1085.258732,-3701.029710,2451.505594,11843.295072
1085.259062,-2294.638420,2221.676944,12953.603985
1085.259391,-888.247130,3600.648841,12953.603985
1085.259721,-444.123565,4443.353888,10658.965565
1085.260050,74.020594,766.095498,7328.038826
1085.260380,1036.288319,-2374.896044,4737.318029
1085.260710,666.185348,-1072.533697,3849.070898
1085.261039,888.247130,459.657299,5847.626942
1085.261369,888.247130,1685.410096,8068.244768
1085.261698,-1036.288319,2604.724693,10362.883188
1085.262028,-2442.679609,4290.134789,10584.944971
1085.262358,-3997.112087,3677.258390,10140.821405
1085.262687,-2886.803174,2145.067394,9178.553681
1085.263017,-1924.535449,1455.581446,8586.388927
1085.263346,-962.267725,1455.581446,9252.574275
1085.263676,-1036.288319,1991.848295,9104.533087
1085.264006,-1628.453072,1685.410096,6883.915261
1085.264335,-2220.617826,383.047749,4811.338623
1085.264665,-1036.288319,-689.485948,5107.421000
1085.264994,666.185348,-1225.752797,7994.224174
1085.265324,1036.288319,76.609550,10510.924376
1085.265653,-296.082377,995.924147,11843.295072
1085.265983,-2294.638420,1685.410096,12213.398043
1085.266313,-3775.050304,3064.381992,13397.727550
1085.266642,-3182.885551,3217.601092,14434.015869
1085.266972,-1184.329507,2911.162892,14063.912898
1085.267301,296.082377,842.705048,10955.047942
1085.267631,1110.308913,-1302.362347,8068.244768
1085.267961,962.267725,-1915.238745,6439.791695
1085.268290,1184.329507,-1225.752797,7476.080014
1085.268620,2368.659014,689.485948,8808.450710
1085.268949,2146.597232,1225.752797,10362.883188
1085.269279,518.144159,1302.362347,11769.274478
1085.269609,-2442.679609,2068.457845,12361.439231
1085.269938,-3775.050304,2834.553343,12879.583391
1085.270268,-2590.720797,3294.210641,11991.336260
1085.270597,-1110.308913,1762.019645,10584.944971
1085.270927,0.000000,842.705048,9104.533087
1085.271256,-666.185348,766.095498,7328.038826
1085.271586,-962.267725,0.000000,5033.400406
1085.271916,-814.226536,0.000000,4663.297435
1085.272245,-222.061783,229.828649,5329.482782
1085.272575,-444.123565,612.876398,7846.182985
1085.272904,-1332.370696,229.828649,10436.903782
1085.273234,-3108.864956,1608.800546,10436.903782
1085.273564,-4145.153275,2911.162892,9844.739029
1085.273893,-3552.988522,2528.115143,10658.965565
1085.274223,-2294.638420,2451.505594,11177.109724
1085.274552,-888.247130,1532.190996,11029.068536
1085.274882,-518.144159,1302.362347,9326.594869
1085.275211,-666.185348,383.047749,5477.523971
1085.275541,-888.247130,-1608.800546,3997.112087
1085.275871,962.267725,-2911.162892,5033.400406
1085.276200,2368.659014,-2221.676944,7846.182985
1085.276530,2072.576638,-842.705048,10066.800811
1085.276859,0.000000,229.828649,11325.150913
1085.277189,-2590.720797,1149.143247,11621.233289
1085.277519,-3552.988522,919.314598,12805.562797
1085.277848,-2368.659014,536.266849,13397.727550
1085.278178,-222.061783,306.438199,12657.521608
1085.278507,666.185348,-1378.971896,11325.150913
1085.278837,-148.041188,-1838.629195,9178.553681
1085.279167,-1110.308913,-689.485948,7105.977043
1085.279496,-74.020594,-1149.143247,7105.977043
1085.279826,1924.535449,-1838.629195,8586.388927
1085.280155,1776.494261,-1149.143247,10214.842000
1085.280485,-222.061783,-1225.752797,11843.295072
1085.280815,-3849.070898,-2221.676944,10807.006753
1085.281144,-5181.441594,-2451.505594,10807.006753
1085.281474,-4589.276840,-1838.629195,12583.501014
1085.281803,-2812.782580,-919.314598,13841.851115
1085.282133,-2368.659014,689.485948,13323.706956
1085.282463,-1184.329507,-306.438199,10881.027347
1085.282792,74.020594,-1608.800546,7031.956449
1085.283122,814.226536,-1149.143247,4959.379811
1085.283452,2590.720797,-1302.362347,5773.606348
1085.283781,3701.029710,-612.876398,7772.162391
1085.284111,2664.741391,153.219100,9770.718434
1085.284441,0.000000,306.438199,9844.739029
1085.284770,-2664.741391,-383.047749,9178.553681
1085.285100,-4071.132681,-1685.410096,10436.903782
1085.285429,-4367.215058,-459.657299,10955.047942
1085.285759,-2960.823768,-1762.019645,8808.450710
1085.286089,-592.164754,-5132.839837,6513.812290
1085.286418,666.185348,-6511.811733,5181.441594
1085.286748,-740.205942,-2451.505594,5329.482782
1085.287078,-962.267725,229.828649,6291.750507
1085.287407,0.000000,306.438199,7624.121203
1085.287737,444.123565,76.609550,8956.491898
1085.288067,518.144159,-919.314598,11251.130318
1085.288396,-666.185348,-3830.477490,12361.439231
1085.288726,-2664.741391,-2757.943793,12657.521608
1085.289055,-5403.503377,-1685.410096,12731.542202
1085.289385,-5995.668130,-2221.676944,13027.624579
1085.289715,-5107.421000,-2145.067394,12879.583391
1085.290044,-2516.700203,-3830.477490,11843.295072
1085.290374,444.123565,-5286.058936,9400.615463
1085.290704,962.267725,-4903.011187,5551.544565
1085.291033,1924.535449,-4290.134789,4811.338623
1085.291363,3478.967927,-4213.525239,7624.121203
1085.291693,3182.885551,-1378.971896,11029.068536
1085.292022,1776.494261,919.314598,13027.624579
1085.292352,444.123565,-766.095498,13989.892304
1085.292681,-1332.370696,-1915.238745,13767.830521
1085.293011,-3330.926739,-2374.896044,14359.995275
1085.293341,-4071.132681,-3677.258390,13915.871710
1085.293670,-3701.029710,-3294.210641,11843.295072
1085.294000,-3256.906145,-1838.629195,8734.430116
1085.294330,-1554.432478,-2757.943793,6143.709319
1085.294659,444.123565,-4519.963438,3923.091493
1085.294989,2368.659014,-4749.792088,3404.947333
1085.295319,3108.864956,-2068.457845,3775.050304
1085.295648,2442.679609,-306.438199,4737.318029
1085.295978,1332.370696,612.876398,8364.327145
1085.296307,-1110.308913,689.485948,12287.418637
1085.296637,-4219.173869,1149.143247,14508.036463
1085.296967,-5921.647536,1149.143247,14730.098246
1085.297296,-5699.585753,-842.705048,14434.015869
1085.297626,-4811.338623,-2834.553343,12805.562797
1085.297956,-4219.173869,-3370.820191,10066.800811
1085.298285,-2886.803174,-3600.648841,7105.977043
1085.298615,-148.041188,-2834.553343,5255.462188
1085.298945,1480.411884,-612.876398,4515.256246
1085.299274,2368.659014,766.095498,4737.318029
1085.299604,2664.741391,612.876398,4811.338623
1085.299934,4071.132681,-1225.752797,5551.544565
1085.300263,4441.235652,-2068.457845,7846.182985
1085.300593,2590.720797,-1455.581446,11029.068536
1085.300922,-740.205942,-1149.143247,14063.912898
1085.301252,-3849.070898,-1455.581446,16284.530724
1085.301582,-5921.647536,-919.314598,17838.963202
1085.301911,-6735.874072,689.485948,16802.674883
1085.302241,-5699.585753,-1072.533697,12731.542202
1085.302571,-2738.761985,-4596.572988,8290.306550
1085.302900,518.144159,-6205.373534,4663.297435
1085.303230,2442.679609,-5209.449386,3552.988522
1085.303560,3256.906145,-3294.210641,4441.235652
1085.303889,2146.597232,-1302.362347,6143.709319
1085.304219,296.082377,153.219100,8512.368333
1085.304548,-1184.329507,612.876398,11251.130318
1085.304878,-2294.638420,-766.095498,13471.748144
1085.305208,-2960.823768,-2221.676944,13249.686362
1085.305537,-3997.112087,-3830.477490,12065.356855
1085.305867,-3775.050304,-5362.668486,10658.965565
1085.306197,-3256.906145,-6588.421283,10140.821405
1085.306526,-2146.597232,-4903.011187,9770.718434
1085.306856,-1480.411884,-3830.477490,8068.244768
1085.307186,-518.144159,-2757.943793,6735.874072
1085.307515,1036.288319,-2298.286494,6735.874072
1085.307845,2442.679609,-2145.067394,6735.874072
1085.308174,1998.556043,-2221.676944,7846.182985
1085.308504,296.082377,-1685.410096,9622.677246
1085.308834,-2368.659014,0.000000,11177.109724
1085.309163,-3627.009116,-229.828649,12435.459826
1085.309493,-3404.947333,-2757.943793,12139.377449
1085.309823,-1998.556043,-4596.572988,11103.089130
1085.310152,-370.102971,-5515.887586,9326.594869
1085.310482,222.061783,-5975.544884,8364.327145
1085.310812,0.000000,-4903.011187,7402.059420
1085.311141,0.000000,-3524.039291,7698.141797
1085.311471,0.000000,-1991.848295,9770.718434
1085.311800,-1110.308913,919.314598,12213.398043
1085.312130,-2072.576638,2374.896044,12435.459826
