#time,accel_x,accel_y,accel_z
909.917781,-962.267725,1378.971896,9474.636058
909.918110,-1332.370696,383.047749,9474.636058
909.918439,-1036.288319,842.705048,9474.636058
909.918768,-1184.329507,995.924147,9548.656652
909.919098,-1258.350101,919.314598,9474.636058
909.919427,-962.267725,689.485948,9696.697840
909.919756,-1036.288319,766.095498,9474.636058
909.920085,-1332.370696,919.314598,9252.574275
909.920414,-1110.308913,766.095498,9548.656652
909.920743,-962.267725,766.095498,9474.636058
909.921073,-962.267725,689.485948,9696.697840
909.921402,-814.226536,1149.143247,9474.636058
909.921731,-962.267725,689.485948,9474.636058
909.922060,-962.267725,1072.533697,9548.656652
909.922389,-1184.329507,842.705048,9548.656652
909.922719,-962.267725,842.705048,9622.677246
909.923048,-1036.288319,995.924147,9178.553681
909.923377,-888.247130,919.314598,9622.677246
909.923706,-962.267725,689.485948,9474.636058
909.924035,-1036.288319,919.314598,9622.677246
909.924365,-1110.308913,842.705048,9474.636058
909.924694,-1110.308913,995.924147,9696.697840
909.925023,-1480.411884,1685.410096,9326.594869
909.925352,-888.247130,995.924147,9474.636058
909.925681,-1258.350101,842.705048,9474.636058
909.926011,-1110.308913,842.705048,9474.636058
909.926340,-1110.308913,766.095498,9696.697840
909.926669,-814.226536,1378.971896,9696.697840
909.926998,-1110.308913,1225.752797,9104.533087
909.927327,-1036.288319,919.314598,9770.718434
909.927657,-1036.288319,842.705048,9622.677246
909.927986,-1036.288319,842.705048,9548.656652
909.928315,-962.267725,766.095498,9474.636058
909.928644,-1036.288319,1302.362347,9400.615463
909.928973,-1036.288319,919.314598,9622.677246
909.929303,-962.267725,766.095498,9696.697840
909.929632,-1036.288319,919.314598,9696.697840
909.929961,-1036.288319,919.314598,9548.656652
909.930290,-1110.308913,1149.143247,9474.636058
909.930619,-962.267725,1532.190996,9326.594869
909.930948,-1110.308913,995.924147,9622.677246
909.931278,-888.247130,766.095498,9622.677246
909.931607,-1036.288319,1149.143247,9622.677246
909.931936,-1184.329507,229.828649,9474.636058
909.932265,-666.185348,766.095498,9696.697840
909.932594,-1110.308913,842.705048,9474.636058
909.932924,-1184.329507,766.095498,9474.636058
909.933253,-962.267725,919.314598,9474.636058
909.933582,-1480.411884,612.876398,9474.636058
909.933911,-888.247130,1225.752797,9474.636058
909.934240,-740.205942,1149.143247,9622.677246
909.934570,-1036.288319,1072.533697,9474.636058
909.934899,-1184.329507,995.924147,9548.656652
909.935228,-1036.288319,919.314598,9548.656652
909.935557,-1110.308913,536.266849,9252.574275
909.935886,-1184.329507,1072.533697,9326.594869
909.936216,-1036.288319,995.924147,9548.656652
909.936545,-962.267725,995.924147,9696.697840
909.936874,-1110.308913,919.314598,9474.636058
909.937203,-1036.288319,766.095498,9622.677246
909.937532,-962.267725,612.876398,9548.656652
909.937862,-962.267725,842.705048,9622.677246
909.938191,-962.267725,919.314598,9474.636058
909.938520,-1110.308913,919.314598,9474.636058
909.938849,-814.226536,1072.533697,9252.574275
909.939178,-666.185348,1378.971896,9326.594869
909.939507,74.020594,612.876398,9178.553681
909.939837,1110.308913,766.095498,9400.615463
909.940166,962.267725,536.266849,9326.594869
909.940495,666.185348,612.876398,9474.636058
909.940824,222.061783,612.876398,10066.800811
909.941153,0.000000,1149.143247,10362.883188
909.941483,-740.205942,1149.143247,10584.944971
909.941812,-666.185348,459.657299,10362.883188
909.942141,-148.041188,0.000000,9844.739029
909.942470,222.061783,0.000000,9252.574275
909.942799,1480.411884,612.876398,9400.615463
909.943129,2368.659014,612.876398,8882.471304
909.943458,3108.864956,919.314598,8882.471304
909.943787,3627.009116,1762.019645,9030.512492
909.944116,3552.988522,2145.067394,9030.512492
909.944445,3627.009116,2374.896044,9844.739029
909.944775,3108.864956,1302.362347,10066.800811
909.945104,2220.617826,995.924147,10214.842000
909.945433,1480.411884,383.047749,10732.986159
909.945762,1184.329507,229.828649,10807.006753
909.946091,1036.288319,-536.266849,10214.842000
909.946421,1628.453072,-229.828649,9844.739029
909.946750,2516.700203,0.000000,9400.615463
909.947079,3701.029710,0.000000,9104.533087
909.947408,4589.276840,689.485948,8956.491898
909.947737,4367.215058,2221.676944,9326.594869
909.948066,3849.070898,2834.553343,9770.718434
909.948396,2516.700203,3140.991542,10288.862594
909.948725,666.185348,3064.381992,10807.006753
909.949054,-1480.411884,2451.505594,10140.821405
909.949383,-2220.617826,1762.019645,9104.533087
909.949712,-1480.411884,229.828649,8364.327145
909.950042,222.061783,-1455.581446,7105.977043
909.950371,1850.514855,-1532.190996,6587.832884
909.950700,3182.885551,-995.924147,6365.771101
909.951029,4219.173869,0.000000,7254.018232
909.951358,4367.215058,2374.896044,8438.347739
909.951688,3034.844362,4443.353888,10584.944971
909.952017,1850.514855,4903.011187,12065.356855
909.952346,814.226536,3677.258390,12657.521608
909.952675,-296.082377,2145.067394,12583.501014
909.953004,-1480.411884,-229.828649,11769.274478
909.953334,-1628.453072,-1915.238745,11103.089130
909.953663,-1184.329507,-2528.115143,10362.883188
909.953992,-444.123565,-2451.505594,8882.471304
909.954321,1332.370696,-1838.629195,7920.203579
909.954650,3775.050304,-1455.581446,7476.080014
909.954980,4663.297435,536.266849,6809.894666
909.955309,5181.441594,2068.457845,7328.038826
909.955638,4737.318029,3370.820191,8290.306550
909.955967,4071.132681,4366.744339,9622.677246
909.956296,2960.823768,4596.572988,10807.006753
909.956626,1924.535449,3677.258390,11399.171507
909.956955,592.164754,1762.019645,11695.253884
909.957284,-222.061783,-229.828649,11103.089130
909.957613,-888.247130,-1378.971896,10140.821405
909.957942,-962.267725,-1915.238745,10288.862594
909.958271,-888.247130,-1991.848295,9918.759623
909.958601,0.000000,-1149.143247,10214.842000
909.958930,222.061783,76.609550,9548.656652
909.959259,1406.391290,842.705048,8882.471304
909.959588,2516.700203,842.705048,8142.265362
909.959917,3923.091493,766.095498,8216.285956
909.960247,4293.194464,1532.190996,8438.347739
909.960576,3627.009116,919.314598,8364.327145
909.960905,2812.782580,919.314598,9326.594869
909.961234,1776.494261,1225.752797,10066.800811
909.961563,592.164754,1532.190996,10732.986159
909.961893,-370.102971,1608.800546,10732.986159
909.962222,-222.061783,1455.581446,10436.903782
909.962551,0.000000,1532.190996,9992.780217
909.962880,-444.123565,1149.143247,9252.574275
909.963209,-222.061783,1072.533697,8216.285956
909.963539,592.164754,842.705048,7402.059420
909.963868,962.267725,919.314598,7402.059420
909.964197,888.247130,1685.410096,8142.265362
909.964526,222.061783,689.485948,8956.491898
909.964855,-888.247130,612.876398,9844.739029
909.965185,-2368.659014,919.314598,10214.842000
909.965514,-3256.906145,1455.581446,11547.212695
909.965843,-3108.864956,612.876398,11917.315666
909.966172,-2960.823768,-612.876398,11843.295072
909.966501,-3034.844362,-612.876398,11103.089130
909.966830,-2516.700203,-383.047749,10362.883188
909.967160,-1258.350101,-153.219100,9474.636058
909.967489,444.123565,842.705048,9400.615463
909.967818,1776.494261,919.314598,8956.491898
909.968147,3034.844362,2145.067394,8290.306550
909.968476,3997.112087,3370.820191,7846.182985
909.968806,4441.235652,3677.258390,7550.100608
909.969135,4071.132681,4519.963438,8808.450710
909.969464,1924.535449,3677.258390,9918.759623
909.969793,-592.164754,3370.820191,10732.986159
909.970122,-2664.741391,2374.896044,11621.233289
909.970452,-4367.215058,1455.581446,11029.068536
909.970781,-5403.503377,536.266849,10288.862594
909.971110,-5699.585753,-1532.190996,9252.574275
909.971439,-5329.482782,-3064.381992,8438.347739
909.971768,-4811.338623,-2528.115143,8068.244768
909.972098,-3997.112087,-995.924147,7698.141797
909.972427,-2738.761985,-536.266849,7476.080014
909.972756,-1184.329507,1072.533697,7846.182985
909.973085,370.102971,2221.676944,7402.059420
909.973414,2146.597232,2681.334243,7328.038826
909.973744,3849.070898,2374.896044,7920.203579
909.974073,4071.132681,2987.772442,8808.450710
909.974402,2368.659014,3294.210641,11177.109724
909.974731,0.000000,3294.210641,12657.521608
909.975060,-1776.494261,2757.943793,12953.603985
909.975389,-2368.659014,1685.410096,12657.521608
909.975719,-2368.659014,0.000000,11621.233289
909.976048,-2442.679609,-1455.581446,10584.944971
909.976377,-2146.597232,-1838.629195,9326.594869
909.976706,-2516.700203,-1991.848295,8660.409521
909.977035,-2886.803174,-1072.533697,8438.347739
909.977365,-2294.638420,76.609550,9030.512492
909.977694,-1850.514855,-229.828649,8660.409521
909.978023,-518.144159,536.266849,8438.347739
909.978352,666.185348,1072.533697,8216.285956
909.978681,2516.700203,919.314598,8216.285956
909.979011,2738.761985,995.924147,9030.512492
909.979340,2294.638420,2221.676944,9844.739029
909.979669,666.185348,2757.943793,11103.089130
909.979998,-666.185348,2911.162892,11843.295072
909.980327,-1776.494261,2834.553343,11399.171507
909.980657,-2516.700203,1608.800546,10807.006753
909.980986,-2442.679609,0.000000,10881.027347
909.981315,-2590.720797,-766.095498,9474.636058
909.981644,-3478.967927,-689.485948,8882.471304
909.981973,-3552.988522,-383.047749,7698.141797
909.982303,-2368.659014,-842.705048,7105.977043
909.982632,-518.144159,-1302.362347,7031.956449
909.982961,888.247130,153.219100,5995.668130
909.983290,1998.556043,1455.581446,6069.688724
909.983619,2886.803174,1378.971896,6587.832884
909.983948,3034.844362,1915.238745,8956.491898
909.984278,1628.453072,2757.943793,11251.130318
909.984607,-1110.308913,3294.210641,12657.521608
909.984936,-3404.947333,2987.772442,13397.727550
909.985265,-5033.400406,2068.457845,13471.748144
909.985594,-5329.482782,612.876398,12731.542202
909.985924,-5033.400406,-2068.457845,11621.233289
909.986253,-3997.112087,-2757.943793,10066.800811
909.986582,-3997.112087,-2604.724693,8734.430116
909.986911,-2886.803174,-1608.800546,7624.121203
909.987240,-1110.308913,-536.266849,7772.162391
909.987570,740.205942,76.609550,7624.121203
909.987899,2664.741391,2298.286494,7031.956449
909.988235,4367.215058,2298.286494,7031.956449
909.988565,5847.626942,2604.724693,8068.244768
909.988894,4959.379811,2987.772442,10066.800811
909.989224,2368.659014,3600.648841,12213.398043
909.989554,-296.082377,4290.134789,13471.748144
909.989883,-2812.782580,3217.601092,13175.665768
909.990213,-4367.215058,1532.190996,12213.398043
909.990543,-4959.379811,-1072.533697,11843.295072
909.990872,-5403.503377,-1915.238745,10732.986159
909.991202,-5847.626942,-1915.238745,9178.553681
909.991532,-5847.626942,-766.095498,7254.018232
909.991861,-4071.132681,-919.314598,5551.544565
909.992191,-2072.576638,-1532.190996,5625.565159
909.992521,0.000000,-612.876398,5403.503377
909.992850,1776.494261,2145.067394,4811.338623
909.993180,3775.050304,2374.896044,5255.462188
909.993510,4885.359217,1685.410096,7772.162391
909.993839,2886.803174,3294.210641,10288.862594
909.994169,222.061783,3830.477490,12583.501014
909.994499,-1480.411884,3983.696590,14211.954086
909.994828,-3182.885551,3907.087040,14063.912898
909.995158,-3404.947333,1838.629195,12583.501014
909.995488,-3034.844362,-1378.971896,11177.109724
909.995817,-2516.700203,-3064.381992,10584.944971
909.996147,-2294.638420,-2528.115143,9474.636058
909.996477,-2368.659014,-1302.362347,8290.306550
909.996806,-1924.535449,459.657299,7254.018232
909.997136,-444.123565,766.095498,6957.935855
909.997465,1924.535449,229.828649,7550.100608
909.997795,3627.009116,1838.629195,8216.285956
909.998125,4219.173869,4213.525239,7994.224174
909.998454,3701.029710,4060.306139,8882.471304
909.998784,1776.494261,3140.991542,10955.047942
909.999114,-962.267725,3140.991542,13027.624579
909.999443,-2886.803174,3294.210641,13619.789333
909.999773,-4367.215058,2374.896044,12361.439231
910.000103,-5107.421000,536.266849,11103.089130
910.000432,-4737.318029,-1302.362347,10362.883188
910.000762,-4589.276840,-3140.991542,9918.759623
910.001092,-4441.235652,-2298.286494,8882.471304
910.001421,-3849.070898,0.000000,7550.100608
910.001751,-2220.617826,612.876398,7328.038826
910.002081,-444.123565,1608.800546,6291.750507
910.002410,1776.494261,1838.629195,5255.462188
910.002740,4293.194464,1608.800546,4885.359217
910.003070,5847.626942,2451.505594,6587.832884
910.003399,4589.276840,3217.601092,9548.656652
910.003729,740.205942,3983.696590,12731.542202
910.004059,-2886.803174,4519.963438,13767.830521
910.004388,-4885.359217,4060.306139,13249.686362
910.004718,-4589.276840,1838.629195,12139.377449
910.005047,-3256.906145,-1532.190996,10955.047942
910.005377,-2886.803174,-3140.991542,9992.780217
910.005707,-2960.823768,-2911.162892,8956.491898
910.006036,-4219.173869,-2298.286494,7994.224174
910.006366,-3627.009116,766.095498,8438.347739
910.006696,-1924.535449,1302.362347,9104.533087
910.007025,-296.082377,1149.143247,8364.327145
910.007355,1480.411884,2145.067394,6513.812290
910.007685,3997.112087,766.095498,5995.668130
910.008014,5255.462188,1072.533697,7846.182985
910.008344,3108.864956,2451.505594,10658.965565
910.008674,-370.102971,3753.867940,12879.583391
910.009003,-3182.885551,4366.744339,13323.706956
910.009333,-3627.009116,3140.991542,12435.459826
910.009663,-3034.844362,919.314598,11029.068536
910.009992,-1998.556043,-2374.896044,9918.759623
910.010322,-1998.556043,-3217.601092,9400.615463
910.010652,-2812.782580,-2298.286494,8660.409521
910.010981,-3256.906145,-1532.190996,7698.141797
910.011311,-2368.659014,-153.219100,7772.162391
910.011641,-888.247130,76.609550,8512.368333
910.011970,518.144159,383.047749,8216.285956
910.012300,2368.659014,1532.190996,7179.997637
910.012630,4367.215058,2757.943793,6513.812290
910.012959,4959.379811,1915.238745,7550.100608
910.013289,2368.659014,1838.629195,9992.780217
910.013618,-888.247130,3524.039291,11991.336260
910.013948,-3330.926739,3294.210641,13027.624579
910.014278,-4663.297435,2068.457845,12139.377449
910.014607,-5329.482782,1072.533697,11325.150913
910.014937,-4811.338623,-2298.286494,10584.944971
910.015267,-4145.153275,-3830.477490,9992.780217
910.015596,-3701.029710,-2757.943793,9104.533087
910.015926,-3404.947333,-1225.752797,7994.224174
910.016256,-2220.617826,-1149.143247,7772.162391
910.016585,-740.205942,842.705048,8216.285956
910.016915,1406.391290,1838.629195,7624.121203
910.017245,4219.173869,2068.457845,7328.038826
910.017574,5995.668130,1608.800546,7846.182985
910.017904,4515.256246,2681.334243,9696.697840
910.018234,1258.350101,3370.820191,11695.253884
910.018563,-1850.514855,3447.429741,13693.809927
910.018893,-3034.844362,2987.772442,13989.892304
910.019223,-4441.235652,1991.848295,12583.501014
910.019552,-4737.318029,0.000000,10881.027347
910.019882,-4293.194464,-3064.381992,10140.821405
910.020212,-4293.194464,-2757.943793,8586.388927
910.020541,-4293.194464,-1915.238745,7254.018232
910.020871,-4071.132681,-689.485948,7476.080014
910.021201,-3404.947333,919.314598,7402.059420
910.021530,-1702.473667,2451.505594,6587.832884
910.021860,1036.288319,2451.505594,5403.503377
910.022189,3923.091493,1685.410096,5551.544565
910.022519,4737.318029,2451.505594,7402.059420
910.022849,2664.741391,2834.553343,10436.903782
910.023178,-1184.329507,3983.696590,13175.665768
910.023508,-4589.276840,5209.449386,13545.768739
910.023838,-4885.359217,3677.258390,13471.748144
910.024167,-4737.318029,766.095498,11917.315666
910.024497,-3923.091493,-1378.971896,10288.862594
910.024827,-2516.700203,-2451.505594,8882.471304
910.025156,-1924.535449,-3370.820191,8068.244768
910.025486,-2738.761985,-1532.190996,7328.038826
910.025816,-2294.638420,995.924147,7698.141797
910.026145,-444.123565,919.314598,8586.388927
910.026475,1924.535449,1378.971896,8808.450710
910.026805,3923.091493,3907.087040,7846.182985
910.027134,6217.729913,3830.477490,7328.038826
910.027464,5995.668130,2911.162892,8660.409521
910.027794,3923.091493,3370.820191,11029.068536
910.028123,444.123565,3983.696590,12879.583391
910.028453,-2590.720797,4290.134789,13397.727550
910.028783,-4737.318029,3524.039291,12287.418637
910.029112,-4885.359217,766.095498,11473.192101
910.029442,-4441.235652,-2451.505594,10732.986159
910.029771,-4293.194464,-3447.429741,9770.718434
910.030101,-4737.318029,-2451.505594,8142.265362
910.030431,-4367.215058,-1225.752797,6957.935855
910.030760,-2960.823768,-306.438199,7254.018232
910.031090,-1184.329507,306.438199,8068.244768
910.031420,444.123565,1455.581446,7105.977043
910.031749,2368.659014,2757.943793,5551.544565
910.032079,4589.276840,2681.334243,5477.523971
910.032409,5181.441594,2221.676944,8734.430116
910.032738,2368.659014,3370.820191,11769.274478
910.033068,-1554.432478,4290.134789,13175.665768
910.033398,-3849.070898,3983.696590,13693.809927
910.033727,-4589.276840,2451.505594,13397.727550
910.034057,-4515.256246,383.047749,12065.356855
910.034387,-3552.988522,-2911.162892,10584.944971
910.034716,-2812.782580,-3753.867940,9178.553681
910.035046,-2960.823768,-2374.896044,7402.059420
910.035376,-2738.761985,-995.924147,7254.018232
910.035705,-1628.453072,0.000000,8216.285956
910.036035,-1036.288319,919.314598,8364.327145
910.036365,814.226536,1455.581446,8142.265362
910.036694,3256.906145,2145.067394,7624.121203
910.037024,4663.297435,2604.724693,7846.182985
910.037354,4219.173869,2451.505594,9030.512492
910.037683,1110.308913,2145.067394,10584.944971
910.038013,-1036.288319,3370.820191,12361.439231
910.038342,-2442.679609,3370.820191,12213.398043
910.038672,-3775.050304,1915.238745,11473.192101
910.039002,-4219.173869,-306.438199,10584.944971
910.039331,-3997.112087,-2451.505594,9696.697840
910.039661,-3701.029710,-2757.943793,9400.615463
910.039991,-4071.132681,-1532.190996,8216.285956
910.040320,-3701.029710,0.000000,7698.141797
910.040650,-2590.720797,-229.828649,7772.162391
910.040980,-444.123565,766.095498,8068.244768
910.041309,1406.391290,2145.067394,7031.956449
910.041639,3552.988522,1762.019645,6217.729913
910.041969,4441.235652,1149.143247,7402.059420
910.042298,3034.844362,1991.848295,10066.800811
910.042628,74.020594,3064.381992,12435.459826
910.042958,-2516.700203,3907.087040,13101.645173
910.043287,-3701.029710,3524.039291,12361.439231
910.043617,-4145.153275,1149.143247,11029.068536
910.043947,-3330.926739,-2374.896044,10362.883188
910.044276,-2516.700203,-3524.039291,9844.739029
910.044606,-2664.741391,-3140.991542,9474.636058
910.044936,-3701.029710,-383.047749,8808.450710
910.045265,-3182.885551,612.876398,8734.430116
910.045595,-1406.391290,689.485948,9104.533087
910.045924,444.123565,1225.752797,8586.388927
910.046254,3404.947333,1762.019645,8142.265362
910.046584,5403.503377,2528.115143,8216.285956
910.046913,5033.400406,3217.601092,8512.368333
910.047243,2516.700203,3370.820191,9548.656652
910.047573,-444.123565,3294.210641,11325.150913
910.047902,-2886.803174,3140.991542,11843.295072
910.048232,-4663.297435,2834.553343,11695.253884
910.048562,-5995.668130,995.924147,10584.944971
910.048891,-6069.688724,-1991.848295,9918.759623
910.049221,-5921.647536,-3830.477490,9104.533087
910.049551,-5921.647536,-4136.915689,8068.244768
910.049880,-5255.462188,-2911.162892,7105.977043
910.050210,-3701.029710,-995.924147,8068.244768
910.050540,-1258.350101,0.000000,8660.409521
910.050869,1036.288319,1072.533697,8660.409521
910.051199,3256.906145,3294.210641,7254.018232
910.051529,5477.523971,4366.744339,6957.935855
910.051858,6291.750507,3753.867940,8882.471304
910.052188,3997.112087,4366.744339,11399.171507
910.052518,222.061783,4290.134789,12731.542202
910.052847,-2294.638420,3524.039291,12953.603985
910.053177,-3701.029710,1991.848295,12509.480420
910.053507,-4663.297435,459.657299,11251.130318
910.053836,-3849.070898,-2757.943793,10288.862594
910.054166,-3701.029710,-4749.792088,8882.471304
910.054495,-4293.194464,-2911.162892,7624.121203
910.054825,-3849.070898,-612.876398,7772.162391
910.055155,-2368.659014,76.609550,8290.306550
910.055484,-1702.473667,1072.533697,8808.450710
910.055814,0.000000,2451.505594,8882.471304
910.056144,2368.659014,3217.601092,8586.388927
910.056473,4293.194464,2911.162892,8586.388927
910.056803,3923.091493,3217.601092,9548.656652
910.057133,1554.432478,3140.991542,11029.068536
910.057462,-666.185348,3140.991542,11843.295072
910.057792,-1850.514855,2757.943793,11695.253884
910.058122,-2590.720797,1685.410096,10807.006753
910.058451,-2738.761985,229.828649,10214.842000
910.058781,-2812.782580,-1685.410096,9770.718434
910.059111,-2590.720797,-1532.190996,9104.533087
910.059440,-2960.823768,-306.438199,7772.162391
910.059770,-2368.659014,536.266849,7254.018232
910.060100,-1184.329507,-76.609550,7254.018232
910.060429,444.123565,995.924147,7698.141797
910.060759,962.267725,1838.629195,7846.182985
910.061089,2664.741391,2374.896044,7476.080014
910.061418,3182.885551,2987.772442,7994.224174
910.061748,1776.494261,2834.553343,9548.656652
910.062078,-370.102971,3983.696590,12139.377449
910.062407,-2664.741391,3524.039291,12805.562797
910.062737,-3923.091493,2604.724693,12065.356855
910.063066,-4293.194464,1149.143247,11399.171507
910.063396,-4071.132681,-1072.533697,10658.965565
910.063726,-3034.844362,-2298.286494,9474.636058
910.064055,-3034.844362,-2987.772442,9030.512492
910.064385,-3256.906145,-1608.800546,8364.327145
910.064715,-2738.761985,0.000000,8438.347739
910.065044,-1258.350101,0.000000,9030.512492
910.065374,592.164754,842.705048,8882.471304
910.065704,2812.782580,1608.800546,8068.244768
910.066033,4367.215058,2451.505594,7920.203579
910.066363,4885.359217,2298.286494,9104.533087
910.066693,3108.864956,3064.381992,10732.986159
910.067022,222.061783,3907.087040,11695.253884
910.067352,-1702.473667,3217.601092,11843.295072
910.067682,-2738.761985,1991.848295,11103.089130
910.068011,-3256.906145,0.000000,10214.842000
910.068341,-3701.029710,-2451.505594,9696.697840
910.068671,-3997.112087,-3370.820191,9548.656652
910.069000,-4737.318029,-2528.115143,8512.368333
910.069330,-3997.112087,-842.705048,7846.182985
910.069660,-3108.864956,-153.219100,7920.203579
910.069989,-1480.411884,0.000000,8142.265362
910.070319,592.164754,1072.533697,7846.182985
910.070648,1924.535449,2604.724693,6883.915261
910.070978,3701.029710,2374.896044,6957.935855
910.071308,3330.926739,1991.848295,8364.327145
910.071637,888.247130,2451.505594,10732.986159
910.071967,-1850.514855,3064.381992,12435.459826
910.072297,-3552.988522,3064.381992,12731.542202
910.072626,-4441.235652,2221.676944,11695.253884
910.072956,-4219.173869,76.609550,10732.986159
910.073286,-3478.967927,-2911.162892,9918.759623
910.073615,-2220.617826,-3600.648841,9252.574275
910.073945,-2516.700203,-1915.238745,8512.368333
910.074275,-2146.597232,-306.438199,8438.347739
910.074604,-1332.370696,229.828649,8882.471304
910.074934,-148.041188,1378.971896,9474.636058
910.075264,1554.432478,1915.238745,9178.553681
910.075593,3330.926739,2221.676944,8808.450710
910.075923,4071.132681,2451.505594,8512.368333
910.076253,3330.926739,3064.381992,9622.677246
910.076582,666.185348,2604.724693,11399.171507
910.076912,-1332.370696,2757.943793,11991.336260
910.077242,-2812.782580,2451.505594,11547.212695
910.077571,-3701.029710,1608.800546,10732.986159
910.077901,-4367.215058,-306.438199,9992.780217
910.078231,-4515.256246,-2298.286494,9474.636058
910.078560,-4367.215058,-2451.505594,8808.450710
910.078890,-4515.256246,-1072.533697,7846.182985
910.079219,-3997.112087,-229.828649,7624.121203
910.079549,-2294.638420,689.485948,7550.100608
910.079879,-666.185348,1762.019645,7031.956449
910.080208,1406.391290,1915.238745,6439.791695
910.080538,3849.070898,1532.190996,6957.935855
910.080868,3923.091493,2221.676944,8734.430116
910.081197,1850.514855,2298.286494,10732.986159
910.081527,-1554.432478,3524.039291,12361.439231
910.081857,-3775.050304,3830.477490,13323.706956
910.082186,-4589.276840,2451.505594,12509.480420
910.082516,-4367.215058,306.438199,11325.150913
910.082846,-3108.864956,-1991.848295,10288.862594
910.083175,-2220.617826,-2834.553343,9104.533087
910.083505,-1998.556043,-2681.334243,8216.285956
910.083835,-2220.617826,-1072.533697,7402.059420
910.084164,-1332.370696,536.266849,8142.265362
910.084494,0.000000,1302.362347,8956.491898
910.084824,1554.432478,2987.772442,9178.553681
910.085153,3182.885551,3447.429741,8438.347739
910.085483,4589.276840,2451.505594,8290.306550
910.085813,3997.112087,2068.457845,9918.759623
910.086142,1480.411884,2757.943793,11621.233289
910.086472,-1480.411884,4060.306139,12805.562797
910.086801,-3701.029710,3294.210641,12213.398043
910.087131,-4219.173869,2145.067394,11325.150913
910.087461,-3849.070898,-612.876398,10510.924376
910.087790,-2960.823768,-2604.724693,9696.697840
910.088120,-2812.782580,-2068.457845,9400.615463
910.088450,-3775.050304,-1149.143247,7624.121203
910.088779,-3552.988522,76.609550,7254.018232
910.089109,-2146.597232,383.047749,7402.059420
910.089439,-296.082377,536.266849,7994.224174
910.089768,1184.329507,1225.752797,7772.162391
910.090098,3108.864956,2374.896044,7624.121203
910.090427,3923.091493,2681.334243,7846.182985
910.090757,2886.803174,2451.505594,9400.615463
910.091086,592.164754,3294.210641,11177.109724
910.091416,-1776.494261,3830.477490,12213.398043
910.091745,-2960.823768,2757.943793,12583.501014
910.092075,-3997.112087,2451.505594,12287.418637
910.092404,-3775.050304,766.095498,11177.109724
910.092734,-2812.782580,-2068.457845,9918.759623
910.093063,-2368.659014,-2757.943793,8882.471304
910.093393,-2664.741391,-1225.752797,7920.203579
910.093722,-2738.761985,0.000000,7402.059420
910.094051,-962.267725,0.000000,7920.203579
910.094381,296.082377,766.095498,8438.347739
910.094710,1776.494261,2221.676944,8142.265362
910.095040,3404.947333,1915.238745,8142.265362
910.095369,4367.215058,1991.848295,9178.553681
910.095699,2294.638420,2834.553343,10288.862594
910.096028,-444.123565,3677.258390,11843.295072
910.096358,-2072.576638,3370.820191,12731.542202
910.096687,-2960.823768,2145.067394,12065.356855
910.097017,-3478.967927,1072.533697,10732.986159
910.097346,-3552.988522,-1149.143247,10362.883188
910.097675,-3108.864956,-2451.505594,9696.697840
910.098005,-3182.885551,-2145.067394,8512.368333
910.098334,-3701.029710,-1072.533697,7328.038826
910.098664,-2960.823768,-76.609550,7254.018232
910.098993,-1258.350101,-229.828649,8216.285956
910.099323,0.000000,1149.143247,8364.327145
910.099652,1110.308913,2374.896044,7105.977043
910.099982,3034.844362,1225.752797,7031.956449
910.100311,3997.112087,612.876398,8438.347739
910.100641,1702.473667,1915.238745,10362.883188
910.100970,-1036.288319,2757.943793,12361.439231
910.101299,-3034.844362,3370.820191,12583.501014
910.101629,-3330.926739,2604.724693,12065.356855
910.101958,-2886.803174,536.266849,11325.150913
910.102288,-2146.597232,-1762.019645,10288.862594
910.102617,-1998.556043,-2987.772442,9548.656652
910.102947,-2072.576638,-1915.238745,9178.553681
910.103276,-2294.638420,-536.266849,9178.553681
910.103606,-2146.597232,689.485948,8734.430116
910.103935,-740.205942,766.095498,8586.388927
910.104265,592.164754,1378.971896,8290.306550
910.104594,1924.535449,1685.410096,7846.182985
910.104923,2664.741391,1991.848295,7920.203579
910.105253,1776.494261,1915.238745,8882.471304
910.105582,-740.205942,2451.505594,10140.821405
910.105912,-3108.864956,2298.286494,11621.233289
910.106241,-3923.091493,1532.190996,12139.377449
910.106571,-3997.112087,689.485948,11769.274478
910.106900,-3627.009116,-536.266849,10881.027347
910.107230,-3256.906145,-2221.676944,9992.780217
910.107559,-2442.679609,-1762.019645,9030.512492
910.107889,-2072.576638,-1149.143247,8438.347739
910.108218,-1332.370696,459.657299,8142.265362
910.108547,-74.020594,1378.971896,8586.388927
910.108877,1036.288319,1991.848295,8438.347739
910.109206,1776.494261,2068.457845,7550.100608
910.109536,3256.906145,2681.334243,6883.915261
910.109865,3478.967927,2451.505594,7105.977043
910.110195,2516.700203,1915.238745,8956.491898
910.110524,-296.082377,2068.457845,10584.944971
910.110854,-2960.823768,2604.724693,11843.295072
910.111183,-4367.215058,1685.410096,11547.212695
910.111513,-5551.544565,842.705048,11695.253884
910.111842,-5477.523971,-153.219100,11473.192101
910.112171,-4811.338623,-1225.752797,10732.986159
910.112501,-4071.132681,-1915.238745,9474.636058
910.112830,-3108.864956,-1378.971896,8068.244768
910.113160,-1998.556043,0.000000,7846.182985
910.113489,-592.164754,229.828649,8512.368333
910.113819,814.226536,1685.410096,8512.368333
910.114148,2368.659014,2911.162892,8216.285956
910.114478,4515.256246,2298.286494,8438.347739
910.114807,4885.359217,2528.115143,8734.430116
910.115137,3182.885551,3064.381992,10807.006753
910.115466,888.247130,3677.258390,11843.295072
910.115795,-1184.329507,3983.696590,11843.295072
910.116125,-2146.597232,2757.943793,11251.130318
910.116454,-2220.617826,536.266849,10584.944971
910.116784,-2812.782580,-1302.362347,10288.862594
910.117113,-3404.947333,-1915.238745,9548.656652
910.117443,-4219.173869,-1149.143247,8438.347739
910.117772,-4145.153275,-689.485948,7550.100608
910.118102,-2886.803174,0.000000,7994.224174
910.118431,-1702.473667,153.219100,7994.224174
910.118761,0.000000,842.705048,7920.203579
910.119090,962.267725,1838.629195,7402.059420
910.119419,2368.659014,2757.943793,7550.100608
910.119749,1924.535449,2757.943793,8660.409521
910.120078,814.226536,2757.943793,10584.944971
910.120408,-888.247130,3524.039291,11695.253884
910.120737,-2442.679609,2451.505594,11917.315666
910.121067,-3404.947333,1608.800546,11769.274478
910.121396,-3478.967927,842.705048,10807.006753
910.121726,-2886.803174,-2145.067394,10362.883188
910.122055,-2146.597232,-2451.505594,10066.800811
910.122385,-2220.617826,-1455.581446,9178.553681
910.122714,-1702.473667,0.000000,8216.285956
910.123043,-592.164754,153.219100,8438.347739
910.123373,962.267725,612.876398,8586.388927
910.123702,2072.576638,2221.676944,8808.450710
910.124032,3330.926739,1838.629195,8734.430116
910.124361,4071.132681,1915.238745,9178.553681
910.124691,2960.823768,2681.334243,10140.821405
910.125020,222.061783,3524.039291,11103.089130
910.125350,-1332.370696,2911.162892,11843.295072
910.125679,-2516.700203,2374.896044,11917.315666
910.126009,-3256.906145,842.705048,11251.130318
910.126338,-3997.112087,-153.219100,10732.986159
910.126667,-4219.173869,-1302.362347,9992.780217
910.126997,-4293.194464,-1302.362347,8660.409521
910.127326,-3923.091493,-1762.019645,7772.162391
910.127656,-3108.864956,-306.438199,7179.997637
910.127985,-1702.473667,0.000000,7328.038826
910.128315,0.000000,459.657299,7476.080014
910.128644,1258.350101,1378.971896,7624.121203
910.128974,2812.782580,2145.067394,7476.080014
910.129303,3701.029710,2221.676944,8068.244768
910.129633,2664.741391,2528.115143,9474.636058
910.129962,814.226536,3370.820191,11029.068536
910.130291,-888.247130,3140.991542,12065.356855
910.130621,-1924.535449,2911.162892,11695.253884
910.130950,-2886.803174,1762.019645,11399.171507
910.131280,-3256.906145,-459.657299,11029.068536
910.131609,-3330.926739,-2221.676944,10066.800811
910.131939,-3256.906145,-2221.676944,9474.636058
910.132268,-3034.844362,-1378.971896,8734.430116
910.132598,-2294.638420,-536.266849,8660.409521
910.132927,-1184.329507,0.000000,8882.471304
910.133257,74.020594,995.924147,8956.491898
910.133586,1850.514855,1838.629195,8956.491898
910.133915,3108.864956,2221.676944,8660.409521
910.134245,3404.947333,2298.286494,9474.636058
910.134574,1998.556043,2604.724693,10436.903782
910.134904,-296.082377,3217.601092,11325.150913
910.135233,-1776.494261,2604.724693,12065.356855
910.135563,-2368.659014,1532.190996,11843.295072
910.135892,-3404.947333,766.095498,10955.047942
910.136222,-3849.070898,-1072.533697,10436.903782
910.136551,-4145.153275,-2145.067394,9844.739029
910.136881,-4071.132681,-1685.410096,8512.368333
910.137210,-2960.823768,-766.095498,7402.059420
910.137539,-2072.576638,-383.047749,7328.038826
910.137869,-666.185348,153.219100,7254.018232
910.138198,444.123565,1302.362347,7550.100608
910.138528,1776.494261,2068.457845,7105.977043
910.138857,2516.700203,2528.115143,7328.038826
910.139187,2368.659014,2528.115143,8364.327145
910.139516,666.185348,2604.724693,9844.739029
910.139846,-1184.329507,2834.553343,11621.233289
910.140175,-2664.741391,2068.457845,11991.336260
910.140505,-3627.009116,1378.971896,12065.356855
910.140834,-4293.194464,306.438199,11325.150913
910.141163,-3923.091493,-1378.971896,10436.903782
910.141493,-3701.029710,-2451.505594,9844.739029
910.141822,-3182.885551,-2374.896044,8882.471304
910.142152,-2368.659014,-1378.971896,8882.471304
910.142481,-1184.329507,-306.438199,9030.512492
910.142811,666.185348,1072.533697,9178.553681
910.143140,1628.453072,2068.457845,8586.388927
910.143470,3256.906145,2374.896044,8142.265362
910.143799,4441.235652,2451.505594,8956.491898
910.144129,3552.988522,2834.553343,10658.965565
910.144458,962.267725,3294.210641,11843.295072
910.144787,-1406.391290,3677.258390,12213.398043
910.145117,-2960.823768,2757.943793,11621.233289
910.145446,-3701.029710,1225.752797,11029.068536
910.145776,-3775.050304,-842.705048,10362.883188
910.146105,-3849.070898,-2068.457845,9622.677246
910.146435,-4367.215058,-1762.019645,8734.430116
910.146764,-4145.153275,-1302.362347,7994.224174
910.147094,-3108.864956,0.000000,7846.182985
910.147423,-1850.514855,842.705048,7772.162391
910.147753,0.000000,1302.362347,7328.038826
910.148082,1258.350101,2221.676944,6957.935855
910.148411,3182.885551,2834.553343,7624.121203
910.148741,3701.029710,3294.210641,8438.347739
910.149070,2146.597232,3447.429741,9548.656652
910.149400,-296.082377,4060.306139,10288.862594
910.149729,-1480.411884,3677.258390,10658.965565
910.150059,-2442.679609,1838.629195,10658.965565
910.150388,-2960.823768,766.095498,10584.944971
910.150718,-3108.864956,-612.876398,10288.862594
910.151047,-3330.926739,-1685.410096,9696.697840
910.151377,-2960.823768,-1532.190996,8660.409521
910.151706,-2738.761985,-766.095498,7920.203579
910.152035,-1406.391290,76.609550,8364.327145
910.152365,-148.041188,612.876398,9104.533087
910.152694,592.164754,1685.410096,9178.553681
910.153024,1924.535449,2451.505594,9474.636058
910.153353,2664.741391,2681.334243,9844.739029
910.153683,2220.617826,2681.334243,10362.883188
910.154012,370.102971,3447.429741,11473.192101
910.154342,-1036.288319,3294.210641,11843.295072
910.154671,-1924.535449,2528.115143,11251.130318
910.155001,-2368.659014,689.485948,11029.068536
910.155330,-2960.823768,-536.266849,10214.842000
910.155659,-3701.029710,-2451.505594,10214.842000
910.155989,-3701.029710,-2221.676944,10066.800811
910.156318,-3627.009116,-1302.362347,9030.512492
910.156648,-3034.844362,-306.438199,8068.244768
910.156977,-1332.370696,0.000000,7994.224174
910.157307,-148.041188,153.219100,7772.162391
910.157636,1406.391290,1072.533697,7920.203579
910.157966,2590.720797,2451.505594,8068.244768
910.158295,3034.844362,3447.429741,8068.244768
910.158625,1998.556043,3600.648841,8586.388927
910.158954,592.164754,2987.772442,9770.718434
910.159283,-740.205942,2681.334243,11473.192101
910.159613,-2294.638420,2298.286494,11769.274478
910.159942,-3775.050304,1378.971896,10807.006753
910.160272,-4589.276840,459.657299,9474.636058
910.160601,-4737.318029,-1991.848295,9178.553681
910.160931,-4367.215058,-2911.162892,8586.388927
910.161260,-4145.153275,-2528.115143,7772.162391
910.161590,-3701.029710,-1762.019645,7550.100608
910.161919,-2146.597232,-1302.362347,8142.265362
910.162249,0.000000,76.609550,8808.450710
910.162578,1628.453072,612.876398,9474.636058
910.162907,3552.988522,1762.019645,9548.656652
910.163237,4515.256246,2604.724693,10066.800811
910.163566,4219.173869,2911.162892,11251.130318
910.163896,2442.679609,4136.915689,12065.356855
910.164225,518.144159,3677.258390,12435.459826
910.164555,-888.247130,2604.724693,12361.439231
910.164884,-2146.597232,1302.362347,11695.253884
910.165214,-2590.720797,-689.485948,10881.027347
910.165543,-3182.885551,-1915.238745,9474.636058
910.165873,-4219.173869,-2987.772442,8364.327145
910.166202,-4589.276840,-2374.896044,7402.059420
910.166531,-3849.070898,-1455.581446,6883.915261
910.166861,-2368.659014,-612.876398,7624.121203
910.167190,-1184.329507,612.876398,7772.162391
910.167520,-148.041188,1378.971896,7550.100608
910.167849,1036.288319,2528.115143,7402.059420
910.168179,1628.453072,3524.039291,7772.162391
910.168508,1110.308913,3294.210641,9326.594869
910.168838,-222.061783,2911.162892,10881.027347
910.169167,-2368.659014,2757.943793,11843.295072
910.169497,-3552.988522,2068.457845,12065.356855
910.169826,-4293.194464,1072.533697,11399.171507
910.170155,-4441.235652,-919.314598,10436.903782
910.170485,-3108.864956,-1762.019645,9770.718434
910.170814,-2442.679609,-3064.381992,8290.306550
910.171144,-1702.473667,-1838.629195,8068.244768
910.171473,-296.082377,153.219100,7846.182985
910.171803,666.185348,1149.143247,8290.306550
910.172132,1628.453072,2298.286494,8364.327145
910.172462,2960.823768,2987.772442,8290.306550
910.172791,4219.173869,2681.334243,8882.471304
910.173121,4071.132681,2911.162892,10066.800811
910.173450,1702.473667,3294.210641,11399.171507
910.173779,-1110.308913,3217.601092,12361.439231
910.174109,-3478.967927,3064.381992,12287.418637
910.174438,-4145.153275,1378.971896,11473.192101
910.174768,-4737.318029,-153.219100,10955.047942
910.175097,-4811.338623,-2374.896044,10214.842000
910.175427,-4885.359217,-2757.943793,9400.615463
910.175756,-4589.276840,-2374.896044,8142.265362
910.176086,-3627.009116,-1762.019645,7254.018232
910.176415,-1480.411884,-306.438199,7846.182985
910.176745,0.000000,995.924147,8142.265362
910.177074,1258.350101,2374.896044,7328.038826
910.177403,2738.761985,2757.943793,6957.935855
910.177733,3849.070898,2145.067394,7179.997637
910.178062,3404.947333,2987.772442,9622.677246
910.178392,888.247130,3907.087040,11399.171507
910.178721,-1702.473667,3600.648841,11991.336260
910.179051,-3034.844362,2604.724693,11917.315666
910.179380,-3923.091493,2068.457845,11029.068536
910.179710,-3256.906145,-689.485948,10362.883188
910.180039,-3034.844362,-2757.943793,9770.718434
910.180369,-2812.782580,-2681.334243,8882.471304
910.180698,-2886.803174,-1608.800546,7994.224174
910.181027,-2146.597232,-459.657299,8142.265362
910.181357,-1258.350101,919.314598,8882.471304
910.181686,-148.041188,2145.067394,8808.450710
910.182016,1480.411884,2681.334243,8364.327145
910.182345,3108.864956,2681.334243,8438.347739
910.182675,3478.967927,2451.505594,9918.759623
910.183004,1850.514855,3217.601092,11399.171507
910.183334,-814.226536,3217.601092,12287.418637
910.183663,-2664.741391,3064.381992,12213.398043
910.183993,-3404.947333,1915.238745,11473.192101
910.184322,-3627.009116,612.876398,10807.006753
910.184651,-3330.926739,-2068.457845,9326.594869
910.184981,-2738.761985,-2987.772442,9178.553681
910.185310,-3256.906145,-2221.676944,8512.368333
910.185640,-3256.906145,-306.438199,7920.203579
910.185969,-1998.556043,306.438199,8216.285956
910.186299,-296.082377,689.485948,7846.182985
910.186628,1258.350101,2987.772442,8216.285956
910.186958,2886.803174,2374.896044,7698.141797
910.187287,4145.153275,2528.115143,7846.182985
910.187617,3330.926739,2987.772442,8734.430116
910.187946,1184.329507,3217.601092,10066.800811
910.188275,-962.267725,3370.820191,11473.192101
910.188605,-3256.906145,2451.505594,11843.295072
910.188934,-3997.112087,1762.019645,11473.192101
910.189264,-4737.318029,-153.219100,10288.862594
910.189594,-4515.256246,-2221.676944,9400.615463
910.189923,-3701.029710,-3294.210641,9178.553681
910.190253,-2960.823768,-2681.334243,8586.388927
910.190583,-2960.823768,-689.485948,7994.224174
910.190912,-1850.514855,153.219100,8438.347739
910.191242,0.000000,766.095498,9178.553681
910.191572,1776.494261,1838.629195,9252.574275
910.191901,3108.864956,2681.334243,8882.471304
910.192231,4737.318029,2604.724693,9400.615463
910.192561,3997.112087,2757.943793,10288.862594
910.192890,1480.411884,2834.553343,11473.192101
910.193220,-814.226536,3294.210641,12065.356855
910.193550,-2368.659014,1685.410096,11843.295072
910.193879,-3330.926739,1225.752797,11177.109724
910.194209,-3701.029710,-459.657299,10955.047942
910.194538,-4145.153275,-1991.848295,10140.821405
910.194868,-4367.215058,-2757.943793,9030.512492
910.195198,-4515.256246,-2451.505594,7772.162391
910.195527,-3849.070898,-612.876398,7402.059420
910.195857,-2442.679609,0.000000,8142.265362
910.196187,-1184.329507,459.657299,8216.285956
910.196516,148.041188,1915.238745,7105.977043
910.196846,1998.556043,2987.772442,6365.771101
910.197176,3034.844362,2221.676944,7179.997637
910.197505,2220.617826,1838.629195,9178.553681
910.197835,-148.041188,3064.381992,11251.130318
910.198165,-2590.720797,3217.601092,12213.398043
910.198494,-3923.091493,2451.505594,12435.459826
910.198824,-4663.297435,842.705048,11917.315666
910.199154,-4515.256246,-766.095498,11399.171507
910.199483,-3552.988522,-2374.896044,10066.800811
910.199813,-2516.700203,-2528.115143,8586.388927
910.200143,-2146.597232,-1608.800546,7846.182985
910.200472,-1184.329507,-459.657299,7772.162391
910.200802,-296.082377,842.705048,8216.285956
910.201131,814.226536,1991.848295,8290.306550
910.201461,2368.659014,2681.334243,8290.306550
910.201791,3627.009116,2681.334243,8882.471304
910.202120,3997.112087,2681.334243,9918.759623
910.202450,1850.514855,2451.505594,11251.130318
910.202780,-962.267725,3447.429741,12287.418637
910.203109,-2960.823768,3064.381992,12509.480420
910.203439,-3923.091493,1455.581446,12213.398043
910.203769,-4293.194464,459.657299,11695.253884
910.204098,-3775.050304,-1072.533697,10214.842000
910.204428,-3478.967927,-2374.896044,9770.718434
910.204758,-3478.967927,-1762.019645,8882.471304
910.205087,-3256.906145,0.000000,7994.224174
910.205417,-2146.597232,-306.438199,7105.977043
910.205747,-592.164754,229.828649,6661.853478
910.206076,1998.556043,1532.190996,6365.771101
910.206406,3701.029710,2068.457845,6661.853478
910.206736,4737.318029,2298.286494,7328.038826
910.207065,3701.029710,3524.039291,8586.388927
910.207395,1480.411884,3830.477490,9770.718434
910.207724,-814.226536,3907.087040,11029.068536
910.208054,-2442.679609,3447.429741,11769.274478
910.208384,-3627.009116,2451.505594,11547.212695
910.208713,-3923.091493,76.609550,11251.130318
910.209043,-3775.050304,-1455.581446,10584.944971
910.209373,-3552.988522,-1838.629195,9474.636058
910.209702,-3701.029710,-1991.848295,8586.388927
910.210032,-3182.885551,-689.485948,8068.244768
910.210362,-1702.473667,76.609550,8216.285956
910.210691,74.020594,536.266849,8364.327145
910.211021,1628.453072,1455.581446,8808.450710
910.211351,2590.720797,2451.505594,8660.409521
910.211680,3404.947333,2451.505594,9326.594869
910.212010,2516.700203,2451.505594,10658.965565
910.212340,666.185348,3447.429741,11695.253884
910.212669,-888.247130,2987.772442,12139.377449
910.212999,-1924.535449,1302.362347,11843.295072
910.213329,-2812.782580,306.438199,11843.295072
910.213658,-3330.926739,-536.266849,11843.295072
910.213988,-3256.906145,-1685.410096,11029.068536
910.214317,-3330.926739,-1532.190996,9696.697840
910.214647,-2886.803174,-383.047749,8512.368333
910.214977,-2294.638420,229.828649,7402.059420
910.215306,-666.185348,306.438199,7031.956449
910.215636,888.247130,1302.362347,6809.894666
910.215966,2368.659014,2068.457845,7105.977043
910.216295,3108.864956,2911.162892,7550.100608
910.216625,2516.700203,3447.429741,8142.265362
910.216955,814.226536,3140.991542,9178.553681
910.217284,-1924.535449,3140.991542,9992.780217
910.217614,-4219.173869,2681.334243,10881.027347
910.217944,-5477.523971,1149.143247,11473.192101
910.218273,-6291.750507,76.609550,11177.109724
910.218603,-6291.750507,-2068.457845,10658.965565
910.218933,-5477.523971,-3140.991542,9918.759623
910.219262,-4515.256246,-3830.477490,9030.512492
910.219592,-3034.844362,-1762.019645,8364.327145
910.219922,-666.185348,0.000000,8142.265362
910.220251,2590.720797,766.095498,8734.430116
910.220581,4145.153275,2374.896044,8808.450710
910.220911,5847.626942,3677.258390,8660.409521
910.221240,6809.894666,3140.991542,9030.512492
910.221570,5847.626942,3677.258390,9844.739029
910.221899,3701.029710,4903.011187,11547.212695
910.222229,962.267725,3983.696590,12361.439231
910.222559,-1184.329507,2068.457845,12435.459826
910.222888,-2886.803174,459.657299,12065.356855
910.223218,-3923.091493,-1455.581446,11547.212695
910.223548,-5033.400406,-2987.772442,10584.944971
910.223877,-5699.585753,-3140.991542,9622.677246
910.224207,-5847.626942,-2221.676944,8364.327145
910.224537,-5033.400406,-919.314598,7105.977043
910.224866,-3108.864956,-229.828649,6883.915261
910.225196,-814.226536,76.609550,6735.874072
910.225526,148.041188,1072.533697,6661.853478
910.225855,1776.494261,2451.505594,7402.059420
910.226185,2220.617826,3217.601092,8586.388927
910.226515,1480.411884,3524.039291,9474.636058
910.226844,0.000000,3830.477490,10732.986159
910.227174,-1924.535449,2757.943793,11251.130318
910.227504,-2442.679609,2068.457845,11547.212695
910.227833,-2960.823768,1225.752797,11029.068536
910.228163,-2960.823768,0.000000,10436.903782
910.228492,-3108.864956,-1455.581446,9622.677246
910.228822,-2590.720797,-1302.362347,9030.512492
910.229152,-2368.659014,-919.314598,8660.409521
910.229481,-1480.411884,76.609550,8438.347739
910.229811,-518.144159,766.095498,8364.327145
910.230141,814.226536,1072.533697,7994.224174
910.230470,2220.617826,1532.190996,8142.265362
910.230800,2664.741391,1532.190996,8512.368333
910.231130,2664.741391,2298.286494,10066.800811
910.231459,962.267725,2528.115143,11399.171507
910.231789,-1332.370696,2757.943793,12065.356855
910.232119,-2442.679609,2528.115143,12731.542202
910.232448,-3701.029710,1762.019645,11843.295072
910.232778,-4219.173869,383.047749,11621.233289
910.233108,-4515.256246,-766.095498,10955.047942
910.233437,-4737.318029,-1532.190996,9992.780217
910.233767,-4737.318029,-1838.629195,8956.491898
910.234097,-3627.009116,-1225.752797,7994.224174
910.234426,-2368.659014,-612.876398,7476.080014
910.234756,-518.144159,229.828649,7550.100608
910.235085,1258.350101,842.705048,7254.018232
910.235415,3478.967927,1685.410096,7254.018232
910.235745,4515.256246,1838.629195,7105.977043
910.236074,4367.215058,2911.162892,8512.368333
910.236404,2960.823768,3753.867940,10436.903782
910.236734,740.205942,3753.867940,10807.006753
910.237063,-888.247130,3677.258390,11325.150913
910.237393,-2220.617826,2221.676944,11177.109724
910.237723,-2886.803174,689.485948,10955.047942
910.238052,-3330.926739,-1072.533697,11103.089130
910.238382,-3849.070898,-1762.019645,10288.862594
910.238712,-4219.173869,-1455.581446,9030.512492
910.239041,-3775.050304,-1072.533697,7994.224174
910.239371,-1554.432478,-536.266849,7920.203579
910.239701,-296.082377,229.828649,8216.285956
910.240030,666.185348,1532.190996,7994.224174
910.240360,2294.638420,1915.238745,7772.162391
910.240690,3330.926739,2451.505594,8586.388927
910.241019,2812.782580,2681.334243,9696.697840
910.241349,1406.391290,3064.381992,11177.109724
910.241679,-444.123565,2987.772442,11991.336260
910.242008,-1628.453072,2451.505594,12509.480420
910.242338,-2590.720797,1455.581446,11917.315666
910.242667,-3330.926739,0.000000,11621.233289
910.242997,-2960.823768,-1149.143247,11251.130318
910.243327,-3627.009116,-689.485948,10066.800811
910.243656,-3034.844362,-306.438199,9030.512492
910.243986,-2072.576638,-229.828649,7698.141797
910.244316,-666.185348,0.000000,7328.038826
910.244645,370.102971,689.485948,7105.977043
910.244975,1110.308913,1915.238745,7624.121203
910.245305,1924.535449,2528.115143,7920.203579
910.245634,2220.617826,3294.210641,8142.265362
910.245964,1110.308913,2987.772442,9326.594869
910.246294,-592.164754,2298.286494,10214.842000
910.246623,-2368.659014,2451.505594,10584.944971
910.246953,-3627.009116,2451.505594,11029.068536
910.247283,-4145.153275,995.924147,10807.006753
910.247612,-4515.256246,-306.438199,10066.800811
910.247942,-4589.276840,-1608.800546,9474.636058
910.248272,-4145.153275,-2221.676944,9104.533087
910.248601,-3627.009116,-1455.581446,8660.409521
910.248931,-2294.638420,0.000000,8512.368333
910.249260,-370.102971,76.609550,8808.450710
910.249590,1406.391290,1072.533697,8216.285956
910.249920,2886.803174,2221.676944,8438.347739
910.250249,4441.235652,2298.286494,8216.285956
910.250579,4515.256246,2451.505594,8956.491898
910.250909,2812.782580,3294.210641,10362.883188
910.251238,814.226536,3217.601092,11399.171507
910.251568,-518.144159,3294.210641,11843.295072
910.251898,-1776.494261,1225.752797,11473.192101
910.252227,-2738.761985,76.609550,11399.171507
910.252557,-3775.050304,-1762.019645,11029.068536
910.252887,-4293.194464,-2604.724693,10510.924376
910.253216,-4441.235652,-1915.238745,9548.656652
910.253546,-3923.091493,-1225.752797,7846.182985
910.253876,-2368.659014,-612.876398,7402.059420
910.254205,-444.123565,-612.876398,7328.038826
910.254535,1258.350101,842.705048,7328.038826
910.254865,2294.638420,1915.238745,7476.080014
910.255194,3256.906145,2451.505594,7920.203579
910.255524,2442.679609,2757.943793,9548.656652
910.255853,666.185348,3600.648841,10955.047942
910.256183,-1258.350101,3370.820191,11769.274478
910.256513,-2368.659014,2451.505594,11843.295072
910.256842,-3108.864956,2068.457845,11029.068536
910.257172,-3404.947333,-153.219100,10510.924376
910.257502,-4071.132681,-2221.676944,9992.780217
910.257831,-3997.112087,-2145.067394,10140.821405
910.258161,-3997.112087,-1378.971896,8660.409521
910.258491,-2590.720797,-536.266849,7698.141797
910.258820,-740.205942,-1149.143247,7402.059420
910.259150,666.185348,306.438199,8438.347739
910.259480,1702.473667,1455.581446,8142.265362
910.259809,2812.782580,2145.067394,8586.388927
910.260139,3034.844362,3294.210641,9474.636058
910.260469,2072.576638,3294.210641,10288.862594
910.260798,0.000000,3064.381992,11769.274478
910.261128,-1776.494261,2451.505594,12361.439231
910.261458,-2738.761985,2145.067394,11917.315666
910.261787,-3627.009116,459.657299,11547.212695
910.262117,-4219.173869,-995.924147,11695.253884
910.262447,-4515.256246,-1532.190996,11325.150913
910.262776,-5107.421000,-1225.752797,9252.574275
910.263106,-4145.153275,-1072.533697,6883.915261
910.263435,-2072.576638,-919.314598,5699.585753
910.263765,296.082377,-536.266849,5995.668130
910.264095,1628.453072,76.609550,6809.894666
910.264424,2146.597232,2145.067394,7550.100608
910.264754,2368.659014,3907.087040,8438.347739
910.265084,2442.679609,4596.572988,9400.615463
910.265413,1258.350101,4290.134789,9918.759623
910.265743,-222.061783,3830.477490,10584.944971
910.266073,-1332.370696,2374.896044,11843.295072
910.266402,-2664.741391,1915.238745,11547.212695
910.266732,-3849.070898,1302.362347,10807.006753
910.267062,-4367.215058,-842.705048,10436.903782
910.267391,-3701.029710,-2451.505594,10584.944971
910.267721,-3923.091493,-2451.505594,9622.677246
910.268051,-3256.906145,-1302.362347,8512.368333
910.268380,-1702.473667,-306.438199,7846.182985
910.268710,370.102971,536.266849,7846.182985
910.269040,2294.638420,1455.581446,8512.368333
910.269369,3775.050304,2068.457845,8216.285956
910.269699,4885.359217,2451.505594,8882.471304
910.270028,4145.153275,2911.162892,9622.677246
910.270358,2072.576638,3600.648841,11547.212695
910.270688,74.020594,3677.258390,12731.542202
910.271017,-1110.308913,2221.676944,12583.501014
910.271347,-2368.659014,1378.971896,12139.377449
910.271677,-3256.906145,536.266849,11473.192101
910.272006,-3849.070898,-1072.533697,10658.965565
910.272336,-3849.070898,-1915.238745,9474.636058
910.272666,-3923.091493,-2221.676944,7994.224174
910.272995,-3108.864956,-229.828649,6661.853478
910.273325,-1184.329507,306.438199,6069.688724
910.273655,0.000000,842.705048,6365.771101
910.273984,814.226536,1302.362347,7031.956449
910.274314,888.247130,2911.162892,7550.100608
910.274644,666.185348,3600.648841,8512.368333
910.274973,-370.102971,3677.258390,10140.821405
910.275303,-2294.638420,3064.381992,10881.027347
910.275633,-3701.029710,1915.238745,11547.212695
910.275962,-3775.050304,842.705048,11251.130318
910.276292,-3182.885551,-306.438199,10881.027347
910.276621,-3256.906145,-1685.410096,10658.965565
910.276951,-2886.803174,-2451.505594,10881.027347
910.277281,-2516.700203,-2145.067394,10584.944971
910.277610,-2220.617826,-536.266849,9326.594869
910.277940,-296.082377,383.047749,8068.244768
910.278270,1702.473667,1149.143247,8290.306550
910.278599,3108.864956,1532.190996,8216.285956
910.278929,3552.988522,1838.629195,7994.224174
910.279259,4219.173869,2221.676944,8438.347739
910.279588,3923.091493,2987.772442,9622.677246
910.279918,1628.453072,3447.429741,10658.965565
910.280248,-592.164754,2604.724693,11695.253884
910.280577,-2442.679609,1991.848295,11695.253884
910.280907,-2960.823768,459.657299,11769.274478
910.281237,-3997.112087,-306.438199,11103.089130
910.281566,-4885.359217,-612.876398,11325.150913
910.281896,-6143.709319,-1915.238745,10066.800811
910.282226,-5625.565159,-2221.676944,8808.450710
910.282555,-4219.173869,-1225.752797,7402.059420
910.282885,-2072.576638,-612.876398,6513.812290
910.283215,296.082377,-229.828649,6513.812290
910.283544,1480.411884,689.485948,7105.977043
910.283874,3108.864956,2451.505594,8142.265362
910.284203,3404.947333,3600.648841,8660.409521
910.284533,2960.823768,4060.306139,9696.697840
910.284863,1850.514855,4290.134789,10807.006753
910.285192,148.041188,4136.915689,11621.233289
910.285522,-1258.350101,2834.553343,11695.253884
910.285852,-1924.535449,1302.362347,10955.047942
910.286181,-2664.741391,-689.485948,10140.821405
910.286511,-3256.906145,-2451.505594,10584.944971
910.286841,-3923.091493,-2374.896044,9918.759623
910.287170,-4071.132681,-1915.238745,8956.491898
910.287500,-3330.926739,-689.485948,7846.182985
910.287830,-1554.432478,-153.219100,7698.141797
910.288159,0.000000,229.828649,7846.182985
910.288489,1332.370696,1378.971896,7994.224174
910.288819,2294.638420,2451.505594,8808.450710
910.289148,2368.659014,3294.210641,9474.636058
910.289478,1480.411884,3370.820191,10881.027347
910.289808,0.000000,2987.772442,11769.274478
910.290137,-1628.453072,2757.943793,11917.315666
910.290467,-2294.638420,1072.533697,11399.171507
910.290796,-3034.844362,0.000000,11399.171507
910.291126,-3552.988522,-1149.143247,11177.109724
910.291456,-4737.318029,-1532.190996,10510.924376
910.291785,-5255.462188,-1608.800546,9326.594869
910.292115,-4885.359217,-1378.971896,7105.977043
910.292444,-2738.761985,-536.266849,6587.832884
910.292774,-222.061783,-536.266849,6883.915261
910.293104,1628.453072,-229.828649,7328.038826
910.293433,2146.597232,1762.019645,7772.162391
910.293763,2368.659014,2757.943793,8290.306550
910.294092,2368.659014,3830.477490,9252.574275
910.294422,1406.391290,3907.087040,10362.883188
910.294752,0.000000,3524.039291,11177.109724
910.295081,-1480.411884,2451.505594,11769.274478
910.295411,-2886.803174,1991.848295,10955.047942
910.295740,-3552.988522,919.314598,10436.903782
910.296070,-4441.235652,-766.095498,10288.862594
910.296399,-4663.297435,-1762.019645,9918.759623
910.296729,-4737.318029,-2145.067394,9326.594869
910.297059,-3701.029710,-1762.019645,8660.409521
910.297388,-2220.617826,-306.438199,8438.347739
910.297718,-1036.288319,153.219100,8290.306550
910.298047,444.123565,919.314598,8290.306550
910.298377,2368.659014,1838.629195,8216.285956
910.298707,3775.050304,2451.505594,8808.450710
910.299036,4441.235652,3294.210641,9918.759623
910.299366,2886.803174,3600.648841,10955.047942
910.299695,1110.308913,3217.601092,12139.377449
910.300025,-370.102971,2451.505594,12435.459826
910.300354,-1332.370696,1915.238745,12361.439231
910.300684,-2220.617826,1149.143247,11547.212695
910.301014,-3478.967927,-536.266849,10436.903782
910.301343,-3701.029710,-1149.143247,9400.615463
910.301673,-3552.988522,-689.485948,7772.162391
910.302002,-2442.679609,-536.266849,6365.771101
910.302332,-814.226536,-383.047749,6439.791695
910.302662,0.000000,0.000000,7179.997637
910.302991,148.041188,2068.457845,7772.162391
910.303321,296.082377,3140.991542,7994.224174
910.303650,1036.288319,3524.039291,8290.306550
910.303980,1184.329507,3140.991542,9104.533087
910.304309,444.123565,2604.724693,10288.862594
910.304639,-1258.350101,2528.115143,10881.027347
910.304969,-2294.638420,2221.676944,10584.944971
910.305298,-3108.864956,1225.752797,10288.862594
910.305628,-3552.988522,229.828649,10658.965565
910.305957,-3701.029710,-1608.800546,11473.192101
910.306287,-3627.009116,-1532.190996,11029.068536
910.306617,-3997.112087,-383.047749,9770.718434
910.306946,-2886.803174,76.609550,8734.430116
910.307276,-740.205942,459.657299,8216.285956
910.307605,1406.391290,229.828649,7624.121203
910.307935,3256.906145,766.095498,7772.162391
910.308264,4145.153275,2068.457845,7624.121203
910.308594,4441.235652,2757.943793,8882.471304
910.308924,2960.823768,3370.820191,10658.965565
910.309253,814.226536,3447.429741,11621.233289
910.309583,-814.226536,3217.601092,11695.253884
910.309912,-1998.556043,1685.410096,12065.356855
910.310242,-3182.885551,229.828649,12065.356855
910.310571,-4145.153275,-1149.143247,11547.212695
910.310901,-5403.503377,-2221.676944,10510.924376
910.311231,-5551.544565,-2451.505594,8956.491898
910.311560,-4515.256246,-1762.019645,7772.162391
910.311890,-2738.761985,-1072.533697,6661.853478
910.312219,-888.247130,-1149.143247,6513.812290
910.312549,370.102971,-306.438199,6957.935855
910.312879,1406.391290,2374.896044,7476.080014
910.313208,2368.659014,3753.867940,8290.306550
910.313538,2294.638420,3064.381992,9030.512492
910.313867,1480.411884,2911.162892,9992.780217
910.314197,74.020594,2528.115143,10955.047942
910.314526,-1036.288319,1991.848295,10955.047942
910.314856,-2146.597232,1608.800546,10436.903782
910.315186,-2664.741391,0.000000,10510.924376
910.315515,-3478.967927,-1685.410096,11177.109724
910.315845,-3775.050304,-2451.505594,11547.212695
910.316174,-3775.050304,-1685.410096,11325.150913
910.316504,-3182.885551,-383.047749,9844.739029
910.316834,-2368.659014,612.876398,8512.368333
910.317163,-296.082377,0.000000,8142.265362
910.317493,1554.432478,612.876398,8068.244768
910.317822,2886.803174,1838.629195,7920.203579
910.318152,3108.864956,2221.676944,8142.265362
910.318481,1998.556043,2911.162892,9844.739029
910.318811,74.020594,3217.601092,11029.068536
910.319141,-1480.411884,2451.505594,11843.295072
910.319470,-2368.659014,2145.067394,12361.439231
910.319800,-3034.844362,995.924147,11769.274478
910.320129,-3552.988522,-229.828649,11103.089130
910.320459,-4441.235652,-1378.971896,10436.903782
910.320789,-4885.359217,-1532.190996,9178.553681
910.321118,-4737.318029,-842.705048,7179.997637
910.321448,-3108.864956,0.000000,5995.668130
910.321777,-962.267725,153.219100,6291.750507
910.322107,592.164754,612.876398,7105.977043
910.322436,1110.308913,2145.067394,7550.100608
910.322766,1480.411884,3217.601092,7846.182985
910.323096,2072.576638,3830.477490,8660.409521
910.323425,1406.391290,4443.353888,9548.656652
910.323755,148.041188,3370.820191,10584.944971
910.324084,-1184.329507,2298.286494,11103.089130
910.324414,-2368.659014,1378.971896,11177.109724
910.324744,-3552.988522,1072.533697,10658.965565
910.325073,-4293.194464,-229.828649,10881.027347
910.325403,-3923.091493,-1915.238745,11547.212695
910.325732,-4663.297435,-2068.457845,11103.089130
910.326062,-4071.132681,-1225.752797,9770.718434
910.326391,-2442.679609,0.000000,8512.368333
910.326721,-148.041188,153.219100,7920.203579
910.327051,1628.453072,766.095498,7254.018232
910.327380,3108.864956,1302.362347,7476.080014
910.327710,4515.256246,2298.286494,7994.224174
910.328039,4663.297435,3217.601092,9400.615463
910.328369,3256.906145,3677.258390,11251.130318
910.328699,1036.288319,3217.601092,12287.418637
910.329028,-444.123565,3677.258390,12583.501014
910.329358,-1998.556043,2145.067394,12213.398043
910.329687,-3182.885551,1225.752797,11621.233289
910.330017,-4145.153275,0.000000,10510.924376
910.330346,-4737.318029,-1762.019645,9474.636058
910.330676,-4959.379811,-1991.848295,8142.265362
910.331006,-4959.379811,-1378.971896,7031.956449
910.331335,-3404.947333,-919.314598,5921.647536
910.331665,-1184.329507,-689.485948,6587.832884
910.331994,74.020594,383.047749,7254.018232
910.332324,1480.411884,1838.629195,7698.141797
910.332654,2442.679609,2987.772442,7698.141797
910.332983,2368.659014,3600.648841,9178.553681
910.333313,1850.514855,4060.306139,10362.883188
910.333642,444.123565,3907.087040,11177.109724
910.333972,-666.185348,2528.115143,11399.171507
910.334301,-1554.432478,306.438199,11325.150913
910.334631,-2960.823768,-919.314598,11991.336260
910.334961,-3997.112087,-459.657299,12435.459826
910.335290,-4663.297435,-1608.800546,11473.192101
910.335620,-3997.112087,-1072.533697,9400.615463
910.335949,-2590.720797,0.000000,7254.018232
910.336279,0.000000,-612.876398,7031.956449
910.336609,1554.432478,-153.219100,7476.080014
910.336938,1406.391290,1991.848295,7772.162391
910.337268,1480.411884,3370.820191,8882.471304
910.337597,2072.576638,3294.210641,9548.656652
910.337927,1480.411884,3217.601092,10140.821405
910.338256,74.020594,2681.334243,10881.027347
910.338586,-1332.370696,1608.800546,11399.171507
910.338916,-2294.638420,536.266849,11843.295072
910.339245,-3627.009116,-153.219100,12287.418637
910.339575,-4885.359217,-306.438199,12435.459826
910.339904,-5255.462188,-536.266849,11621.233289
910.340234,-4811.338623,-995.924147,9770.718434
910.340564,-3330.926739,-919.314598,7624.121203
910.340893,-814.226536,0.000000,5995.668130
910.341223,1554.432478,536.266849,5477.523971
910.341552,2960.823768,459.657299,5625.565159
910.341882,2960.823768,2145.067394,6809.894666
910.342211,2442.679609,3370.820191,7994.224174
910.342541,2294.638420,3830.477490,8808.450710
910.342871,1480.411884,3830.477490,9770.718434
910.343200,148.041188,3217.601092,10510.924376
910.343530,-1110.308913,1762.019645,10807.006753
910.343859,-2072.576638,229.828649,11251.130318
910.344189,-3330.926739,-1532.190996,11991.336260
910.344519,-4959.379811,-842.705048,12435.459826
910.344848,-6291.750507,0.000000,11399.171507
910.345178,-5847.626942,-995.924147,10140.821405
910.345507,-3775.050304,-1762.019645,8364.327145
910.345837,-1480.411884,-1225.752797,6957.935855
910.346166,814.226536,-1072.533697,6809.894666
910.346496,2072.576638,229.828649,6957.935855
910.346826,2516.700203,2068.457845,7772.162391
910.347155,2516.700203,2987.772442,9326.594869
910.347485,2516.700203,3140.991542,10436.903782
910.347814,1628.453072,2834.553343,11103.089130
910.348144,592.164754,2604.724693,11695.253884
910.348473,-740.205942,1302.362347,12805.562797
910.348803,-2220.617826,536.266849,13397.727550
910.349133,-3923.091493,-612.876398,12879.583391
910.349462,-5181.441594,-1149.143247,12065.356855
910.349792,-5329.482782,-536.266849,10658.965565
910.350121,-4219.173869,-1378.971896,8512.368333
910.350451,-2516.700203,-1378.971896,7105.977043
910.350781,-888.247130,-459.657299,5773.606348
910.351110,518.144159,-383.047749,5625.565159
910.351440,1332.370696,1072.533697,6735.874072
910.351769,1110.308913,2604.724693,7402.059420
910.352099,1110.308913,3600.648841,8142.265362
910.352428,666.185348,3294.210641,8956.491898
910.352758,148.041188,2528.115143,9622.677246
910.353088,-370.102971,2374.896044,10510.924376
910.353417,-1924.535449,1149.143247,10732.986159
910.353747,-3404.947333,1455.581446,10658.965565
910.354076,-4515.256246,306.438199,11103.089130
910.354406,-4885.359217,-1685.410096,12435.459826
910.354736,-5107.421000,-1225.752797,12361.439231
910.355065,-5033.400406,-306.438199,10584.944971
910.355395,-2812.782580,-536.266849,8364.327145
910.355724,74.020594,-536.266849,6883.915261
910.356054,2738.761985,-153.219100,6365.771101
910.356383,4293.194464,842.705048,6291.750507
910.356713,4737.318029,2145.067394,6957.935855
910.357043,4293.194464,3830.477490,8586.388927
910.357372,3404.947333,4519.963438,10955.047942
910.357702,1480.411884,3370.820191,12361.439231
910.358031,-666.185348,2681.334243,13027.624579
910.358361,-2442.679609,1685.410096,13767.830521
910.358691,-3627.009116,689.485948,13397.727550
910.359020,-4293.194464,689.485948,12213.398043
910.359350,-5033.400406,-995.924147,10658.965565
910.359679,-4959.379811,-1225.752797,8660.409521
910.360009,-3775.050304,-842.705048,6735.874072
910.360338,-1480.411884,-306.438199,5255.462188
910.360668,0.000000,459.657299,4959.379811
910.360998,962.267725,995.924147,6291.750507
910.361327,1258.350101,2528.115143,7328.038826
910.361657,1110.308913,3907.087040,8142.265362
910.361986,1998.556043,4366.744339,8808.450710
910.362316,1776.494261,3370.820191,9474.636058
910.362646,444.123565,2451.505594,10288.862594
910.362975,-1110.308913,2068.457845,10362.883188
910.363305,-2220.617826,536.266849,10436.903782
910.363634,-2886.803174,-383.047749,12065.356855
910.363964,-4441.235652,-306.438199,13841.851115
910.364293,-5847.626942,76.609550,13175.665768
910.364623,-5551.544565,-229.828649,10807.006753
910.364953,-3404.947333,-689.485948,8660.409521
910.365282,-444.123565,-306.438199,7031.956449
910.365612,1702.473667,-919.314598,5995.668130
910.365941,2960.823768,-306.438199,6217.729913
910.366271,3256.906145,2068.457845,7105.977043
910.366601,3182.885551,3370.820191,8660.409521
910.366930,2368.659014,3600.648841,10510.924376
910.367260,296.082377,4443.353888,11547.212695
910.367589,-1406.391290,3677.258390,11695.253884
910.367919,-1850.514855,1915.238745,11917.315666
910.368248,-2072.576638,153.219100,12509.480420
910.368578,-3478.967927,-995.924147,12657.521608
910.368908,-5329.482782,-1608.800546,11917.315666
910.369237,-5921.647536,-1072.533697,10510.924376
910.369567,-4811.338623,-1685.410096,8882.471304
910.369896,-2590.720797,-1302.362347,7179.997637
910.370226,-518.144159,-995.924147,5551.544565
910.370556,1480.411884,-995.924147,5107.421000
910.370885,2738.761985,-306.438199,6291.750507
910.371215,2738.761985,2757.943793,8290.306550
910.371544,1850.514855,3753.867940,9030.512492
910.371874,962.267725,3677.258390,9770.718434
910.372203,0.000000,3370.820191,10732.986159
910.372533,-444.123565,2604.724693,11325.150913
910.372863,-1036.288319,995.924147,10807.006753
910.373192,-2294.638420,-995.924147,11251.130318
910.373522,-3849.070898,-1608.800546,12065.356855
910.373851,-5625.565159,-1225.752797,12509.480420
910.374181,-5995.668130,-766.095498,11473.192101
910.374511,-4367.215058,-612.876398,8882.471304
910.374840,-1480.411884,-1225.752797,7328.038826
910.375170,1110.308913,-1838.629195,6661.853478
910.375499,2960.823768,-306.438199,6883.915261
910.375829,2960.823768,1915.238745,7254.018232
910.376158,2960.823768,3677.258390,7920.203579
910.376488,2886.803174,4213.525239,9770.718434
910.376818,1702.473667,3907.087040,11547.212695
910.377147,666.185348,2681.334243,12583.501014
910.377477,-592.164754,1455.581446,12805.562797
910.377806,-1850.514855,919.314598,12731.542202
910.378136,-3478.967927,536.266849,12361.439231
910.378466,-4663.297435,-612.876398,11843.295072
910.378795,-5181.441594,-919.314598,9992.780217
910.379125,-4737.318029,-306.438199,7105.977043
910.379454,-2664.741391,-536.266849,5107.421000
910.379784,-370.102971,-383.047749,4293.194464
910.380113,740.205942,-229.828649,5403.503377
910.380443,814.226536,842.705048,7179.997637
910.380773,0.000000,3600.648841,8290.306550
910.381102,-666.185348,4903.011187,8660.409521
910.381432,0.000000,2987.772442,9400.615463
910.381761,296.082377,2221.676944,10288.862594
910.382091,-444.123565,1991.848295,10510.924376
910.382421,-1406.391290,766.095498,10436.903782
910.382750,-2442.679609,153.219100,9992.780217
910.383080,-3478.967927,-1149.143247,11695.253884
910.383409,-4811.338623,-1762.019645,13471.748144
910.383739,-5921.647536,-612.876398,12953.603985
910.384068,-5329.482782,-383.047749,10214.842000
910.384398,-2294.638420,-919.314598,8438.347739
910.384728,1480.411884,-1225.752797,7105.977043
910.385057,3849.070898,-1685.410096,6957.935855
910.385387,4811.338623,0.000000,6661.853478
910.385716,4441.235652,3370.820191,7402.059420
910.386046,3923.091493,5439.278036,9104.533087
910.386375,2664.741391,4673.182538,11103.089130
910.386705,592.164754,4290.134789,12139.377449
910.387035,-1554.432478,2681.334243,11991.336260
910.387364,-3034.844362,689.485948,12657.521608
910.387694,-4441.235652,-306.438199,12657.521608
910.388023,-6587.832884,-689.485948,12731.542202
910.388353,-7920.203579,-2451.505594,11325.150913
910.388683,-6661.853478,-2757.943793,8956.491898
910.389012,-4293.194464,-2221.676944,7031.956449
910.389342,-814.226536,-1762.019645,5033.400406
910.389671,1998.556043,-766.095498,4441.235652
910.390001,3478.967927,1225.752797,5107.421000
910.390330,3997.112087,3447.429741,6735.874072
910.390660,4071.132681,5439.278036,8438.347739
910.390990,3108.864956,6741.640382,9770.718434
910.391319,2146.597232,5515.887586,11177.109724
910.391649,1110.308913,2911.162892,11621.233289
910.391978,0.000000,1991.848295,11325.150913
910.392308,-1406.391290,-536.266849,11621.233289
910.392638,-3256.906145,-1455.581446,12139.377449
910.392967,-5625.565159,-153.219100,12731.542202
910.393297,-6661.853478,-153.219100,11695.253884
910.393626,-5403.503377,-612.876398,9474.636058
910.393956,-2960.823768,-842.705048,7105.977043
910.394285,-740.205942,-229.828649,5921.647536
910.394614,814.226536,-153.219100,6513.812290
910.394944,1332.370696,1608.800546,7476.080014
910.395273,962.267725,3294.210641,8364.327145
910.395603,1110.308913,3753.867940,9326.594869
910.395932,814.226536,3830.477490,10140.821405
910.396262,592.164754,3217.601092,11547.212695
910.396591,444.123565,2298.286494,11843.295072
910.396921,-592.164754,1455.581446,11177.109724
910.397250,-1628.453072,-153.219100,12213.398043
910.397579,-2886.803174,-229.828649,12731.542202
910.397909,-4737.318029,536.266849,13175.665768
910.398238,-5551.544565,-306.438199,11103.089130
910.398568,-4367.215058,-689.485948,8512.368333
910.398897,-1998.556043,-689.485948,5699.585753
910.399227,888.247130,-1532.190996,4737.318029
910.399556,2442.679609,-1608.800546,5403.503377
910.399886,2294.638420,1149.143247,6735.874072
910.400215,1332.370696,3677.258390,7476.080014
910.400544,518.144159,4366.744339,8586.388927
910.400874,814.226536,4596.572988,9474.636058
910.401203,370.102971,3370.820191,10732.986159
910.401533,-370.102971,2298.286494,11399.171507
910.401862,-2220.617826,1915.238745,10584.944971
910.402192,-3478.967927,0.000000,9770.718434
910.402521,-4589.276840,-2221.676944,11325.150913
910.402850,-5329.482782,-2604.724693,12657.521608
910.403180,-6661.853478,-1532.190996,12361.439231
910.403509,-6069.688724,-1762.019645,10066.800811
910.403839,-3627.009116,-1685.410096,8216.285956
910.404168,0.000000,-919.314598,7105.977043
910.404498,2886.803174,-1072.533697,7328.038826
910.404827,4145.153275,153.219100,6735.874072
910.405157,4145.153275,3140.991542,6883.915261
910.405486,4071.132681,4060.306139,9030.512492
910.405815,3627.009116,3830.477490,11399.171507
910.406145,1998.556043,3983.696590,12657.521608
910.406474,-148.041188,2604.724693,12509.480420
910.406804,-1554.432478,1225.752797,13101.645173
910.407133,-3034.844362,383.047749,12953.603985
910.407463,-4515.256246,-689.485948,12509.480420
910.407792,-5033.400406,-1915.238745,11177.109724
910.408122,-5921.647536,-1378.971896,8956.491898
910.408451,-4367.215058,-919.314598,6957.935855
910.408780,-2146.597232,-1072.533697,5477.523971
910.409110,-444.123565,-766.095498,5255.462188
910.409439,148.041188,459.657299,6217.729913
910.409769,296.082377,1838.629195,7772.162391
910.410098,148.041188,4366.744339,8216.285956
910.410428,0.000000,4290.134789,8808.450710
910.410757,222.061783,2528.115143,9548.656652
910.411087,222.061783,1991.848295,10732.986159
910.411416,-1184.329507,2068.457845,10436.903782
910.411745,-1628.453072,766.095498,10140.821405
910.412075,-2590.720797,-153.219100,11325.150913
910.412404,-3849.070898,-919.314598,13175.665768
910.412734,-4737.318029,-689.485948,13249.686362
910.413063,-4441.235652,-229.828649,10732.986159
910.413393,-2368.659014,-459.657299,8660.409521
910.413722,592.164754,-306.438199,7105.977043
910.414051,2368.659014,-689.485948,6957.935855
910.414381,3034.844362,306.438199,7105.977043
910.414710,3256.906145,2681.334243,7254.018232
910.415040,3108.864956,4673.182538,8660.409521
910.415369,2738.761985,3907.087040,10436.903782
910.415699,1480.411884,2987.772442,11473.192101
910.416028,222.061783,1378.971896,11621.233289
910.416358,-1110.308913,306.438199,12435.459826
910.416687,-2516.700203,612.876398,12731.542202
910.417016,-4811.338623,1455.581446,12509.480420
910.417346,-5847.626942,-536.266849,11695.253884
910.417675,-5551.544565,-1915.238745,9474.636058
910.418005,-4219.173869,-1608.800546,7105.977043
910.418334,-1998.556043,-1915.238745,5921.647536
910.418664,-148.041188,-1225.752797,5403.503377
910.418993,592.164754,536.266849,6735.874072
910.419323,962.267725,2451.505594,8142.265362
910.419652,1554.432478,4290.134789,8512.368333
910.419981,2072.576638,4136.915689,8364.327145
910.420311,2442.679609,4290.134789,9548.656652
910.420640,1702.473667,2987.772442,10510.924376
910.420970,222.061783,2604.724693,10658.965565
910.421299,-1480.411884,1149.143247,9696.697840
910.421629,-2590.720797,-612.876398,10807.006753
910.421958,-4071.132681,-306.438199,12731.542202
910.422287,-5699.585753,-306.438199,13249.686362
910.422617,-6143.709319,-766.095498,11177.109724
910.422946,-4441.235652,-919.314598,8364.327145
910.423276,-1702.473667,-1072.533697,6809.894666
910.423605,962.267725,-689.485948,7031.956449
910.423935,2368.659014,-306.438199,6883.915261
910.424264,2442.679609,2374.896044,7698.141797
910.424594,2294.638420,3983.696590,8660.409521
910.424923,2146.597232,4443.353888,10140.821405
910.425252,1406.391290,3983.696590,11769.274478
910.425582,444.123565,3370.820191,11917.315666
910.425911,-444.123565,2145.067394,11769.274478
910.426241,-1332.370696,842.705048,11917.315666
910.426570,-2442.679609,-536.266849,12435.459826
910.426900,-4663.297435,-766.095498,12139.377449
910.427229,-5551.544565,-919.314598,10807.006753
910.427559,-5255.462188,-1149.143247,9400.615463
910.427888,-3404.947333,-536.266849,7179.997637
910.428217,-814.226536,-306.438199,5847.626942
910.428547,1110.308913,-842.705048,4959.379811
910.428876,2294.638420,306.438199,5921.647536
910.429206,1850.514855,2604.724693,6957.935855
910.429535,1258.350101,3907.087040,8142.265362
910.429865,1258.350101,3983.696590,9622.677246
910.430194,1036.288319,3677.258390,11103.089130
910.430523,444.123565,2681.334243,11029.068536
910.430853,-888.247130,1915.238745,10214.842000
910.431182,-1702.473667,-76.609550,10436.903782
910.431512,-3108.864956,-1225.752797,11917.315666
910.431841,-4367.215058,-383.047749,13323.706956
910.432171,-5403.503377,-383.047749,12139.377449
910.432500,-5033.400406,-1225.752797,9548.656652
910.432830,-3034.844362,-1302.362347,7846.182985
910.433159,-740.205942,-1149.143247,7031.956449
910.433488,1258.350101,-536.266849,7254.018232
910.433818,2220.617826,995.924147,7402.059420
910.434147,2590.720797,3600.648841,7328.038826
910.434477,2812.782580,3217.601092,8586.388927
910.434806,2664.741391,2604.724693,10140.821405
910.435136,1480.411884,2834.553343,11547.212695
910.435465,296.082377,1991.848295,12435.459826
910.435795,-962.267725,1378.971896,12879.583391
910.436124,-2220.617826,1455.581446,12287.418637
910.436453,-3627.009116,-383.047749,12139.377449
910.436783,-4441.235652,-1149.143247,10955.047942
910.437112,-4515.256246,-995.924147,9178.553681
910.437442,-3552.988522,-306.438199,7402.059420
910.437771,-1776.494261,-383.047749,5921.647536
910.438101,-666.185348,-153.219100,5699.585753
910.438430,-222.061783,459.657299,7031.956449
910.438759,-296.082377,1991.848295,8364.327145
910.439089,-666.185348,3983.696590,8290.306550
910.439418,0.000000,3370.820191,8142.265362
910.439748,0.000000,1532.190996,9326.594869
910.440077,0.000000,1608.800546,9918.759623
910.440407,-1258.350101,995.924147,9844.739029
910.440736,-2220.617826,76.609550,9400.615463
910.441066,-2812.782580,-842.705048,10955.047942
910.441395,-3923.091493,-919.314598,13101.645173
910.441724,-5403.503377,-459.657299,13693.809927
910.442054,-5403.503377,-536.266849,11325.150913
910.442383,-3552.988522,-229.828649,9030.512492
910.442713,-222.061783,-612.876398,7698.141797
910.443042,2220.617826,-689.485948,7031.956449
910.443372,3330.926739,-153.219100,6883.915261
910.443701,3701.029710,2298.286494,6735.874072
910.444031,3182.885551,4519.963438,7624.121203
910.444360,2738.761985,3907.087040,9474.636058
910.444689,1554.432478,2987.772442,10955.047942
910.445019,-148.041188,2221.676944,11843.295072
910.445348,-2516.700203,919.314598,12509.480420
910.445678,-4293.194464,-459.657299,13323.706956
910.446007,-6069.688724,-229.828649,13989.892304
910.446337,-6883.915261,-1685.410096,12731.542202
910.446666,-6587.832884,-2911.162892,10510.924376
910.446995,-4219.173869,-2298.286494,7920.203579
910.447325,-1184.329507,-1685.410096,5995.668130
910.447654,1406.391290,-1149.143247,4959.379811
910.447984,2886.803174,689.485948,4811.338623
910.448313,3108.864956,2834.553343,6217.729913
910.448643,3404.947333,4366.744339,7920.203579
910.448972,3256.906145,5439.278036,8660.409521
910.449302,2516.700203,4673.182538,9474.636058
910.449631,1554.432478,2834.553343,10288.862594
910.449960,518.144159,2604.724693,11103.089130
910.450290,-1924.535449,536.266849,11325.150913
910.450619,-3478.967927,-1149.143247,11991.336260
910.450949,-5921.647536,-919.314598,13175.665768
910.451278,-7179.997637,76.609550,12435.459826
910.451608,-6513.812290,-229.828649,10288.862594
910.451937,-3923.091493,-919.314598,8364.327145
910.452267,-1406.391290,-689.485948,6291.750507
910.452596,666.185348,-536.266849,5477.523971
910.452925,1850.514855,0.000000,5995.668130
910.453255,1924.535449,2911.162892,6957.935855
910.453584,1850.514855,4213.525239,8512.368333
910.453914,2072.576638,4213.525239,9918.759623
910.454243,1924.535449,4213.525239,11251.130318
910.454573,1406.391290,2834.553343,11917.315666
910.454902,370.102971,1838.629195,12287.418637
910.455232,-814.226536,612.876398,12731.542202
910.455561,-2590.720797,766.095498,13249.686362
910.455890,-4737.318029,229.828649,13249.686362
910.456220,-5699.585753,153.219100,11843.295072
910.456549,-4811.338623,-383.047749,9326.594869
910.456879,-3182.885551,-766.095498,6291.750507
910.457208,-518.144159,-1378.971896,4811.338623
910.457538,962.267725,-1149.143247,4885.359217
910.457867,1628.453072,76.609550,6143.709319
910.458196,1110.308913,2987.772442,7254.018232
910.458526,222.061783,4443.353888,8438.347739
910.458855,518.144159,4443.353888,9104.533087
910.459185,370.102971,3294.210641,9770.718434
910.459514,-148.041188,2298.286494,10436.903782
910.459844,-1702.473667,1378.971896,10807.006753
910.460173,-3256.906145,842.705048,10436.903782
910.460503,-4441.235652,-1378.971896,10881.027347
910.460832,-5181.441594,-2145.067394,13027.624579
910.461161,-6143.709319,-1532.190996,12953.603985
910.461491,-6143.709319,-1072.533697,10881.027347
910.461820,-3701.029710,-1991.848295,8734.430116
910.462150,-296.082377,-536.266849,7476.080014
910.462479,2738.761985,-766.095498,6587.832884
910.462809,4071.132681,76.609550,6291.750507
910.463138,4515.256246,2374.896044,5921.647536
910.463468,4293.194464,4060.306139,7105.977043
910.463797,4293.194464,3753.867940,9696.697840
910.464126,3478.967927,3447.429741,11843.295072
910.464456,814.226536,3064.381992,12435.459826
910.464785,-962.267725,1685.410096,13249.686362
910.465115,-2516.700203,153.219100,13841.851115
910.465444,-4145.153275,-459.657299,13693.809927
910.465774,-5255.462188,-1378.971896,12065.356855
910.466103,-5625.565159,-1991.848295,10066.800811
910.466432,-4737.318029,-1378.971896,8068.244768
910.466762,-2590.720797,-1608.800546,6069.688724
910.467091,-740.205942,-995.924147,5181.441594
910.467421,296.082377,842.705048,5403.503377
910.467750,1332.370696,2221.676944,6587.832884
910.468080,1110.308913,3370.820191,7698.141797
910.468409,1036.288319,4596.572988,8142.265362
910.468739,1110.308913,3447.429741,9400.615463
910.469068,592.164754,1685.410096,9844.739029
910.469397,-1184.329507,2451.505594,9844.739029
910.469727,-1998.556043,383.047749,10732.986159
910.470056,-2960.823768,-1915.238745,11991.336260
910.470386,-4885.359217,0.000000,13397.727550
910.470715,-6513.812290,383.047749,13101.645173
910.471045,-5477.523971,-229.828649,11325.150913
910.471374,-3849.070898,-459.657299,8068.244768
910.471704,-1036.288319,-383.047749,6883.915261
910.472033,1332.370696,-1225.752797,6587.832884
910.472362,1998.556043,229.828649,6809.894666
910.472692,2146.597232,3524.039291,7476.080014
910.473021,1924.535449,3983.696590,8290.306550
910.473351,1998.556043,2987.772442,9104.533087
910.473680,1480.411884,2987.772442,9844.739029
910.474010,740.205942,1685.410096,11103.089130
910.474339,-222.061783,842.705048,11547.212695
910.474668,-1850.514855,919.314598,12139.377449
910.474998,-3627.009116,0.000000,13249.686362
910.475327,-5995.668130,-383.047749,13545.768739
910.475657,-7328.038826,-612.876398,12509.480420
910.475986,-6217.729913,-1225.752797,10214.842000
910.476316,-3478.967927,-995.924147,7846.182985
910.476645,-666.185348,-1302.362347,6217.729913
910.476975,1480.411884,-1685.410096,5107.421000
910.477304,2590.720797,-536.266849,6069.688724
910.477633,2812.782580,2987.772442,7105.977043
910.477963,2368.659014,5209.449386,7994.224174
910.478292,2294.638420,4213.525239,8660.409521
910.478622,2368.659014,3907.087040,10066.800811
910.478951,1554.432478,2681.334243,10807.006753
910.479281,0.000000,1762.019645,10288.862594
910.479610,-1776.494261,383.047749,11399.171507
910.479940,-3552.988522,-995.924147,12583.501014
910.480269,-5773.606348,-383.047749,13545.768739
910.480598,-6883.915261,-536.266849,12361.439231
910.480928,-5181.441594,-1072.533697,9992.780217
910.481257,-2590.720797,-1149.143247,7328.038826
910.481587,518.144159,-1608.800546,5847.626942
910.481916,2960.823768,-766.095498,5773.606348
910.482246,3182.885551,1455.581446,6439.791695
910.482575,2516.700203,4826.401637,6957.935855
910.482904,2664.741391,4826.401637,8956.491898
910.483234,2516.700203,4596.572988,10436.903782
910.483563,1998.556043,3983.696590,10955.047942
910.483893,740.205942,1608.800546,11843.295072
910.484222,-814.226536,766.095498,12509.480420
910.484552,-2886.803174,76.609550,13175.665768
910.484881,-4811.338623,-612.876398,12805.562797
910.485211,-6291.750507,0.000000,12139.377449
910.485540,-5773.606348,76.609550,9992.780217
910.485869,-3627.009116,-612.876398,7772.162391
910.486199,-1480.411884,-1532.190996,6143.709319
910.486528,74.020594,-383.047749,5551.544565
910.486858,814.226536,1302.362347,5995.668130
910.487187,370.102971,2298.286494,7031.956449
910.487517,592.164754,3983.696590,8142.265362
910.487846,370.102971,3983.696590,8882.471304
910.488176,592.164754,2987.772442,9696.697840
910.488505,666.185348,1991.848295,10807.006753
910.488834,-1036.288319,1991.848295,10955.047942
910.489164,-2664.741391,1378.971896,10881.027347
910.489493,-4145.153275,-689.485948,12139.377449
910.489823,-5181.441594,-1149.143247,13619.789333
910.490152,-5847.626942,-153.219100,13323.706956
910.490482,-5255.462188,-612.876398,10436.903782
910.490811,-3034.844362,-1225.752797,8290.306550
910.491140,0.000000,-1302.362347,6809.894666
910.491470,2590.720797,-842.705048,6365.771101
910.491799,3997.112087,0.000000,6291.750507
910.492129,3923.091493,2987.772442,5995.668130
910.492458,3330.926739,4443.353888,7179.997637
910.492788,3552.988522,3447.429741,9474.636058
910.493117,2590.720797,2987.772442,11251.130318
910.493447,666.185348,2528.115143,12435.459826
910.493776,-1480.411884,1762.019645,13397.727550
910.494105,-3330.926739,1302.362347,13101.645173
910.494435,-4959.379811,0.000000,12805.562797
910.494764,-5625.565159,-1762.019645,11843.295072
910.495094,-5181.441594,-2221.676944,10140.821405
910.495423,-3923.091493,-1915.238745,7476.080014
910.495753,-2072.576638,-2068.457845,5995.668130
910.496082,148.041188,-1225.752797,5551.544565
910.496411,1110.308913,383.047749,5551.544565
910.496741,1480.411884,1762.019645,7254.018232
910.497070,1036.288319,3524.039291,8290.306550
910.497400,1332.370696,4596.572988,9104.533087
910.497729,1258.350101,2987.772442,9992.780217
910.498059,1554.432478,2145.067394,10658.965565
910.498388,296.082377,995.924147,11473.192101
910.498717,-1628.453072,-766.095498,12287.418637
910.499047,-3478.967927,-1225.752797,13101.645173
910.499376,-5551.544565,306.438199,13101.645173
910.499706,-5625.565159,0.000000,12657.521608
910.500035,-4293.194464,-919.314598,10436.903782
910.500364,-2146.597232,-842.705048,7698.141797
910.500694,296.082377,-1149.143247,5255.462188
910.501023,2146.597232,-612.876398,5107.421000
910.501353,2220.617826,1838.629195,6217.729913
910.501682,1110.308913,3983.696590,7624.121203
910.502012,592.164754,3753.867940,8808.450710
910.502341,444.123565,4213.525239,9326.594869
910.502670,222.061783,3064.381992,10436.903782
910.503000,-222.061783,1608.800546,11547.212695
910.503329,-2220.617826,1378.971896,10732.986159
910.503659,-3552.988522,-536.266849,11769.274478
910.503988,-4293.194464,-2681.334243,13619.789333
910.504318,-5699.585753,-689.485948,14656.077652
910.504647,-6809.894666,306.438199,12213.398043
910.504976,-5329.482782,-1149.143247,9474.636058
910.505306,-2146.597232,-1532.190996,6957.935855
910.505635,1258.350101,-689.485948,4885.359217
910.505965,3923.091493,-1302.362347,4737.318029
910.506294,4293.194464,612.876398,5329.482782
910.506624,3256.906145,4749.792088,6883.915261
910.506953,2220.617826,4903.011187,8586.388927
910.507282,2368.659014,4443.353888,10436.903782
910.507612,1776.494261,4519.963438,11103.089130
910.507941,666.185348,2374.896044,11251.130318
910.508271,-962.267725,1915.238745,10881.027347
910.508600,-2886.803174,689.485948,11177.109724
910.508930,-4589.276840,-2298.286494,12583.501014
910.509259,-6809.894666,-2068.457845,13693.809927
910.509588,-8142.265362,-153.219100,12583.501014
910.509918,-6957.935855,-689.485948,9918.759623
910.510247,-3849.070898,-2221.676944,7994.224174
910.510577,-296.082377,-1685.410096,5995.668130
910.510906,2590.720797,-995.924147,5625.565159
910.511236,3997.112087,76.609550,5995.668130
910.511565,3552.988522,4903.011187,6883.915261
910.511894,3256.906145,6052.154434,8882.471304
910.512224,3849.070898,4519.963438,10732.986159
910.512553,3256.906145,4596.572988,11325.150913
910.512883,1850.514855,3370.820191,12287.418637
910.513212,296.082377,842.705048,12509.480420
910.513542,-2368.659014,842.705048,12583.501014
910.513871,-4071.132681,383.047749,12731.542202
910.514200,-5033.400406,-919.314598,11621.233289
910.514530,-5107.421000,-1378.971896,9918.759623
910.514859,-4071.132681,-612.876398,7846.182985
910.515189,-2368.659014,-995.924147,6143.709319
910.515518,-1036.288319,-536.266849,5181.441594
910.515848,444.123565,1149.143247,5699.585753
910.516177,962.267725,1455.581446,7105.977043
910.516506,592.164754,3370.820191,7994.224174
910.516836,0.000000,4749.792088,8438.347739
910.517165,0.000000,3217.601092,9474.636058
910.517495,74.020594,1915.238745,10362.883188
910.517824,-1184.329507,1915.238745,10881.027347
910.518154,-2146.597232,1302.362347,11029.068536
910.518483,-3108.864956,-612.876398,11843.295072
910.518812,-4293.194464,-1149.143247,12879.583391
910.519142,-5477.523971,-306.438199,12953.603985
910.519471,-4959.379811,-1149.143247,11399.171507
910.519801,-3034.844362,-1225.752797,9252.574275
910.520130,-962.267725,-306.438199,7179.997637
910.520460,1332.370696,-229.828649,7179.997637
910.520789,2664.741391,229.828649,6809.894666
910.521118,3034.844362,2604.724693,7105.977043
910.521448,3330.926739,3677.258390,7550.100608
910.521777,3552.988522,3370.820191,8882.471304
910.522107,3034.844362,3217.601092,10288.862594
910.522436,1776.494261,2604.724693,11103.089130
910.522766,-370.102971,1685.410096,11325.150913
910.523095,-2146.597232,842.705048,12509.480420
910.523424,-4071.132681,153.219100,13175.665768
910.523754,-5847.626942,-612.876398,12805.562797
910.524083,-6883.915261,-1455.581446,11325.150913
910.524413,-5699.585753,-1608.800546,9252.574275
910.524742,-3923.091493,-2221.676944,7179.997637
910.525072,-1628.453072,-1838.629195,5847.626942
910.525401,74.020594,-306.438199,5847.626942
910.525730,1554.432478,612.876398,5995.668130
910.526060,1406.391290,3217.601092,7254.018232
910.526389,1924.535449,3983.696590,7994.224174
910.526719,2294.638420,3830.477490,8808.450710
910.527048,1998.556043,3217.601092,10436.903782
910.527378,1110.308913,2451.505594,10732.986159
910.527707,-740.205942,1685.410096,11325.150913
910.528036,-2368.659014,0.000000,11917.315666
910.528366,-3923.091493,-766.095498,12435.459826
910.528695,-5329.482782,-842.705048,12583.501014
910.529025,-4737.318029,-919.314598,11769.274478
910.529354,-4293.194464,-1532.190996,9474.636058
910.529683,-2442.679609,-1225.752797,7179.997637
910.530013,-74.020594,-919.314598,5995.668130
910.530342,1628.453072,-766.095498,6661.853478
910.530672,1998.556043,1838.629195,7179.997637
910.531001,1258.350101,4213.525239,7772.162391
910.531331,1554.432478,4213.525239,9400.615463
910.531660,1702.473667,3753.867940,10732.986159
910.531989,1332.370696,2987.772442,11399.171507
910.532319,222.061783,2221.676944,11547.212695
910.532648,-1258.350101,689.485948,11991.336260
910.532978,-3108.864956,-306.438199,12805.562797
910.533307,-4663.297435,-1072.533697,12953.603985
910.533637,-5995.668130,-1225.752797,12361.439231
910.533966,-6069.688724,-1225.752797,10288.862594
910.534295,-4219.173869,-2068.457845,7624.121203
910.534625,-1480.411884,-1991.848295,6143.709319
910.534954,666.185348,-1072.533697,5329.482782
910.535284,2368.659014,0.000000,5921.647536
910.535613,2442.679609,2528.115143,7031.956449
910.535943,1850.514855,4826.401637,8216.285956
910.536272,1924.535449,4673.182538,8956.491898
910.536601,1850.514855,4060.306139,9770.718434
910.536931,1702.473667,2911.162892,10584.944971
910.537260,296.082377,1838.629195,10584.944971
910.537590,-1258.350101,612.876398,11251.130318
910.537919,-2664.741391,-919.314598,11917.315666
910.538249,-4885.359217,-689.485948,12805.562797
910.538578,-6439.791695,-612.876398,12139.377449
910.538907,-5921.647536,-919.314598,10288.862594
910.539237,-3478.967927,-995.924147,8586.388927
910.539566,-1184.329507,-1455.581446,6217.729913
910.539896,1258.350101,-919.314598,6069.688724
910.540225,2590.720797,229.828649,6735.874072
910.540555,2886.803174,3294.210641,7254.018232
910.540884,2664.741391,4596.572988,8808.450710
910.541213,2664.741391,4290.134789,9992.780217
910.541543,2294.638420,3677.258390,10732.986159
910.541872,1036.288319,2681.334243,11399.171507
910.542202,-148.041188,1838.629195,11991.336260
910.542531,-1850.514855,842.705048,12509.480420
910.542861,-3404.947333,-459.657299,12435.459826
910.543190,-5033.400406,-536.266849,12213.398043
910.543519,-5773.606348,-995.924147,10955.047942
910.543849,-5329.482782,-995.924147,8882.471304
910.544178,-3182.885551,-1149.143247,7402.059420
910.544508,-1036.288319,-536.266849,5699.585753
910.544837,1036.288319,306.438199,5625.565159
910.545167,1924.535449,1072.533697,6143.709319
910.545496,1258.350101,3064.381992,7105.977043
910.545825,222.061783,4596.572988,8660.409521
910.546155,0.000000,4366.744339,10436.903782
910.546484,0.000000,4136.915689,11769.274478
910.546814,-814.226536,2757.943793,11399.171507
910.547143,-2294.638420,536.266849,11695.253884
910.547473,-3182.885551,-1302.362347,12065.356855
910.547802,-4737.318029,-1149.143247,12139.377449
910.548131,-5773.606348,-766.095498,11695.253884
910.548461,-4663.297435,-689.485948,10362.883188
910.548790,-3034.844362,-153.219100,8216.285956
910.549120,-518.144159,-612.876398,6217.729913
910.549449,1850.514855,-689.485948,5403.503377
910.549779,3330.926739,1225.752797,6439.791695
910.550108,3404.947333,3370.820191,7402.059420
910.550437,2516.700203,4136.915689,8734.430116
910.550767,1998.556043,4443.353888,9770.718434
910.551096,1702.473667,3677.258390,10658.965565
910.551426,1110.308913,2068.457845,11621.233289
910.551755,-666.185348,689.485948,12139.377449
910.552085,-2368.659014,459.657299,12953.603985
910.552414,-3701.029710,-306.438199,12731.542202
910.552743,-4959.379811,-919.314598,12139.377449
910.553073,-5255.462188,-1149.143247,11103.089130
910.553402,-4367.215058,-1302.362347,8882.471304
910.553732,-2442.679609,-2451.505594,6809.894666
910.554061,-666.185348,-995.924147,5847.626942
910.554391,740.205942,459.657299,5773.606348
910.554720,1702.473667,1225.752797,6735.874072
910.555049,1850.514855,2528.115143,7254.018232
910.555379,1628.453072,4213.525239,8290.306550
910.555708,1628.453072,3600.648841,9474.636058
910.556038,1776.494261,2681.334243,10955.047942
910.556367,814.226536,2068.457845,11769.274478
910.556697,-962.267725,842.705048,12509.480420
910.557026,-2960.823768,-383.047749,13175.665768
910.557355,-4293.194464,383.047749,12805.562797
910.557685,-4959.379811,0.000000,11917.315666
910.558014,-4737.318029,-689.485948,10288.862594
910.558344,-3775.050304,-1532.190996,7772.162391
910.558673,-2220.617826,-1608.800546,5699.585753
910.559002,-444.123565,-1685.410096,4959.379811
910.559332,518.144159,-153.219100,6291.750507
910.559661,296.082377,1608.800546,8216.285956
910.559991,-296.082377,3217.601092,9252.574275
910.560320,-444.123565,3983.696590,9622.677246
910.560650,1110.308913,2681.334243,10214.842000
910.560979,2294.638420,2068.457845,11325.150913
910.561308,1110.308913,766.095498,11029.068536
910.561638,-814.226536,-459.657299,12361.439231
910.561967,-2664.741391,-306.438199,13101.645173
910.562297,-4441.235652,919.314598,12953.603985
910.562626,-4885.359217,612.876398,11843.295072
910.562956,-4219.173869,-689.485948,10140.821405
910.563285,-3108.864956,-1225.752797,7698.141797
910.563614,-1036.288319,-1685.410096,5921.647536
910.563944,814.226536,-1302.362347,5181.441594
910.564273,1406.391290,1532.190996,5625.565159
910.564603,518.144159,2681.334243,7105.977043
910.564932,148.041188,3140.991542,8142.265362
910.565262,518.144159,3907.087040,8660.409521
910.565591,1110.308913,3447.429741,9548.656652
910.565920,888.247130,2374.896044,10066.800811
910.566250,-1036.288319,2145.067394,10436.903782
910.566579,-2516.700203,766.095498,11399.171507
910.566909,-3923.091493,-1302.362347,12953.603985
910.567238,-5625.565159,0.000000,13619.789333
910.567568,-6513.812290,383.047749,12435.459826
910.567897,-5625.565159,-766.095498,11029.068536
910.568226,-2960.823768,-1532.190996,8956.491898
910.568556,-296.082377,-1225.752797,6809.894666
910.568885,2220.617826,-1378.971896,5551.544565
910.569215,3478.967927,536.266849,6069.688724
910.569544,3330.926739,3370.820191,6439.791695
910.569874,3182.885551,4903.011187,7994.224174
910.570203,3923.091493,4290.134789,9474.636058
910.570532,3775.050304,4290.134789,10658.965565
910.570862,2516.700203,3217.601092,11843.295072
910.571191,370.102971,1991.848295,12509.480420
910.571521,-1998.556043,1532.190996,13397.727550
910.571850,-3849.070898,153.219100,13175.665768
910.572180,-5625.565159,-536.266849,12213.398043
910.572509,-6143.709319,-383.047749,10732.986159
910.572838,-5255.462188,-766.095498,9178.553681
910.573168,-3997.112087,-1762.019645,7031.956449
910.573497,-2368.659014,-1302.362347,5403.503377
910.573827,-666.185348,153.219100,4663.297435
910.574156,444.123565,766.095498,5773.606348
910.574486,592.164754,2681.334243,6957.935855
910.574815,444.123565,3983.696590,8142.265362
910.575144,1110.308913,3447.429741,8882.471304
910.575474,1406.391290,3217.601092,10362.883188
910.575803,814.226536,2757.943793,11325.150913
910.576133,-888.247130,1762.019645,11695.253884
910.576462,-2220.617826,153.219100,12213.398043
910.576792,-3775.050304,-383.047749,12879.583391
910.577121,-4737.318029,0.000000,12879.583391
910.577450,-4737.318029,-383.047749,12139.377449
910.577780,-3701.029710,-842.705048,10584.944971
910.578109,-2442.679609,-1302.362347,8512.368333
910.578439,-444.123565,-919.314598,7105.977043
910.578768,1406.391290,153.219100,6587.832884
910.579098,2516.700203,1302.362347,6735.874072
910.579427,2368.659014,2681.334243,7031.956449
910.579756,2368.659014,2834.553343,7624.121203
910.580086,2368.659014,3217.601092,8882.471304
910.580415,2220.617826,2451.505594,10362.883188
910.580745,296.082377,1685.410096,11399.171507
910.581074,-1776.494261,2068.457845,13027.624579
910.581404,-3775.050304,459.657299,13471.748144
910.581733,-5033.400406,0.000000,13323.706956
910.582062,-5847.626942,-612.876398,11917.315666
910.582392,-5181.441594,-1302.362347,10510.924376
910.582721,-3627.009116,-1991.848295,8882.471304
910.583051,-2146.597232,-1378.971896,6809.894666
910.583380,-740.205942,-229.828649,5329.482782
910.583710,1036.288319,383.047749,4811.338623
910.584039,2146.597232,1762.019645,6143.709319
910.584368,2294.638420,3753.867940,7105.977043
910.584698,2294.638420,3753.867940,7698.141797
910.585027,2516.700203,2911.162892,9030.512492
910.585357,1998.556043,3370.820191,10881.027347
910.585686,74.020594,2221.676944,11103.089130
910.586016,-1850.514855,919.314598,12065.356855
910.586345,-3256.906145,-536.266849,13027.624579
910.586674,-4811.338623,-459.657299,13249.686362
910.587004,-5773.606348,0.000000,12139.377449
910.587333,-4959.379811,-1455.581446,10881.027347
910.587663,-3627.009116,-1378.971896,9030.512492
910.587992,-1776.494261,-995.924147,7476.080014
910.588322,222.061783,0.000000,6809.894666
910.588651,1406.391290,1455.581446,6587.832884
910.588980,1702.473667,2987.772442,7254.018232
910.589310,1924.535449,3524.039291,8068.244768
910.589639,2220.617826,3064.381992,9178.553681
910.589969,2146.597232,2451.505594,10066.800811
910.590298,814.226536,1762.019645,10955.047942
910.590627,-962.267725,1685.410096,11769.274478
910.590957,-2960.823768,536.266849,13027.624579
910.591286,-4219.173869,-536.266849,13545.768739
910.591616,-5477.523971,0.000000,12805.562797
910.591945,-5699.585753,-689.485948,11399.171507
910.592275,-4663.297435,-1302.362347,9474.636058
910.592604,-3182.885551,-995.924147,7254.018232
910.592933,-1258.350101,-689.485948,5477.523971
910.593263,518.144159,153.219100,4811.338623
910.593592,1628.453072,1302.362347,5773.606348
910.593922,1628.453072,2528.115143,6883.915261
910.594251,962.267725,3677.258390,7698.141797
910.594581,888.247130,3600.648841,8586.388927
910.594910,1184.329507,2681.334243,9844.739029
910.595240,370.102971,2145.067394,11029.068536
910.595569,-1184.329507,1149.143247,10955.047942
910.595899,-2960.823768,-995.924147,11473.192101
910.596229,-3849.070898,-2221.676944,13175.665768
910.596558,-5181.441594,-536.266849,13545.768739
910.596888,-6143.709319,-229.828649,12361.439231
910.597217,-4441.235652,-766.095498,10436.903782
910.597547,-2368.659014,-1072.533697,7846.182985
910.597876,0.000000,-1225.752797,6069.688724
910.598206,2886.803174,-689.485948,6143.709319
910.598535,4071.132681,1302.362347,6883.915261
910.598865,2960.823768,4443.353888,7402.059420
910.599195,2738.761985,4213.525239,8882.471304
910.599524,2664.741391,3370.820191,9696.697840
910.599854,2368.659014,3140.991542,11251.130318
910.600183,962.267725,1608.800546,12213.398043
910.600513,-1258.350101,612.876398,12879.583391
910.600842,-3108.864956,306.438199,13545.768739
910.601172,-4663.297435,-612.876398,12361.439231
910.601501,-5551.544565,-842.705048,12213.398043
910.601831,-5255.462188,-612.876398,10214.842000
910.602161,-3627.009116,-689.485948,7698.141797
910.602490,-1110.308913,-1149.143247,5847.626942
910.602820,370.102971,229.828649,5033.400406
910.603149,1332.370696,1762.019645,5699.585753
910.603479,1332.370696,2528.115143,7031.956449
910.603808,518.144159,4366.744339,8068.244768
910.604138,296.082377,4903.011187,9326.594869
910.604468,666.185348,3524.039291,9770.718434
910.604797,222.061783,1838.629195,10214.842000
910.605127,-1332.370696,76.609550,11399.171507
910.605456,-3034.844362,-612.876398,12139.377449
910.605786,-4589.276840,-383.047749,12509.480420
910.606115,-5255.462188,0.000000,11769.274478
910.606445,-4737.318029,0.000000,10732.986159
910.606774,-3775.050304,153.219100,8660.409521
910.607104,-1258.350101,0.000000,6957.935855
910.607434,888.247130,153.219100,5847.626942
910.607763,2146.597232,1608.800546,6291.750507
910.608093,1998.556043,2451.505594,7994.224174
910.608422,1036.288319,3064.381992,9252.574275
910.608752,518.144159,4443.353888,9474.636058
910.609081,296.082377,3600.648841,9992.780217
910.609411,1110.308913,1608.800546,10881.027347
910.609740,296.082377,766.095498,11103.089130
910.610070,-1184.329507,-1072.533697,11843.295072
910.610400,-2590.720797,-1532.190996,13545.768739
910.610729,-4811.338623,76.609550,13175.665768
910.611059,-5551.544565,383.047749,12583.501014
910.611388,-4663.297435,-689.485948,10807.006753
910.611718,-2664.741391,-1532.190996,8956.491898
910.612047,-518.144159,-1302.362347,6661.853478
910.612377,1850.514855,-995.924147,5403.503377
910.612706,2442.679609,1302.362347,5329.482782
910.613036,2072.576638,2757.943793,5921.647536
910.613366,2146.597232,3217.601092,6587.832884
910.613695,1776.494261,3524.039291,7920.203579
910.614025,1628.453072,3370.820191,9474.636058
910.614354,518.144159,2374.896044,11103.089130
910.614684,-1776.494261,1762.019645,11991.336260
910.615013,-3627.009116,383.047749,12213.398043
910.615343,-5403.503377,-1532.190996,12657.521608
910.615672,-6217.729913,-1991.848295,12509.480420
910.616002,-5699.585753,-1455.581446,11843.295072
910.616332,-4515.256246,-1915.238745,10140.821405
910.616661,-2368.659014,-1838.629195,7846.182985
910.616991,222.061783,-1378.971896,5921.647536
910.617320,2738.761985,0.000000,5033.400406
910.617650,3997.112087,1455.581446,5921.647536
910.617979,3923.091493,3370.820191,7550.100608
910.618309,3108.864956,4826.401637,8956.491898
910.618639,2146.597232,4136.915689,9622.677246
910.618968,2516.700203,3217.601092,11103.089130
910.619298,962.267725,1685.410096,12731.542202
910.619627,-1258.350101,689.485948,14063.912898
910.619957,-3775.050304,-383.047749,13989.892304
910.620286,-5477.523971,-689.485948,12879.583391
910.620616,-5995.668130,-995.924147,11991.336260
910.620945,-5995.668130,-612.876398,10881.027347
910.621275,-4959.379811,-919.314598,8660.409521
910.621605,-3627.009116,-1378.971896,6439.791695
910.621934,-1184.329507,-229.828649,4367.215058
910.622264,592.164754,612.876398,4293.194464
910.622593,1110.308913,1072.533697,5847.626942
910.622923,296.082377,1915.238745,7476.080014
910.623252,-370.102971,3294.210641,8586.388927
910.623582,0.000000,4060.306139,9326.594869
910.623911,1110.308913,2681.334243,10881.027347
910.624241,222.061783,2451.505594,11547.212695
910.624571,-962.267725,1608.800546,10881.027347
910.624900,-1776.494261,-1378.971896,11917.315666
910.625230,-3108.864956,-1378.971896,13323.706956
910.625559,-4737.318029,1915.238745,13471.748144
910.625889,-5329.482782,612.876398,11843.295072
910.626218,-3627.009116,-1072.533697,10066.800811
910.626548,-1332.370696,-995.924147,7402.059420
910.626877,1332.370696,-1608.800546,5773.606348
910.627207,2812.782580,-2068.457845,4885.359217
910.627537,3034.844362,1455.581446,5847.626942
910.627866,2368.659014,4060.306139,7254.018232
910.628196,2368.659014,3677.258390,9104.533087
910.628525,2442.679609,4060.306139,10436.903782
910.628855,1776.494261,3830.477490,11029.068536
910.629184,740.205942,1532.190996,11991.336260
910.629514,-1258.350101,842.705048,13619.789333
910.629843,-3775.050304,689.485948,13619.789333
910.630173,-5329.482782,-919.314598,12731.542202
910.630503,-6143.709319,-1455.581446,11695.253884
910.630832,-5181.441594,-842.705048,10066.800811
910.631162,-3701.029710,-1685.410096,8216.285956
910.631491,-1332.370696,-1762.019645,6291.750507
910.631821,444.123565,229.828649,4811.338623
910.632150,2146.597232,1685.410096,5329.482782
910.632480,2294.638420,2145.067394,6587.832884
910.632810,1554.432478,4673.182538,7179.997637
910.633139,1332.370696,4519.963438,8512.368333
910.633469,1554.432478,4060.306139,9918.759623
910.633798,1110.308913,3140.991542,10955.047942
910.634128,-370.102971,1608.800546,11769.274478
910.634457,-2072.576638,-689.485948,12287.418637
910.634787,-3923.091493,-1302.362347,12731.542202
910.635116,-5255.462188,-153.219100,12953.603985
910.635446,-5699.585753,0.000000,12287.418637
910.635776,-4737.318029,-459.657299,10510.924376
910.636105,-2886.803174,-459.657299,7920.203579
910.636435,-666.185348,-383.047749,6217.729913
910.636764,1110.308913,0.000000,5477.523971
910.637094,2072.576638,1838.629195,6143.709319
910.637423,1554.432478,2757.943793,7476.080014
910.637753,962.267725,3907.087040,8438.347739
910.638082,888.247130,3600.648841,9696.697840
910.638412,1480.411884,2757.943793,11103.089130
910.638742,888.247130,2451.505594,11769.274478
910.639071,-666.185348,919.314598,12657.521608
910.639401,-2220.617826,0.000000,13545.768739
910.639730,-3701.029710,0.000000,12879.583391
910.640060,-5181.441594,0.000000,12065.356855
910.640389,-4737.318029,-612.876398,11029.068536
910.640719,-3923.091493,-995.924147,9400.615463
910.641048,-2294.638420,-1072.533697,7105.977043
910.641378,-370.102971,-1149.143247,5329.482782
910.641708,1628.453072,459.657299,4811.338623
910.642037,2220.617826,2145.067394,5625.565159
910.642367,1480.411884,2757.943793,6809.894666
910.642696,1184.329507,3600.648841,8068.244768
910.643026,1406.391290,3677.258390,8956.491898
910.643355,1480.411884,3140.991542,10510.924376
910.643685,0.000000,2221.676944,10881.027347
910.644015,-2220.617826,995.924147,11547.212695
910.644344,-3552.988522,-842.705048,12213.398043
910.644674,-4959.379811,-1532.190996,12805.562797
910.645003,-5699.585753,-612.876398,11991.336260
910.645333,-5033.400406,-1149.143247,11251.130318
910.645662,-3627.009116,-1608.800546,9474.636058
910.645992,-1184.329507,-1532.190996,7402.059420
910.646321,1184.329507,-995.924147,6217.729913
910.646651,2960.823768,383.047749,5699.585753
910.646981,3256.906145,1991.848295,6587.832884
910.647310,2886.803174,3600.648841,7920.203579
910.647640,2738.761985,3447.429741,8882.471304
910.647969,2812.782580,2681.334243,10288.862594
910.648299,2220.617826,2451.505594,11917.315666
910.648628,222.061783,1838.629195,13545.768739
910.648958,-1924.535449,1225.752797,14285.974681
910.649287,-3775.050304,76.609550,13619.789333
910.649617,-4663.297435,-612.876398,12213.398043
910.649947,-4589.276840,-1072.533697,11029.068536
910.650276,-3849.070898,-1455.581446,9178.553681
910.650606,-3108.864956,-1762.019645,7328.038826
910.650935,-2368.659014,-1149.143247,5403.503377
910.651265,-962.267725,0.000000,4737.318029
910.651594,0.000000,1225.752797,5699.585753
910.651924,0.000000,2145.067394,7105.977043
910.652253,148.041188,3064.381992,7994.224174
910.652583,740.205942,3217.601092,8808.450710
910.652913,1406.391290,2987.772442,9400.615463
910.653242,1036.288319,2298.286494,10288.862594
910.653572,-370.102971,1838.629195,10362.883188
910.653901,-1924.535449,0.000000,11621.233289
910.654231,-3108.864956,-459.657299,13175.665768
910.654560,-4885.359217,612.876398,13323.706956
910.654890,-5699.585753,76.609550,12213.398043
910.655219,-4737.318029,-1149.143247,10584.944971
910.655549,-2738.761985,-1378.971896,8216.285956
910.655879,-370.102971,-1685.410096,6365.771101
910.656208,1702.473667,-1072.533697,5625.565159
910.656538,2590.720797,689.485948,5921.647536
910.656867,2442.679609,2987.772442,7031.956449
910.657197,2146.597232,3140.991542,8734.430116
910.657526,1702.473667,3677.258390,10288.862594
910.657856,1332.370696,4596.572988,11695.253884
910.658186,518.144159,3524.039291,11843.295072
910.658515,-666.185348,1685.410096,12361.439231
910.658845,-2072.576638,0.000000,13767.830521
910.659174,-4367.215058,-612.876398,13693.809927
910.659504,-6439.791695,-383.047749,12583.501014
910.659833,-6661.853478,-612.876398,10732.986159
910.660163,-5329.482782,-689.485948,8660.409521
910.660492,-3182.885551,-1455.581446,6365.771101
910.660822,-888.247130,-1302.362347,4515.256246
910.661152,814.226536,0.000000,3923.091493
910.661481,1480.411884,2145.067394,5181.441594
910.661811,1480.411884,3753.867940,7624.121203
910.662140,1258.350101,4443.353888,9104.533087
910.662470,1480.411884,4749.792088,9844.739029
910.662799,1776.494261,3370.820191,10362.883188
910.663129,1406.391290,2528.115143,10510.924376
910.663458,-148.041188,459.657299,11769.274478
910.663788,-1998.556043,-459.657299,12953.603985
910.664118,-4367.215058,612.876398,12361.439231
910.664447,-5033.400406,612.876398,11473.192101
910.664777,-4293.194464,-383.047749,10436.903782
910.665106,-2886.803174,-995.924147,8364.327145
910.665436,-1110.308913,-1378.971896,6439.791695
910.665765,814.226536,-1532.190996,5847.626942
910.666095,1776.494261,766.095498,6735.874072
910.666424,1332.370696,3064.381992,7846.182985
910.666754,740.205942,3140.991542,8512.368333
910.667084,888.247130,2681.334243,9400.615463
910.667413,1924.535449,2298.286494,10732.986159
910.667743,1924.535449,1302.362347,12583.501014
910.668072,444.123565,1532.190996,13397.727550
910.668402,-1702.473667,1225.752797,13915.871710
910.668731,-2590.720797,0.000000,13175.665768
910.669061,-2812.782580,-383.047749,12065.356855
910.669391,-2516.700203,0.000000,10881.027347
910.669720,-2590.720797,-383.047749,8882.471304
910.670050,-2220.617826,-919.314598,6957.935855
910.670379,-1406.391290,0.000000,5625.565159
910.670709,0.000000,612.876398,5551.544565
910.671038,518.144159,766.095498,6439.791695
910.671368,-444.123565,1455.581446,7994.224174
910.671697,-1628.453072,2528.115143,8438.347739
910.672027,-1332.370696,2834.553343,9104.533087
910.672357,0.000000,2068.457845,9844.739029
910.672686,148.041188,1225.752797,9992.780217
910.673016,-740.205942,612.876398,10288.862594
910.673345,-1480.411884,-1378.971896,11621.233289
910.673675,-2812.782580,-536.266849,12731.542202
910.674004,-4219.173869,1225.752797,12509.480420
910.674334,-4589.276840,612.876398,11695.253884
910.674663,-2886.803174,0.000000,10140.821405
910.674993,-1258.350101,-1149.143247,7920.203579
910.675323,1036.288319,-995.924147,6069.688724
910.675652,2442.679609,-536.266849,5773.606348
910.675982,2368.659014,1762.019645,6809.894666
910.676311,1184.329507,3600.648841,7920.203579
910.676641,1036.288319,3064.381992,9178.553681
910.676970,1628.453072,3294.210641,10288.862594
910.677300,1332.370696,2681.334243,11473.192101
910.677629,0.000000,1915.238745,12435.459826
910.677959,-1924.535449,1378.971896,13175.665768
910.678289,-3627.009116,306.438199,13323.706956
910.678618,-5107.421000,0.000000,12583.501014
910.678948,-5773.606348,-306.438199,11769.274478
910.679277,-5403.503377,-995.924147,10288.862594
910.679607,-4367.215058,-1072.533697,8512.368333
910.679936,-2368.659014,-1532.190996,6587.832884
910.680266,-592.164754,-383.047749,4663.297435
910.680595,222.061783,995.924147,4959.379811
910.680925,1036.288319,1532.190996,6439.791695
910.681255,740.205942,3217.601092,7772.162391
910.681584,740.205942,4060.306139,8808.450710
910.681914,1480.411884,3524.039291,9326.594869
910.682243,1332.370696,2757.943793,10214.842000
910.682573,666.185348,2145.067394,10658.965565
910.682902,-888.247130,229.828649,11695.253884
910.683232,-2442.679609,-1608.800546,12953.603985
910.683562,-4219.173869,229.828649,12953.603985
910.683891,-5625.565159,1149.143247,12583.501014
910.684221,-4959.379811,-229.828649,11029.068536
910.684550,-3034.844362,-1072.533697,8586.388927
910.684880,-814.226536,-1455.581446,6291.750507
910.685209,1480.411884,-1225.752797,5033.400406
910.685539,2812.782580,383.047749,5699.585753
910.685868,2072.576638,2451.505594,6957.935855
910.686198,1258.350101,2681.334243,8216.285956
910.686528,1184.329507,2757.943793,9696.697840
910.686857,1628.453072,3140.991542,10436.903782
910.687187,1406.391290,2451.505594,11621.233289
910.687516,0.000000,612.876398,12583.501014
910.687846,-2146.597232,153.219100,13545.768739
910.688175,-3849.070898,-306.438199,13915.871710
910.688505,-4885.359217,-306.438199,13101.645173
910.688834,-4811.338623,-383.047749,11547.212695
910.689164,-3775.050304,-383.047749,9844.739029
910.689494,-2368.659014,-2068.457845,7772.162391
910.689823,-592.164754,-1762.019645,5921.647536
910.690153,888.247130,0.000000,5403.503377
910.690482,1850.514855,1685.410096,5847.626942
910.690812,1554.432478,2451.505594,6661.853478
910.691141,962.267725,3677.258390,7920.203579
910.691471,1332.370696,3140.991542,9104.533087
910.691800,1628.453072,2987.772442,10140.821405
910.692130,666.185348,2987.772442,10288.862594
910.692460,-222.061783,2451.505594,10584.944971
910.692789,-2072.576638,-612.876398,11695.253884
910.693119,-3627.009116,-1225.752797,12953.603985
910.693448,-5699.585753,459.657299,13175.665768
910.693778,-6661.853478,459.657299,12213.398043
910.694107,-5773.606348,153.219100,10362.883188
910.694437,-3849.070898,-842.705048,7846.182985
910.694766,-1184.329507,-1455.581446,5847.626942
910.695096,1554.432478,-842.705048,5477.523971
910.695426,2368.659014,1532.190996,5625.565159
910.695755,2368.659014,3294.210641,6587.832884
910.696085,1998.556043,3753.867940,8438.347739
910.696414,2294.638420,4290.134789,9992.780217
910.696744,2220.617826,4213.525239,10955.047942
910.697073,1332.370696,2681.334243,11547.212695
910.697403,0.000000,1685.410096,12953.603985
910.697732,-1184.329507,0.000000,14359.995275
910.698062,-3997.112087,-459.657299,13693.809927
910.698391,-5255.462188,0.000000,12953.603985
910.698721,-5181.441594,-153.219100,11473.192101
910.699051,-4219.173869,-536.266849,9474.636058
910.699380,-2442.679609,-842.705048,7031.956449
910.699710,-296.082377,-612.876398,4885.359217
910.700039,1554.432478,919.314598,4515.256246
910.700369,2072.576638,1608.800546,5699.585753
910.700698,1480.411884,2834.553343,7328.038826
910.701028,888.247130,3524.039291,8364.327145
910.701357,296.082377,3600.648841,9178.553681
910.701687,296.082377,2451.505594,10436.903782
910.702016,-444.123565,2298.286494,10955.047942
910.702346,-1776.494261,1302.362347,10881.027347
910.702676,-2738.761985,-1991.848295,12361.439231
910.703005,-4219.173869,-1762.019645,13619.789333
910.703335,-6217.729913,919.314598,13619.789333
910.703664,-6217.729913,-459.657299,11843.295072
910.703994,-3997.112087,-1455.581446,9474.636058
910.704323,-1924.535449,-1149.143247,6883.915261
910.704653,1258.350101,-1149.143247,5403.503377
910.704982,3701.029710,-1149.143247,5477.523971
910.705312,3701.029710,2528.115143,6069.688724
910.705641,2738.761985,4519.963438,7698.141797
910.705971,2442.679609,3370.820191,9474.636058
910.706301,2664.741391,2757.943793,10658.965565
910.706630,1850.514855,3217.601092,11251.130318
910.706960,148.041188,842.705048,12435.459826
910.707289,-1332.370696,76.609550,13767.830521
910.707619,-3923.091493,0.000000,13915.871710
910.707948,-5329.482782,-766.095498,12805.562797
910.708278,-6217.729913,-1149.143247,11547.212695
910.708607,-5255.462188,-995.924147,9622.677246
910.708937,-3330.926739,-1685.410096,7624.121203
910.709266,-1406.391290,-1685.410096,5329.482782
910.709596,370.102971,536.266849,4737.318029
910.709926,1480.411884,1532.190996,5551.544565
910.710255,1554.432478,2451.505594,6883.915261
910.710585,592.164754,4136.915689,8142.265362
910.710914,444.123565,3907.087040,8734.430116
910.711244,592.164754,2374.896044,9326.594869
910.711573,296.082377,2298.286494,9918.759623
910.711903,-1332.370696,1608.800546,10436.903782
910.712232,-2590.720797,-306.438199,11547.212695
910.712562,-3923.091493,-2451.505594,13545.768739
910.712891,-5773.606348,76.609550,14285.974681
910.713221,-6587.832884,1149.143247,12509.480420
910.713551,-4959.379811,-383.047749,10066.800811
910.713880,-2220.617826,-689.485948,7846.182985
910.714210,592.164754,-842.705048,5921.647536
910.714539,2442.679609,-766.095498,5773.606348
910.714869,3256.906145,919.314598,6069.688724
910.715198,2664.741391,4290.134789,7550.100608
910.715528,1998.556043,4060.306139,9326.594869
910.715857,2220.617826,3600.648841,10732.986159
910.716187,2146.597232,3600.648841,10584.944971
910.716516,1332.370696,1532.190996,11399.171507
910.716846,-370.102971,612.876398,13323.706956
910.717176,-2886.803174,306.438199,14804.118840
910.717505,-6069.688724,459.657299,14508.036463
910.717835,-7328.038826,-229.828649,12953.603985
910.718164,-6883.915261,153.219100,10510.924376
910.718494,-3849.070898,-1149.143247,7698.141797
910.718823,-740.205942,-2528.115143,5033.400406
910.719153,1332.370696,-1685.410096,3997.112087
910.719482,2442.679609,1302.362347,4367.215058
910.719812,2664.741391,2911.162892,5847.626942
910.720142,1998.556043,4213.525239,7105.977043
910.720471,1850.514855,4749.792088,8586.388927
910.720801,1628.453072,4060.306139,9548.656652
910.721130,1554.432478,3140.991542,10214.842000
910.721460,296.082377,2298.286494,10584.944971
910.721789,-1406.391290,-612.876398,12435.459826
910.722119,-3552.988522,-1685.410096,13693.809927
910.722448,-6439.791695,0.000000,13915.871710
910.722778,-7476.080014,229.828649,12731.542202
910.723107,-6069.688724,-153.219100,10658.965565
910.723437,-3034.844362,-919.314598,7920.203579
910.723767,0.000000,-2221.676944,5921.647536
910.724096,2368.659014,-1608.800546,5107.421000
910.724426,2516.700203,1302.362347,5773.606348
910.724755,1998.556043,4136.915689,7105.977043
910.725085,1406.391290,4213.525239,9104.533087
910.725414,1480.411884,4136.915689,10510.924376
910.725744,2220.617826,3140.991542,11473.192101
910.726073,2072.576638,459.657299,12435.459826
910.726403,370.102971,0.000000,13767.830521
910.726732,-2146.597232,842.705048,14211.954086
910.727062,-4293.194464,612.876398,13397.727550
910.727392,-5181.441594,536.266849,12361.439231
910.727721,-5181.441594,383.047749,10214.842000
910.728051,-3923.091493,-383.047749,7920.203579
910.728380,-2368.659014,-1685.410096,5625.565159
910.728710,-962.267725,-842.705048,4959.379811
910.729039,-296.082377,612.876398,5625.565159
910.729369,0.000000,919.314598,7105.977043
910.729698,-814.226536,2834.553343,7846.182985
910.730028,-962.267725,3830.477490,8142.265362
910.730357,592.164754,2757.943793,9104.533087
910.730687,1998.556043,2068.457845,9696.697840
910.731017,1480.411884,1608.800546,9770.718434
910.731346,0.000000,76.609550,11177.109724
910.731676,-2294.638420,-766.095498,12731.542202
910.732005,-4515.256246,995.924147,13619.789333
910.732335,-5773.606348,1149.143247,12731.542202
910.732664,-4959.379811,-459.657299,11029.068536
910.732994,-2886.803174,-766.095498,9030.512492
910.733323,-222.061783,-1378.971896,6883.915261
910.733653,1702.473667,-1991.848295,5699.585753
910.733982,2072.576638,383.047749,5699.585753
910.734312,1258.350101,2757.943793,6439.791695
910.734642,1332.370696,4213.525239,8586.388927
910.734971,1332.370696,4136.915689,9548.656652
910.735301,1702.473667,3600.648841,10584.944971
910.735630,1776.494261,1838.629195,11029.068536
910.735960,148.041188,383.047749,12435.459826
910.736289,-1776.494261,306.438199,14285.974681
910.736619,-4293.194464,229.828649,14359.995275
910.736948,-5921.647536,-153.219100,13175.665768
910.737278,-5551.544565,-536.266849,11473.192101
910.737607,-4293.194464,-1072.533697,9326.594869
910.737937,-1480.411884,-1302.362347,7550.100608
910.738267,0.000000,-1532.190996,5255.462188
910.738596,1406.391290,536.266849,4737.318029
910.738926,1628.453072,2145.067394,5551.544565
910.739255,1184.329507,3524.039291,6883.915261
910.739585,740.205942,4366.744339,7994.224174
910.739914,1406.391290,3753.867940,8734.430116
910.740244,1554.432478,2451.505594,9918.759623
910.740573,814.226536,1685.410096,10732.986159
910.740903,-1258.350101,229.828649,11843.295072
910.741232,-3627.009116,-689.485948,12879.583391
910.741562,-5699.585753,0.000000,12805.562797
910.741892,-6883.915261,842.705048,12065.356855
910.742221,-5995.668130,306.438199,10658.965565
910.742551,-3775.050304,-1225.752797,8586.388927
910.742880,-1776.494261,-1991.848295,6661.853478
910.743210,74.020594,-1685.410096,4737.318029
910.743539,888.247130,153.219100,5699.585753
910.743869,1332.370696,1991.848295,7179.997637
910.744198,592.164754,3447.429741,8438.347739
910.744528,740.205942,3677.258390,9326.594869
910.744857,1776.494261,3294.210641,10288.862594
910.745187,2294.638420,2451.505594,10584.944971
910.745517,1628.453072,1685.410096,12213.398043
910.745846,-666.185348,153.219100,13841.851115
910.746176,-3182.885551,0.000000,14359.995275
910.746505,-5847.626942,612.876398,13915.871710
