#time,accel_x,accel_y,accel_z
775.294562,-962.267725,919.314598,9474.636058
775.294891,-962.267725,919.314598,9548.656652
775.295220,-1184.329507,1225.752797,9696.697840
775.295550,-1036.288319,1072.533697,9474.636058
775.295879,-1184.329507,689.485948,9696.697840
775.296208,-888.247130,689.485948,9622.677246
775.296538,-1110.308913,689.485948,9326.594869
775.296867,-888.247130,842.705048,9474.636058
775.297196,-962.267725,919.314598,9474.636058
775.297526,-814.226536,1685.410096,9548.656652
775.297855,-1258.350101,766.095498,9178.553681
775.298184,-1184.329507,1072.533697,9474.636058
775.298513,-888.247130,1072.533697,9548.656652
775.298843,-1110.308913,1225.752797,9400.615463
775.299172,-962.267725,1302.362347,9622.677246
775.299501,-962.267725,1378.971896,9178.553681
775.299831,-962.267725,766.095498,9474.636058
775.300160,-1036.288319,919.314598,9474.636058
775.300489,-1036.288319,842.705048,9474.636058
775.300819,-1036.288319,842.705048,9474.636058
775.301148,-1110.308913,995.924147,9252.574275
775.301477,-1258.350101,766.095498,9474.636058
775.301806,-1258.350101,1072.533697,9326.594869
775.302136,-1036.288319,842.705048,9548.656652
775.302465,-1036.288319,842.705048,9844.739029
775.302794,-888.247130,919.314598,9326.594869
775.303124,-1406.391290,536.266849,9474.636058
775.303453,-1110.308913,689.485948,9622.677246
775.303782,-1036.288319,1072.533697,9622.677246
775.304112,-1036.288319,919.314598,9474.636058
775.304441,-1036.288319,842.705048,9400.615463
775.304770,-1036.288319,1225.752797,9474.636058
775.305099,-1036.288319,842.705048,9548.656652
775.305429,-962.267725,1149.143247,9696.697840
775.305758,-1184.329507,842.705048,9400.615463
775.306087,-1184.329507,689.485948,9474.636058
775.306417,-962.267725,1072.533697,9400.615463
775.306746,-1036.288319,842.705048,9548.656652
775.307075,-1110.308913,842.705048,9474.636058
775.307405,-1184.329507,842.705048,9474.636058
775.307734,-1110.308913,1072.533697,9474.636058
775.308063,-740.205942,766.095498,9252.574275
775.308392,-740.205942,1149.143247,9326.594869
775.308722,-888.247130,1072.533697,9474.636058
775.309051,-888.247130,842.705048,9474.636058
775.309380,-1110.308913,766.095498,9474.636058
775.309710,-888.247130,919.314598,9474.636058
775.310039,-962.267725,995.924147,9474.636058
775.310368,-1036.288319,842.705048,9474.636058
775.310698,-962.267725,919.314598,9622.677246
775.311027,-1332.370696,1072.533697,9400.615463
775.311356,-740.205942,842.705048,9474.636058
775.311685,-740.205942,1685.410096,9622.677246
775.312015,-1110.308913,1072.533697,9474.636058
775.312344,-1184.329507,919.314598,9474.636058
775.312673,-1036.288319,919.314598,9548.656652
775.313003,-1110.308913,919.314598,9548.656652
775.313332,-814.226536,1608.800546,9400.615463
775.313661,-888.247130,842.705048,9474.636058
775.313991,-1110.308913,919.314598,9548.656652
775.314320,-888.247130,766.095498,9770.718434
775.314649,-962.267725,689.485948,9696.697840
775.314978,-1184.329507,766.095498,9326.594869
775.315308,-1184.329507,1455.581446,9474.636058
775.315637,-962.267725,919.314598,9992.780217
775.315966,-1036.288319,1072.533697,9622.677246
775.316296,-1036.288319,919.314598,9622.677246
775.316625,-888.247130,842.705048,9696.697840
775.316954,-592.164754,919.314598,9326.594869
775.317284,-148.041188,842.705048,9030.512492
775.317613,518.144159,536.266849,9178.553681
775.317942,1036.288319,383.047749,9474.636058
775.318271,814.226536,536.266849,9252.574275
775.318601,518.144159,842.705048,9770.718434
775.318930,0.000000,689.485948,10140.821405
775.319259,-592.164754,1149.143247,10214.842000
775.319589,-888.247130,459.657299,10140.821405
775.319918,-444.123565,153.219100,9992.780217
775.320247,-444.123565,229.828649,9400.615463
775.320577,666.185348,0.000000,8956.491898
775.320906,1628.453072,76.609550,8882.471304
775.321235,2738.761985,459.657299,8290.306550
775.321564,3552.988522,919.314598,8660.409521
775.321894,3923.091493,1915.238745,8956.491898
775.322223,3997.112087,2451.505594,9474.636058
775.322552,3404.947333,1915.238745,10066.800811
775.322882,2294.638420,1225.752797,10214.842000
775.323211,1480.411884,1149.143247,10732.986159
775.323540,740.205942,612.876398,10955.047942
775.323870,518.144159,153.219100,11251.130318
775.324199,592.164754,-383.047749,10362.883188
775.324528,888.247130,-689.485948,9326.594869
775.324857,1924.535449,-689.485948,9030.512492
775.325187,2664.741391,306.438199,8808.450710
775.325516,3182.885551,1149.143247,8808.450710
775.325845,3552.988522,2604.724693,9030.512492
775.326175,2812.782580,2987.772442,9326.594869
775.326504,1850.514855,2987.772442,9474.636058
775.326833,370.102971,2298.286494,9992.780217
775.327163,-1406.391290,2145.067394,10436.903782
775.327492,-2812.782580,1455.581446,10066.800811
775.327821,-3923.091493,766.095498,10288.862594
775.328151,-4293.194464,76.609550,9178.553681
775.328480,-3034.844362,-766.095498,8290.306550
775.328809,-1258.350101,-1149.143247,7402.059420
775.329138,518.144159,766.095498,6291.750507
775.329468,2294.638420,1149.143247,6365.771101
775.329797,3404.947333,1149.143247,7402.059420
775.330126,2590.720797,2604.724693,9474.636058
775.330456,370.102971,4596.572988,11399.171507
775.330785,-2220.617826,5132.839837,12805.562797
775.331114,-4367.215058,2911.162892,13175.665768
775.331444,-5255.462188,1608.800546,12065.356855
775.331773,-4959.379811,-1608.800546,10658.965565
775.332102,-3552.988522,-3600.648841,9400.615463
775.332431,-1776.494261,-3447.429741,8438.347739
775.332761,0.000000,-2145.067394,7846.182985
775.333090,1332.370696,-1149.143247,8068.244768
775.333419,2516.700203,1378.971896,8438.347739
775.333749,2812.782580,2604.724693,9030.512492
775.334078,2516.700203,3294.210641,9622.677246
775.334407,1776.494261,4060.306139,10288.862594
775.334737,-222.061783,4060.306139,10881.027347
775.335066,-1998.556043,2681.334243,11399.171507
775.335395,-3034.844362,1149.143247,11177.109724
775.335724,-2960.823768,-229.828649,10140.821405
775.336054,-2146.597232,-1608.800546,8660.409521
775.336383,-1258.350101,-2528.115143,7328.038826
775.336712,-814.226536,-2145.067394,7624.121203
775.337042,-222.061783,-536.266849,8068.244768
775.337371,0.000000,995.924147,9104.533087
775.337700,-962.267725,2987.772442,9918.759623
775.338030,-1406.391290,3830.477490,10214.842000
775.338359,-1110.308913,2604.724693,10510.924376
775.338688,-1036.288319,1378.971896,10066.800811
775.339017,-1036.288319,459.657299,9696.697840
775.339347,-1184.329507,-536.266849,9474.636058
775.339676,-888.247130,-1762.019645,9696.697840
775.340005,-1850.514855,-842.705048,10584.944971
775.340335,-2738.761985,153.219100,10584.944971
775.340664,-2368.659014,1225.752797,9770.718434
775.340993,-814.226536,1149.143247,9400.615463
775.341323,1406.391290,1455.581446,8660.409521
775.341652,2072.576638,1608.800546,8068.244768
775.341981,2812.782580,2145.067394,7772.162391
775.342310,2960.823768,2528.115143,7402.059420
775.342640,2072.576638,2451.505594,8290.306550
775.342969,814.226536,2757.943793,10214.842000
775.343298,-962.267725,2145.067394,11325.150913
775.343628,-2812.782580,1455.581446,11769.274478
775.343957,-4367.215058,919.314598,11769.274478
775.344286,-4959.379811,383.047749,11399.171507
775.344616,-5329.482782,-1149.143247,10584.944971
775.344945,-4515.256246,-1532.190996,9696.697840
775.345274,-3552.988522,-995.924147,8882.471304
775.345603,-1998.556043,-459.657299,8290.306550
775.345933,-666.185348,0.000000,8290.306550
775.346262,222.061783,1149.143247,8142.265362
775.346591,296.082377,1608.800546,7994.224174
775.346921,740.205942,2528.115143,9178.553681
775.347250,592.164754,3294.210641,9474.636058
775.347579,666.185348,3370.820191,9400.615463
775.347909,592.164754,2298.286494,9474.636058
775.348238,444.123565,1225.752797,9918.759623
775.348567,-222.061783,1685.410096,9770.718434
775.348896,-1110.308913,1072.533697,9992.780217
775.349226,-1924.535449,766.095498,10214.842000
775.349555,-2886.803174,842.705048,10362.883188
775.349884,-3256.906145,306.438199,10288.862594
775.350214,-3330.926739,-306.438199,9622.677246
775.350543,-3108.864956,0.000000,8956.491898
775.350872,-2368.659014,-459.657299,8586.388927
775.351202,-1850.514855,-459.657299,9104.533087
775.351531,-1702.473667,0.000000,9326.594869
775.351860,-1850.514855,153.219100,9474.636058
775.352189,-2072.576638,612.876398,10214.842000
775.352519,-2516.700203,689.485948,10362.883188
775.352848,-2812.782580,1225.752797,10881.027347
775.353177,-2072.576638,1149.143247,10807.006753
775.353507,-222.061783,383.047749,9400.615463
775.353836,1406.391290,459.657299,8734.430116
775.354165,2664.741391,1072.533697,7772.162391
775.354495,4145.153275,995.924147,7994.224174
775.354824,4293.194464,1302.362347,8586.388927
775.355153,3552.988522,2681.334243,9696.697840
775.355482,1924.535449,3600.648841,10807.006753
775.355812,444.123565,2987.772442,11769.274478
775.356141,-1554.432478,2068.457845,11177.109724
775.356470,-3256.906145,995.924147,9918.759623
775.356800,-3552.988522,-1378.971896,9326.594869
775.357129,-3182.885551,-2834.553343,9104.533087
775.357458,-3256.906145,-2451.505594,8734.430116
775.357788,-2812.782580,-1685.410096,8956.491898
775.358117,-2294.638420,-689.485948,8734.430116
775.358446,-1258.350101,536.266849,8290.306550
775.358775,-444.123565,1838.629195,8142.265362
775.359105,592.164754,2068.457845,8808.450710
775.359434,740.205942,2911.162892,9622.677246
775.359763,296.082377,3370.820191,10510.924376
775.360093,0.000000,3447.429741,10881.027347
775.360422,-814.226536,3294.210641,9992.780217
775.360751,-592.164754,2221.676944,9178.553681
775.361081,-222.061783,229.828649,8956.491898
775.361410,-222.061783,0.000000,9104.533087
775.361739,-962.267725,383.047749,9030.512492
775.362068,-1628.453072,383.047749,9400.615463
775.362398,-2220.617826,995.924147,9622.677246
775.362727,-2664.741391,2145.067394,9548.656652
775.363056,-2294.638420,1302.362347,10214.842000
775.363386,-1628.453072,919.314598,10214.842000
775.363715,-1776.494261,1225.752797,9696.697840
775.364044,-1924.535449,383.047749,9252.574275
775.364374,-2516.700203,612.876398,9844.739029
775.364703,-3256.906145,-153.219100,10584.944971
775.365032,-4737.318029,536.266849,10732.986159
775.365362,-4885.359217,766.095498,10584.944971
775.365691,-3552.988522,536.266849,9992.780217
775.366020,-962.267725,536.266849,8660.409521
775.366349,962.267725,766.095498,6661.853478
775.366679,3330.926739,842.705048,6143.709319
775.367008,4589.276840,1149.143247,6513.812290
775.367337,4367.215058,3140.991542,8216.285956
775.367666,3182.885551,4903.011187,9844.739029
775.367996,740.205942,4443.353888,11843.295072
775.368325,-1480.411884,3600.648841,12583.501014
775.368654,-3034.844362,2068.457845,11917.315666
775.368984,-3775.050304,-536.266849,10658.965565
775.369313,-3404.947333,-2757.943793,9548.656652
775.369642,-2886.803174,-3753.867940,8956.491898
775.369971,-2590.720797,-3294.210641,9326.594869
775.370301,-2294.638420,-2068.457845,9326.594869
775.370630,-1332.370696,0.000000,8660.409521
775.370959,-296.082377,995.924147,8142.265362
775.371288,962.267725,2145.067394,8068.244768
775.371618,2368.659014,2145.067394,8882.471304
775.371947,2294.638420,2604.724693,9474.636058
775.372276,1332.370696,3217.601092,10510.924376
775.372605,-370.102971,3370.820191,10881.027347
775.372935,-1332.370696,2834.553343,9992.780217
775.373264,-1406.391290,0.000000,9548.656652
775.373593,-962.267725,-459.657299,9252.574275
775.373922,-962.267725,-612.876398,9104.533087
775.374252,-1480.411884,-842.705048,9104.533087
775.374581,-2146.597232,306.438199,9696.697840
775.374910,-3034.844362,919.314598,9770.718434
775.375239,-2960.823768,1991.848295,10214.842000
775.375569,-2146.597232,766.095498,10362.883188
775.375898,-1406.391290,459.657299,10288.862594
775.376227,-1332.370696,689.485948,9770.718434
775.376556,-1480.411884,76.609550,9696.697840
775.376886,-2368.659014,-689.485948,10066.800811
775.377215,-3552.988522,-306.438199,10658.965565
775.377544,-4367.215058,995.924147,10955.047942
775.377873,-3627.009116,919.314598,10140.821405
775.378203,-1184.329507,153.219100,9104.533087
775.378532,1184.329507,383.047749,8290.306550
775.378861,2886.803174,1072.533697,6809.894666
775.379190,4219.173869,1762.019645,6809.894666
775.379520,4515.256246,2911.162892,7476.080014
775.379849,3404.947333,4826.401637,8808.450710
775.380178,1554.432478,4903.011187,10510.924376
775.380507,-740.205942,3830.477490,11695.253884
775.380837,-2664.741391,2757.943793,11769.274478
775.381166,-4219.173869,1225.752797,10881.027347
775.381495,-4737.318029,-919.314598,9918.759623
775.381825,-3923.091493,-2451.505594,8956.491898
775.382154,-3701.029710,-2374.896044,8216.285956
775.382483,-2960.823768,-2068.457845,8438.347739
775.382812,-1924.535449,-842.705048,8142.265362
775.383142,-814.226536,995.924147,8216.285956
775.383471,0.000000,2221.676944,8364.327145
775.383800,740.205942,2298.286494,8956.491898
775.384129,1406.391290,2911.162892,9770.718434
775.384459,1258.350101,3140.991542,10362.883188
775.384788,370.102971,2911.162892,10658.965565
775.385117,74.020594,2298.286494,10140.821405
775.385446,-370.102971,459.657299,9622.677246
775.385776,0.000000,0.000000,9622.677246
775.386105,-148.041188,-536.266849,9326.594869
775.386434,-740.205942,-306.438199,9030.512492
775.386763,-1258.350101,0.000000,9400.615463
775.387093,-1628.453072,1455.581446,9548.656652
775.387422,-2146.597232,1608.800546,10362.883188
775.387751,-1924.535449,1608.800546,10436.903782
775.388080,-1332.370696,919.314598,10214.842000
775.388410,-1332.370696,459.657299,10066.800811
775.388739,-1924.535449,689.485948,10140.821405
775.389068,-2664.741391,0.000000,9770.718434
775.389397,-3849.070898,-459.657299,10288.862594
775.389727,-4885.359217,-153.219100,10510.924376
775.390056,-4515.256246,-153.219100,10436.903782
775.390385,-2664.741391,153.219100,9326.594869
775.390714,-370.102971,383.047749,7476.080014
775.391044,1702.473667,689.485948,6661.853478
775.391373,3627.009116,1302.362347,6217.729913
775.391702,4663.297435,1378.971896,7254.018232
775.392031,3997.112087,3370.820191,9178.553681
775.392361,2368.659014,4903.011187,10807.006753
775.392690,370.102971,3983.696590,11769.274478
775.393019,-1406.391290,2528.115143,12361.439231
775.393348,-3034.844362,842.705048,11843.295072
775.393678,-3997.112087,-919.314598,10881.027347
775.394007,-3997.112087,-1991.848295,9770.718434
775.394336,-3923.091493,-2451.505594,8438.347739
775.394666,-2812.782580,-2987.772442,8808.450710
775.394995,-2368.659014,-1838.629195,8808.450710
775.395324,-1554.432478,229.828649,8290.306550
775.395653,-740.205942,1225.752797,8142.265362
775.395983,0.000000,1762.019645,7994.224174
775.396312,740.205942,2604.724693,9178.553681
775.396641,1036.288319,2757.943793,10214.842000
775.396970,148.041188,2681.334243,10732.986159
775.397300,-1110.308913,3370.820191,10436.903782
775.397629,-1480.411884,2068.457845,10214.842000
775.397958,-1480.411884,1149.143247,9918.759623
775.398287,-1628.453072,229.828649,9548.656652
775.398617,-1554.432478,-229.828649,9326.594869
775.398946,-1628.453072,-153.219100,9548.656652
775.399275,-1850.514855,1455.581446,9696.697840
775.399604,-2072.576638,1455.581446,8882.471304
775.399934,-1924.535449,1302.362347,9474.636058
775.400263,-888.247130,919.314598,9400.615463
775.400592,0.000000,1302.362347,9252.574275
775.400921,0.000000,612.876398,9622.677246
775.401251,-518.144159,0.000000,9770.718434
775.401580,-2516.700203,459.657299,10214.842000
775.401909,-3849.070898,612.876398,11177.109724
775.402238,-4145.153275,995.924147,11029.068536
775.402568,-2960.823768,995.924147,9844.739029
775.402897,-592.164754,76.609550,8216.285956
775.403226,1480.411884,-612.876398,8068.244768
775.403555,2812.782580,76.609550,7920.203579
775.403885,3627.009116,2068.457845,8068.244768
775.404214,3034.844362,2987.772442,8438.347739
775.404543,1776.494261,4443.353888,9252.574275
775.404872,740.205942,4213.525239,10436.903782
775.405202,-296.082377,2451.505594,11177.109724
775.405531,-1776.494261,1302.362347,11029.068536
775.405860,-3478.967927,536.266849,10214.842000
775.406189,-4367.215058,-842.705048,9400.615463
775.406519,-4145.153275,-3370.820191,9474.636058
775.406848,-3330.926739,-2834.553343,9992.780217
775.407177,-2590.720797,-1762.019645,9474.636058
775.407507,-1406.391290,-536.266849,9178.553681
775.407836,0.000000,612.876398,8956.491898
775.408165,1184.329507,1302.362347,8734.430116
775.408494,1332.370696,2145.067394,9252.574275
775.408824,1258.350101,2757.943793,10214.842000
775.409153,666.185348,3600.648841,10362.883188
775.409482,0.000000,2911.162892,10658.965565
775.409811,-1036.288319,1455.581446,10658.965565
775.410141,-1184.329507,76.609550,9844.739029
775.410470,-1554.432478,0.000000,9252.574275
775.410799,-1480.411884,0.000000,8734.430116
775.411128,-1332.370696,-153.219100,8586.388927
775.411458,-1406.391290,76.609550,8734.430116
775.411787,-2368.659014,153.219100,8734.430116
775.412116,-2442.679609,1455.581446,9326.594869
775.412445,-1850.514855,2298.286494,9918.759623
775.412775,-1628.453072,1991.848295,10436.903782
775.413104,-1628.453072,1378.971896,10362.883188
775.413433,-2072.576638,1225.752797,10436.903782
775.413762,-2886.803174,-306.438199,10362.883188
775.414092,-3997.112087,0.000000,10658.965565
775.414421,-5033.400406,612.876398,10288.862594
775.414750,-4219.173869,0.000000,9622.677246
775.415079,-2072.576638,0.000000,8808.450710
775.415409,814.226536,-229.828649,7920.203579
775.415738,2590.720797,766.095498,7328.038826
775.416067,3701.029710,2068.457845,7031.956449
775.416396,3997.112087,2987.772442,7328.038826
775.416726,3701.029710,3753.867940,8660.409521
775.417055,2590.720797,4366.744339,10955.047942
775.417384,74.020594,4213.525239,11843.295072
775.417713,-2072.576638,2528.115143,11473.192101
775.418043,-3849.070898,919.314598,11103.089130
775.418372,-4515.256246,-1149.143247,10881.027347
775.418701,-3997.112087,-2374.896044,10436.903782
775.419030,-3849.070898,-2145.067394,9252.574275
775.419360,-3108.864956,-1838.629195,8660.409521
775.419689,-1850.514855,-995.924147,8586.388927
775.420018,-666.185348,459.657299,8216.285956
775.420348,-74.020594,1762.019645,7772.162391
775.420677,296.082377,1991.848295,7994.224174
775.421006,814.226536,3217.601092,9326.594869
775.421335,814.226536,3294.210641,9770.718434
775.421665,148.041188,2528.115143,10362.883188
775.421994,-814.226536,1532.190996,10362.883188
775.422323,-814.226536,842.705048,9918.759623
775.422652,-1110.308913,76.609550,9844.739029
775.422982,-1332.370696,0.000000,9696.697840
775.423311,-1628.453072,-229.828649,9326.594869
775.423640,-1702.473667,0.000000,9400.615463
775.423969,-1850.514855,842.705048,9104.533087
775.424299,-1776.494261,1685.410096,9178.553681
775.424628,-1480.411884,1455.581446,9178.553681
775.424957,-1036.288319,612.876398,9474.636058
775.425286,-1258.350101,919.314598,9770.718434
775.425616,-1480.411884,1072.533697,10066.800811
775.425945,-2368.659014,0.000000,9844.739029
775.426274,-3404.947333,0.000000,10732.986159
775.426603,-4737.318029,153.219100,10955.047942
775.426933,-4737.318029,229.828649,10584.944971
775.427262,-2664.741391,76.609550,9770.718434
775.427591,-444.123565,-306.438199,8290.306550
775.427920,1406.391290,612.876398,7698.141797
775.428250,2812.782580,919.314598,7402.059420
775.428579,3701.029710,1455.581446,7402.059420
775.428908,3923.091493,2834.553343,8660.409521
775.429237,2738.761985,4596.572988,10658.965565
775.429567,1332.370696,4213.525239,11547.212695
775.429896,-666.185348,3370.820191,11621.233289
775.430225,-2368.659014,1685.410096,11103.089130
775.430554,-3256.906145,-229.828649,10510.924376
775.430884,-3256.906145,-1685.410096,9844.739029
775.431213,-3256.906145,-1991.848295,9178.553681
775.431542,-3256.906145,-2221.676944,8882.471304
775.431872,-2146.597232,-1532.190996,8956.491898
775.432201,-1184.329507,-383.047749,8290.306550
775.432530,-222.061783,1532.190996,8364.327145
775.432859,0.000000,2221.676944,8438.347739
775.433189,370.102971,2681.334243,9104.533087
775.433518,370.102971,3140.991542,9770.718434
775.433847,74.020594,3064.381992,9992.780217
775.434176,-592.164754,2221.676944,10140.821405
775.434506,-814.226536,1532.190996,10066.800811
775.434835,-1110.308913,459.657299,10140.821405
775.435164,-1480.411884,306.438199,9548.656652
775.435493,-1258.350101,0.000000,9030.512492
775.435823,-740.205942,0.000000,8882.471304
775.436152,-592.164754,536.266849,9252.574275
775.436481,-592.164754,919.314598,9104.533087
775.436810,-1184.329507,1762.019645,9474.636058
775.437140,-962.267725,1838.629195,9622.677246
775.437469,-1110.308913,1302.362347,9992.780217
775.437798,-1258.350101,1072.533697,10584.944971
775.438127,-1554.432478,766.095498,10510.924376
775.438457,-2738.761985,0.000000,10140.821405
775.438786,-4071.132681,-153.219100,9844.739029
775.439115,-4663.297435,76.609550,10066.800811
775.439444,-3923.091493,-229.828649,9844.739029
775.439774,-2368.659014,-536.266849,9030.512492
775.440103,0.000000,-76.609550,8216.285956
775.440432,1258.350101,1225.752797,7031.956449
775.440761,2812.782580,1455.581446,6883.915261
775.441091,3478.967927,1762.019645,8068.244768
775.441420,2664.741391,3370.820191,9400.615463
775.441749,1036.288319,3983.696590,11029.068536
775.442078,-1258.350101,3294.210641,11991.336260
775.442408,-3034.844362,2068.457845,11843.295072
775.442737,-4219.173869,766.095498,11399.171507
775.443066,-4293.194464,-1378.971896,10436.903782
775.443395,-3775.050304,-1991.848295,9548.656652
775.443725,-2812.782580,-2298.286494,8660.409521
775.444054,-2146.597232,-1915.238745,8586.388927
775.444383,-1258.350101,-766.095498,8660.409521
775.444713,-444.123565,1149.143247,8364.327145
775.445042,74.020594,2681.334243,8438.347739
775.445371,666.185348,2221.676944,8734.430116
775.445700,1184.329507,2757.943793,9548.656652
775.446030,888.247130,2681.334243,10066.800811
775.446359,370.102971,2451.505594,10732.986159
775.446688,-370.102971,2451.505594,10362.883188
775.447017,-1036.288319,1532.190996,9548.656652
775.447347,-1258.350101,612.876398,9696.697840
775.447676,-1332.370696,0.000000,9252.574275
775.448005,-1332.370696,-306.438199,9178.553681
775.448334,-1332.370696,306.438199,9326.594869
775.448664,-1554.432478,1302.362347,9400.615463
775.448993,-2072.576638,1532.190996,9474.636058
775.449322,-1850.514855,1149.143247,9622.677246
775.449651,-1480.411884,919.314598,9696.697840
775.449981,-1258.350101,995.924147,9622.677246
775.450310,-1332.370696,919.314598,9400.615463
775.450639,-1480.411884,76.609550,9770.718434
775.450968,-2886.803174,0.000000,10658.965565
775.451298,-4071.132681,842.705048,11177.109724
775.451627,-4071.132681,1225.752797,10732.986159
775.451956,-2220.617826,459.657299,9548.656652
775.452285,-370.102971,459.657299,8216.285956
775.452615,1998.556043,0.000000,8216.285956
775.452944,3478.967927,689.485948,7328.038826
775.453273,4071.132681,1762.019645,7254.018232
775.453602,3627.009116,3370.820191,8364.327145
775.453932,2590.720797,4290.134789,10510.924376
775.454261,888.247130,3907.087040,11695.253884
775.454590,-1332.370696,2834.553343,11621.233289
775.454919,-3182.885551,1455.581446,10807.006753
775.455249,-3775.050304,0.000000,10362.883188
775.455578,-3404.947333,-1838.629195,9548.656652
775.455907,-3108.864956,-2757.943793,9400.615463
775.456236,-2960.823768,-2221.676944,8660.409521
775.456566,-2072.576638,-1149.143247,8660.409521
775.456895,-1036.288319,0.000000,8660.409521
775.457224,-666.185348,1532.190996,8142.265362
775.457554,0.000000,2528.115143,8808.450710
775.457883,666.185348,2451.505594,9178.553681
775.458212,1110.308913,2911.162892,9844.739029
775.458541,740.205942,2987.772442,10658.965565
775.458871,-222.061783,2068.457845,10436.903782
775.459200,-666.185348,1378.971896,10436.903782
775.459529,-740.205942,842.705048,9770.718434
775.459858,-962.267725,536.266849,8956.491898
775.460188,-518.144159,0.000000,8512.368333
775.460517,-592.164754,0.000000,8734.430116
775.460846,-1332.370696,76.609550,8808.450710
775.461175,-1628.453072,1685.410096,9548.656652
775.461505,-1924.535449,1991.848295,9844.739029
775.461834,-1998.556043,2068.457845,10510.924376
775.462163,-1628.453072,1149.143247,10288.862594
775.462492,-2072.576638,1149.143247,10140.821405
775.462822,-2368.659014,-383.047749,9696.697840
775.463151,-3330.926739,-612.876398,10214.842000
775.463480,-4737.318029,0.000000,10510.924376
775.463809,-5033.400406,459.657299,10214.842000
775.464139,-3478.967927,0.000000,9474.636058
775.464468,-1332.370696,-612.876398,8438.347739
775.464797,1184.329507,0.000000,7328.038826
775.465126,2812.782580,1149.143247,6439.791695
775.465456,3849.070898,1455.581446,6661.853478
775.465785,4589.276840,2451.505594,8364.327145
775.466114,3552.988522,3753.867940,10214.842000
775.466444,1184.329507,4596.572988,11917.315666
775.466773,-1036.288319,3677.258390,12435.459826
775.467102,-2886.803174,2145.067394,11473.192101
775.467432,-3701.029710,306.438199,10881.027347
775.467761,-3404.947333,-1915.238745,9770.718434
775.468091,-3182.885551,-2451.505594,9178.553681
775.468420,-2812.782580,-2451.505594,8586.388927
775.468749,-2294.638420,-2145.067394,8808.450710
775.469079,-1628.453072,-536.266849,8808.450710
775.469408,-740.205942,1532.190996,8290.306550
775.469737,222.061783,2145.067394,8290.306550
775.470067,592.164754,2068.457845,8956.491898
775.470396,1184.329507,2911.162892,9844.739029
775.470725,518.144159,2528.115143,9992.780217
775.471055,-222.061783,2298.286494,10584.944971
775.471384,-1258.350101,2451.505594,10362.883188
775.471714,-1702.473667,1225.752797,9696.697840
775.472043,-1554.432478,229.828649,9326.594869
775.472372,-888.247130,-383.047749,8956.491898
775.472702,-666.185348,-153.219100,8956.491898
775.473031,-1110.308913,-229.828649,9178.553681
775.473360,-1554.432478,919.314598,9770.718434
775.473690,-2072.576638,1838.629195,9696.697840
775.474019,-1850.514855,1762.019645,10066.800811
775.474348,-1036.288319,1072.533697,9992.780217
775.474678,-888.247130,995.924147,9770.718434
775.475007,-888.247130,306.438199,9400.615463
775.475336,-2146.597232,-383.047749,10066.800811
775.475666,-3478.967927,0.000000,10807.006753
775.475995,-4811.338623,689.485948,10881.027347
775.476325,-4737.318029,766.095498,10288.862594
775.476654,-2294.638420,153.219100,9252.574275
775.476983,-296.082377,0.000000,8216.285956
775.477313,1924.535449,-153.219100,7624.121203
775.477642,2960.823768,1072.533697,7105.977043
775.477971,3849.070898,2145.067394,7254.018232
775.478301,3182.885551,3753.867940,8882.471304
775.478630,2368.659014,4596.572988,10510.924376
775.478959,370.102971,4136.915689,11547.212695
775.479289,-1554.432478,2528.115143,11547.212695
775.479618,-2886.803174,1225.752797,10807.006753
775.479948,-3108.864956,-766.095498,10362.883188
775.480277,-2960.823768,-2374.896044,9400.615463
775.480606,-2664.741391,-2604.724693,8660.409521
775.480936,-2442.679609,-2145.067394,8364.327145
775.481265,-1628.453072,-1225.752797,8882.471304
775.481594,-888.247130,153.219100,8734.430116
775.481924,-296.082377,1378.971896,8734.430116
775.482253,74.020594,2374.896044,9030.512492
775.482582,518.144159,2528.115143,9844.739029
775.482912,444.123565,3064.381992,9918.759623
775.483241,0.000000,2604.724693,10140.821405
775.483570,-1036.288319,1378.971896,9696.697840
775.483900,-1406.391290,919.314598,10066.800811
775.484229,-1702.473667,536.266849,9844.739029
775.484559,-1406.391290,306.438199,9252.574275
775.484888,-1110.308913,0.000000,8586.388927
775.485217,-888.247130,-383.047749,8956.491898
775.485547,-1036.288319,842.705048,9400.615463
775.485876,-1628.453072,1762.019645,9548.656652
775.486205,-1480.411884,1838.629195,10066.800811
775.486535,-1258.350101,1915.238745,10362.883188
775.486864,-1406.391290,1532.190996,10584.944971
775.487193,-1480.411884,689.485948,10214.842000
775.487523,-1776.494261,76.609550,10510.924376
775.487852,-3182.885551,-612.876398,10214.842000
775.488182,-4515.256246,0.000000,10881.027347
775.488511,-4737.318029,383.047749,10658.965565
775.488840,-3108.864956,0.000000,9030.512492
775.489170,-518.144159,0.000000,8364.327145
775.489499,1480.411884,0.000000,7624.121203
775.489828,3182.885551,766.095498,7105.977043
775.490158,3997.112087,1608.800546,7031.956449
775.490487,3256.906145,2987.772442,7920.203579
775.490816,2886.803174,4673.182538,9474.636058
775.491146,1406.391290,4136.915689,11325.150913
775.491475,-962.267725,3140.991542,11621.233289
775.491805,-3108.864956,2221.676944,10807.006753
775.492134,-4071.132681,229.828649,10214.842000
775.492463,-3997.112087,-1838.629195,10066.800811
775.492793,-3923.091493,-2987.772442,9622.677246
775.493122,-3775.050304,-2221.676944,9104.533087
775.493451,-2886.803174,-1991.848295,8586.388927
775.493781,-1554.432478,-766.095498,8438.347739
775.494110,-370.102971,459.657299,7920.203579
775.494439,222.061783,1608.800546,8290.306550
775.494769,444.123565,2068.457845,9326.594869
775.495098,740.205942,2987.772442,10436.903782
775.495427,74.020594,3447.429741,10362.883188
775.495757,-518.144159,2068.457845,10584.944971
775.496086,-740.205942,1455.581446,10362.883188
775.496416,-1110.308913,459.657299,10140.821405
775.496745,-1036.288319,0.000000,9918.759623
775.497074,-1110.308913,306.438199,9178.553681
775.497404,-1036.288319,76.609550,8660.409521
775.497733,-1036.288319,0.000000,8734.430116
775.498062,-1480.411884,1455.581446,9030.512492
775.498392,-1480.411884,2068.457845,9622.677246
775.498721,-1406.391290,1762.019645,9918.759623
775.499050,-1628.453072,1685.410096,10214.842000
775.499380,-2368.659014,1149.143247,10510.924376
775.499709,-2294.638420,766.095498,10140.821405
775.500039,-3034.844362,-306.438199,9992.780217
775.500368,-4367.215058,-76.609550,10214.842000
775.500697,-4737.318029,-229.828649,10214.842000
775.501027,-3775.050304,229.828649,9474.636058
775.501356,-1258.350101,-919.314598,8068.244768
775.501685,814.226536,-153.219100,7772.162391
775.502015,2886.803174,689.485948,7402.059420
775.502344,4145.153275,1455.581446,7624.121203
775.502673,4219.173869,2451.505594,7846.182985
775.503003,3256.906145,4673.182538,9030.512492
775.503332,1850.514855,4673.182538,10881.027347
775.503661,518.144159,3677.258390,11769.274478
775.503991,-1702.473667,2528.115143,11103.089130
775.504320,-3108.864956,383.047749,10436.903782
775.504650,-3256.906145,-1608.800546,10066.800811
775.504979,-3256.906145,-1838.629195,9696.697840
775.505308,-3330.926739,-1685.410096,9474.636058
775.505638,-2516.700203,-1532.190996,8808.450710
775.505967,-1480.411884,-842.705048,8586.388927
775.506296,-444.123565,383.047749,8586.388927
775.506626,0.000000,1608.800546,8808.450710
775.506955,0.000000,2221.676944,9622.677246
775.507284,0.000000,2757.943793,10066.800811
775.507614,0.000000,2987.772442,10584.944971
775.507943,-518.144159,2298.286494,10436.903782
775.508273,-444.123565,1225.752797,10214.842000
775.508602,-666.185348,229.828649,10066.800811
775.508931,-740.205942,0.000000,9992.780217
775.509261,-1036.288319,383.047749,9400.615463
775.509590,-814.226536,459.657299,8734.430116
775.509919,-814.226536,153.219100,8290.306550
775.510249,-370.102971,1838.629195,9030.512492
775.510578,-888.247130,1915.238745,9252.574275
775.510907,-1184.329507,1608.800546,9622.677246
775.511237,-1554.432478,1685.410096,9844.739029
775.511566,-2294.638420,1378.971896,10658.965565
775.511895,-2590.720797,842.705048,10881.027347
775.512225,-3849.070898,229.828649,10584.944971
775.512554,-4589.276840,-229.828649,10214.842000
775.512884,-4959.379811,-766.095498,9992.780217
775.513213,-4737.318029,-383.047749,9548.656652
775.513542,-2664.741391,0.000000,8882.471304
775.513872,-888.247130,-229.828649,7698.141797
775.514201,1258.350101,76.609550,7105.977043
775.514530,3108.864956,1685.410096,6587.832884
775.514860,4367.215058,1762.019645,7105.977043
775.515189,4367.215058,2757.943793,8808.450710
775.515518,2960.823768,4826.401637,10510.924376
775.515848,1036.288319,4673.182538,12139.377449
775.516177,-1110.308913,3140.991542,12139.377449
775.516507,-3034.844362,1685.410096,11547.212695
775.516836,-3478.967927,-459.657299,11103.089130
775.517165,-3330.926739,-2145.067394,9918.759623
775.517495,-2886.803174,-2221.676944,9178.553681
775.517824,-2664.741391,-1608.800546,8364.327145
775.518153,-1924.535449,-1915.238745,8364.327145
775.518483,-1110.308913,-383.047749,8512.368333
775.518812,-962.267725,842.705048,7994.224174
775.519141,-222.061783,1915.238745,8882.471304
775.519471,-148.041188,2757.943793,9400.615463
775.519800,74.020594,2374.896044,9992.780217
775.520129,-370.102971,2068.457845,10288.862594
775.520459,-888.247130,1302.362347,10436.903782
775.520788,-1036.288319,1072.533697,10807.006753
775.521118,-1480.411884,689.485948,9622.677246
775.521447,-1480.411884,306.438199,9030.512492
775.521776,-888.247130,-153.219100,8734.430116
775.522106,-222.061783,-459.657299,8882.471304
775.522435,0.000000,842.705048,9252.574275
775.522764,-1036.288319,1838.629195,9770.718434
775.523094,-1554.432478,2145.067394,10140.821405
775.523423,-1480.411884,1991.848295,10288.862594
775.523752,-1480.411884,1378.971896,10584.944971
775.524082,-1480.411884,1149.143247,10066.800811
775.524411,-1776.494261,842.705048,9474.636058
775.524741,-2442.679609,-689.485948,9622.677246
775.525070,-3330.926739,-1072.533697,10066.800811
775.525399,-4219.173869,153.219100,10288.862594
775.525729,-3256.906145,459.657299,9770.718434
775.526058,-1184.329507,229.828649,8808.450710
775.526387,666.185348,612.876398,8216.285956
775.526717,2294.638420,842.705048,7179.997637
775.527046,3552.988522,1072.533697,6957.935855
775.527375,3701.029710,2374.896044,7846.182985
775.527705,2886.803174,4213.525239,9622.677246
775.528034,1036.288319,4290.134789,11473.192101
775.528364,-962.267725,2911.162892,11843.295072
775.528693,-2886.803174,1685.410096,11251.130318
775.529022,-3849.070898,689.485948,10436.903782
775.529352,-3034.844362,-1608.800546,9992.780217
775.529681,-2516.700203,-2681.334243,9326.594869
775.530010,-2368.659014,-1991.848295,8734.430116
775.530340,-1776.494261,-1608.800546,8438.347739
775.530669,-814.226536,0.000000,8956.491898
775.530998,-370.102971,1225.752797,8734.430116
775.531328,-296.082377,2528.115143,9104.533087
775.531657,0.000000,1991.848295,9400.615463
775.531986,592.164754,2528.115143,9992.780217
775.532316,592.164754,2528.115143,10288.862594
775.532645,0.000000,2068.457845,10288.862594
775.532975,-1036.288319,919.314598,9992.780217
775.533304,-1332.370696,153.219100,9622.677246
775.533633,-1036.288319,0.000000,9918.759623
775.533963,-962.267725,0.000000,9474.636058
775.534292,-666.185348,459.657299,8734.430116
775.534621,-222.061783,919.314598,8216.285956
775.534951,-814.226536,1685.410096,8882.471304
775.535280,-962.267725,1991.848295,9178.553681
775.535609,-1036.288319,1838.629195,9622.677246
775.535939,-1406.391290,1762.019645,10362.883188
775.536268,-1998.556043,1378.971896,10807.006753
775.536598,-2960.823768,995.924147,10732.986159
775.536927,-3478.967927,-383.047749,10140.821405
775.537256,-4441.235652,-612.876398,9992.780217
775.537586,-4737.318029,0.000000,9918.759623
775.537915,-4367.215058,0.000000,9844.739029
775.538244,-2516.700203,-689.485948,8808.450710
775.538574,-296.082377,-229.828649,8142.265362
775.538903,1628.453072,689.485948,7328.038826
775.539232,3108.864956,1608.800546,6883.915261
775.539562,4071.132681,1915.238745,7920.203579
775.539891,3330.926739,3140.991542,9474.636058
775.540220,1554.432478,4596.572988,10955.047942
775.540550,-296.082377,3983.696590,11843.295072
775.540879,-1998.556043,2528.115143,11917.315666
775.541209,-2812.782580,689.485948,11177.109724
775.541538,-3404.947333,-1149.143247,9992.780217
775.541867,-2516.700203,-2221.676944,9474.636058
775.542197,-2812.782580,-2221.676944,8660.409521
775.542526,-2368.659014,-1302.362347,8734.430116
775.542855,-1850.514855,-612.876398,8660.409521
775.543185,-1406.391290,842.705048,8882.471304
775.543514,-1258.350101,2298.286494,8882.471304
775.543843,-962.267725,2374.896044,8882.471304
775.544173,-444.123565,2068.457845,9178.553681
775.544502,-370.102971,2221.676944,9252.574275
775.544832,-740.205942,1455.581446,9474.636058
775.545161,-1480.411884,536.266849,9474.636058
775.545490,-1554.432478,689.485948,9918.759623
775.545820,-1406.391290,383.047749,9992.780217
775.546149,-1258.350101,76.609550,9622.677246
775.546478,-888.247130,76.609550,9770.718434
775.546808,-518.144159,919.314598,9474.636058
775.547137,-518.144159,1378.971896,9400.615463
775.547466,-740.205942,1762.019645,9400.615463
775.547796,-518.144159,1608.800546,9474.636058
775.548125,-148.041188,1225.752797,9844.739029
775.548454,-444.123565,1455.581446,10288.862594
775.548784,-666.185348,842.705048,10436.903782
775.549113,-1850.514855,229.828649,10288.862594
775.549443,-2960.823768,76.609550,10436.903782
775.549772,-4071.132681,459.657299,10436.903782
775.550101,-4293.194464,0.000000,10066.800811
775.550431,-2664.741391,0.000000,9252.574275
775.550760,-1258.350101,0.000000,8142.265362
775.551089,518.144159,76.609550,8068.244768
775.551419,2072.576638,689.485948,7772.162391
775.551748,2812.782580,1762.019645,7994.224174
775.552077,3034.844362,2987.772442,8438.347739
775.552407,2146.597232,4136.915689,9770.718434
775.552736,740.205942,3524.039291,10362.883188
775.553066,-518.144159,2528.115143,10732.986159
775.553395,-2220.617826,1149.143247,10807.006753
775.553724,-2886.803174,76.609550,10881.027347
775.554054,-2960.823768,-842.705048,10066.800811
775.554383,-2812.782580,-1532.190996,9030.512492
775.554712,-2146.597232,-1838.629195,9104.533087
775.555042,-1258.350101,-1149.143247,8956.491898
775.555371,-370.102971,0.000000,8734.430116
775.555700,296.082377,1378.971896,8216.285956
775.556030,370.102971,2145.067394,9104.533087
775.556359,444.123565,2681.334243,9770.718434
775.556689,222.061783,2604.724693,10214.842000
775.557018,-296.082377,2374.896044,10140.821405
775.557347,-962.267725,1302.362347,9844.739029
775.557677,-1628.453072,842.705048,9622.677246
775.558006,-1628.453072,0.000000,9918.759623
775.558335,-2072.576638,-229.828649,9844.739029
775.558665,-2368.659014,-306.438199,9474.636058
775.558994,-1998.556043,306.438199,9474.636058
775.559323,-2146.597232,459.657299,8956.491898
775.559653,-1776.494261,1149.143247,9474.636058
775.559982,-1628.453072,1608.800546,9474.636058
775.560311,-666.185348,1762.019645,9252.574275
775.560641,0.000000,1608.800546,9696.697840
775.560970,-1110.308913,1685.410096,9622.677246
775.561300,-1480.411884,1149.143247,10510.924376
775.561629,-2886.803174,536.266849,10732.986159
775.561958,-3997.112087,536.266849,11251.130318
775.562288,-4737.318029,842.705048,10955.047942
775.562617,-3701.029710,0.000000,10288.862594
775.562946,-1406.391290,-536.266849,8734.430116
775.563276,0.000000,-612.876398,7624.121203
775.563605,2072.576638,76.609550,7254.018232
775.563934,3034.844362,1149.143247,7402.059420
775.564264,3330.926739,2528.115143,8290.306550
775.564593,2442.679609,3983.696590,9770.718434
775.564922,1332.370696,4213.525239,10658.965565
775.565252,0.000000,3447.429741,11103.089130
775.565581,-1406.391290,2451.505594,10510.924376
775.565910,-2664.741391,612.876398,10140.821405
775.566239,-3404.947333,-612.876398,9474.636058
775.566569,-3330.926739,-1991.848295,9178.553681
775.566898,-3034.844362,-2068.457845,9178.553681
775.567227,-2516.700203,-1532.190996,8956.491898
775.567556,-1628.453072,-842.705048,8660.409521
775.567886,-666.185348,536.266849,8438.347739
775.568215,-518.144159,1225.752797,8364.327145
775.568544,0.000000,2374.896044,8956.491898
775.568874,370.102971,2681.334243,9622.677246
775.569203,296.082377,2681.334243,10140.821405
775.569532,-370.102971,1991.848295,9622.677246
775.569861,-962.267725,842.705048,10140.821405
775.570191,-1110.308913,0.000000,10140.821405
775.570520,-1554.432478,-306.438199,9992.780217
775.570849,-1850.514855,-153.219100,9918.759623
775.571178,-1702.473667,76.609550,9844.739029
775.571508,-1332.370696,-306.438199,9770.718434
775.571837,-1184.329507,1072.533697,9770.718434
775.572166,-1406.391290,1838.629195,9548.656652
775.572495,-962.267725,1455.581446,9844.739029
775.572825,-592.164754,1532.190996,10140.821405
775.573154,-666.185348,1455.581446,9992.780217
775.573483,-1554.432478,919.314598,10214.842000
775.573813,-2368.659014,0.000000,10732.986159
775.574142,-3849.070898,306.438199,10658.965565
775.574471,-4663.297435,76.609550,10584.944971
775.574800,-4219.173869,229.828649,9696.697840
775.575130,-2442.679609,-153.219100,8512.368333
775.575459,-370.102971,-995.924147,8068.244768
775.575788,1406.391290,0.000000,7402.059420
775.576117,2442.679609,1225.752797,7031.956449
775.576447,3108.864956,2374.896044,7624.121203
775.576776,3108.864956,3524.039291,8734.430116
775.577105,1850.514855,3907.087040,10140.821405
775.577434,444.123565,3907.087040,10807.006753
775.577764,-962.267725,2604.724693,11103.089130
775.578093,-2442.679609,1455.581446,10658.965565
775.578422,-3404.947333,0.000000,9622.677246
775.578752,-3256.906145,-1762.019645,9770.718434
775.579081,-2886.803174,-2451.505594,9474.636058
775.579410,-2294.638420,-1225.752797,9252.574275
775.579739,-1258.350101,-459.657299,9030.512492
775.580069,-296.082377,306.438199,8364.327145
775.580398,148.041188,1991.848295,8142.265362
775.580727,592.164754,2528.115143,8660.409521
775.581056,814.226536,2834.553343,9474.636058
775.581386,444.123565,3217.601092,9770.718434
775.581715,-370.102971,2834.553343,10066.800811
775.582044,-1184.329507,1991.848295,9992.780217
775.582374,-1406.391290,459.657299,10066.800811
775.582703,-1924.535449,76.609550,10066.800811
775.583032,-1998.556043,-766.095498,9844.739029
775.583361,-1998.556043,-842.705048,9548.656652
775.583691,-1554.432478,-306.438199,9770.718434
775.584020,-1702.473667,459.657299,9474.636058
775.584349,-1332.370696,1608.800546,9770.718434
775.584678,-444.123565,1915.238745,9696.697840
775.585008,0.000000,1762.019645,9770.718434
775.585337,0.000000,1991.848295,9770.718434
775.585666,-444.123565,1072.533697,9770.718434
775.585995,-1702.473667,306.438199,10288.862594
775.586325,-2664.741391,-306.438199,10510.924376
775.586654,-4145.153275,229.828649,10732.986159
775.586983,-4811.338623,0.000000,10214.842000
775.587313,-3552.988522,-689.485948,9030.512492
775.587642,-1332.370696,-1378.971896,7994.224174
775.587971,666.185348,-766.095498,7179.997637
775.588300,2368.659014,229.828649,7328.038826
775.588630,3034.844362,1685.410096,7402.059420
775.588959,3108.864956,3140.991542,8290.306550
775.589288,1850.514855,4826.401637,9622.677246
775.589617,666.185348,4366.744339,10658.965565
775.589947,-888.247130,3524.039291,11325.150913
775.590276,-2886.803174,1762.019645,10881.027347
775.590605,-3997.112087,306.438199,10436.903782
775.590934,-4441.235652,-1762.019645,9770.718434
775.591264,-3923.091493,-2298.286494,9400.615463
775.591593,-3330.926739,-2221.676944,8956.491898
775.591922,-2294.638420,-1302.362347,8734.430116
775.592252,-1036.288319,-229.828649,8734.430116
775.592581,-222.061783,995.924147,8364.327145
775.592910,0.000000,2834.553343,8882.471304
775.593239,444.123565,2987.772442,9548.656652
775.593569,592.164754,3140.991542,10362.883188
775.593898,370.102971,2911.162892,10362.883188
775.594227,-518.144159,2374.896044,10288.862594
775.594556,-666.185348,1302.362347,9918.759623
775.594886,-1036.288319,0.000000,9770.718434
775.595215,-888.247130,-459.657299,9770.718434
775.595544,-1184.329507,0.000000,9844.739029
775.595873,-1258.350101,153.219100,9696.697840
775.596203,-1850.514855,612.876398,9326.594869
775.596532,-1628.453072,2145.067394,9326.594869
775.596861,-814.226536,2068.457845,9326.594869
775.597191,-444.123565,1991.848295,9400.615463
775.597520,-518.144159,1685.410096,9696.697840
775.597849,-1554.432478,1991.848295,9474.636058
775.598178,-2072.576638,1302.362347,10066.800811
775.598508,-2812.782580,306.438199,10140.821405
775.598837,-4219.173869,76.609550,10066.800811
775.599166,-4737.318029,229.828649,9992.780217
775.599495,-3775.050304,0.000000,9400.615463
775.599825,-2072.576638,-383.047749,8586.388927
775.600154,148.041188,0.000000,7698.141797
775.600483,1702.473667,306.438199,7179.997637
775.600812,3330.926739,1455.581446,6957.935855
775.601142,3775.050304,1991.848295,7698.141797
775.601471,3108.864956,3907.087040,9178.553681
775.601800,2220.617826,4136.915689,11251.130318
775.602130,518.144159,3524.039291,11843.295072
775.602459,-1554.432478,1915.238745,11621.233289
775.602788,-2738.761985,612.876398,10955.047942
775.603117,-2812.782580,-842.705048,10362.883188
775.603447,-2960.823768,-2451.505594,9696.697840
775.603776,-2442.679609,-1991.848295,9474.636058
775.604105,-2294.638420,-1762.019645,9030.512492
775.604434,-1184.329507,-766.095498,9104.533087
775.604764,-666.185348,459.657299,9030.512492
775.605093,-518.144159,1762.019645,9178.553681
775.605422,-444.123565,1915.238745,8956.491898
775.605751,-148.041188,2374.896044,9918.759623
775.606081,0.000000,2145.067394,10214.842000
775.606410,-666.185348,1762.019645,10510.924376
775.606739,-1850.514855,1532.190996,9918.759623
775.607069,-2072.576638,383.047749,9474.636058
775.607398,-1702.473667,-229.828649,9326.594869
775.607727,-1480.411884,0.000000,9178.553681
775.608056,-1036.288319,0.000000,9030.512492
775.608386,-666.185348,919.314598,8956.491898
775.608715,-814.226536,1225.752797,9400.615463
775.609044,-1184.329507,2374.896044,9992.780217
775.609373,-962.267725,2451.505594,10288.862594
775.609703,-888.247130,1838.629195,10362.883188
775.610032,-740.205942,1455.581446,9992.780217
775.610361,-1628.453072,842.705048,9992.780217
775.610691,-1998.556043,0.000000,10140.821405
775.611020,-3034.844362,-459.657299,10066.800811
775.611349,-4441.235652,0.000000,9844.739029
775.611678,-4367.215058,536.266849,9474.636058
775.612008,-2738.761985,153.219100,8808.450710
775.612337,-444.123565,0.000000,8364.327145
775.612666,1184.329507,76.609550,7179.997637
775.612995,2590.720797,1302.362347,6883.915261
775.613325,3404.947333,2451.505594,7550.100608
775.613654,3627.009116,3907.087040,8882.471304
775.613983,1998.556043,4596.572988,10436.903782
775.614312,148.041188,4519.963438,11177.109724
775.614642,-1628.453072,3064.381992,11547.212695
775.614971,-2812.782580,1149.143247,11399.171507
775.615300,-3404.947333,0.000000,10732.986159
775.615630,-3182.885551,-1455.581446,9474.636058
775.615959,-2960.823768,-2374.896044,9104.533087
775.616288,-2294.638420,-2068.457845,8438.347739
775.616617,-1184.329507,-1608.800546,8586.388927
775.616947,0.000000,0.000000,8660.409521
775.617276,-296.082377,1149.143247,8734.430116
775.617605,0.000000,2757.943793,8808.450710
775.617934,222.061783,2604.724693,9326.594869
775.618264,518.144159,2451.505594,9918.759623
775.618593,74.020594,2068.457845,10140.821405
775.618922,-740.205942,1608.800546,10066.800811
775.619251,-1480.411884,919.314598,10140.821405
775.619581,-1776.494261,-536.266849,9770.718434
775.619910,-1850.514855,-612.876398,10066.800811
775.620239,-1850.514855,-153.219100,9770.718434
775.620569,-1406.391290,76.609550,9474.636058
775.620898,-962.267725,995.924147,9030.512492
775.621227,-1184.329507,1532.190996,9104.533087
775.621556,-962.267725,1608.800546,9252.574275
775.621886,-1036.288319,1302.362347,9770.718434
775.622215,-1406.391290,1532.190996,9918.759623
775.622544,-2072.576638,1455.581446,10732.986159
775.622873,-2738.761985,229.828649,10436.903782
775.623203,-3552.988522,-766.095498,10362.883188
775.623532,-4219.173869,-842.705048,10288.862594
775.623861,-4367.215058,-536.266849,10214.842000
775.624190,-3330.926739,76.609550,9474.636058
775.624520,-1332.370696,-459.657299,8512.368333
775.624849,814.226536,153.219100,7846.182985
775.625178,2368.659014,1072.533697,7624.121203
775.625508,3552.988522,2298.286494,7698.141797
775.625837,4145.153275,3140.991542,8438.347739
775.626166,2960.823768,4213.525239,9474.636058
775.626495,1628.453072,4060.306139,10807.006753
775.626825,0.000000,3217.601092,11103.089130
775.627154,-1702.473667,1838.629195,10881.027347
775.627483,-2812.782580,383.047749,10214.842000
775.627812,-3552.988522,-536.266849,9548.656652
775.628142,-3182.885551,-1991.848295,9030.512492
775.628471,-2664.741391,-2068.457845,8882.471304
775.628800,-1776.494261,-1302.362347,8734.430116
775.629129,-1036.288319,0.000000,8734.430116
775.629459,-518.144159,1225.752797,8364.327145
775.629788,-740.205942,2145.067394,8512.368333
775.630117,-296.082377,2221.676944,9326.594869
775.630447,74.020594,2451.505594,10066.800811
775.630776,0.000000,2451.505594,10066.800811
775.631105,-592.164754,1762.019645,10066.800811
775.631434,-1110.308913,766.095498,10066.800811
775.631764,-1184.329507,0.000000,9548.656652
775.632093,-1036.288319,-229.828649,9844.739029
775.632422,-962.267725,536.266849,9696.697840
775.632751,-740.205942,383.047749,9326.594869
775.633081,-444.123565,1072.533697,9104.533087
775.633410,-296.082377,1762.019645,9770.718434
775.633739,-740.205942,2374.896044,9400.615463
775.634069,-592.164754,2221.676944,9400.615463
775.634398,-518.144159,1762.019645,9474.636058
775.634727,-518.144159,1532.190996,10066.800811
775.635056,-1776.494261,229.828649,10288.862594
775.635386,-3404.947333,0.000000,10584.944971
775.635715,-4959.379811,-306.438199,10214.842000
775.636044,-5477.523971,-153.219100,10362.883188
775.636373,-4515.256246,-459.657299,9844.739029
775.636703,-3034.844362,-459.657299,9400.615463
775.637032,-666.185348,-459.657299,8290.306550
775.637361,1036.288319,536.266849,7105.977043
775.637690,2590.720797,1608.800546,6661.853478
775.638020,3701.029710,2298.286494,7254.018232
775.638349,3627.009116,2681.334243,8956.491898
775.638678,1998.556043,4136.915689,10732.986159
775.639008,0.000000,3677.258390,11843.295072
775.639337,-1998.556043,2451.505594,11473.192101
775.639666,-3256.906145,766.095498,11251.130318
775.639995,-3330.926739,-842.705048,10436.903782
775.640325,-3108.864956,-2374.896044,9548.656652
775.640654,-2886.803174,-2221.676944,9030.512492
775.640983,-2072.576638,-1608.800546,8438.347739
775.641312,-1184.329507,-995.924147,8660.409521
775.641642,-444.123565,76.609550,8660.409521
775.641971,0.000000,1532.190996,8438.347739
775.642300,0.000000,2451.505594,8882.471304
775.642629,444.123565,2528.115143,9400.615463
775.642959,222.061783,2451.505594,9844.739029
775.643288,-370.102971,1685.410096,10066.800811
775.643617,-1258.350101,919.314598,10288.862594
775.643947,-1554.432478,612.876398,10140.821405
775.644276,-1776.494261,153.219100,9696.697840
775.644605,-2146.597232,0.000000,9474.636058
775.644934,-1628.453072,76.609550,9400.615463
775.645264,-1258.350101,153.219100,9252.574275
775.645593,-1110.308913,1532.190996,9400.615463
775.645922,-1406.391290,2221.676944,9844.739029
775.646251,-1332.370696,1838.629195,9770.718434
775.646581,-1036.288319,1532.190996,9918.759623
775.646910,-444.123565,1302.362347,10214.842000
775.647239,-1258.350101,612.876398,9770.718434
775.647568,-1776.494261,-229.828649,10066.800811
775.647898,-2886.803174,-383.047749,10288.862594
775.648227,-3997.112087,0.000000,10510.924376
775.648556,-3849.070898,459.657299,10140.821405
775.648886,-2886.803174,689.485948,9622.677246
775.649215,-222.061783,76.609550,8808.450710
775.649544,1406.391290,76.609550,7994.224174
775.649873,2960.823768,1455.581446,7105.977043
775.650203,3701.029710,2145.067394,7402.059420
775.650532,3404.947333,2374.896044,7698.141797
775.650861,2368.659014,4136.915689,9696.697840
775.651190,222.061783,3753.867940,10955.047942
775.651520,-1776.494261,2528.115143,11325.150913
775.651849,-3256.906145,1302.362347,10955.047942
775.652178,-3552.988522,76.609550,10362.883188
775.652507,-3404.947333,-1685.410096,9474.636058
775.652837,-3034.844362,-2604.724693,9030.512492
775.653166,-2442.679609,-1838.629195,8438.347739
775.653495,-1628.453072,-1378.971896,8364.327145
775.653825,-592.164754,0.000000,8512.368333
775.654154,-222.061783,1762.019645,8142.265362
775.654483,0.000000,2068.457845,8808.450710
775.654812,888.247130,2451.505594,9622.677246
775.655142,814.226536,2757.943793,10140.821405
775.655471,444.123565,2604.724693,10214.842000
775.655800,0.000000,1378.971896,10584.944971
775.656129,-1332.370696,459.657299,9918.759623
775.656459,-1554.432478,306.438199,10288.862594
775.656788,-1702.473667,-229.828649,10362.883188
775.657117,-1480.411884,0.000000,9696.697840
775.657446,-1406.391290,459.657299,8882.471304
775.657776,-888.247130,766.095498,9178.553681
775.658105,-1110.308913,1455.581446,9252.574275
775.658434,-962.267725,2068.457845,9474.636058
775.658764,-1110.308913,1915.238745,9474.636058
775.659093,-1258.350101,1608.800546,10140.821405
775.659422,-1850.514855,1915.238745,10362.883188
775.659751,-2442.679609,536.266849,10362.883188
775.660081,-3330.926739,-536.266849,10362.883188
775.660410,-4515.256246,-612.876398,10362.883188
775.660739,-4885.359217,-153.219100,9918.759623
775.661068,-3552.988522,76.609550,9696.697840
775.661398,-1554.432478,-229.828649,9104.533087
775.661727,444.123565,153.219100,7994.224174
775.662056,2220.617826,766.095498,6809.894666
775.662386,4071.132681,1915.238745,7105.977043
775.662715,4515.256246,2834.553343,7846.182985
775.663044,3182.885551,4596.572988,9696.697840
775.663373,1332.370696,4826.401637,11029.068536
775.663703,-666.185348,3370.820191,11547.212695
775.664032,-2442.679609,2145.067394,11473.192101
775.664361,-3478.967927,919.314598,10658.965565
775.664690,-3552.988522,-1072.533697,9474.636058
775.665020,-3256.906145,-2604.724693,9104.533087
775.665349,-3108.864956,-2298.286494,8512.368333
775.665678,-2368.659014,-1762.019645,8438.347739
775.666007,-1554.432478,-689.485948,8734.430116
775.666337,-1036.288319,766.095498,8660.409521
775.666666,-666.185348,2298.286494,8808.450710
775.666996,-370.102971,2604.724693,9252.574275
775.667325,444.123565,2451.505594,9770.718434
775.667655,222.061783,2145.067394,10140.821405
775.667984,-518.144159,1991.848295,10436.903782
775.668313,-1110.308913,1608.800546,9918.759623
775.668643,-1924.535449,459.657299,9992.780217
775.668972,-1998.556043,-153.219100,9548.656652
775.669302,-1480.411884,76.609550,9252.574275
775.669631,-814.226536,76.609550,8956.491898
775.669961,-296.082377,383.047749,8956.491898
775.670290,-518.144159,1455.581446,9474.636058
775.670620,-1110.308913,2145.067394,9622.677246
775.670949,-1258.350101,2068.457845,9918.759623
775.671279,-1480.411884,1838.629195,10214.842000
775.671608,-1480.411884,919.314598,10066.800811
775.671937,-1924.535449,229.828649,10066.800811
775.672267,-2590.720797,-1072.533697,9992.780217
775.672596,-3775.050304,-919.314598,10362.883188
775.672926,-4737.318029,-306.438199,10288.862594
775.673255,-4293.194464,306.438199,10066.800811
775.673585,-2812.782580,76.609550,9178.553681
775.673914,-148.041188,0.000000,8660.409521
775.674244,1702.473667,612.876398,7550.100608
775.674573,3256.906145,1685.410096,6883.915261
775.674903,4293.194464,2451.505594,7254.018232
775.675232,3627.009116,3753.867940,9252.574275
775.675561,1998.556043,4826.401637,10584.944971
775.675891,0.000000,3907.087040,11325.150913
775.676220,-1702.473667,2374.896044,11473.192101
775.676550,-3108.864956,995.924147,11029.068536
775.676879,-3108.864956,-1225.752797,9770.718434
775.677209,-2886.803174,-2298.286494,9326.594869
775.677538,-2368.659014,-2528.115143,8734.430116
775.677868,-1776.494261,-1378.971896,8290.306550
775.678197,-1036.288319,-612.876398,8512.368333
775.678527,0.000000,919.314598,8734.430116
775.678856,148.041188,2298.286494,8586.388927
775.679185,296.082377,2681.334243,9178.553681
775.679515,518.144159,2528.115143,9474.636058
775.679844,666.185348,2451.505594,10288.862594
775.680174,-148.041188,2068.457845,10288.862594
775.680503,-1776.494261,1685.410096,10140.821405
775.680833,-2220.617826,689.485948,9992.780217
775.681162,-2072.576638,-153.219100,9844.739029
775.681492,-1554.432478,-459.657299,9770.718434
775.681821,-1628.453072,0.000000,8808.450710
775.682151,-740.205942,612.876398,8364.327145
775.682480,0.000000,1149.143247,8808.450710
775.682809,-370.102971,2451.505594,9326.594869
775.683139,-740.205942,2374.896044,9844.739029
775.683468,-1036.288319,2451.505594,10214.842000
775.683798,-1110.308913,2451.505594,10584.944971
775.684127,-2072.576638,1072.533697,10510.924376
775.684457,-2812.782580,-306.438199,10658.965565
775.684786,-3923.091493,-1302.362347,10732.986159
775.685116,-4737.318029,-995.924147,10436.903782
775.685445,-4885.359217,-842.705048,10214.842000
775.685775,-3404.947333,-229.828649,9326.594869
775.686104,-1036.288319,-306.438199,8586.388927
775.686433,1184.329507,0.000000,7402.059420
775.686763,3034.844362,766.095498,6957.935855
775.687092,4145.153275,1838.629195,7624.121203
775.687422,4219.173869,3753.867940,8734.430116
775.687751,2368.659014,4979.620737,10214.842000
775.688081,370.102971,4596.572988,10955.047942
775.688410,-1258.350101,3294.210641,10955.047942
775.688740,-2664.741391,1072.533697,11177.109724
775.689069,-3108.864956,-153.219100,10955.047942
775.689399,-3775.050304,-1225.752797,9400.615463
775.689728,-3923.091493,-2221.676944,8734.430116
775.690057,-2960.823768,-2145.067394,8364.327145
775.690387,-1776.494261,-1072.533697,8290.306550
775.690716,-370.102971,-153.219100,8586.388927
775.691046,-296.082377,612.876398,8364.327145
775.691375,-370.102971,2451.505594,9030.512492
775.691705,-222.061783,2604.724693,9326.594869
775.692034,296.082377,2298.286494,9844.739029
775.692364,0.000000,1762.019645,10066.800811
775.692693,-888.247130,1378.971896,10362.883188
775.693023,-1110.308913,76.609550,10584.944971
775.693352,-1258.350101,229.828649,10066.800811
775.693681,-1480.411884,-153.219100,9696.697840
775.694011,-1258.350101,-153.219100,9622.677246
775.694340,-1184.329507,0.000000,9844.739029
775.694670,-666.185348,1225.752797,9622.677246
775.694999,-1110.308913,2068.457845,9474.636058
775.695329,-1110.308913,2145.067394,9178.553681
775.695658,-666.185348,1762.019645,9326.594869
775.695988,-592.164754,1149.143247,10214.842000
775.696317,-1480.411884,1149.143247,10214.842000
775.696647,-2368.659014,383.047749,10140.821405
775.696976,-3256.906145,-306.438199,10288.862594
775.697306,-4441.235652,-383.047749,10362.883188
775.697635,-4589.276840,76.609550,10584.944971
775.697964,-3478.967927,0.000000,9770.718434
775.698294,-1332.370696,-153.219100,8734.430116
775.698623,518.144159,76.609550,8068.244768
775.698953,2072.576638,842.705048,7402.059420
775.699282,2886.803174,1762.019645,7476.080014
775.699612,3701.029710,2681.334243,8216.285956
775.699941,2368.659014,3677.258390,9252.574275
775.700271,1258.350101,4290.134789,10214.842000
775.700600,0.000000,3140.991542,10658.965565
775.700930,-1184.329507,1149.143247,10955.047942
775.701259,-2368.659014,306.438199,10510.924376
775.701588,-3330.926739,-689.485948,9622.677246
775.701918,-3404.947333,-1455.581446,9104.533087
775.702247,-2590.720797,-1915.238745,8956.491898
775.702577,-1776.494261,-1378.971896,8882.471304
775.702906,-888.247130,-306.438199,8808.450710
775.703236,-296.082377,306.438199,8438.347739
775.703565,-222.061783,2374.896044,8586.388927
775.703895,-370.102971,2451.505594,8956.491898
775.704224,0.000000,2374.896044,9770.718434
775.704554,-222.061783,2528.115143,10140.821405
775.704883,-444.123565,2451.505594,9844.739029
775.705212,-1480.411884,1378.971896,10140.821405
775.705542,-1924.535449,383.047749,9770.718434
775.705871,-1628.453072,0.000000,9696.697840
775.706201,-1628.453072,-229.828649,9622.677246
775.706530,-1332.370696,76.609550,9474.636058
775.706860,-1406.391290,919.314598,9030.512492
775.707189,-1036.288319,1302.362347,9474.636058
775.707519,-888.247130,2145.067394,9696.697840
775.707848,-1036.288319,2068.457845,9696.697840
775.708178,-518.144159,1608.800546,9992.780217
775.708507,-592.164754,1072.533697,10362.883188
775.708836,-1998.556043,919.314598,10362.883188
775.709166,-2960.823768,153.219100,10436.903782
775.709495,-4219.173869,-306.438199,10510.924376
775.709825,-4589.276840,-229.828649,10436.903782
775.710154,-4293.194464,0.000000,9770.718434
775.710484,-2664.741391,0.000000,9252.574275
775.710813,-592.164754,-459.657299,7994.224174
775.711143,1184.329507,-306.438199,7254.018232
775.711472,2516.700203,919.314598,7105.977043
775.711802,3330.926739,1991.848295,7698.141797
775.712131,2738.761985,3830.477490,8882.471304
775.712460,1628.453072,4519.963438,10362.883188
775.712790,74.020594,4290.134789,11029.068536
775.713119,-1184.329507,2604.724693,10658.965565
775.713449,-2294.638420,536.266849,10807.006753
775.713778,-2738.761985,-536.266849,10436.903782
775.714108,-3330.926739,-1378.971896,10140.821405
775.714437,-3478.967927,-1838.629195,9252.574275
775.714767,-2516.700203,-1838.629195,8734.430116
775.715096,-1406.391290,-1302.362347,8734.430116
775.715426,-370.102971,0.000000,8660.409521
775.715755,-296.082377,1149.143247,8142.265362
775.716084,0.000000,2298.286494,8660.409521
775.716414,0.000000,2834.553343,9400.615463
775.716743,148.041188,2834.553343,9918.759623
775.717073,0.000000,2298.286494,10288.862594
775.717402,-666.185348,995.924147,10066.800811
775.717732,-962.267725,536.266849,10288.862594
775.718061,-1406.391290,0.000000,9918.759623
775.718391,-1406.391290,0.000000,9696.697840
775.718720,-1332.370696,76.609550,9548.656652
775.719050,-666.185348,459.657299,9548.656652
775.719379,-1258.350101,766.095498,9622.677246
775.719708,-1332.370696,1991.848295,9548.656652
775.720038,-1406.391290,1915.238745,9474.636058
775.720367,-1258.350101,1608.800546,9474.636058
775.720697,-888.247130,1225.752797,10066.800811
775.721026,-1850.514855,842.705048,9844.739029
775.721356,-2516.700203,306.438199,9992.780217
775.721685,-3404.947333,-229.828649,9918.759623
775.722015,-4219.173869,0.000000,9918.759623
775.722344,-4145.153275,0.000000,9992.780217
775.722674,-3108.864956,0.000000,8882.471304
775.723003,-814.226536,306.438199,8364.327145
775.723332,962.267725,383.047749,7698.141797
775.723662,2368.659014,1225.752797,7402.059420
775.723991,3182.885551,2298.286494,7698.141797
775.724321,3330.926739,3294.210641,8142.265362
775.724650,2368.659014,4136.915689,9992.780217
775.724980,1036.288319,3830.477490,11177.109724
775.725309,-666.185348,2987.772442,11103.089130
775.725639,-2146.597232,1532.190996,10732.986159
775.725968,-2960.823768,153.219100,10436.903782
775.726298,-3034.844362,-842.705048,9622.677246
775.726627,-3256.906145,-2451.505594,9104.533087
775.726956,-2516.700203,-2451.505594,9030.512492
775.727286,-1924.535449,-1225.752797,9178.553681
775.727615,-1036.288319,-229.828649,8882.471304
775.727945,-740.205942,1608.800546,8660.409521
775.728274,74.020594,2068.457845,8438.347739
775.728604,518.144159,2528.115143,8734.430116
775.728933,518.144159,2298.286494,9770.718434
775.729263,148.041188,2604.724693,10288.862594
775.729592,-1036.288319,2681.334243,10214.842000
775.729922,-1628.453072,1149.143247,10436.903782
775.730251,-1554.432478,76.609550,10436.903782
775.730580,-1480.411884,-536.266849,9918.759623
775.730910,-962.267725,-306.438199,9474.636058
775.731239,-666.185348,-383.047749,9548.656652
775.731569,-1184.329507,612.876398,9178.553681
775.731898,-962.267725,1378.971896,9400.615463
775.732228,-1110.308913,1762.019645,9474.636058
775.732557,-666.185348,1762.019645,9326.594869
775.732887,-814.226536,1455.581446,9474.636058
775.733216,-888.247130,1149.143247,9918.759623
775.733546,-1702.473667,153.219100,10288.862594
775.733875,-2738.761985,-229.828649,10510.924376
775.734204,-3997.112087,0.000000,10362.883188
775.734534,-4737.318029,153.219100,10288.862594
775.734863,-3701.029710,0.000000,9844.739029
775.735193,-2294.638420,-306.438199,8956.491898
775.735522,0.000000,-229.828649,8216.285956
775.735852,1702.473667,383.047749,7476.080014
775.736181,2960.823768,1149.143247,7550.100608
775.736511,3108.864956,2298.286494,7920.203579
775.736840,2590.720797,3753.867940,9474.636058
775.737170,1110.308913,4673.182538,10362.883188
775.737499,-148.041188,4060.306139,10732.986159
775.737828,-1554.432478,2451.505594,10881.027347
775.738158,-2812.782580,689.485948,10658.965565
775.738487,-3330.926739,-459.657299,10214.842000
775.738817,-3849.070898,-1685.410096,9770.718434
775.739146,-3552.988522,-1608.800546,9326.594869
775.739476,-2590.720797,-1838.629195,8660.409521
775.739805,-1480.411884,-1072.533697,8882.471304
775.740135,-444.123565,689.485948,8512.368333
775.740464,-148.041188,1225.752797,8438.347739
775.740794,0.000000,2451.505594,9178.553681
775.741123,148.041188,3217.601092,9696.697840
775.741452,148.041188,3140.991542,10214.842000
775.741782,148.041188,1991.848295,10214.842000
775.742111,-370.102971,1608.800546,9622.677246
775.742441,-444.123565,919.314598,9918.759623
775.742770,-592.164754,76.609550,9844.739029
775.743100,-1036.288319,0.000000,9548.656652
775.743429,-1332.370696,766.095498,9104.533087
775.743759,-1480.411884,689.485948,9474.636058
775.744088,-1480.411884,1302.362347,9474.636058
775.744418,-1480.411884,2068.457845,9326.594869
775.744747,-1332.370696,1685.410096,8808.450710
775.745077,-592.164754,1072.533697,9104.533087
775.745406,-444.123565,1149.143247,9326.594869
775.745735,-1480.411884,536.266849,9400.615463
775.746065,-2146.597232,0.000000,10140.821405
775.746394,-3478.967927,0.000000,10732.986159
775.746724,-4663.297435,536.266849,10881.027347
775.747053,-4441.235652,76.609550,10214.842000
775.747383,-2442.679609,-383.047749,9400.615463
775.747712,0.000000,-536.266849,8586.388927
775.748042,1776.494261,-306.438199,7624.121203
775.748371,2812.782580,459.657299,7328.038826
775.748701,3552.988522,1685.410096,8142.265362
775.749030,3627.009116,3064.381992,9178.553681
775.749359,2072.576638,4519.963438,10362.883188
775.749689,666.185348,4060.306139,10955.047942
775.750018,-592.164754,2604.724693,10807.006753
775.750348,-2072.576638,1072.533697,10510.924376
775.750677,-2738.761985,-459.657299,10140.821405
775.751007,-3552.988522,-1608.800546,10140.821405
775.751336,-3997.112087,-1991.848295,9474.636058
775.751666,-3330.926739,-1762.019645,9252.574275
775.751995,-2146.597232,-1685.410096,8956.491898
775.752325,-592.164754,-612.876398,9030.512492
775.752654,0.000000,1072.533697,8438.347739
775.752983,-148.041188,2068.457845,8808.450710
775.753313,0.000000,2911.162892,9400.615463
775.753642,296.082377,3140.991542,9992.780217
775.753972,0.000000,2757.943793,10288.862594
775.754301,-888.247130,2145.067394,9918.759623
775.754631,-888.247130,1455.581446,9474.636058
775.754960,-518.144159,0.000000,9400.615463
775.755290,-518.144159,0.000000,9400.615463
775.755619,-888.247130,306.438199,9326.594869
775.755949,-1406.391290,766.095498,9474.636058
775.756278,-1184.329507,1225.752797,9400.615463
775.756607,-1332.370696,1838.629195,9252.574275
775.756937,-962.267725,2068.457845,9548.656652
775.757266,-888.247130,1685.410096,9770.718434
775.757596,-1110.308913,1149.143247,9474.636058
775.757925,-1480.411884,1149.143247,9844.739029
775.758255,-2368.659014,383.047749,10436.903782
775.758584,-3849.070898,153.219100,10584.944971
775.758914,-4959.379811,0.000000,10584.944971
775.759243,-5107.421000,0.000000,10140.821405
775.759573,-3627.009116,306.438199,9770.718434
775.759902,-1480.411884,-383.047749,8660.409521
775.760231,518.144159,-536.266849,7624.121203
775.760561,2220.617826,689.485948,7105.977043
775.760890,3182.885551,1608.800546,7624.121203
775.761220,4145.153275,2987.772442,8660.409521
775.761549,2812.782580,4366.744339,9992.780217
775.761879,1332.370696,4749.792088,10807.006753
775.762208,0.000000,3064.381992,10881.027347
775.762538,-1110.308913,1302.362347,11399.171507
775.762867,-2220.617826,0.000000,10584.944971
775.763197,-3256.906145,-995.924147,10140.821405
775.763526,-3627.009116,-2068.457845,9252.574275
775.763855,-3182.885551,-2221.676944,9178.553681
775.764185,-2294.638420,-1685.410096,8660.409521
775.764514,-1184.329507,-995.924147,8734.430116
775.764844,-296.082377,0.000000,8290.306550
775.765173,-444.123565,1915.238745,8808.450710
775.765503,-444.123565,2451.505594,8956.491898
775.765832,-296.082377,2528.115143,9770.718434
775.766162,0.000000,2298.286494,10140.821405
775.766491,-592.164754,2068.457845,10214.842000
775.766821,-1184.329507,1149.143247,9918.759623
775.767150,-1406.391290,76.609550,9622.677246
775.767479,-1406.391290,-459.657299,9252.574275
775.767809,-1184.329507,0.000000,9326.594869
775.768138,-1258.350101,689.485948,9622.677246
775.768468,-1110.308913,842.705048,9622.677246
775.768797,-962.267725,1608.800546,9474.636058
775.769126,-1258.350101,1991.848295,9104.533087
775.769456,-1036.288319,1532.190996,9252.574275
775.769785,-592.164754,1149.143247,9474.636058
775.770114,-962.267725,1225.752797,10214.842000
775.770444,-1776.494261,536.266849,10066.800811
775.770773,-2664.741391,-229.828649,10214.842000
775.771102,-3627.009116,-153.219100,10436.903782
775.771432,-4145.153275,0.000000,10584.944971
775.771761,-3108.864956,306.438199,10214.842000
775.772090,-1998.556043,76.609550,9252.574275
775.772419,74.020594,0.000000,8364.327145
775.772749,1628.453072,383.047749,7772.162391
775.773078,2294.638420,1302.362347,7550.100608
775.773407,3182.885551,2451.505594,8216.285956
775.773737,2590.720797,3370.820191,9474.636058
775.774066,1554.432478,4366.744339,10584.944971
775.774395,0.000000,3524.039291,10732.986159
775.774725,-1110.308913,1762.019645,10807.006753
775.775054,-2294.638420,536.266849,10807.006753
775.775383,-2812.782580,0.000000,9770.718434
775.775712,-3330.926739,-1302.362347,9326.594869
775.776042,-2886.803174,-1608.800546,8882.471304
775.776371,-1998.556043,-1532.190996,8586.388927
775.776700,-962.267725,-536.266849,8586.388927
775.777030,0.000000,1225.752797,8660.409521
775.777359,-296.082377,2298.286494,8364.327145
775.777688,0.000000,2757.943793,9030.512492
775.778018,74.020594,3064.381992,9474.636058
775.778347,74.020594,2681.334243,9696.697840
775.778676,-222.061783,2145.067394,9770.718434
775.779005,-740.205942,1915.238745,9474.636058
775.779335,-1480.411884,919.314598,9474.636058
775.779664,-1332.370696,229.828649,9548.656652
775.779993,-1554.432478,0.000000,9252.574275
775.780323,-1480.411884,-229.828649,9178.553681
775.780652,-1258.350101,842.705048,9104.533087
775.780981,-1258.350101,919.314598,9474.636058
775.781311,-1184.329507,1608.800546,9326.594869
775.781640,-888.247130,1762.019645,9178.553681
775.781969,-518.144159,1149.143247,9622.677246
775.782298,-666.185348,1149.143247,10214.842000
775.782628,-1258.350101,1149.143247,10658.965565
775.782957,-2590.720797,383.047749,10584.944971
775.783286,-3701.029710,0.000000,10955.047942
775.783616,-4589.276840,76.609550,11177.109724
775.783945,-4441.235652,-383.047749,10658.965565
775.784274,-2960.823768,-383.047749,9992.780217
775.784604,-1184.329507,-842.705048,8734.430116
775.784933,518.144159,0.000000,7698.141797
775.785262,1998.556043,536.266849,7402.059420
775.785591,3034.844362,1608.800546,7698.141797
775.785921,3108.864956,3140.991542,8660.409521
775.786250,2220.617826,3983.696590,9844.739029
775.786579,370.102971,3983.696590,10584.944971
775.786909,-1184.329507,2911.162892,10732.986159
775.787238,-2146.597232,1378.971896,10658.965565
775.787567,-2886.803174,0.000000,10807.006753
775.787897,-3849.070898,-1225.752797,9622.677246
775.788226,-3627.009116,-1991.848295,9030.512492
775.788555,-2664.741391,-2374.896044,8660.409521
775.788884,-1554.432478,-1608.800546,8438.347739
775.789214,-592.164754,-536.266849,8216.285956
775.789543,0.000000,536.266849,8512.368333
775.789872,0.000000,2068.457845,8956.491898
775.790202,-370.102971,3140.991542,9474.636058
775.790531,74.020594,2451.505594,10214.842000
775.790860,-148.041188,2528.115143,10362.883188
775.791190,-666.185348,2145.067394,9992.780217
775.791519,-1258.350101,1149.143247,9844.739029
775.791848,-1480.411884,0.000000,9474.636058
775.792177,-1480.411884,-306.438199,9474.636058
775.792507,-1554.432478,0.000000,9326.594869
775.792836,-1184.329507,0.000000,9326.594869
775.793165,-1110.308913,612.876398,9400.615463
775.793495,-1480.411884,1838.629195,9326.594869
775.793824,-1258.350101,1762.019645,9252.574275
775.794153,-1036.288319,1532.190996,9474.636058
775.794483,-666.185348,1838.629195,9770.718434
775.794812,-1258.350101,1225.752797,10510.924376
775.795141,-1924.535449,383.047749,10807.006753
775.795471,-2812.782580,0.000000,10807.006753
775.795800,-3775.050304,-153.219100,10807.006753
775.796129,-4219.173869,76.609550,10362.883188
775.796458,-2886.803174,-153.219100,9992.780217
775.796788,-1258.350101,76.609550,8956.491898
775.797117,592.164754,-153.219100,8068.244768
775.797446,2072.576638,612.876398,7402.059420
775.797776,3182.885551,1608.800546,7402.059420
775.798105,3627.009116,3140.991542,8438.347739
775.798434,2812.782580,3600.648841,9474.636058
775.798764,1258.350101,4366.744339,10140.821405
775.799093,-370.102971,3217.601092,10436.903782
775.799422,-1628.453072,1685.410096,10732.986159
775.799751,-2442.679609,383.047749,10510.924376
775.800081,-3256.906145,-306.438199,9696.697840
775.800410,-3478.967927,-1685.410096,9104.533087
775.800739,-2960.823768,-2068.457845,8808.450710
775.801069,-1850.514855,-1532.190996,8734.430116
775.801398,-1110.308913,-459.657299,8882.471304
775.801727,0.000000,612.876398,9252.574275
775.802057,-444.123565,1685.410096,8956.491898
775.802386,-222.061783,2528.115143,9474.636058
775.802715,0.000000,2528.115143,10140.821405
775.803044,0.000000,2451.505594,10288.862594
775.803374,-444.123565,2145.067394,10140.821405
775.803703,-1036.288319,612.876398,10214.842000
775.804032,-1184.329507,229.828649,9622.677246
775.804362,-1110.308913,-229.828649,9474.636058
775.804691,-1184.329507,-306.438199,9400.615463
775.805020,-888.247130,536.266849,9400.615463
775.805350,-1332.370696,766.095498,9326.594869
775.805679,-1184.329507,1685.410096,9104.533087
775.806008,-1036.288319,1838.629195,9326.594869
775.806337,-740.205942,1685.410096,9474.636058
775.806667,-814.226536,1302.362347,10066.800811
775.806996,-1110.308913,1302.362347,10584.944971
775.807325,-2368.659014,919.314598,10584.944971
775.807655,-3404.947333,0.000000,10436.903782
775.807984,-4219.173869,-536.266849,10807.006753
775.808313,-4811.338623,0.000000,10510.924376
775.808643,-4515.256246,0.000000,9474.636058
775.808972,-2664.741391,-383.047749,8660.409521
775.809301,-518.144159,-383.047749,8142.265362
775.809630,1332.370696,76.609550,7179.997637
775.809960,2886.803174,919.314598,6883.915261
775.810289,3701.029710,2145.067394,7328.038826
775.810618,3256.906145,4213.525239,8882.471304
775.810948,2294.638420,4443.353888,10584.944971
775.811277,444.123565,4213.525239,11547.212695
775.811606,-962.267725,2757.943793,11695.253884
775.811936,-2368.659014,1532.190996,10881.027347
775.812265,-3034.844362,306.438199,9918.759623
775.812594,-3108.864956,-1685.410096,9400.615463
775.812923,-2960.823768,-2068.457845,8956.491898
775.813253,-2442.679609,-1991.848295,8438.347739
775.813582,-1628.453072,-766.095498,8586.388927
775.813911,-814.226536,842.705048,8512.368333
775.814241,-518.144159,1532.190996,8734.430116
775.814570,-962.267725,2221.676944,8734.430116
775.814899,-518.144159,2681.334243,9400.615463
775.815229,-148.041188,2451.505594,10066.800811
775.815558,-444.123565,2145.067394,10658.965565
775.815887,-1184.329507,1838.629195,10436.903782
775.816216,-1702.473667,919.314598,9992.780217
775.816546,-1480.411884,0.000000,9696.697840
775.816875,-1258.350101,-153.219100,9474.636058
775.817204,-1110.308913,306.438199,9252.574275
775.817534,-888.247130,689.485948,8882.471304
775.817863,-1036.288319,842.705048,9252.574275
775.818192,-888.247130,1532.190996,9474.636058
775.818522,-962.267725,1302.362347,9548.656652
775.818851,-1110.308913,1532.190996,10214.842000
775.819180,-1110.308913,1762.019645,10955.047942
775.819509,-1702.473667,1149.143247,10436.903782
775.819839,-2146.597232,0.000000,10584.944971
775.820168,-2590.720797,-306.438199,10140.821405
775.820497,-3478.967927,-153.219100,10510.924376
775.820827,-3552.988522,612.876398,10436.903782
775.821156,-2738.761985,306.438199,9696.697840
775.821485,-1036.288319,306.438199,8586.388927
775.821815,444.123565,612.876398,7476.080014
775.822144,1924.535449,1149.143247,6587.832884
775.822473,3034.844362,1378.971896,7105.977043
775.822802,3552.988522,1838.629195,8438.347739
775.823132,2294.638420,3677.258390,9844.739029
775.823461,296.082377,3907.087040,10955.047942
775.823790,-1184.329507,2987.772442,11473.192101
775.824120,-2368.659014,1915.238745,11103.089130
775.824449,-2960.823768,766.095498,10214.842000
775.824778,-2442.679609,-1302.362347,9326.594869
775.825108,-2220.617826,-2221.676944,8586.388927
775.825437,-1628.453072,-1532.190996,8438.347739
775.825766,-1036.288319,-842.705048,8956.491898
775.826096,-296.082377,306.438199,8882.471304
775.826425,0.000000,1072.533697,9104.533087
775.826754,74.020594,1762.019645,8956.491898
775.827083,222.061783,2528.115143,9400.615463
775.827413,592.164754,2451.505594,10214.842000
775.827742,0.000000,2681.334243,10510.924376
775.828071,-962.267725,2604.724693,10214.842000
775.828401,-1850.514855,1378.971896,9918.759623
775.828730,-1776.494261,229.828649,9844.739029
775.829059,-1554.432478,-536.266849,9696.697840
775.829389,-1702.473667,0.000000,9474.636058
775.829718,-1850.514855,-306.438199,9252.574275
775.830047,-1406.391290,229.828649,9178.553681
775.830376,-1406.391290,1149.143247,9400.615463
775.830706,-1776.494261,1838.629195,9548.656652
775.831035,-1332.370696,1685.410096,9548.656652
775.831364,-1110.308913,1455.581446,9844.739029
775.831694,-888.247130,1302.362347,10140.821405
775.832023,-1702.473667,536.266849,10288.862594
775.832352,-2516.700203,-153.219100,10436.903782
775.832682,-3404.947333,0.000000,10584.944971
775.833011,-4293.194464,536.266849,10214.842000
775.833340,-3552.988522,306.438199,9474.636058
775.833669,-1628.453072,0.000000,8808.450710
775.833999,148.041188,0.000000,7772.162391
775.834328,1776.494261,306.438199,6957.935855
775.834657,3108.864956,1149.143247,7402.059420
775.834987,3256.906145,1991.848295,7846.182985
775.835316,2294.638420,3830.477490,9326.594869
775.835645,1036.288319,4366.744339,10732.986159
775.835975,-222.061783,3447.429741,11103.089130
775.836304,-1554.432478,2298.286494,11103.089130
775.836633,-2960.823768,459.657299,10214.842000
775.836962,-3256.906145,-459.657299,9844.739029
775.837292,-3478.967927,-2068.457845,9030.512492
775.837621,-2960.823768,-2298.286494,9030.512492
775.837950,-2220.617826,-1532.190996,8956.491898
775.838280,-1406.391290,-612.876398,9104.533087
775.838609,-148.041188,0.000000,8808.450710
775.838938,-518.144159,1532.190996,8734.430116
775.839268,0.000000,2374.896044,9252.574275
775.839597,370.102971,2298.286494,9992.780217
775.839926,148.041188,2528.115143,10362.883188
775.840255,-296.082377,2451.505594,10288.862594
775.840585,-1258.350101,1838.629195,10214.842000
775.840914,-1554.432478,459.657299,10066.800811
775.841243,-1258.350101,-383.047749,9622.677246
775.841573,-1554.432478,-459.657299,9548.656652
775.841902,-1776.494261,0.000000,9252.574275
775.842231,-1554.432478,153.219100,9400.615463
775.842561,-1258.350101,689.485948,9622.677246
775.842890,-1628.453072,1685.410096,9622.677246
775.843219,-1406.391290,1532.190996,9844.739029
775.843548,-888.247130,1608.800546,9992.780217
775.843878,-370.102971,1225.752797,9548.656652
775.844207,-1184.329507,919.314598,10066.800811
775.844536,-1850.514855,383.047749,10214.842000
775.844866,-2738.761985,229.828649,10732.986159
775.845195,-3701.029710,689.485948,10658.965565
775.845524,-3627.009116,766.095498,10066.800811
775.845854,-2442.679609,766.095498,9474.636058
775.846183,-888.247130,153.219100,8586.388927
775.846512,518.144159,153.219100,7254.018232
775.846841,1924.535449,536.266849,6957.935855
775.847171,2738.761985,1072.533697,7846.182985
775.847500,2442.679609,2374.896044,8660.409521
775.847829,1406.391290,4136.915689,10140.821405
775.848159,74.020594,3983.696590,10732.986159
775.848488,-888.247130,2374.896044,10658.965565
775.848817,-1850.514855,1302.362347,10288.862594
775.849147,-2368.659014,612.876398,9770.718434
775.849476,-2368.659014,-1149.143247,9326.594869
775.849805,-2442.679609,-1455.581446,8956.491898
775.850134,-1924.535449,-1378.971896,8882.471304
775.850464,-1184.329507,-536.266849,9178.553681
775.850793,-74.020594,153.219100,9178.553681
775.851122,-296.082377,1149.143247,9178.553681
775.851452,148.041188,1915.238745,9178.553681
775.851781,370.102971,2451.505594,9548.656652
775.852110,518.144159,2145.067394,10140.821405
775.852440,74.020594,1915.238745,10584.944971
775.852769,-740.205942,2221.676944,10436.903782
775.853098,-1406.391290,689.485948,9918.759623
775.853427,-1184.329507,-306.438199,9696.697840
775.853757,-1332.370696,-689.485948,9548.656652
775.854086,-1480.411884,-306.438199,9474.636058
775.854415,-1850.514855,229.828649,8956.491898
775.854745,-1480.411884,536.266849,9252.574275
775.855074,-1184.329507,1378.971896,9622.677246
775.855403,-1184.329507,1762.019645,9696.697840
775.855733,-888.247130,1685.410096,9992.780217
775.856062,-296.082377,1225.752797,10066.800811
775.856391,-888.247130,1149.143247,10066.800811
775.856720,-1850.514855,919.314598,10288.862594
775.857050,-2960.823768,229.828649,10584.944971
775.857379,-4293.194464,153.219100,10584.944971
775.857708,-4737.318029,536.266849,10214.842000
775.858038,-4145.153275,229.828649,9770.718434
775.858367,-1850.514855,-459.657299,8512.368333
775.858696,148.041188,-383.047749,7328.038826
775.859026,1554.432478,229.828649,6883.915261
775.859355,2590.720797,1149.143247,6883.915261
775.859684,3108.864956,2068.457845,8290.306550
775.860014,2146.597232,3677.258390,9548.656652
775.860343,370.102971,4213.525239,11103.089130
775.860672,-814.226536,3217.601092,11695.253884
775.861001,-2072.576638,1838.629195,11473.192101
775.861331,-3108.864956,919.314598,10362.883188
775.861660,-3108.864956,-995.924147,9622.677246
775.861989,-3034.844362,-2145.067394,9178.553681
775.862319,-2220.617826,-2298.286494,8660.409521
775.862648,-1628.453072,-1608.800546,8438.347739
775.862977,-666.185348,-536.266849,8882.471304
775.863307,-148.041188,1302.362347,9030.512492
775.863636,-592.164754,1991.848295,8808.450710
775.863965,-296.082377,2528.115143,9474.636058
775.864294,0.000000,2451.505594,9770.718434
775.864624,-148.041188,2604.724693,10066.800811
775.864953,-1258.350101,1378.971896,10066.800811
775.865282,-1702.473667,1225.752797,9992.780217
775.865612,-1702.473667,76.609550,9474.636058
775.865941,-1406.391290,-536.266849,9622.677246
775.866270,-1480.411884,0.000000,9326.594869
775.866600,-1554.432478,153.219100,8660.409521
775.866929,-1184.329507,919.314598,9104.533087
775.867258,-1184.329507,1149.143247,9474.636058
775.867588,-1110.308913,1915.238745,9400.615463
775.867918,-814.226536,1685.410096,9622.677246
775.868247,-592.164754,2068.457845,9992.780217
775.868576,-444.123565,1149.143247,10288.862594
775.868906,-1110.308913,459.657299,10658.965565
775.869235,-1998.556043,153.219100,10732.986159
775.869565,-3108.864956,0.000000,10807.006753
775.869894,-3775.050304,306.438199,10658.965565
775.870223,-3256.906145,919.314598,9992.780217
775.870553,-1998.556043,383.047749,9252.574275
775.870882,0.000000,0.000000,7994.224174
775.871211,1184.329507,383.047749,7254.018232
775.871541,2294.638420,1455.581446,7105.977043
775.871870,3034.844362,2374.896044,7846.182985
775.872200,2738.761985,3370.820191,9326.594869
775.872529,1332.370696,4366.744339,9992.780217
775.872858,74.020594,3524.039291,10362.883188
775.873188,-1258.350101,2068.457845,10436.903782
775.873517,-2220.617826,383.047749,10214.842000
775.873847,-3330.926739,-229.828649,9548.656652
775.874176,-3552.988522,-1302.362347,9474.636058
775.874505,-3034.844362,-1762.019645,8734.430116
775.874835,-2220.617826,-1685.410096,8660.409521
775.875164,-1332.370696,-1225.752797,8882.471304
775.875494,-592.164754,-306.438199,8438.347739
775.875823,-296.082377,1302.362347,8808.450710
775.876152,148.041188,1991.848295,9474.636058
775.876482,296.082377,2528.115143,10214.842000
775.876811,148.041188,2451.505594,10732.986159
775.877140,-148.041188,2145.067394,10362.883188
775.877470,-592.164754,1455.581446,10214.842000
775.877799,-888.247130,612.876398,9696.697840
775.878129,-592.164754,-383.047749,9548.656652
775.878458,-814.226536,-919.314598,9326.594869
775.878787,-1110.308913,0.000000,8882.471304
775.879117,-1184.329507,76.609550,9104.533087
775.879446,-888.247130,842.705048,9326.594869
775.879776,-1110.308913,1838.629195,9474.636058
775.880105,-1110.308913,2068.457845,9474.636058
775.880434,-666.185348,1762.019645,9696.697840
775.880764,-666.185348,2221.676944,10584.944971
775.881093,-1850.514855,1225.752797,10436.903782
775.881423,-3256.906145,766.095498,10658.965565
775.881752,-4515.256246,0.000000,10881.027347
775.882081,-5477.523971,0.000000,10881.027347
775.882411,-5107.421000,536.266849,10584.944971
775.882740,-3775.050304,-153.219100,9696.697840
775.883069,-1628.453072,-459.657299,8364.327145
775.883399,222.061783,-383.047749,7105.977043
775.883728,2146.597232,459.657299,6587.832884
775.884058,3552.988522,1838.629195,6661.853478
775.884387,3997.112087,3524.039291,8364.327145
775.884716,2960.823768,5056.230287,9992.780217
775.885046,1480.411884,5209.449386,10584.944971
775.885375,222.061783,3524.039291,10955.047942
775.885705,-1184.329507,1762.019645,10658.965565
775.886034,-1850.514855,0.000000,10214.842000
775.886363,-2590.720797,-842.705048,9770.718434
775.886693,-2886.803174,-1532.190996,9252.574275
775.887022,-2442.679609,-1915.238745,9030.512492
775.887352,-1924.535449,-1225.752797,8660.409521
775.887681,-1036.288319,-459.657299,8734.430116
775.888010,-666.185348,995.924147,8956.491898
775.888340,-740.205942,2298.286494,8882.471304
775.888669,-740.205942,2451.505594,9474.636058
775.888998,-740.205942,2374.896044,9548.656652
775.889328,-888.247130,2145.067394,10066.800811
775.889657,-1036.288319,1685.410096,9918.759623
775.889987,-1480.411884,919.314598,9918.759623
775.890316,-1332.370696,0.000000,9622.677246
775.890645,-1110.308913,-383.047749,9474.636058
775.890975,-962.267725,-536.266849,9178.553681
775.891304,-962.267725,1149.143247,8956.491898
775.891634,-592.164754,1302.362347,8882.471304
775.891963,-444.123565,1608.800546,9400.615463
775.892292,-444.123565,1685.410096,9918.759623
775.892622,-592.164754,1455.581446,10214.842000
775.892951,-740.205942,1302.362347,10955.047942
775.893280,-1850.514855,995.924147,11029.068536
775.893610,-2516.700203,459.657299,10732.986159
775.893939,-3256.906145,-689.485948,10510.924376
775.894269,-3849.070898,-1149.143247,10288.862594
775.894598,-4367.215058,-536.266849,9770.718434
775.894927,-3701.029710,306.438199,9844.739029
775.895257,-2072.576638,0.000000,9104.533087
775.895586,-296.082377,0.000000,7846.182985
775.895916,1258.350101,459.657299,7105.977043
775.896245,2664.741391,995.924147,7031.956449
775.896574,3404.947333,2298.286494,7550.100608
775.896904,2886.803174,3524.039291,9252.574275
775.897233,1332.370696,4213.525239,10732.986159
775.897563,-296.082377,3447.429741,11177.109724
775.897892,-1998.556043,2298.286494,10955.047942
775.898221,-3034.844362,536.266849,10732.986159
775.898551,-2960.823768,-689.485948,9770.718434
775.898880,-2812.782580,-1685.410096,9474.636058
775.899209,-2294.638420,-1838.629195,8956.491898
775.899539,-1406.391290,-1455.581446,8660.409521
775.899868,-444.123565,-229.828649,8660.409521
775.900198,74.020594,995.924147,8956.491898
775.900527,0.000000,1991.848295,8808.450710
775.900856,0.000000,2681.334243,9030.512492
775.901186,296.082377,2834.553343,9770.718434
775.901515,370.102971,2451.505594,9770.718434
775.901845,0.000000,2757.943793,10140.821405
775.902174,-1036.288319,1455.581446,9844.739029
775.902503,-1406.391290,306.438199,9622.677246
775.902833,-1332.370696,-229.828649,9474.636058
775.903162,-1554.432478,76.609550,9548.656652
775.903492,-1554.432478,766.095498,9104.533087
775.903821,-1184.329507,459.657299,9104.533087
775.904150,-1110.308913,1072.533697,9474.636058
775.904480,-888.247130,1915.238745,9474.636058
775.904809,-814.226536,2145.067394,9696.697840
775.905138,-592.164754,1838.629195,9696.697840
775.905468,-1036.288319,1991.848295,9696.697840
775.905797,-1406.391290,919.314598,10362.883188
775.906127,-2294.638420,153.219100,10732.986159
775.906456,-3182.885551,-153.219100,10881.027347
775.906785,-4219.173869,689.485948,10584.944971
775.907115,-4145.153275,459.657299,9770.718434
775.907444,-2812.782580,-153.219100,9252.574275
775.907774,-518.144159,-306.438199,7994.224174
775.908103,1036.288319,229.828649,7328.038826
775.908432,2146.597232,995.924147,7179.997637
775.908762,2590.720797,2374.896044,7846.182985
775.909091,2886.803174,3294.210641,9104.533087
775.909421,1332.370696,4213.525239,10214.842000
775.909750,0.000000,3753.867940,11029.068536
775.910079,-1924.535449,2451.505594,11399.171507
775.910409,-3256.906145,1225.752797,10807.006753
775.910738,-4071.132681,-612.876398,9992.780217
775.911067,-3552.988522,-1991.848295,9474.636058
775.911397,-2664.741391,-2757.943793,9030.512492
775.911726,-2146.597232,-1991.848295,8660.409521
775.912056,-1480.411884,-689.485948,8364.327145
775.912385,-296.082377,76.609550,8734.430116
775.912714,-222.061783,1225.752797,8882.471304
775.913044,0.000000,2681.334243,9326.594869
775.913373,296.082377,2757.943793,9770.718434
775.913703,444.123565,2451.505594,10214.842000
775.914032,-444.123565,2221.676944,9992.780217
775.914361,-1184.329507,1762.019645,10066.800811
775.914691,-1702.473667,459.657299,9918.759623
775.915020,-1554.432478,-383.047749,9918.759623
775.915349,-1924.535449,0.000000,9844.739029
775.915679,-2146.597232,0.000000,9474.636058
775.916008,-1924.535449,459.657299,8956.491898
775.916338,-1332.370696,536.266849,8956.491898
775.916667,-1406.391290,1149.143247,9252.574275
775.916996,-1258.350101,1838.629195,9770.718434
775.917326,-1110.308913,1532.190996,9770.718434
775.917655,-888.247130,2145.067394,10066.800811
775.917985,-1406.391290,919.314598,10436.903782
775.918314,-1776.494261,0.000000,10436.903782
775.918643,-2294.638420,-383.047749,10732.986159
775.918973,-3256.906145,0.000000,10510.924376
775.919302,-3330.926739,306.438199,10584.944971
775.919632,-2590.720797,383.047749,9844.739029
775.919961,-592.164754,689.485948,8956.491898
775.920290,1184.329507,612.876398,7920.203579
775.920620,2220.617826,1072.533697,7105.977043
775.920949,3478.967927,2298.286494,7105.977043
775.921278,3108.864956,2604.724693,8290.306550
775.921608,2146.597232,3677.258390,9474.636058
775.921937,444.123565,4060.306139,10140.821405
775.922267,-814.226536,2834.553343,10436.903782
775.922596,-1998.556043,1378.971896,10584.944971
775.922925,-2812.782580,383.047749,9770.718434
775.923255,-3478.967927,-612.876398,9104.533087
775.923584,-3034.844362,-2068.457845,8956.491898
775.923914,-2368.659014,-1532.190996,8734.430116
775.924243,-1554.432478,-766.095498,8734.430116
775.924572,-592.164754,306.438199,8808.450710
775.924902,0.000000,1225.752797,9104.533087
775.925231,-222.061783,2528.115143,9474.636058
775.925561,148.041188,2451.505594,9992.780217
775.925890,222.061783,2451.505594,10288.862594
775.926219,370.102971,2298.286494,10288.862594
775.926549,-592.164754,1991.848295,9992.780217
775.926878,-1110.308913,842.705048,10140.821405
775.927207,-1110.308913,0.000000,9770.718434
775.927537,-1036.288319,-612.876398,9696.697840
775.927866,-1406.391290,153.219100,9400.615463
775.928196,-962.267725,153.219100,9400.615463
775.928525,-962.267725,153.219100,9474.636058
775.928854,-962.267725,1149.143247,9474.636058
775.929184,-1184.329507,1991.848295,9622.677246
775.929513,-1036.288319,1838.629195,9696.697840
775.929843,-666.185348,1608.800546,10584.944971
775.930172,-1332.370696,1072.533697,10288.862594
775.930501,-2294.638420,1072.533697,10214.842000
775.930831,-3330.926739,0.000000,10288.862594
775.931160,-4441.235652,0.000000,10584.944971
775.931490,-4737.318029,459.657299,10584.944971
775.931819,-4441.235652,536.266849,10066.800811
775.932148,-2664.741391,-536.266849,9104.533087
775.932478,-740.205942,-306.438199,7994.224174
775.932807,1036.288319,0.000000,7105.977043
775.933136,2886.803174,919.314598,7105.977043
775.933466,3552.988522,2068.457845,7920.203579
775.933795,2960.823768,3294.210641,8956.491898
775.934125,1480.411884,4366.744339,10732.986159
775.934454,74.020594,3753.867940,10955.047942
775.934783,-1184.329507,2374.896044,11251.130318
775.935113,-2442.679609,1302.362347,10584.944971
775.935442,-2738.761985,-306.438199,10362.883188
775.935772,-2960.823768,-1532.190996,9474.636058
775.936101,-2442.679609,-2068.457845,9030.512492
775.936430,-1998.556043,-1225.752797,8660.409521
775.936760,-1702.473667,-612.876398,8512.368333
775.937089,-740.205942,0.000000,8660.409521
775.937419,-592.164754,1532.190996,9030.512492
775.937748,-814.226536,2528.115143,9400.615463
775.938077,-592.164754,2604.724693,9622.677246
775.938407,-222.061783,2145.067394,9918.759623
775.938736,-962.267725,2298.286494,9992.780217
775.939065,-1554.432478,1455.581446,9918.759623
775.939395,-1554.432478,689.485948,9844.739029
775.939724,-1480.411884,0.000000,9696.697840
775.940054,-1480.411884,-153.219100,9400.615463
775.940383,-1850.514855,459.657299,9252.574275
775.940712,-1036.288319,689.485948,9474.636058
775.941042,-666.185348,1455.581446,9474.636058
775.941371,-740.205942,1608.800546,9252.574275
775.941701,-740.205942,1915.238745,9622.677246
775.942030,-444.123565,1762.019645,9696.697840
775.942359,-814.226536,919.314598,10140.821405
775.942689,-1480.411884,766.095498,10288.862594
775.943018,-2072.576638,0.000000,10732.986159
775.943347,-3108.864956,-229.828649,10732.986159
775.943677,-4293.194464,689.485948,10362.883188
775.944006,-4293.194464,0.000000,10288.862594
775.944336,-2664.741391,229.828649,9400.615463
775.944665,-666.185348,76.609550,8512.368333
775.944994,1110.308913,153.219100,7624.121203
775.945324,2146.597232,919.314598,7031.956449
775.945653,2442.679609,2451.505594,7550.100608
775.945983,2812.782580,3140.991542,8438.347739
775.946312,1776.494261,3753.867940,9918.759623
775.946641,296.082377,3294.210641,10436.903782
775.946971,-1184.329507,2451.505594,10658.965565
775.947300,-1850.514855,612.876398,10807.006753
775.947630,-2590.720797,229.828649,10214.842000
775.947959,-2738.761985,-689.485948,10140.821405
775.948288,-2590.720797,-2145.067394,9104.533087
775.948618,-1924.535449,-1991.848295,9104.533087
775.948947,-1110.308913,-919.314598,8882.471304
775.949276,0.000000,536.266849,8882.471304
775.949606,74.020594,1072.533697,9030.512492
775.949935,74.020594,2298.286494,9400.615463
775.950265,296.082377,2834.553343,9844.739029
775.950594,222.061783,2451.505594,10288.862594
775.950923,-296.082377,2298.286494,9992.780217
775.951253,-962.267725,1762.019645,10214.842000
775.951582,-1258.350101,612.876398,9918.759623
775.951912,-1332.370696,0.000000,9696.697840
775.952241,-1258.350101,0.000000,9474.636058
775.952570,-1332.370696,383.047749,9326.594869
775.952900,-1110.308913,-383.047749,9104.533087
775.953229,-962.267725,842.705048,9400.615463
775.953559,-962.267725,1762.019645,9474.636058
775.953888,-740.205942,2221.676944,9548.656652
775.954217,-592.164754,1685.410096,9696.697840
775.954547,-740.205942,1302.362347,10140.821405
775.954876,-1258.350101,1302.362347,10658.965565
775.955205,-2146.597232,842.705048,10510.924376
775.955535,-3552.988522,153.219100,10584.944971
775.955864,-4515.256246,0.000000,10584.944971
775.956194,-4959.379811,76.609550,10732.986159
775.956523,-3627.009116,0.000000,9696.697840
775.956852,-1776.494261,-229.828649,8586.388927
775.957182,148.041188,0.000000,7402.059420
775.957511,1702.473667,689.485948,6587.832884
775.957841,2812.782580,1455.581446,6439.791695
775.958170,3478.967927,2451.505594,8068.244768
775.958499,2368.659014,4060.306139,9844.739029
775.958829,666.185348,3983.696590,11029.068536
775.959158,-962.267725,3370.820191,11621.233289
775.959488,-2220.617826,2068.457845,11103.089130
775.959817,-3034.844362,383.047749,10584.944971
775.960146,-3256.906145,-1149.143247,9770.718434
775.960476,-2664.741391,-2298.286494,9326.594869
775.960805,-2220.617826,-2145.067394,8734.430116
775.961134,-1702.473667,-1455.581446,8660.409521
775.961464,-592.164754,-612.876398,8364.327145
775.961793,0.000000,459.657299,8882.471304
775.962123,-222.061783,1762.019645,8956.491898
775.962452,-222.061783,2681.334243,9548.656652
775.962781,148.041188,2681.334243,9918.759623
775.963111,0.000000,3064.381992,10510.924376
775.963440,-740.205942,1302.362347,9992.780217
775.963770,-1406.391290,1225.752797,10214.842000
775.964099,-1480.411884,76.609550,9992.780217
775.964428,-1406.391290,0.000000,9770.718434
775.964758,-1554.432478,0.000000,9252.574275
775.965087,-1332.370696,459.657299,8734.430116
775.965417,-962.267725,229.828649,8956.491898
775.965746,-1036.288319,1072.533697,9474.636058
775.966075,-1110.308913,1762.019645,9474.636058
775.966405,-962.267725,1302.362347,9992.780217
775.966734,-740.205942,1762.019645,10288.862594
775.967063,-1036.288319,1532.190996,10510.924376
775.967393,-1554.432478,459.657299,10288.862594
775.967722,-2220.617826,0.000000,10288.862594
775.968052,-2960.823768,0.000000,10510.924376
775.968381,-4293.194464,1149.143247,9992.780217
775.968710,-3478.967927,919.314598,9770.718434
775.969040,-2294.638420,612.876398,9030.512492
775.969369,-444.123565,76.609550,8068.244768
775.969698,962.267725,536.266849,7328.038826
775.970028,2368.659014,1149.143247,7179.997637
775.970357,2960.823768,1762.019645,7920.203579
775.970686,2368.659014,2834.553343,9252.574275
775.971016,1036.288319,3830.477490,10362.883188
775.971345,0.000000,3524.039291,10732.986159
775.971674,-1258.350101,2451.505594,10658.965565
775.972004,-2590.720797,1838.629195,10214.842000
775.972333,-2886.803174,0.000000,9844.739029
775.972662,-2812.782580,-1072.533697,9326.594869
775.972992,-2516.700203,-1455.581446,8956.491898
775.973321,-2146.597232,-689.485948,8808.450710
775.973650,-1258.350101,-153.219100,8956.491898
775.973980,-592.164754,689.485948,9178.553681
775.974309,-148.041188,1378.971896,9030.512492
775.974638,0.000000,2221.676944,9252.574275
775.974968,0.000000,2528.115143,9696.697840
775.975297,0.000000,2451.505594,10436.903782
775.975626,-370.102971,2451.505594,10288.862594
775.975956,-1258.350101,1762.019645,9770.718434
775.976285,-1258.350101,612.876398,9622.677246
775.976614,-1036.288319,-229.828649,9326.594869
775.976944,-888.247130,-153.219100,9326.594869
775.977273,-962.267725,383.047749,9030.512492
775.977602,-888.247130,229.828649,9030.512492
775.977931,-814.226536,842.705048,9326.594869
775.978261,-592.164754,1608.800546,9622.677246
775.978590,-814.226536,1915.238745,10066.800811
775.978919,-592.164754,1991.848295,9992.780217
775.979249,-666.185348,1608.800546,10214.842000
775.979578,-1184.329507,995.924147,10214.842000
775.979907,-1998.556043,76.609550,10510.924376
775.980237,-3034.844362,-459.657299,10807.006753
775.980566,-3997.112087,459.657299,10807.006753
775.980895,-4219.173869,383.047749,9844.739029
775.981225,-3034.844362,0.000000,9178.553681
775.981554,-1036.288319,-612.876398,8290.306550
775.981883,814.226536,-459.657299,7179.997637
775.982213,2220.617826,0.000000,7105.977043
775.982542,2812.782580,1685.410096,8068.244768
775.982871,2516.700203,2757.943793,9030.512492
775.983201,1184.329507,4443.353888,10362.883188
775.983530,-222.061783,3677.258390,11103.089130
775.983859,-1332.370696,2298.286494,11399.171507
775.984189,-1998.556043,995.924147,11103.089130
775.984518,-2738.761985,0.000000,10214.842000
775.984847,-3034.844362,-1838.629195,9992.780217
775.985176,-2886.803174,-2298.286494,9548.656652
775.985506,-2368.659014,-1991.848295,9178.553681
775.985835,-1554.432478,-919.314598,8660.409521
775.986164,-370.102971,229.828649,8734.430116
775.986494,148.041188,1302.362347,8734.430116
775.986823,74.020594,2374.896044,8808.450710
775.987152,74.020594,2451.505594,9400.615463
775.987482,0.000000,2451.505594,9770.718434
775.987811,-370.102971,2757.943793,9992.780217
775.988140,-1406.391290,2298.286494,9992.780217
775.988470,-2146.597232,919.314598,9992.780217
775.988799,-1998.556043,153.219100,9548.656652
775.989128,-2072.576638,-229.828649,9104.533087
775.989458,-2368.659014,0.000000,9326.594869
775.989787,-1850.514855,0.000000,8956.491898
775.990116,-1924.535449,689.485948,9400.615463
775.990446,-1776.494261,1225.752797,9474.636058
775.990775,-1480.411884,1685.410096,9548.656652
775.991104,-740.205942,1302.362347,9622.677246
775.991434,-296.082377,1455.581446,10140.821405
775.991763,-814.226536,1302.362347,9992.780217
775.992092,-1110.308913,919.314598,10214.842000
775.992422,-1776.494261,76.609550,10436.903782
775.992751,-2960.823768,383.047749,10732.986159
775.993080,-3182.885551,842.705048,10436.903782
775.993409,-2960.823768,1225.752797,9770.718434
775.993739,-1036.288319,383.047749,8882.471304
775.994068,592.164754,229.828649,7772.162391
775.994397,1776.494261,459.657299,7179.997637
775.994727,2442.679609,1455.581446,7328.038826
775.995056,2516.700203,1685.410096,8364.327145
775.995385,1776.494261,3294.210641,9622.677246
775.995715,222.061783,3753.867940,10584.944971
775.996044,-814.226536,2604.724693,10881.027347
775.996373,-1628.453072,1225.752797,10214.842000
775.996703,-2516.700203,536.266849,10584.944971
775.997032,-2960.823768,-1072.533697,9992.780217
775.997361,-2664.741391,-1532.190996,9622.677246
775.997691,-2368.659014,-1378.971896,9326.594869
775.998020,-1184.329507,-459.657299,9030.512492
775.998349,74.020594,536.266849,8734.430116
775.998679,962.267725,919.314598,8512.368333
775.999008,1036.288319,2145.067394,8586.388927
775.999337,666.185348,2681.334243,9326.594869
775.999667,296.082377,3064.381992,10066.800811
775.999996,74.020594,2681.334243,10658.965565
776.000325,-1036.288319,2145.067394,10436.903782
776.000655,-1850.514855,1455.581446,10214.842000
776.000984,-1924.535449,0.000000,9844.739029
776.001313,-1628.453072,-842.705048,9622.677246
776.001642,-2146.597232,-689.485948,9326.594869
776.001972,-1554.432478,-229.828649,8956.491898
776.002301,-1554.432478,-229.828649,8956.491898
776.002630,-1480.411884,536.266849,9326.594869
776.002960,-962.267725,1532.190996,9474.636058
776.003289,-740.205942,2145.067394,9696.697840
776.003618,-296.082377,1991.848295,9548.656652
776.003948,-296.082377,1455.581446,10066.800811
776.004277,-1258.350101,919.314598,10436.903782
776.004606,-2294.638420,536.266849,10732.986159
776.004936,-3478.967927,229.828649,10955.047942
776.005265,-4663.297435,383.047749,10436.903782
776.005594,-4071.132681,-383.047749,9770.718434
776.005924,-2368.659014,-229.828649,8956.491898
776.006253,-444.123565,-689.485948,7846.182985
776.006582,962.267725,0.000000,7328.038826
776.006912,2220.617826,1302.362347,7179.997637
776.007241,2738.761985,1915.238745,7698.141797
776.007570,2294.638420,2834.553343,8808.450710
776.007900,1184.329507,3907.087040,10510.924376
776.008229,0.000000,3140.991542,11177.109724
776.008558,-1332.370696,2068.457845,11177.109724
776.008887,-2368.659014,1532.190996,10362.883188
776.009217,-2886.803174,-459.657299,9918.759623
776.009546,-3034.844362,-1838.629195,9474.636058
776.009875,-2516.700203,-2221.676944,9030.512492
776.010205,-2146.597232,-1455.581446,9030.512492
776.010534,-1258.350101,-229.828649,8660.409521
776.010863,-296.082377,995.924147,8734.430116
776.011193,0.000000,1685.410096,8882.471304
776.011522,74.020594,2374.896044,9030.512492
776.011851,296.082377,2681.334243,9622.677246
776.012181,222.061783,3294.210641,9770.718434
776.012510,-518.144159,2681.334243,9918.759623
776.012839,-1554.432478,1608.800546,9918.759623
776.013169,-1924.535449,766.095498,9474.636058
776.013498,-1628.453072,-306.438199,9474.636058
776.013827,-1628.453072,-383.047749,9400.615463
776.014157,-1776.494261,306.438199,9104.533087
776.014486,-1924.535449,306.438199,9030.512492
776.014815,-1628.453072,842.705048,9400.615463
776.015145,-1554.432478,1532.190996,9400.615463
776.015474,-1332.370696,1532.190996,9474.636058
776.015803,-1036.288319,919.314598,9474.636058
776.016133,-444.123565,1225.752797,9992.780217
776.016462,-962.267725,842.705048,10436.903782
776.016791,-1628.453072,459.657299,10510.924376
776.017120,-2738.761985,383.047749,10658.965565
776.017450,-3701.029710,612.876398,10732.986159
776.017779,-3701.029710,842.705048,9696.697840
776.018108,-2516.700203,229.828649,9622.677246
776.018438,-814.226536,0.000000,8438.347739
776.018767,518.144159,0.000000,7402.059420
776.019096,1406.391290,612.876398,7254.018232
776.019426,2220.617826,1762.019645,7550.100608
776.019755,2146.597232,2374.896044,8734.430116
776.020084,962.267725,3217.601092,9770.718434
776.020414,0.000000,3294.210641,10807.006753
776.020743,-1184.329507,2221.676944,11029.068536
776.021072,-2146.597232,766.095498,10658.965565
776.021402,-2812.782580,-459.657299,10214.842000
776.021731,-2960.823768,-1532.190996,10140.821405
776.022060,-2368.659014,-1915.238745,9474.636058
776.022390,-1628.453072,-1762.019645,8956.491898
776.022719,-222.061783,-459.657299,8290.306550
776.023048,1184.329507,612.876398,8364.327145
776.023378,1554.432478,1302.362347,8438.347739
776.023707,1332.370696,2298.286494,8734.430116
776.024036,1258.350101,3064.381992,9622.677246
776.024366,518.144159,3294.210641,10214.842000
776.024695,-148.041188,2757.943793,10436.903782
776.025024,-1480.411884,2145.067394,10066.800811
776.025353,-1850.514855,689.485948,9844.739029
776.025683,-1850.514855,-459.657299,9474.636058
776.026012,-1850.514855,-1072.533697,9326.594869
776.026341,-1998.556043,-306.438199,8734.430116
776.026671,-2294.638420,-306.438199,8808.450710
776.027000,-1924.535449,76.609550,9252.574275
776.027329,-1924.535449,1072.533697,9252.574275
776.027659,-1480.411884,1915.238745,9474.636058
776.027988,-814.226536,1838.629195,9844.739029
776.028317,-518.144159,1991.848295,9918.759623
776.028647,-1184.329507,1532.190996,10066.800811
776.028976,-1924.535449,842.705048,10362.883188
776.029305,-2886.803174,536.266849,10807.006753
776.029635,-3997.112087,612.876398,11029.068536
776.029964,-4293.194464,1149.143247,10732.986159
776.030293,-3775.050304,306.438199,9622.677246
776.030623,-1924.535449,306.438199,8808.450710
776.030952,74.020594,0.000000,7698.141797
776.031281,1406.391290,459.657299,7105.977043
776.031611,2368.659014,1378.971896,7179.997637
776.031940,2590.720797,2451.505594,8216.285956
776.032269,1850.514855,3524.039291,9104.533087
776.032598,666.185348,3983.696590,10214.842000
776.032928,-518.144159,2604.724693,10807.006753
776.033257,-1480.411884,1762.019645,10658.965565
776.033586,-2516.700203,766.095498,9992.780217
776.033916,-2960.823768,-612.876398,9770.718434
776.034245,-3256.906145,-1455.581446,9400.615463
776.034574,-2812.782580,-1685.410096,9400.615463
776.034904,-1924.535449,-1302.362347,9178.553681
776.035233,-1258.350101,612.876398,8808.450710
776.035562,-444.123565,1072.533697,8808.450710
776.035892,-148.041188,2068.457845,8734.430116
776.036221,0.000000,2221.676944,9030.512492
776.036550,148.041188,2298.286494,9474.636058
776.036880,148.041188,2834.553343,9696.697840
776.037209,-222.061783,1915.238745,10066.800811
776.037538,-814.226536,1455.581446,9918.759623
776.037868,-1110.308913,153.219100,9474.636058
776.038197,-962.267725,-306.438199,9474.636058
776.038526,-1036.288319,0.000000,9252.574275
776.038856,-1480.411884,842.705048,9400.615463
776.039185,-1776.494261,383.047749,9400.615463
776.039514,-1702.473667,842.705048,9548.656652
776.039844,-1702.473667,1225.752797,9622.677246
776.040173,-1406.391290,1225.752797,9696.697840
776.040502,-814.226536,1072.533697,9844.739029
776.040831,-666.185348,842.705048,10362.883188
776.041161,-1110.308913,306.438199,10140.821405
776.041490,-1998.556043,153.219100,10436.903782
776.041819,-2960.823768,153.219100,10807.006753
776.042149,-4145.153275,306.438199,10732.986159
776.042478,-4367.215058,1149.143247,10140.821405
776.042807,-2664.741391,459.657299,9400.615463
776.043137,-592.164754,-306.438199,8364.327145
776.043466,1036.288319,-306.438199,7476.080014
776.043795,2146.597232,766.095498,7402.059420
776.044125,2738.761985,1608.800546,7179.997637
776.044454,2368.659014,2528.115143,9030.512492
776.044783,1480.411884,3907.087040,10140.821405
776.045113,370.102971,3524.039291,10955.047942
776.045442,-814.226536,2451.505594,10584.944971
776.045771,-1554.432478,1072.533697,10436.903782
776.046101,-2516.700203,306.438199,9918.759623
776.046430,-2442.679609,-919.314598,9474.636058
776.046759,-2220.617826,-1302.362347,9400.615463
776.047089,-1924.535449,-1225.752797,9104.533087
776.047418,-1036.288319,0.000000,9326.594869
776.047747,-814.226536,995.924147,8660.409521
776.048077,0.000000,1455.581446,9104.533087
776.048406,74.020594,2451.505594,8808.450710
776.048735,74.020594,2681.334243,9400.615463
776.049064,148.041188,3064.381992,9548.656652
776.049394,-222.061783,2604.724693,9844.739029
776.049723,-1258.350101,2068.457845,9918.759623
776.050052,-1702.473667,1225.752797,9696.697840
776.050382,-1406.391290,153.219100,9326.594869
776.050711,-1258.350101,-153.219100,9252.574275
776.051040,-962.267725,306.438199,9178.553681
776.051370,-1258.350101,229.828649,9030.512492
776.051699,-1036.288319,766.095498,9400.615463
776.052028,-1110.308913,1685.410096,9696.697840
776.052358,-888.247130,2068.457845,9844.739029
776.052687,-814.226536,1762.019645,9992.780217
776.053016,-296.082377,1149.143247,10214.842000
776.053346,-740.205942,1455.581446,10362.883188
776.053675,-1776.494261,842.705048,10436.903782
776.054004,-2738.761985,0.000000,10362.883188
776.054334,-4219.173869,0.000000,10510.924376
776.054663,-4663.297435,459.657299,10584.944971
776.054992,-3701.029710,229.828649,9548.656652
776.055322,-1850.514855,-536.266849,8808.450710
776.055651,222.061783,-536.266849,7550.100608
776.055980,1332.370696,0.000000,7105.977043
776.056309,2738.761985,842.705048,7105.977043
776.056639,2664.741391,2528.115143,8734.430116
776.056968,1998.556043,3753.867940,9918.759623
776.057297,740.205942,4136.915689,10658.965565
776.057627,-444.123565,3064.381992,11103.089130
776.057956,-1924.535449,1608.800546,10807.006753
776.058285,-2368.659014,76.609550,10214.842000
776.058615,-3330.926739,-1072.533697,9770.718434
776.058944,-3108.864956,-2221.676944,9474.636058
776.059273,-2664.741391,-1991.848295,9252.574275
776.059603,-2146.597232,-842.705048,8956.491898
776.059932,-1184.329507,-689.485948,8512.368333
776.060261,-74.020594,919.314598,8882.471304
776.060591,0.000000,1762.019645,8512.368333
776.060920,74.020594,2451.505594,9030.512492
776.061249,296.082377,2604.724693,9844.739029
776.061579,-518.144159,2681.334243,10288.862594
776.061908,-1184.329507,2528.115143,10362.883188
776.062237,-2146.597232,1685.410096,10140.821405
776.062567,-1924.535449,153.219100,9696.697840
776.062896,-1998.556043,-612.876398,9400.615463
776.063225,-2368.659014,-383.047749,9400.615463
776.063555,-1998.556043,-229.828649,9400.615463
776.063884,-1924.535449,229.828649,9326.594869
776.064213,-1480.411884,1072.533697,9252.574275
776.064542,-1184.329507,2145.067394,9474.636058
776.064872,-666.185348,1838.629195,9622.677246
776.065201,-222.061783,1225.752797,9844.739029
776.065530,0.000000,1685.410096,9918.759623
776.065860,-814.226536,1149.143247,9918.759623
776.066189,-1554.432478,612.876398,10436.903782
776.066518,-2886.803174,383.047749,10732.986159
776.066848,-3701.029710,919.314598,10510.924376
776.067177,-3775.050304,689.485948,10288.862594
776.067506,-2220.617826,153.219100,9474.636058
776.067836,-296.082377,-459.657299,8438.347739
776.068165,1184.329507,306.438199,7624.121203
776.068494,2220.617826,766.095498,7105.977043
776.068823,3256.906145,1838.629195,7772.162391
776.069153,2590.720797,2604.724693,8956.491898
776.069482,1480.411884,4136.915689,10066.800811
776.069811,148.041188,3753.867940,10584.944971
776.070140,-888.247130,2757.943793,10732.986159
776.070470,-1924.535449,689.485948,10436.903782
776.070799,-2812.782580,-536.266849,10140.821405
776.071128,-2738.761985,-1608.800546,9696.697840
776.071457,-2442.679609,-1762.019645,9400.615463
776.071786,-1850.514855,-919.314598,9326.594869
776.072116,-962.267725,-459.657299,8734.430116
776.072445,444.123565,459.657299,9400.615463
776.072774,370.102971,1838.629195,9030.512492
776.073103,444.123565,2681.334243,9326.594869
776.073433,74.020594,2911.162892,9548.656652
776.073762,222.061783,2451.505594,9548.656652
776.074091,-518.144159,2528.115143,10140.821405
776.074420,-1184.329507,1378.971896,9844.739029
776.074750,-1702.473667,459.657299,9474.636058
776.075079,-1776.494261,-383.047749,9548.656652
776.075408,-2220.617826,-459.657299,9326.594869
776.075737,-2368.659014,0.000000,9178.553681
776.076066,-2220.617826,0.000000,9178.553681
776.076396,-1628.453072,383.047749,9474.636058
776.076725,-1332.370696,1608.800546,9474.636058
776.077054,-1332.370696,2068.457845,9178.553681
776.077383,-1110.308913,2068.457845,9178.553681
776.077713,-1036.288319,1455.581446,9622.677246
776.078042,-1184.329507,1378.971896,10362.883188
776.078371,-1628.453072,536.266849,10658.965565
776.078700,-2960.823768,153.219100,10881.027347
776.079029,-4219.173869,0.000000,10807.006753
776.079359,-3701.029710,229.828649,10436.903782
776.079688,-3182.885551,0.000000,9696.697840
776.080017,-1258.350101,-459.657299,9030.512492
776.080346,370.102971,0.000000,7846.182985
776.080676,1702.473667,306.438199,7476.080014
776.081005,2664.741391,1685.410096,7254.018232
776.081334,2738.761985,2451.505594,8808.450710
776.081663,1998.556043,3677.258390,9844.739029
776.081992,814.226536,3753.867940,10881.027347
776.082322,-444.123565,2681.334243,10807.006753
776.082651,-1480.411884,1762.019645,10510.924376
776.082980,-2368.659014,0.000000,9770.718434
776.083309,-2664.741391,-1149.143247,9992.780217
776.083639,-2812.782580,-1991.848295,9844.739029
776.083968,-2368.659014,-1455.581446,9622.677246
776.084297,-1628.453072,-766.095498,9178.553681
776.084626,-518.144159,76.609550,8956.491898
776.084955,-148.041188,1149.143247,8660.409521
776.085285,74.020594,2145.067394,8438.347739
776.085614,296.082377,2604.724693,8956.491898
776.085943,296.082377,2451.505594,9400.615463
776.086272,0.000000,2451.505594,9770.718434
776.086602,-814.226536,1991.848295,9696.697840
776.086931,-1850.514855,919.314598,9400.615463
776.087260,-1924.535449,76.609550,9474.636058
776.087589,-2220.617826,0.000000,9474.636058
776.087919,-2442.679609,229.828649,9548.656652
776.088248,-2368.659014,0.000000,9326.594869
776.088577,-2294.638420,689.485948,9474.636058
776.088906,-1924.535449,1149.143247,9474.636058
776.089235,-1480.411884,1455.581446,9326.594869
776.089565,-888.247130,1149.143247,9474.636058
776.089894,0.000000,919.314598,9770.718434
776.090223,-222.061783,1149.143247,10362.883188
776.090552,-888.247130,612.876398,10584.944971
776.090882,-1998.556043,459.657299,10510.924376
776.091211,-3404.947333,229.828649,10881.027347
776.091540,-4145.153275,766.095498,10732.986159
776.091869,-3552.988522,536.266849,10362.883188
776.092198,-1850.514855,0.000000,9622.677246
776.092528,0.000000,0.000000,8290.306550
776.092857,1110.308913,76.609550,7328.038826
776.093186,2368.659014,1149.143247,7328.038826
776.093515,2812.782580,1532.190996,8142.265362
776.093845,2368.659014,2834.553343,9326.594869
776.094174,1184.329507,3983.696590,10436.903782
776.094503,0.000000,3140.991542,10658.965565
776.094832,-1258.350101,1685.410096,10214.842000
776.095161,-2146.597232,766.095498,9992.780217
776.095491,-2590.720797,-766.095498,9622.677246
776.095820,-2664.741391,-1608.800546,9622.677246
776.096149,-2516.700203,-1455.581446,9474.636058
776.096478,-2072.576638,-995.924147,8956.491898
776.096808,-1110.308913,-536.266849,8438.347739
776.097137,74.020594,153.219100,8438.347739
776.097466,814.226536,1532.190996,8660.409521
776.097795,740.205942,2298.286494,9104.533087
776.098125,370.102971,2911.162892,9474.636058
776.098454,296.082377,2757.943793,9622.677246
776.098783,-1332.370696,1838.629195,9844.739029
776.099112,-1628.453072,1608.800546,9992.780217
776.099441,-1850.514855,229.828649,9548.656652
776.099771,-1776.494261,-536.266849,9252.574275
776.100100,-1924.535449,-383.047749,8956.491898
776.100429,-1776.494261,-306.438199,9104.533087
776.100758,-1850.514855,306.438199,9178.553681
776.101088,-1850.514855,766.095498,9474.636058
776.101417,-1776.494261,1838.629195,9548.656652
776.101746,-1258.350101,2068.457845,9992.780217
776.102075,-888.247130,1532.190996,10288.862594
776.102404,-740.205942,1225.752797,10436.903782
776.102734,-1554.432478,1072.533697,10362.883188
776.103063,-2368.659014,612.876398,10732.986159
776.103392,-3552.988522,306.438199,11103.089130
776.103721,-4589.276840,766.095498,10955.047942
776.104051,-4145.153275,842.705048,9918.759623
776.104380,-2590.720797,0.000000,9400.615463
776.104709,-444.123565,-383.047749,8216.285956
776.105038,1258.350101,0.000000,7254.018232
776.105367,2368.659014,1072.533697,7402.059420
776.105697,2960.823768,1915.238745,7920.203579
776.106026,2516.700203,3217.601092,9178.553681
776.106355,1776.494261,3983.696590,10510.924376
776.106684,296.082377,3830.477490,10807.006753
776.107014,-740.205942,2604.724693,10807.006753
776.107343,-1776.494261,1149.143247,10140.821405
776.107672,-2738.761985,-153.219100,9770.718434
776.108001,-2886.803174,-1378.971896,9474.636058
776.108331,-2738.761985,-1762.019645,9326.594869
776.108660,-2146.597232,-1302.362347,9030.512492
776.108989,-1702.473667,-459.657299,8512.368333
776.109318,-296.082377,689.485948,8882.471304
776.109647,0.000000,1225.752797,8586.388927
776.109977,0.000000,1838.629195,8586.388927
776.110306,148.041188,2298.286494,9252.574275
776.110635,0.000000,2528.115143,9696.697840
776.110964,-814.226536,2068.457845,10066.800811
776.111294,-1406.391290,1302.362347,9992.780217
776.111623,-1702.473667,766.095498,9992.780217
776.111952,-1702.473667,0.000000,9696.697840
776.112281,-1406.391290,-383.047749,9770.718434
776.112610,-1554.432478,0.000000,9770.718434
776.112940,-1998.556043,383.047749,9400.615463
776.113269,-1776.494261,689.485948,9844.739029
776.113598,-1702.473667,1608.800546,9622.677246
776.113927,-1554.432478,1991.848295,9474.636058
776.114257,-1036.288319,1302.362347,9770.718434
776.114586,-888.247130,919.314598,9918.759623
776.114915,-1406.391290,842.705048,10584.944971
776.115244,-1776.494261,229.828649,10658.965565
776.115573,-2960.823768,0.000000,10807.006753
776.115903,-3997.112087,459.657299,10584.944971
776.116232,-4219.173869,383.047749,10214.842000
776.116561,-3108.864956,306.438199,9770.718434
776.116890,-1110.308913,229.828649,8512.368333
776.117220,666.185348,153.219100,7550.100608
776.117549,1850.514855,536.266849,7105.977043
776.117878,2812.782580,1378.971896,7254.018232
776.118207,2590.720797,2451.505594,8438.347739
776.118537,1924.535449,3370.820191,9770.718434
776.118866,370.102971,3983.696590,10288.862594
776.119195,-814.226536,3140.991542,10436.903782
776.119524,-2220.617826,1532.190996,10140.821405
776.119853,-2146.597232,383.047749,10288.862594
776.120183,-2368.659014,-1225.752797,9474.636058
776.120512,-2516.700203,-1532.190996,9400.615463
776.120841,-2072.576638,-1378.971896,8956.491898
776.121170,-1332.370696,-153.219100,8882.471304
776.121500,0.000000,76.609550,8512.368333
776.121829,740.205942,1532.190996,8512.368333
776.122158,1036.288319,2221.676944,8438.347739
776.122487,888.247130,3064.381992,9104.533087
776.122816,222.061783,3140.991542,9992.780217
776.123146,0.000000,3217.601092,10362.883188
776.123475,-814.226536,1991.848295,10362.883188
776.123804,-1480.411884,1302.362347,10140.821405
776.124133,-1480.411884,0.000000,9918.759623
776.124463,-1554.432478,-766.095498,9696.697840
776.124792,-1554.432478,-306.438199,9622.677246
776.125121,-1850.514855,0.000000,9178.553681
776.125450,-1628.453072,536.266849,9474.636058
776.125779,-1332.370696,1072.533697,9844.739029
776.126109,-1036.288319,1685.410096,9770.718434
776.126438,-814.226536,1532.190996,9918.759623
776.126767,-518.144159,1378.971896,9992.780217
776.127096,-518.144159,995.924147,10436.903782
776.127426,-1480.411884,459.657299,10658.965565
776.127755,-2516.700203,76.609550,10807.006753
776.128084,-3997.112087,76.609550,10732.986159
776.128413,-4219.173869,306.438199,10288.862594
776.128742,-3552.988522,383.047749,9548.656652
776.129072,-1850.514855,-153.219100,8586.388927
776.129401,-148.041188,-229.828649,7698.141797
776.129730,962.267725,0.000000,7105.977043
776.130059,1776.494261,1685.410096,7254.018232
776.130389,2516.700203,3140.991542,8438.347739
776.130718,1332.370696,3447.429741,9104.533087
776.131047,148.041188,3907.087040,10214.842000
