#time,accel_x,accel_y,accel_z
940.647527,-1036.288319,1302.362347,9400.615463
940.647856,-888.247130,842.705048,9474.636058
940.648186,-1110.308913,766.095498,9400.615463
940.648515,-1184.329507,842.705048,9548.656652
940.648845,-1036.288319,1149.143247,9474.636058
940.649175,-962.267725,1225.752797,9622.677246
940.649504,-962.267725,1072.533697,9400.615463
940.649834,-962.267725,995.924147,9400.615463
940.650163,-1184.329507,919.314598,9548.656652
940.650493,-1036.288319,766.095498,9474.636058
940.650822,-1110.308913,1149.143247,9548.656652
940.651152,-1036.288319,1378.971896,9252.574275
940.651482,-1110.308913,995.924147,9622.677246
940.651811,-1110.308913,995.924147,9474.636058
940.652141,-1258.350101,689.485948,9548.656652
940.652470,-1036.288319,995.924147,9548.656652
940.652800,-1332.370696,995.924147,9326.594869
940.653130,-1184.329507,689.485948,9474.636058
940.653459,-1184.329507,766.095498,9548.656652
940.653789,-1110.308913,919.314598,9770.718434
940.654118,-1036.288319,1149.143247,9548.656652
940.654448,-1036.288319,689.485948,9400.615463
940.654777,-1110.308913,612.876398,9474.636058
940.655107,-1110.308913,995.924147,9622.677246
940.655437,-1184.329507,919.314598,9474.636058
940.655766,-962.267725,842.705048,9548.656652
940.656096,-1036.288319,536.266849,9400.615463
940.656425,-962.267725,689.485948,9474.636058
940.656755,-962.267725,1149.143247,9622.677246
940.657084,-962.267725,919.314598,9696.697840
940.657414,-962.267725,689.485948,9474.636058
940.657744,-1036.288319,842.705048,9548.656652
940.658073,-962.267725,1378.971896,9474.636058
940.658403,-888.247130,995.924147,9400.615463
940.658732,-1036.288319,919.314598,9326.594869
940.659062,-1036.288319,919.314598,9474.636058
940.659392,-962.267725,1072.533697,9474.636058
940.659721,-666.185348,1532.190996,9474.636058
940.660051,-888.247130,612.876398,9474.636058
940.660380,-1184.329507,919.314598,9548.656652
940.660710,-888.247130,1072.533697,9474.636058
940.661039,-962.267725,995.924147,9548.656652
940.661369,-1110.308913,995.924147,9400.615463
940.661699,-814.226536,1149.143247,9548.656652
940.662028,-1036.288319,1149.143247,9474.636058
940.662358,-1036.288319,919.314598,9548.656652
940.662687,-1036.288319,995.924147,9622.677246
940.663017,-1110.308913,919.314598,9548.656652
940.663347,-962.267725,995.924147,9622.677246
940.663676,-1258.350101,766.095498,9548.656652
940.664006,-962.267725,919.314598,9696.697840
940.664335,-1110.308913,919.314598,9696.697840
940.664665,-962.267725,842.705048,9696.697840
940.664994,-1184.329507,1149.143247,9474.636058
940.665324,-888.247130,1149.143247,9474.636058
940.665654,-1036.288319,766.095498,9696.697840
940.665983,-1184.329507,995.924147,9474.636058
940.666313,-962.267725,995.924147,9474.636058
940.666642,-1036.288319,1072.533697,9474.636058
940.666972,-814.226536,1149.143247,9252.574275
940.667302,-1036.288319,919.314598,9622.677246
940.667631,-1184.329507,919.314598,9400.615463
940.667961,-1110.308913,919.314598,9622.677246
940.668290,-1184.329507,995.924147,9548.656652
940.668620,-1184.329507,1149.143247,8808.450710
940.668949,-444.123565,1072.533697,8882.471304
940.669279,222.061783,689.485948,9030.512492
940.669609,740.205942,689.485948,8882.471304
940.669938,888.247130,459.657299,9030.512492
940.670268,518.144159,1378.971896,9252.574275
940.670597,222.061783,229.828649,9474.636058
940.670927,-370.102971,1072.533697,10066.800811
940.671257,-666.185348,689.485948,10436.903782
940.671586,-740.205942,153.219100,10066.800811
940.671916,0.000000,229.828649,9548.656652
940.672245,444.123565,153.219100,9178.553681
940.672575,1184.329507,229.828649,9030.512492
940.672904,2442.679609,229.828649,8956.491898
940.673234,3182.885551,689.485948,8660.409521
940.673564,3701.029710,1608.800546,9178.553681
940.673893,3849.070898,1991.848295,9622.677246
940.674223,3701.029710,1762.019645,9770.718434
940.674552,3182.885551,1378.971896,9844.739029
940.674882,2368.659014,919.314598,10362.883188
940.675212,1776.494261,1072.533697,10658.965565
940.675541,1628.453072,306.438199,10658.965565
940.675871,1924.535449,153.219100,10214.842000
940.676200,2072.576638,0.000000,9770.718434
940.676530,2886.803174,0.000000,9474.636058
940.676859,3627.009116,76.609550,9326.594869
940.677189,3849.070898,1225.752797,9326.594869
940.677519,3997.112087,2451.505594,9548.656652
940.677848,3256.906145,2451.505594,9622.677246
940.678178,2294.638420,2604.724693,10288.862594
940.678507,444.123565,2911.162892,10436.903782
940.678837,-1406.391290,2374.896044,9918.759623
940.679167,-1998.556043,1762.019645,8882.471304
940.679496,-1110.308913,-306.438199,8216.285956
940.679826,444.123565,-1225.752797,7105.977043
940.680155,2294.638420,-1302.362347,6735.874072
940.680485,3701.029710,-459.657299,6883.915261
940.680814,4515.256246,919.314598,7550.100608
940.681144,3775.050304,2757.943793,8882.471304
940.681474,2738.761985,4366.744339,10732.986159
940.681803,1628.453072,4213.525239,11917.315666
940.682133,148.041188,3370.820191,12361.439231
940.682462,-666.185348,2145.067394,12361.439231
940.682792,-1332.370696,0.000000,11843.295072
940.683121,-1702.473667,-1532.190996,10807.006753
940.683451,-666.185348,-2528.115143,9770.718434
940.683781,296.082377,-2221.676944,8734.430116
940.684110,1850.514855,-1608.800546,8216.285956
940.684440,3552.988522,-459.657299,7179.997637
940.684769,4367.215058,612.876398,7328.038826
940.685099,4515.256246,1915.238745,7846.182985
940.685429,4367.215058,3217.601092,8734.430116
940.685758,3775.050304,4060.306139,9474.636058
940.686088,3404.947333,3677.258390,10214.842000
940.686417,2516.700203,2757.943793,11103.089130
940.686747,1110.308913,1608.800546,11547.212695
940.687076,0.000000,0.000000,10955.047942
940.687406,-1036.288319,-766.095498,10510.924376
940.687736,-962.267725,-1455.581446,10658.965565
940.688065,-444.123565,-1149.143247,10436.903782
940.688395,-296.082377,-919.314598,10362.883188
940.688724,222.061783,-229.828649,9844.739029
940.689054,1332.370696,76.609550,8956.491898
940.689384,2368.659014,76.609550,8586.388927
940.689713,3997.112087,383.047749,8512.368333
940.690043,4737.318029,0.000000,8142.265362
940.690372,4811.338623,612.876398,8660.409521
940.690702,4589.276840,612.876398,9178.553681
940.691031,3849.070898,1149.143247,9696.697840
940.691361,3034.844362,2221.676944,10288.862594
940.691691,2220.617826,2451.505594,10288.862594
940.692020,1776.494261,2298.286494,10214.842000
940.692350,2072.576638,2145.067394,9770.718434
940.692679,2072.576638,1455.581446,9252.574275
940.693009,2146.597232,1149.143247,8512.368333
940.693339,1554.432478,842.705048,8216.285956
940.693668,1554.432478,306.438199,8660.409521
940.693998,444.123565,689.485948,8808.450710
940.694327,-370.102971,919.314598,9326.594869
940.694657,-962.267725,536.266849,9770.718434
940.694986,-1554.432478,536.266849,9770.718434
940.695316,-1776.494261,76.609550,10362.883188
940.695646,-1554.432478,0.000000,10807.006753
940.695975,-2294.638420,383.047749,11251.130318
940.696305,-2220.617826,459.657299,10436.903782
940.696634,-1184.329507,995.924147,9326.594869
940.696964,592.164754,536.266849,9252.574275
940.697294,2442.679609,766.095498,9030.512492
940.697623,3997.112087,1838.629195,8660.409521
940.697953,4959.379811,2451.505594,8586.388927
940.698282,5551.544565,2834.553343,9178.553681
940.698612,4737.318029,4290.134789,9770.718434
940.698941,3552.988522,4903.011187,10955.047942
940.699271,1998.556043,4290.134789,11325.150913
940.699601,74.020594,2604.724693,11325.150913
940.699930,-2590.720797,1302.362347,11769.274478
940.700260,-5699.585753,-1302.362347,11473.192101
940.700589,-8364.327145,-1838.629195,10732.986159
940.700919,-9474.636058,-2451.505594,9474.636058
940.701249,-8068.244768,-2604.724693,7624.121203
940.701578,-4663.297435,-2681.334243,5625.565159
940.701908,148.041188,-2911.162892,4737.318029
940.702237,4737.318029,-1302.362347,3627.009116
940.702567,6513.812290,2451.505594,3849.070898
940.702896,6513.812290,4366.744339,5921.647536
940.703226,5625.565159,6052.154434,10066.800811
940.703556,2442.679609,7354.516781,13767.830521
940.703885,-1628.453072,8044.002729,16062.468941
940.704215,-5329.482782,5286.058936,17246.798449
940.704544,-7920.203579,2604.724693,15692.365970
940.704874,-8438.347739,-995.924147,12287.418637
940.705204,-7031.956449,-7124.688131,9622.677246
940.705533,-4367.215058,-7354.516781,7402.059420
940.705863,-1554.432478,-5209.449386,5551.544565
940.706192,2738.761985,-3983.696590,4737.318029
940.706522,6513.812290,-1302.362347,4737.318029
940.706851,8216.285956,1991.848295,5551.544565
940.707181,8734.430116,5056.230287,7328.038826
940.707511,7179.997637,6818.249932,10066.800811
940.707840,4219.173869,8656.879127,13175.665768
940.708170,-444.123565,7048.078582,15544.324782
940.708499,-6439.791695,1838.629195,16802.674883
940.708829,-10881.027347,0.000000,15766.386565
940.709158,-12657.521608,-3447.429741,12213.398043
940.709488,-10066.800811,-6665.030833,9474.636058
940.709818,-5477.523971,-7201.297681,6661.853478
940.710147,-592.164754,-7354.516781,4219.173869
940.710477,4145.153275,-3983.696590,1258.350101
940.710806,7031.956449,842.705048,518.144159
940.711136,8216.285956,4443.353888,3701.029710
940.711466,7476.080014,8120.612279,9400.615463
940.711795,3701.029710,9729.412825,14434.015869
940.712125,-1702.473667,9269.755526,17320.819043
940.712454,-7254.018232,6971.469032,17320.819043
940.712784,-11473.192101,3217.601092,15248.242405
940.713113,-11917.315666,-4290.134789,13619.789333
940.713443,-10807.006753,-10189.070123,10732.986159
940.713773,-7254.018232,-8963.317327,6217.729913
940.714102,-1776.494261,-8427.050478,3330.926739
940.714432,4515.256246,-6894.859482,2960.823768
940.714761,7772.162391,-1072.533697,3997.112087
940.715091,8512.368333,4596.572988,5033.400406
940.715421,8808.450710,7967.393179,7624.121203
940.715750,7402.059420,12027.699319,12953.603985
940.716080,2516.700203,13866.328514,16654.633695
940.716409,-3478.967927,9729.412825,17616.901420
940.716739,-9474.636058,3217.601092,16358.551318
940.717068,-12287.418637,-2145.067394,13841.851115
940.717398,-12065.356855,-5669.106685,10214.842000
940.717728,-9696.697840,-8733.488677,6587.832884
940.718057,-4737.318029,-10342.289223,5107.421000
940.718387,518.144159,-6818.249932,1332.370696
940.718717,5847.626942,-1685.410096,-1036.288319
940.719046,9622.677246,612.876398,518.144159
940.719376,10362.883188,5822.325785,6069.688724
940.719706,7772.162391,11951.089769,12879.583391
940.720035,2220.617826,13866.328514,18135.045579
940.720365,-3997.112087,13483.280765,19467.416275
940.720695,-9104.533087,6358.592633,19097.313304
940.721024,-11843.295072,-1378.971896,17394.839637
940.721354,-13471.748144,-5745.716235,12361.439231
940.721684,-10436.903782,-7814.174080,6735.874072
940.722013,-3330.926739,-10035.851024,2738.761985
940.722343,3552.988522,-10955.165621,518.144159
940.722673,8438.347739,-5592.497135,-0.000000
940.723002,10807.006753,-229.828649,962.267725
940.723332,10955.047942,7277.907231,4219.173869
940.723662,10066.800811,13942.938064,9696.697840
940.723991,6809.894666,13559.890315,17246.798449
940.724321,222.061783,13789.718964,19393.395680
940.724651,-6439.791695,9039.926876,18949.272115
940.724980,-10214.842000,0.000000,17468.860231
940.725310,-13101.645173,-2834.553343,14878.139434
940.725640,-12213.398043,-7354.516781,9844.739029
940.725969,-7328.038826,-12487.356617,4071.132681
940.726299,-1702.473667,-12334.137518,1554.432478
940.726629,4811.338623,-7584.345430,592.164754
940.726958,8512.368333,-842.705048,814.226536
940.727288,8216.285956,4519.963438,2738.761985
940.727618,6735.874072,11721.261119,7105.977043
940.727947,4737.318029,13330.061665,14508.036463
940.728277,518.144159,12947.013916,20059.581028
940.728607,-6143.709319,12640.575717,19689.478057
940.728936,-13027.624579,5056.230287,16358.551318
940.729266,-13397.727550,-3294.210641,13767.830521
940.729596,-10955.047942,-8963.317327,11325.150913
940.729925,-6069.688724,-11338.213370,7105.977043
940.730255,-740.205942,-10801.946522,2368.659014
940.730585,3034.844362,-8350.440928,1036.288319
940.730914,8586.388927,-1685.410096,740.205942
940.731244,11399.171507,3447.429741,2442.679609
940.731574,11473.192101,7660.954980,6883.915261
940.731903,8734.430116,14019.547613,12805.562797
940.732233,1628.453072,14938.862211,17690.922014
940.732563,-4071.132681,12947.013916,18801.230927
940.732892,-10510.924376,4903.011187,18135.045579
940.733222,-12879.583391,-2911.162892,15322.262999
940.733552,-12657.521608,-6818.249932,10807.006753
940.733881,-9178.553681,-12027.699319,6365.771101
940.734211,-3034.844362,-12257.527968,3330.926739
940.734541,1998.556043,-10342.289223,666.185348
940.734870,5995.668130,-4749.792088,-814.226536
940.735200,8660.409521,1378.971896,370.102971
940.735530,9178.553681,6588.421283,6365.771101
940.735859,8142.265362,12870.404366,12805.562797
940.736189,2368.659014,14172.766713,19393.395680
940.736519,-3923.091493,12563.966167,20207.622217
940.736848,-10436.903782,7660.954980,19023.292709
940.737178,-12953.603985,-995.924147,16802.674883
940.737508,-12065.356855,-6358.592633,13693.809927
940.737837,-8808.450710,-11721.261119,8068.244768
940.738167,-3552.988522,-14019.547613,3330.926739
940.738497,2072.576638,-12104.308868,518.144159
940.738826,7846.182985,-6894.859482,592.164754
940.739156,11547.212695,-153.219100,1332.370696
940.739486,11103.089130,5669.106685,4737.318029
940.739815,9178.553681,12793.794817,9770.718434
940.740145,5551.544565,15858.176809,16580.613101
940.740475,0.000000,14402.595362,19467.416275
940.740804,-8068.244768,8656.879127,18801.230927
940.741134,-13397.727550,1072.533697,16284.530724
940.741464,-14508.036463,-4213.525239,13323.706956
940.741793,-11547.212695,-9269.755526,9326.594869
940.742123,-5773.606348,-14019.547613,5625.565159
940.742453,-1332.370696,-12563.966167,1924.535449
940.742782,2590.720797,-5286.058936,-2220.617826
940.743112,7698.141797,-995.924147,-1258.350101
940.743441,10214.842000,2451.505594,4367.215058
940.743771,7846.182985,12487.356617,10584.944971
940.744101,2442.679609,16547.662757,16062.468941
940.744430,-3627.009116,14249.376263,19985.560434
940.744760,-9918.759623,13330.061665,19393.395680
940.745090,-13619.789333,5132.839837,16136.489536
940.745419,-11991.336260,-6818.249932,13545.768739
940.745749,-9400.615463,-10725.336972,9326.594869
940.746079,-4811.338623,-10572.117872,3701.029710
940.746408,962.267725,-13100.233016,1776.494261
940.746738,5477.523971,-7584.345430,1850.514855
940.747068,8586.388927,1225.752797,1554.432478
940.747397,11473.192101,5132.839837,4145.153275
940.747727,11399.171507,11338.213370,8364.327145
940.748057,7846.182985,18462.901502,14582.057057
940.748386,1924.535449,17160.539155,17838.963202
940.748716,-5551.544565,10648.727422,18579.169144
940.749046,-11991.336260,5822.325785,16062.468941
940.749375,-13619.789333,-1915.238745,13471.748144
940.749705,-11843.295072,-9882.631924,9622.677246
940.750035,-7698.141797,-13023.623466,6217.729913
940.750364,-2960.823768,-14096.157163,3775.050304
940.750694,1924.535449,-9499.584175,888.247130
940.751024,5921.647536,-1685.410096,666.185348
940.751353,8290.306550,3294.210641,2960.823768
940.751683,8068.244768,9806.022374,8216.285956
940.752013,6069.688724,15168.690860,13841.851115
940.752342,1480.411884,15704.957709,18579.169144
940.752672,-3330.926739,13253.452115,17764.942608
940.753002,-9326.594869,6128.763984,15396.283594
940.753331,-10807.006753,-3064.381992,13989.892304
940.753661,-9548.656652,-9422.974625,11843.295072
940.753991,-5921.647536,-10572.117872,7105.977043
940.754320,-296.082377,-12334.137518,3404.947333
940.754650,5033.400406,-11184.994271,1406.391290
940.754980,8290.306550,-3983.696590,1702.473667
940.755309,10658.965565,1455.581446,4663.297435
940.755639,10584.944971,7584.345430,9104.533087
940.755969,7550.100608,16854.100956,13693.809927
940.756298,1998.556043,18233.072852,16062.468941
940.756628,-2368.659014,11031.775171,16580.613101
940.756958,-8364.327145,2451.505594,16136.489536
940.757287,-11917.315666,-2451.505594,14137.933492
940.757617,-12583.501014,-6281.983084,10436.903782
940.757947,-10066.800811,-11491.432470,7179.997637
940.758276,-5329.482782,-14249.376263,5329.482782
940.758606,-814.226536,-12334.137518,1924.535449
940.758936,3552.988522,-5286.058936,-370.102971
940.759265,7624.121203,229.828649,1554.432478
940.759595,8808.450710,6741.640382,6957.935855
940.759925,7328.038826,13789.718964,13471.748144
940.760254,2516.700203,14555.814462,19689.478057
940.760584,-3849.070898,14172.766713,19985.560434
940.760914,-10584.944971,10035.851024,16728.654289
940.761243,-13101.645173,-612.876398,14508.036463
940.761573,-11843.295072,-8963.317327,12361.439231
940.761903,-8068.244768,-11797.870669,8290.306550
940.762232,-3404.947333,-14172.766713,2886.803174
940.762562,1184.329507,-13023.623466,962.267725
940.762892,5403.503377,-5975.544884,1628.453072
940.763221,8586.388927,919.314598,3849.070898
940.763551,9992.780217,6205.373534,7254.018232
940.763881,8512.368333,15092.081311,10732.986159
940.764210,4811.338623,18692.730151,15026.180623
940.764540,666.185348,14172.766713,17098.757260
940.764870,-6217.729913,7814.174080,16432.571912
940.765199,-11769.274478,76.609550,13693.809927
940.765529,-12879.583391,-4519.963438,10732.986159
940.765859,-11473.192101,-9652.803275,9104.533087
940.766188,-7476.080014,-12870.404366,7105.977043
940.766518,-3478.967927,-11568.042020,3256.906145
940.766848,1554.432478,-6128.763984,-74.020594
940.767177,7105.977043,-306.438199,1702.473667
940.767507,9474.636058,4903.011187,6661.853478
940.767837,7994.224174,13330.061665,12139.377449
940.768166,3256.906145,17160.539155,16802.674883
940.768496,-1998.556043,15628.348159,18135.045579
940.768826,-7624.121203,11491.432470,18061.024985
940.769155,-10510.924376,2528.115143,16062.468941
940.769485,-11325.150913,-5209.449386,11251.130318
940.769815,-9696.697840,-10648.727422,6069.688724
940.770144,-4663.297435,-13559.890315,1924.535449
940.770474,666.185348,-14249.376263,814.226536
940.770804,5255.462188,-8963.317327,2368.659014
940.771133,8068.244768,0.000000,3997.112087
940.771463,9770.718434,7277.907231,6439.791695
940.771793,10584.944971,13866.328514,10658.965565
940.772122,8586.388927,18156.463303,16728.654289
940.772452,3404.947333,17237.148705,17098.757260
940.772782,-3182.885551,11108.384721,17246.798449
940.773111,-8290.306550,1608.800546,16506.592507
940.773441,-11843.295072,-1762.019645,13175.665768
940.773771,-12213.398043,-7507.735880,8586.388927
940.774100,-8438.347739,-14402.595362,4145.153275
940.774430,-3478.967927,-15398.519510,2664.741391
940.774760,1998.556043,-10189.070123,1258.350101
940.775089,5921.647536,-2145.067394,1184.329507
940.775419,7698.141797,4136.915689,3552.988522
940.775749,6957.935855,11491.432470,8660.409521
940.776078,5699.585753,15398.519510,14359.995275
940.776408,814.226536,15704.957709,18949.272115
940.776738,-4515.256246,14096.157163,17394.839637
940.777067,-9992.780217,4443.353888,15914.427753
940.777397,-11843.295072,-3753.867940,13767.830521
940.777727,-11399.171507,-9652.803275,10658.965565
940.778056,-6957.935855,-13942.938064,6661.853478
940.778386,-2442.679609,-14019.547613,3330.926739
940.778716,1850.514855,-10801.946522,2664.741391
940.779045,6365.771101,-2834.553343,3701.029710
940.779375,9696.697840,3370.820191,4737.318029
940.779705,10732.986159,9729.412825,8956.491898
940.780034,9178.553681,16777.491406,13915.871710
940.780364,3627.009116,17773.415554,18283.086767
940.780693,-1702.473667,14019.547613,16950.716072
940.781023,-7994.224174,4903.011187,14211.954086
940.781353,-11103.089130,-3677.258390,11621.233289
940.781682,-11547.212695,-8120.612279,8882.471304
940.782012,-9252.574275,-14632.424012,6439.791695
940.782342,-6217.729913,-15628.348159,5625.565159
940.782671,-2738.761985,-10189.070123,2516.700203
940.783001,1628.453072,-3370.820191,740.205942
940.783331,6883.915261,0.000000,3034.844362
940.783660,8882.471304,6358.592633,8660.409521
940.783990,7772.162391,15092.081311,13989.892304
940.784320,3034.844362,17083.929605,18283.086767
940.784649,-2664.741391,14862.252661,18061.024985
940.784979,-8290.306550,9269.755526,15914.427753
940.785309,-10584.944971,-1838.629195,14285.974681
940.785638,-10658.965565,-8350.440928,11621.233289
940.785968,-9104.533087,-11568.042020,6587.832884
940.786298,-4367.215058,-14709.033562,3108.864956
940.786627,1110.308913,-13176.842566,1702.473667
940.786957,4367.215058,-5975.544884,2294.638420
940.787287,8438.347739,689.485948,3627.009116
940.787616,10140.821405,6128.763984,7476.080014
940.787946,8808.450710,15781.567259,11769.274478
940.788276,5403.503377,19458.825649,15988.448347
940.788605,444.123565,14479.204912,16506.592507
940.788935,-6217.729913,7737.564530,15544.324782
940.789265,-10436.903782,-229.828649,13619.789333
940.789594,-12509.480420,-4903.011187,11029.068536
940.789924,-11473.192101,-10342.289223,8512.368333
940.790254,-8068.244768,-15475.129060,6957.935855
940.790583,-4071.132681,-13100.233016,3627.009116
940.790913,814.226536,-4979.620737,592.164754
940.791243,6661.853478,-1149.143247,1850.514855
940.791572,9548.656652,3524.039291,7550.100608
940.791902,7476.080014,13713.109414,13249.686362
940.792232,2960.823768,18079.853753,16876.695478
940.792561,-1554.432478,17083.929605,17838.963202
940.792891,-7031.956449,12947.013916,16210.510130
940.793221,-9770.718434,2068.457845,14063.912898
940.793550,-10066.800811,-7967.393179,11695.253884
940.793880,-9030.512492,-11184.994271,7179.997637
940.794210,-5107.421000,-12563.966167,3701.029710
940.794539,-888.247130,-13483.280765,2886.803174
940.794869,3330.926739,-6971.469032,2072.576638
940.795199,7328.038826,-842.705048,3330.926739
940.795528,10732.986159,3830.477490,6883.915261
940.795858,10955.047942,14785.643111,10807.006753
940.796188,7328.038826,21144.235745,14878.139434
940.796517,2146.597232,17160.539155,15692.365970
940.796847,-4219.173869,9652.803275,15544.324782
940.797177,-9696.697840,2451.505594,14285.974681
940.797506,-12139.377449,-3294.210641,12065.356855
940.797836,-12583.501014,-8810.098227,9326.594869
940.798166,-9548.656652,-12947.013916,6439.791695
940.798495,-4589.276840,-15398.519510,3256.906145
940.798825,1110.308913,-11108.384721,1480.411884
940.799155,6143.709319,-2451.505594,1776.494261
940.799484,8734.430116,4213.525239,5033.400406
940.799814,7994.224174,12487.356617,9548.656652
940.800144,6291.750507,17773.415554,14285.974681
940.800473,1850.514855,16624.272307,16728.654289
940.800803,-2812.782580,12870.404366,16654.633695
940.801133,-8512.368333,5209.449386,15396.283594
940.801462,-10658.965565,-2987.772442,13471.748144
940.801792,-9770.718434,-9422.974625,9548.656652
940.802122,-6217.729913,-13942.938064,5403.503377
940.802451,-1628.453072,-15321.909960,3256.906145
940.802781,3108.864956,-11031.775171,3034.844362
940.803111,6661.853478,-3677.258390,4515.256246
940.803440,8808.450710,2987.772442,7254.018232
940.803770,8808.450710,11031.775171,10807.006753
940.804100,6957.935855,18156.463303,13989.892304
940.804429,2738.761985,17466.977354,15914.427753
940.804759,-1628.453072,10878.556072,15914.427753
940.805089,-7105.977043,2604.724693,14285.974681
940.805418,-11473.192101,-2604.724693,11547.212695
940.805748,-11991.336260,-7431.126331,8512.368333
940.806078,-9622.677246,-13023.623466,7105.977043
940.806407,-5551.544565,-14479.204912,5921.647536
940.806737,-962.267725,-10648.727422,2812.782580
940.807067,3478.967927,-3907.087040,740.205942
940.807396,7698.141797,919.314598,2812.782580
940.807726,8438.347739,8273.831378,8956.491898
940.808056,6735.874072,14555.814462,14656.077652
940.808385,1036.288319,17313.758255,18727.210333
940.808715,-4885.359217,15245.300410,16802.674883
940.809045,-9104.533087,6358.592633,16432.571912
940.809374,-10584.944971,-3524.039291,15100.201217
940.809704,-10807.006753,-7967.393179,10955.047942
940.810034,-7254.018232,-12257.527968,4959.379811
940.810363,-2146.597232,-15321.909960,2072.576638
940.810693,2664.741391,-11568.042020,740.205942
940.811023,6587.832884,-5515.887586,1258.350101
940.811352,9104.533087,0.000000,5181.441594
940.811682,8660.409521,9116.536426,9252.574275
940.812012,6957.935855,19152.387450,13397.727550
940.812341,3182.885551,18233.072852,16284.530724
940.812671,-1998.556043,12563.966167,15840.407159
940.813001,-7476.080014,4979.620737,14285.974681
940.813330,-11177.109724,-2681.334243,12731.542202
940.813660,-12361.439231,-6741.640382,11029.068536
940.813990,-11621.233289,-10878.556072,9178.553681
940.814319,-7402.059420,-13559.890315,6365.771101
940.814649,-2368.659014,-12027.699319,3330.926739
940.814979,3478.967927,-4749.792088,1258.350101
940.815308,8956.491898,459.657299,2664.741391
940.815638,10807.006753,5975.544884,7550.100608
940.815968,8586.388927,15245.300410,12805.562797
940.816297,2368.659014,18003.244203,15840.407159
940.816627,-3330.926739,14402.595362,17690.922014
940.816956,-9326.594869,8427.050478,18431.127956
940.817286,-13619.789333,766.095498,16062.468941
940.817615,-13471.748144,-6665.030833,11399.171507
940.817944,-9030.512492,-13406.671215,4959.379811
940.818274,-2812.782580,-15551.738609,2368.659014
940.818603,3034.844362,-14325.985813,888.247130
940.818933,7179.997637,-7584.345430,1110.308913
940.819262,10066.800811,1302.362347,3701.029710
940.819592,10955.047942,10725.336972,8216.285956
940.819921,10436.903782,18309.682402,13471.748144
940.820251,6365.771101,20378.140247,16580.613101
940.820580,888.247130,17007.320056,16506.592507
940.820909,-5107.421000,7354.516781,15470.304188
940.821239,-9474.636058,-689.485948,15100.201217
940.821568,-12879.583391,-4136.915689,11991.336260
940.821898,-12583.501014,-9882.631924,7624.121203
940.822227,-7994.224174,-15398.519510,4367.215058
940.822557,-2442.679609,-14632.424012,2368.659014
940.822886,3404.947333,-7431.126331,962.267725
940.823216,7772.162391,-689.485948,1258.350101
940.823545,8956.491898,4979.620737,4885.359217
940.823875,7105.977043,14632.424012,10140.821405
940.824204,3997.112087,17620.196454,15618.345376
940.824533,-814.226536,15858.176809,17172.777854
940.824863,-6217.729913,10342.289223,17172.777854
940.825192,-9992.780217,1149.143247,16580.613101
940.825522,-11769.274478,-4290.134789,13767.830521
940.825851,-9696.697840,-9959.241474,9252.574275
940.826181,-4071.132681,-14096.157163,5625.565159
940.826510,666.185348,-12640.575717,3627.009116
940.826840,5773.606348,-7354.516781,1998.556043
940.827169,9622.677246,-919.314598,3330.926739
940.827498,11769.274478,5209.449386,6735.874072
940.827828,9622.677246,14862.252661,10955.047942
940.828157,5329.482782,18999.168350,14878.139434
940.828487,592.164754,15781.567259,16136.489536
940.828816,-4367.215058,8503.660028,15766.386565
940.829146,-9326.594869,536.266849,14285.974681
940.829475,-12805.562797,-4596.572988,11399.171507
940.829805,-12287.418637,-10342.289223,8586.388927
940.830134,-7920.203579,-14709.033562,6291.750507
940.830463,-3701.029710,-13406.671215,3849.070898
940.830793,1110.308913,-7660.954980,370.102971
940.831122,5995.668130,-2757.943793,1184.329507
940.831452,8808.450710,2145.067394,5033.400406
940.831781,7254.018232,11644.651570,10362.883188
940.832111,4219.173869,16394.443657,15544.324782
940.832440,-370.102971,16471.053207,18653.189738
940.832770,-5255.462188,11951.089769,17764.942608
940.833099,-9918.759623,2834.553343,16136.489536
940.833429,-11177.109724,-5056.230287,13027.624579
940.833758,-9548.656652,-9499.584175,8586.388927
940.834087,-5477.523971,-13100.233016,4737.318029
940.834417,-1258.350101,-14249.376263,3627.009116
940.834746,3627.009116,-8963.317327,2738.761985
940.835076,7179.997637,-2604.724693,2442.679609
940.835405,10288.862594,2374.896044,4145.153275
940.835735,9918.759623,11261.603821,8290.306550
940.836064,7698.141797,17390.367805,13693.809927
940.836394,2664.741391,15858.176809,17246.798449
940.836723,-3849.070898,11338.213370,16580.613101
940.837052,-10140.821405,4596.572988,14508.036463
940.837382,-12805.562797,-3217.601092,12879.583391
940.837711,-12805.562797,-9193.145976,11251.130318
940.838041,-10436.903782,-12410.747068,8586.388927
940.838370,-5921.647536,-13789.718964,5329.482782
940.838700,-592.164754,-9959.241474,1480.411884
940.839029,5033.400406,-3217.601092,-0.000000
940.839359,8882.471304,842.705048,3404.947333
940.839688,8956.491898,7814.174080,8808.450710
940.840018,6439.791695,15475.129060,13841.851115
940.840347,888.247130,17160.539155,17468.860231
940.840676,-4515.256246,14632.424012,17098.757260
940.841006,-9400.615463,6818.249932,16506.592507
940.841335,-10807.006753,-3217.601092,14952.160028
940.841665,-9474.636058,-8580.269578,10732.986159
940.841994,-6809.894666,-12027.699319,5773.606348
940.842324,-1924.535449,-14172.766713,3404.947333
940.842653,2664.741391,-10418.898773,2664.741391
940.842983,6291.750507,-3753.867940,3182.885551
940.843312,9474.636058,2298.286494,5477.523971
940.843641,10510.924376,9882.631924,8808.450710
940.843971,8882.471304,18616.120601,12139.377449
940.844300,4219.173869,18386.291952,15396.283594
940.844630,-1554.432478,12487.356617,15840.407159
940.844959,-7476.080014,5975.544884,15322.262999
940.845289,-11991.336260,-1149.143247,13471.748144
940.845618,-13397.727550,-5898.935335,10510.924376
940.845948,-11399.171507,-11031.775171,7105.977043
940.846277,-6883.915261,-14785.643111,4441.235652
940.846606,-370.102971,-12717.185267,1998.556043
940.846936,4663.297435,-5669.106685,888.247130
940.847265,8364.327145,1608.800546,2368.659014
940.847595,9252.574275,8350.440928,6513.812290
940.847924,8068.244768,15092.081311,11917.315666
940.848254,4293.194464,17313.758255,16580.613101
940.848583,-1036.288319,15781.567259,16950.716072
940.848913,-6735.874072,10112.460574,15766.386565
940.849242,-9992.780217,-842.705048,15026.180623
940.849572,-10732.986159,-6665.030833,12731.542202
940.849901,-8734.430116,-10572.117872,8290.306550
940.850230,-3849.070898,-14402.595362,4515.256246
940.850560,1110.308913,-13023.623466,2664.741391
940.850889,5477.523971,-6052.154434,2516.700203
940.851219,9104.533087,76.609550,3997.112087
940.851548,10214.842000,5209.449386,7476.080014
940.851878,8512.368333,16164.615008,11473.192101
940.852207,4589.276840,19995.092498,14508.036463
940.852537,148.041188,14325.985813,16062.468941
940.852866,-5995.668130,7277.907231,15692.365970
940.853195,-11473.192101,229.828649,13915.871710
940.853525,-13545.768739,-5745.716235,11399.171507
940.853854,-12583.501014,-10189.070123,8438.347739
940.854184,-8290.306550,-13789.718964,6365.771101
940.854513,-3182.885551,-14019.547613,3775.050304
940.854843,1628.453072,-8427.050478,1332.370696
940.855172,6439.791695,-1225.752797,2294.638420
940.855502,8882.471304,4979.620737,6291.750507
940.855831,7772.162391,13176.842566,11917.315666
940.856161,4219.173869,17850.025103,16728.654289
940.856490,-148.041188,16164.615008,17246.798449
940.856819,-5255.462188,9806.022374,15914.427753
940.857149,-7772.162391,459.657299,15100.201217
940.857478,-9548.656652,-5592.497135,12509.480420
940.857808,-9178.553681,-10189.070123,8364.327145
940.858137,-5255.462188,-12793.794817,4219.173869
940.858467,148.041188,-13713.109414,2146.597232
940.858796,4959.379811,-9193.145976,2072.576638
940.859126,8068.244768,-2145.067394,3627.009116
940.859455,9622.677246,4290.134789,6661.853478
940.859784,7994.224174,14096.157163,10436.903782
940.860114,5329.482782,18845.949251,14434.015869
940.860443,1110.308913,16317.834107,16358.551318
940.860773,-4293.194464,8810.098227,15618.345376
940.861102,-9696.697840,612.876398,14211.954086
940.861432,-12435.459826,-4749.792088,12139.377449
940.861761,-12731.542202,-9499.584175,9474.636058
940.862091,-9622.677246,-12640.575717,6661.853478
940.862420,-4885.359217,-14096.157163,4293.194464
940.862749,1406.391290,-10342.289223,2442.679609
940.863079,6513.812290,-3140.991542,2516.700203
940.863408,9326.594869,3600.648841,4219.173869
940.863738,8586.388927,10878.556072,9178.553681
940.864067,5477.523971,16317.834107,14137.933492
940.864397,-370.102971,17543.586904,17838.963202
940.864726,-5107.421000,12487.356617,17320.819043
940.865056,-9548.656652,3447.429741,15544.324782
940.865385,-10362.883188,-4443.353888,12731.542202
940.865715,-9400.615463,-10418.898773,9474.636058
940.866044,-5995.668130,-15321.909960,6143.709319
940.866373,-1776.494261,-15015.471761,3627.009116
940.866703,3034.844362,-9499.584175,2220.617826
940.867032,8142.265362,-3294.210641,4219.173869
940.867362,11029.068536,3907.087040,7402.059420
940.867691,10732.986159,13406.671215,10362.883188
940.868021,8956.491898,18769.339701,13397.727550
940.868350,3849.070898,18003.244203,15396.283594
940.868680,-1998.556043,12870.404366,15988.448347
940.869009,-8290.306550,4903.011187,14434.015869
940.869338,-12731.542202,-2298.286494,12953.603985
940.869668,-14063.912898,-8197.221829,9400.615463
940.869997,-11473.192101,-13406.671215,6143.709319
940.870327,-6587.832884,-15858.176809,4367.215058
940.870656,-1480.411884,-11338.213370,814.226536
940.870986,4293.194464,-3217.601092,-0.000000
940.871315,8438.347739,1225.752797,2590.720797
940.871645,9252.574275,9193.145976,8068.244768
940.871974,6513.812290,17160.539155,14434.015869
940.872304,1776.494261,19075.777900,17838.963202
940.872633,-3997.112087,17313.758255,18727.210333
940.872962,-7698.141797,8810.098227,16728.654289
940.873292,-8956.491898,-1915.238745,14211.954086
940.873621,-8586.388927,-9422.974625,10510.924376
940.873951,-7031.956449,-13023.623466,6069.688724
940.874280,-3108.864956,-13942.938064,3997.112087
940.874610,1554.432478,-11184.994271,2442.679609
940.874939,5921.647536,-4213.525239,2590.720797
940.875269,9326.594869,1378.971896,4885.359217
940.875598,10584.944971,8350.440928,8142.265362
940.875927,9252.574275,18003.244203,11621.233289
940.876257,5329.482782,19458.825649,15396.283594
940.876586,-222.061783,14019.547613,16358.551318
940.876916,-7328.038826,6818.249932,15396.283594
940.877245,-12065.356855,-306.438199,13693.809927
940.877575,-13323.706956,-6665.030833,10732.986159
940.877904,-11621.233289,-12180.918418,7846.182985
940.878234,-7105.977043,-14862.252661,5477.523971
940.878563,-2368.659014,-14096.157163,2442.679609
940.878892,2738.761985,-7354.516781,962.267725
940.879222,7179.997637,-306.438199,3108.864956
940.879551,8438.347739,6128.763984,8364.327145
940.879881,7105.977043,14479.204912,13397.727550
940.880210,3404.947333,18309.682402,16580.613101
940.880540,0.000000,16317.834107,17024.736666
940.880869,-4367.215058,8427.050478,16136.489536
940.881199,-7550.100608,-1149.143247,14211.954086
940.881528,-9696.697840,-6894.859482,11029.068536
940.881858,-8734.430116,-11951.089769,7920.203579
940.882187,-5255.462188,-14249.376263,5329.482782
940.882516,-1036.288319,-12870.404366,3330.926739
940.882846,4071.132681,-8580.269578,2368.659014
940.883175,7920.203579,-2068.457845,3627.009116
940.883505,10140.821405,4903.011187,7105.977043
940.883834,9252.574275,14555.814462,10807.006753
940.884164,5995.668130,18692.730151,15470.304188
940.884493,592.164754,16547.662757,16580.613101
940.884823,-5921.647536,8963.317327,15470.304188
940.885152,-10510.924376,383.047749,14359.995275
940.885481,-12731.542202,-5132.839837,11695.253884
940.885811,-12657.521608,-10342.289223,8808.450710
940.886140,-9400.615463,-14938.862211,6513.812290
940.886470,-5551.544565,-14479.204912,3182.885551
940.886799,0.000000,-8273.831378,296.082377
940.887129,5181.441594,-2911.162892,1036.288319
940.887458,9030.512492,1685.410096,5033.400406
940.887788,7920.203579,11568.042020,11029.068536
940.888117,5033.400406,16471.053207,16580.613101
940.888447,-518.144159,17543.586904,18875.251521
940.888776,-5329.482782,14402.595362,16802.674883
940.889105,-8882.471304,3907.087040,15026.180623
940.889435,-8882.471304,-5669.106685,12731.542202
940.889764,-8586.388927,-10495.508323,8808.450710
940.890094,-5477.523971,-13253.452115,5773.606348
940.890423,-2146.597232,-13406.671215,3701.029710
940.890753,2072.576638,-8656.879127,2664.741391
940.891082,6217.729913,-2145.067394,3997.112087
940.891412,9770.718434,2604.724693,6587.832884
940.891741,9548.656652,12257.527968,9178.553681
940.892070,7254.018232,18999.168350,13249.686362
940.892400,2516.700203,17850.025103,15174.221811
940.892729,-2960.823768,11797.870669,14952.160028
940.893059,-8586.388927,3064.381992,14063.912898
940.893388,-11325.150913,-2987.772442,12731.542202
940.893718,-12139.377449,-7507.735880,9844.739029
940.894047,-10658.965565,-11414.822920,6809.894666
940.894377,-6291.750507,-14172.766713,4219.173869
940.894706,0.000000,-10801.946522,1998.556043
940.895035,5699.585753,-3600.648841,1850.514855
940.895365,9030.512492,2068.457845,4367.215058
940.895694,9400.615463,10035.851024,8512.368333
940.896024,7254.018232,17160.539155,13249.686362
940.896353,2590.720797,18845.949251,16136.489536
940.896683,-1702.473667,14019.547613,16580.613101
940.897012,-6143.709319,5592.497135,16358.551318
940.897342,-9844.739029,-919.314598,14359.995275
940.897671,-9918.759623,-6894.859482,10807.006753
940.898001,-7402.059420,-13253.452115,6439.791695
940.898330,-3256.906145,-14172.766713,3775.050304
940.898659,1924.535449,-10265.679673,1036.288319
940.898989,6513.812290,-5439.278036,1924.535449
940.899318,9474.636058,842.705048,5181.441594
940.899648,9030.512492,9959.241474,8956.491898
940.899977,7179.997637,17390.367805,12583.501014
940.900307,3034.844362,18616.120601,15988.448347
940.900636,-2738.761985,14709.033562,16358.551318
940.900966,-8216.285956,5745.716235,16358.551318
940.901295,-12287.418637,-2987.772442,14434.015869
940.901624,-13323.706956,-6128.763984,11325.150913
940.901954,-11399.171507,-11261.603821,7179.997637
940.902283,-6513.812290,-15321.909960,3997.112087
940.902613,-1406.391290,-13483.280765,2442.679609
940.902942,3775.050304,-6665.030833,2442.679609
940.903272,7254.018232,0.000000,4515.256246
940.903601,8216.285956,7967.393179,7994.224174
940.903931,7328.038826,17313.758255,12139.377449
940.904260,4145.153275,17313.758255,14878.139434
940.904590,740.205942,13176.842566,15914.427753
940.904919,-4663.297435,6358.592633,16580.613101
940.905248,-8734.430116,-459.657299,15322.262999
940.905578,-10955.047942,-3677.258390,11325.150913
940.905907,-9252.574275,-10189.070123,7846.182985
940.906237,-4071.132681,-14325.985813,4515.256246
940.906566,1036.288319,-13406.671215,1850.514855
940.906896,5847.626942,-8350.440928,1776.494261
940.907225,8734.430116,-1149.143247,4367.215058
940.907555,8438.347739,7814.174080,8882.471304
940.907884,6143.709319,16471.053207,12509.480420
940.908213,2516.700203,17466.977354,14582.057057
940.908543,-1258.350101,12640.575717,15840.407159
940.908872,-5995.668130,4903.011187,17320.819043
940.909202,-9918.759623,-1532.190996,16062.468941
940.909531,-13027.624579,-3600.648841,11843.295072
940.909861,-12213.398043,-9729.412825,6661.853478
940.910190,-6661.853478,-13330.061665,3330.926739
940.910520,-592.164754,-13636.499864,1184.329507
940.910849,5033.400406,-9422.974625,1850.514855
940.911178,7328.038826,-1608.800546,3404.947333
940.911508,6735.874072,8427.050478,7031.956449
940.911837,5181.441594,15092.081311,11029.068536
940.912167,2960.823768,16164.615008,16580.613101
940.912496,-962.267725,15628.348159,17838.963202
940.912826,-5255.462188,9039.926876,15396.283594
940.913155,-8586.388927,-995.924147,14063.912898
940.913485,-10732.986159,-5132.839837,12509.480420
940.913814,-10362.883188,-10035.851024,9844.739029
940.914144,-6365.771101,-13636.499864,6661.853478
940.914473,-1702.473667,-12257.527968,3182.885551
940.914802,3849.070898,-6511.811733,2442.679609
940.915132,9030.512492,-1991.848295,3775.050304
940.915461,10807.006753,4290.134789,6439.791695
940.915791,9178.553681,13559.890315,9770.718434
940.916120,5699.585753,17466.977354,13175.665768
940.916450,592.164754,15934.786358,14952.160028
940.916779,-5033.400406,8810.098227,17172.777854
940.917109,-10732.986159,1225.752797,16432.571912
940.917438,-14285.974681,-2911.162892,12509.480420
940.917767,-13323.706956,-7660.954980,8216.285956
940.918097,-8290.306550,-12410.747068,5921.647536
940.918426,-2886.803174,-13866.328514,3775.050304
940.918756,1850.514855,-9806.022374,2442.679609
940.919085,5551.544565,-2221.676944,2664.741391
940.919415,8142.265362,7048.078582,4441.235652
940.919744,8216.285956,13559.890315,8956.491898
940.920074,6883.915261,15551.738609,14952.160028
940.920403,1184.329507,17007.320056,17246.798449
940.920733,-3108.864956,12487.356617,16210.510130
940.921062,-7772.162391,3294.210641,15396.283594
940.921392,-10140.821405,-2528.115143,13175.665768
940.921721,-10584.944971,-7814.174080,10288.862594
940.922051,-7179.997637,-14019.547613,5329.482782
940.922380,-1998.556043,-13866.328514,2886.803174
940.922710,3627.009116,-7967.393179,1036.288319
940.923039,8808.450710,-2834.553343,2146.597232
940.923369,10807.006753,1685.410096,4663.297435
940.923699,9400.615463,10955.165621,9178.553681
940.924028,6587.832884,17926.634653,13323.706956
940.924358,2146.597232,18079.853753,16654.633695
940.924687,-3701.029710,11644.651570,18431.127956
940.925017,-10362.883188,3983.696590,17246.798449
940.925346,-13841.851115,-1915.238745,14359.995275
940.925676,-12509.480420,-7277.907231,9326.594869
940.926005,-8068.244768,-13023.623466,5995.668130
940.926335,-3775.050304,-14709.033562,2664.741391
940.926664,1184.329507,-11797.870669,1110.308913
940.926994,5847.626942,-5439.278036,1702.473667
940.927323,8142.265362,4213.525239,4145.153275
940.927653,8068.244768,11797.870669,8216.285956
940.927982,6957.935855,15245.300410,13915.871710
940.928312,2294.638420,16854.100956,17542.880825
940.928641,-3478.967927,13789.718964,16506.592507
940.928971,-7698.141797,4290.134789,16432.571912
940.929300,-11251.130318,-2451.505594,15026.180623
940.929630,-12361.439231,-5669.106685,12435.459826
940.929959,-9474.636058,-13176.842566,7994.224174
940.930289,-4293.194464,-15092.081311,3923.091493
940.930618,1850.514855,-10342.289223,888.247130
940.930948,7254.018232,-6052.154434,1110.308913
940.931277,10510.924376,-919.314598,4441.235652
940.931607,9400.615463,9039.926876,7920.203579
940.931936,7994.224174,17160.539155,11991.336260
940.932266,4145.153275,17237.148705,15470.304188
940.932595,-1332.370696,13253.452115,18061.024985
940.932925,-7476.080014,6052.154434,18135.045579
940.933254,-11843.295072,-1915.238745,15248.242405
940.933584,-12657.521608,-5515.887586,10881.027347
940.933913,-9992.780217,-10955.165621,6439.791695
940.934243,-5921.647536,-14785.643111,3034.844362
940.934572,-666.185348,-13866.328514,1554.432478
940.934902,4515.256246,-9116.536426,2590.720797
940.935231,7105.977043,1455.581446,3330.926739
940.935561,6883.915261,9806.022374,6143.709319
940.935890,6513.812290,14325.985813,11695.253884
940.936220,3478.967927,15934.786358,17024.736666
940.936549,-1332.370696,15551.738609,17246.798449
940.936879,-6365.771101,7354.516781,16210.510130
940.937208,-9844.739029,-1072.533697,14952.160028
940.937538,-12731.542202,-4136.915689,12213.398043
940.937867,-11103.089130,-11031.775171,9252.574275
940.938197,-5847.626942,-15168.690860,5699.585753
940.938526,-666.185348,-11031.775171,2368.659014
940.938856,5181.441594,-6511.811733,888.247130
940.939185,9844.739029,-2604.724693,2886.803174
940.939515,10732.986159,5132.839837,6513.812290
940.939844,8512.368333,14785.643111,10510.924376
940.940174,5107.421000,17620.196454,15174.221811
940.940503,0.000000,16700.881856,16950.716072
940.940833,-6291.750507,10189.070123,17912.983796
940.941162,-10658.965565,229.828649,16136.489536
940.941492,-13027.624579,-4366.744339,12509.480420
940.941821,-11843.295072,-8886.707777,7920.203579
940.942151,-6883.915261,-13942.938064,4737.318029
940.942480,-2664.741391,-14249.376263,2442.679609
940.942810,2738.761985,-8733.488677,2072.576638
940.943140,6587.832884,-842.705048,2738.761985
940.943469,8586.388927,6511.811733,4737.318029
940.943799,7772.162391,13483.280765,9326.594869
940.944128,5255.462188,16241.224558,15470.304188
940.944458,-370.102971,17160.539155,17468.860231
940.944787,-5107.421000,11721.261119,16580.613101
940.945117,-9474.636058,2298.286494,15100.201217
940.945446,-11473.192101,-3064.381992,12509.480420
940.945776,-10807.006753,-9269.755526,9474.636058
940.946105,-6069.688724,-14019.547613,5625.565159
940.946435,-1258.350101,-12563.966167,2146.597232
940.946764,4145.153275,-7431.126331,1184.329507
940.947094,9474.636058,-2834.553343,3034.844362
940.947423,11325.150913,3830.477490,5847.626942
940.947753,8882.471304,14325.985813,9178.553681
940.948082,6069.688724,18692.730151,12657.521608
940.948412,1776.494261,16624.272307,17098.757260
940.948741,-3182.885551,10035.851024,19689.478057
940.949071,-9770.718434,3064.381992,18505.148550
940.949400,-14063.912898,-1532.190996,12953.603985
940.949730,-11843.295072,-7201.297681,7624.121203
940.950059,-7031.956449,-13023.623466,3330.926739
940.950389,-888.247130,-15092.081311,148.041188
940.950718,4737.318029,-12640.575717,-444.123565
940.951048,7624.121203,-4903.011187,2738.761985
940.951377,7105.977043,7431.126331,6069.688724
940.951707,5403.503377,15628.348159,10362.883188
940.952036,4293.194464,16547.662757,14508.036463
940.952366,296.082377,17083.929605,17246.798449
940.952695,-3108.864956,10955.165621,16728.654289
940.953025,-6957.935855,306.438199,16580.613101
940.953354,-11917.315666,-3140.991542,14285.974681
940.953684,-13249.686362,-5745.716235,10955.047942
940.954013,-9622.677246,-13789.718964,6291.750507
940.954343,-3108.864956,-15245.300410,3034.844362
940.954672,4145.153275,-9959.241474,-148.041188
940.955002,9474.636058,-6511.811733,2072.576638
940.955331,11399.171507,689.485948,5329.482782
940.955661,8882.471304,12563.966167,9918.759623
940.955990,6513.812290,17850.025103,13397.727550
940.956320,2960.823768,16471.053207,17172.777854
940.956649,-1850.514855,12487.356617,19245.354492
940.956979,-6809.894666,4290.134789,18505.148550
940.957308,-11177.109724,-2987.772442,13915.871710
940.957638,-12361.439231,-6205.373534,8216.285956
940.957967,-8808.450710,-11874.480219,3775.050304
940.958297,-3330.926739,-15321.909960,1332.370696
940.958626,962.267725,-13942.938064,1554.432478
940.958956,3701.029710,-6971.469032,4071.132681
940.959285,4219.173869,4213.525239,5847.626942
940.959615,3849.070898,11874.480219,8808.450710
940.959944,4515.256246,14709.033562,13767.830521
940.960274,1998.556043,15781.567259,16802.674883
940.960603,-888.247130,12870.404366,14508.036463
940.960933,-4441.235652,1838.629195,14582.057057
940.961262,-9104.533087,-3447.429741,14730.098246
940.961592,-12805.562797,-2987.772442,12361.439231
940.961921,-11251.130318,-10112.460574,7920.203579
940.962251,-5625.565159,-14096.157163,4515.256246
940.962581,962.267725,-9882.631924,1554.432478
940.962910,8438.347739,-7431.126331,1850.514855
940.963240,12065.356855,-2987.772442,3701.029710
940.963569,10436.903782,8580.269578,7105.977043
940.963899,6661.853478,17926.634653,11399.171507
940.964228,3404.947333,17390.367805,16210.510130
940.964558,-1554.432478,14172.766713,19171.333898
940.964887,-7105.977043,8350.440928,18283.086767
940.965217,-11103.089130,-1302.362347,13841.851115
940.965546,-11695.253884,-5898.935335,8512.368333
940.965876,-9622.677246,-10572.117872,5329.482782
940.966205,-5403.503377,-15321.909960,3404.947333
940.966535,-1998.556043,-14096.157163,3108.864956
940.966864,1702.473667,-7124.688131,4663.297435
940.967194,4811.338623,2604.724693,5847.626942
940.967523,5773.606348,10189.070123,7772.162391
940.967853,6365.771101,15015.471761,11399.171507
940.968182,4367.215058,16394.443657,14730.098246
940.968512,740.205942,14938.862211,14804.118840
940.968841,-3256.906145,7124.688131,15026.180623
940.969171,-7994.224174,-536.266849,15470.304188
940.969500,-13101.645173,-2221.676944,12657.521608
940.969830,-12361.439231,-9039.926876,9030.512492
940.970159,-6587.832884,-14709.033562,5699.585753
940.970489,-370.102971,-11414.822920,2146.597232
940.970818,6439.791695,-7660.954980,888.247130
940.971148,11029.068536,-3294.210641,3701.029710
940.971477,11325.150913,6128.763984,6735.874072
940.971807,8142.265362,16471.053207,9918.759623
940.972136,5995.668130,17850.025103,14582.057057
940.972466,1628.453072,15092.081311,17838.963202
940.972795,-4293.194464,10495.508323,18801.230927
940.973125,-9252.574275,1608.800546,15766.386565
940.973454,-11103.089130,-4366.744339,10807.006753
940.973784,-10807.006753,-8350.440928,5847.626942
940.974113,-6513.812290,-13483.280765,1924.535449
940.974443,-1184.329507,-15704.957709,592.164754
940.974772,3552.988522,-10878.556072,2516.700203
940.975102,6217.729913,-383.047749,5847.626942
940.975431,6217.729913,8810.098227,7402.059420
940.975761,5181.441594,15092.081311,9622.677246
940.976090,4293.194464,16854.100956,13767.830521
940.976420,1036.288319,16011.395908,15026.180623
940.976749,-1776.494261,7201.297681,16136.489536
940.977079,-7105.977043,-766.095498,15840.407159
940.977408,-12731.542202,-1991.848295,13693.809927
940.977738,-13619.789333,-6971.469032,10066.800811
940.978067,-8512.368333,-14632.424012,7105.977043
940.978397,-2146.597232,-13713.109414,3627.009116
940.978726,4663.297435,-9499.584175,1258.350101
940.979056,9992.780217,-5669.106685,3034.844362
940.979385,11547.212695,3140.991542,6365.771101
940.979715,8956.491898,13942.938064,10362.883188
940.980044,7105.977043,17313.758255,14063.912898
940.980374,2368.659014,15934.786358,17764.942608
940.980703,-2368.659014,11338.213370,18949.272115
940.981033,-7698.141797,2681.334243,16802.674883
940.981362,-11103.089130,-3600.648841,11695.253884
940.981692,-11251.130318,-7890.783629,7179.997637
940.982022,-7994.224174,-13942.938064,3404.947333
940.982351,-3034.844362,-17007.320056,2590.720797
940.982681,1332.370696,-12563.966167,3034.844362
940.983010,2960.823768,-3370.820191,4515.256246
940.983340,3849.070898,5898.935335,6439.791695
940.983669,5255.462188,12487.356617,9548.656652
940.983999,5773.606348,15245.300410,13249.686362
940.984328,2590.720797,16471.053207,15470.304188
940.984658,-1110.308913,11414.822920,14063.912898
940.984987,-5773.606348,1378.971896,14211.954086
940.985317,-11399.171507,-1915.238745,14063.912898
940.985646,-13619.789333,-4903.011187,11843.295072
940.985976,-10584.944971,-12870.404366,7994.224174
940.986305,-5033.400406,-14709.033562,3627.009116
940.986635,1998.556043,-10648.727422,962.267725
940.986964,8068.244768,-7890.783629,1702.473667
940.987294,11251.130318,-842.705048,4737.318029
940.987623,9104.533087,10648.727422,8956.491898
940.987953,6809.894666,18309.682402,12805.562797
940.988282,3182.885551,17620.196454,16506.592507
940.988612,-1184.329507,13559.890315,19023.292709
940.988941,-6587.832884,5898.935335,18209.066173
940.989271,-10658.965565,-1991.848295,13767.830521
940.989600,-11695.253884,-5439.278036,7698.141797
940.989930,-8734.430116,-11338.213370,4441.235652
940.990259,-4441.235652,-16088.005458,3627.009116
940.990589,-1110.308913,-14019.547613,4293.194464
940.990918,1702.473667,-4903.011187,3775.050304
940.991248,3997.112087,5132.839837,4219.173869
940.991577,6291.750507,9499.584175,7105.977043
940.991907,6957.935855,13559.890315,13249.686362
940.992236,3404.947333,16317.834107,16580.613101
940.992566,-1628.453072,14249.376263,14878.139434
940.992895,-6069.688724,5898.935335,14952.160028
940.993225,-10214.842000,0.000000,15100.201217
940.993554,-13175.665768,-4060.306139,13249.686362
940.993884,-10807.006753,-12257.527968,8512.368333
940.994213,-5033.400406,-14709.033562,3849.070898
940.994543,1110.308913,-9959.241474,888.247130
940.994872,8216.285956,-7048.078582,1924.535449
940.995202,11029.068536,-2145.067394,4219.173869
940.995531,9992.780217,7737.564530,7254.018232
940.995861,8068.244768,16777.491406,11843.295072
940.996190,5107.421000,17160.539155,17987.004391
940.996520,74.020594,15704.957709,20651.745782
940.996849,-6587.832884,9729.412825,17912.983796
940.997179,-9474.636058,76.609550,13693.809927
940.997508,-9178.553681,-5056.230287,8364.327145
940.997838,-7105.977043,-9806.022374,3997.112087
940.998167,-3256.906145,-14402.595362,370.102971
940.998497,-518.144159,-14632.424012,-0.000000
940.998826,3108.864956,-8120.612279,2664.741391
940.999156,4737.318029,3217.601092,5995.668130
940.999485,4219.173869,11108.384721,8364.327145
940.999815,4293.194464,15321.909960,11103.089130
941.000144,2960.823768,16624.272307,14508.036463
941.000474,1110.308913,13559.890315,14878.139434
941.000803,-2812.782580,2911.162892,16728.654289
941.001133,-8734.430116,-2298.286494,16802.674883
941.001463,-15248.242405,-459.657299,13619.789333
941.001792,-13989.892304,-7967.393179,9844.739029
941.002122,-6661.853478,-14249.376263,6587.832884
941.002451,74.020594,-11721.261119,1332.370696
941.002781,7920.203579,-9039.926876,-592.164754
941.003110,12879.583391,-6128.763984,2368.659014
941.003440,12435.459826,6588.421283,6587.832884
941.003769,8882.471304,17007.320056,11547.212695
941.004099,6661.853478,15934.786358,16654.633695
941.004428,-222.061783,15704.957709,19985.560434
941.004758,-5625.565159,12793.794817,19541.436869
941.005087,-9104.533087,1532.190996,16506.592507
941.005417,-10955.047942,-4903.011187,9992.780217
941.005746,-11325.150913,-9116.536426,5033.400406
941.006076,-7698.141797,-15628.348159,1480.411884
941.006405,-3552.988522,-17850.025103,2072.576638
941.006735,74.020594,-10265.679673,4737.318029
941.007064,1924.535449,919.314598,4885.359217
941.007394,2960.823768,7660.954980,5181.441594
941.007723,6069.688724,9882.631924,9474.636058
941.008053,6883.915261,14096.157163,15100.201217
941.008382,3108.864956,16854.100956,14804.118840
941.008712,-1332.370696,6894.859482,16136.489536
941.009041,-8142.265362,-536.266849,17468.860231
941.009371,-14359.995275,1608.800546,15248.242405
941.009700,-13693.809927,-6665.030833,10510.924376
941.010030,-7179.997637,-14785.643111,6069.688724
941.010359,-1702.473667,-11568.042020,962.267725
941.010689,5255.462188,-10189.070123,-1480.411884
941.011018,11917.315666,-10418.898773,740.205942
941.011348,11103.089130,2451.505594,4663.297435
941.011677,6957.935855,14862.252661,9474.636058
941.012007,4959.379811,16547.662757,14434.015869
941.012336,1480.411884,17160.539155,17690.922014
941.012666,-3034.844362,12027.699319,19837.519246
941.012995,-7031.956449,919.314598,18875.251521
941.013325,-11843.295072,-2987.772442,13323.706956
941.013654,-13767.830521,-4903.011187,9030.512492
941.013984,-10510.924376,-12257.527968,5477.523971
941.014313,-5329.482782,-15015.471761,2516.700203
941.014643,1406.391290,-12334.137518,1332.370696
941.014972,5921.647536,-7737.564530,3256.906145
941.015302,7105.977043,3600.648841,6587.832884
941.015631,5625.565159,14019.547613,9030.512492
941.015961,5699.585753,16394.443657,11695.253884
941.016290,3404.947333,16777.491406,13175.665768
941.016620,222.061783,11108.384721,15396.283594
941.016949,-4071.132681,612.876398,17838.963202
941.017279,-10658.965565,-459.657299,16506.592507
941.017608,-14211.954086,-1072.533697,12583.501014
941.017938,-10955.047942,-10725.336972,8068.244768
941.018267,-4145.153275,-12410.747068,3627.009116
941.018597,3330.926739,-10342.289223,-74.020594
941.018926,10658.965565,-8963.317327,666.185348
941.019256,12361.439231,-383.047749,3330.926739
941.019585,8882.471304,12793.794817,7328.038826
941.019915,6291.750507,17466.977354,11177.109724
941.020244,3330.926739,15015.471761,17098.757260
941.020574,-1924.535449,14632.424012,20503.704593
941.020906,-7328.038826,8044.002729,18949.272115
941.021235,-10436.903782,-1072.533697,14063.912898
941.021565,-11917.315666,-4366.744339,7772.162391
941.021894,-9548.656652,-10955.165621,4367.215058
941.022224,-4515.256246,-14862.252661,1184.329507
941.022553,518.144159,-13330.061665,592.164754
941.022882,4589.276840,-6588.421283,2812.782580
941.023212,5995.668130,3294.210641,5847.626942
941.023541,4959.379811,10418.898773,8068.244768
941.023871,4737.318029,15704.957709,10288.862594
941.024200,4071.132681,16471.053207,14359.995275
941.024530,1036.288319,13636.499864,15470.304188
941.024859,-3701.029710,4673.182538,16728.654289
941.025188,-9400.615463,-2374.896044,16876.695478
941.025518,-13915.871710,-1762.019645,14359.995275
941.025847,-13471.748144,-7277.907231,10436.903782
941.026177,-6957.935855,-12257.527968,6069.688724
941.026506,148.041188,-10495.508323,1998.556043
941.026835,7698.141797,-9422.974625,-0.000000
941.027165,12731.542202,-4366.744339,1776.494261
941.027494,11843.295072,5132.839837,4885.359217
941.027824,7550.100608,14632.424012,10436.903782
941.028153,3552.988522,16088.005458,16506.592507
941.028483,-2590.720797,14785.643111,20355.663405
941.028812,-7328.038826,10572.117872,20355.663405
941.029141,-10140.821405,459.657299,16580.613101
941.029471,-10881.027347,-5056.230287,10214.842000
941.029800,-9252.574275,-9039.926876,4885.359217
941.030130,-4885.359217,-15321.909960,1332.370696
941.030459,74.020594,-15168.690860,962.267725
941.030788,3627.009116,-8656.879127,3404.947333
941.031118,4737.318029,2374.896044,6143.709319
941.031447,4293.194464,9499.584175,7402.059420
941.031777,4885.359217,13406.671215,9992.780217
941.032106,4293.194464,14402.595362,13989.892304
941.032435,1480.411884,14019.547613,14211.954086
941.032765,-2960.823768,4903.011187,15470.304188
941.033094,-8216.285956,-2298.286494,17024.736666
941.033424,-14211.954086,-1378.971896,15544.324782
941.033753,-14656.077652,-5898.935335,11103.089130
941.034083,-8290.306550,-13406.671215,6291.750507
941.034412,-1036.288319,-11797.870669,1554.432478
941.034741,6365.771101,-8273.831378,-962.267725
941.035071,12435.459826,-6818.249932,1110.308913
941.035400,12805.562797,2757.943793,4663.297435
941.035730,8068.244768,14402.595362,9104.533087
941.036059,5107.421000,15934.786358,14508.036463
941.036388,0.000000,14709.033562,19689.478057
941.036718,-5625.565159,12410.747068,21021.848753
941.037047,-9474.636058,2374.896044,18431.127956
941.037377,-11251.130318,-4136.915689,12213.398043
941.037706,-10807.006753,-6358.592633,7031.956449
941.038036,-6957.935855,-13176.842566,2664.741391
941.038365,-1998.556043,-16471.053207,1924.535449
941.038694,1924.535449,-10418.898773,2812.782580
941.039024,3997.112087,536.266849,2442.679609
941.039353,5477.523971,6741.640382,4515.256246
941.039683,5921.647536,10648.727422,8364.327145
941.040012,4737.318029,14709.033562,14730.098246
941.040341,0.000000,15398.519510,16136.489536
941.040671,-3627.009116,9882.631924,15544.324782
941.041000,-8882.471304,-153.219100,16654.633695
941.041330,-13249.686362,-1762.019645,16432.571912
941.041659,-14211.954086,-6052.154434,11991.336260
941.041989,-9104.533087,-14402.595362,6439.791695
941.042318,-2146.597232,-12027.699319,2368.659014
941.042647,4885.359217,-8197.221829,-0.000000
941.042977,11325.150913,-5745.716235,2368.659014
941.043306,11843.295072,995.924147,4663.297435
941.043636,8734.430116,13406.671215,8216.285956
941.043965,6513.812290,18233.072852,13397.727550
941.044294,2960.823768,16088.005458,19393.395680
941.044624,-2738.761985,12717.185267,21317.931130
941.044953,-8734.430116,4903.011187,18283.086767
941.045283,-11621.233289,-3294.210641,12287.418637
941.045612,-11251.130318,-5286.058936,6513.812290
941.045941,-7476.080014,-11568.042020,2960.823768
941.046271,-2442.679609,-15092.081311,370.102971
941.046600,2294.638420,-12180.918418,666.185348
941.046930,5181.441594,-2681.334243,2664.741391
941.047259,6069.688724,6741.640382,4515.256246
941.047589,6217.729913,11874.480219,8290.306550
941.047918,4885.359217,16547.662757,13323.706956
941.048247,1554.432478,17773.415554,14952.160028
941.048577,-1924.535449,9576.193725,16876.695478
941.048906,-5921.647536,229.828649,18801.230927
941.049236,-12731.542202,-229.828649,17320.819043
941.049565,-14804.118840,-3370.820191,12213.398043
941.049894,-10214.842000,-13330.061665,6735.874072
941.050224,-2960.823768,-13253.452115,2368.659014
941.050553,5107.421000,-8886.707777,-1258.350101
941.050883,11621.233289,-9039.926876,148.041188
941.051212,13249.686362,-229.828649,3256.906145
941.051542,8660.409521,14632.424012,8586.388927
941.051871,6735.874072,17390.367805,13545.768739
941.052200,3552.988522,15398.519510,18801.230927
941.052530,-2664.741391,14402.595362,21243.910535
941.052859,-8660.409521,6358.592633,19541.436869
941.053189,-11251.130318,-2681.334243,13693.809927
941.053518,-12065.356855,-4903.011187,7179.997637
941.053847,-9252.574275,-11338.213370,2220.617826
941.054177,-4737.318029,-17926.634653,1554.432478
941.054506,-888.247130,-15475.129060,4367.215058
941.054836,592.164754,-3677.258390,4441.235652
941.055165,2590.720797,5592.497135,4589.276840
941.055494,4811.338623,9039.926876,7624.121203
941.055824,6365.771101,12487.356617,13323.706956
941.056153,3775.050304,15781.567259,16506.592507
941.056483,0.000000,12793.794817,14804.118840
941.056812,-4293.194464,2451.505594,16506.592507
941.057142,-10584.944971,-153.219100,17246.798449
941.057471,-15174.221811,-1685.410096,14434.015869
941.057800,-12139.377449,-11951.089769,9104.533087
941.058130,-5477.523971,-13253.452115,3330.926739
941.058459,1554.432478,-9806.022374,-296.082377
941.058789,9400.615463,-9652.803275,-296.082377
941.059118,13101.645173,-4519.963438,2368.659014
941.059447,9622.677246,8273.831378,5921.647536
941.059777,7105.977043,17007.320056,11325.150913
941.060106,4219.173869,17543.586904,15914.427753
941.060436,-1850.514855,16777.491406,19245.354492
941.060765,-6291.750507,7354.516781,19837.519246
941.061095,-10288.862594,-2911.162892,15988.448347
941.061424,-12509.480420,-4290.134789,9696.697840
941.061753,-11399.171507,-9346.365076,5403.503377
941.062083,-7402.059420,-14709.033562,2368.659014
941.062412,-3182.885551,-14785.643111,1628.453072
941.062742,2516.700203,-10801.946522,1850.514855
941.063071,6143.709319,-1072.533697,5551.544565
941.063400,6069.688724,9959.241474,7772.162391
941.063730,5107.421000,15934.786358,9696.697840
941.064059,4145.153275,16317.834107,13767.830521
941.064389,2516.700203,15015.471761,13989.892304
941.064718,-296.082377,5822.325785,15914.427753
941.065048,-5921.647536,-2451.505594,17024.736666
941.065377,-13693.809927,-459.657299,14656.077652
941.065706,-14508.036463,-6665.030833,10658.965565
941.066036,-8068.244768,-14325.985813,6883.915261
941.066365,-814.226536,-12257.527968,2812.782580
941.066695,6661.853478,-9269.755526,296.082377
941.067024,11547.212695,-6358.592633,1702.473667
941.067353,11473.192101,3907.087040,5625.565159
941.067683,8142.265362,15475.129060,10362.883188
941.068012,6513.812290,16547.662757,15914.427753
941.068342,1480.411884,15781.567259,20059.581028
941.068671,-4737.318029,13942.938064,19837.519246
941.069000,-9178.553681,3217.601092,16728.654289
941.069330,-11251.130318,-3983.696590,10658.965565
941.069659,-10436.903782,-7048.078582,5625.565159
941.069989,-6661.853478,-13866.328514,888.247130
941.070318,-1776.494261,-17083.929605,666.185348
941.070648,1924.535449,-11108.384721,2368.659014
941.070977,3478.967927,-383.047749,5847.626942
941.071306,3997.112087,7814.174080,6069.688724
941.071636,4663.297435,14555.814462,8882.471304
941.071965,5625.565159,16930.710506,13027.624579
941.072295,3256.906145,16164.615008,15248.242405
941.072624,0.000000,9346.365076,15174.221811
941.072953,-6143.709319,-766.095498,16210.510130
941.073283,-12435.459826,-1532.190996,15396.283594
941.073612,-15470.304188,-3600.648841,11473.192101
941.073942,-11029.068536,-11874.480219,6883.915261
941.074271,-3330.926739,-13636.499864,2516.700203
941.074601,4367.215058,-9729.412825,-0.000000
941.074930,11399.171507,-7354.516781,592.164754
941.075259,12731.542202,76.609550,3849.070898
941.075589,8956.491898,12793.794817,8068.244768
941.075918,5921.647536,18079.853753,13323.706956
941.076248,1998.556043,16011.395908,19097.313304
941.076577,-3182.885551,14709.033562,21465.972318
941.076906,-7846.182985,6511.811733,19171.333898
941.077236,-10510.924376,-3600.648841,13323.706956
941.077565,-10584.944971,-5822.325785,7328.038826
941.077895,-7698.141797,-12717.185267,3034.844362
941.078224,-3182.885551,-16777.491406,1776.494261
941.078553,814.226536,-13483.280765,2146.597232
941.078883,2886.803174,-3983.696590,4885.359217
941.079212,3627.009116,5822.325785,6809.894666
941.079542,4589.276840,11644.651570,8808.450710
941.079871,5477.523971,15475.129060,13027.624579
941.080201,3108.864956,16777.491406,15174.221811
941.080530,148.041188,12104.308868,14211.954086
941.080859,-3997.112087,306.438199,15544.324782
941.081189,-10584.944971,-2987.772442,15914.427753
941.081518,-15248.242405,-2528.115143,13101.645173
941.081848,-12509.480420,-10572.117872,8956.491898
941.082177,-5255.462188,-14019.547613,4737.318029
941.082506,2220.617826,-9806.022374,296.082377
941.082836,9548.656652,-9116.536426,-296.082377
941.083165,13619.789333,-4290.134789,2738.761985
941.083495,10807.006753,9652.803275,6587.832884
941.083824,7402.059420,18079.853753,12287.418637
941.084154,4589.276840,16854.100956,18283.086767
941.084483,-962.267725,15475.129060,20281.642811
941.084812,-6217.729913,9039.926876,19245.354492
941.085142,-9696.697840,-2145.067394,14508.036463
941.085471,-11399.171507,-5439.278036,8734.430116
941.085801,-10140.821405,-9806.022374,3923.091493
941.086130,-5847.626942,-15858.176809,1332.370696
941.086459,-1406.391290,-15475.129060,1702.473667
941.086789,1776.494261,-7967.393179,3552.988522
941.087118,3330.926739,2604.724693,4441.235652
941.087448,3627.009116,9576.193725,6439.791695
941.087777,4737.318029,13713.109414,10066.800811
941.088107,3775.050304,14172.766713,15988.448347
941.088436,1184.329507,14938.862211,15544.324782
941.088765,-3849.070898,7277.907231,15174.221811
941.089095,-8660.409521,-3217.601092,15248.242405
941.089424,-13397.727550,-2681.334243,14508.036463
941.089754,-13989.892304,-8427.050478,10955.047942
941.090083,-7402.059420,-14709.033562,7179.997637
941.090412,-1406.391290,-9959.241474,2812.782580
941.090742,5255.462188,-6818.249932,1332.370696
941.091071,11547.212695,-5898.935335,2516.700203
941.091401,12213.398043,2298.286494,5107.421000
941.091730,8734.430116,13483.280765,10288.862594
941.092059,6735.874072,16164.615008,16506.592507
941.092389,740.205942,16164.615008,20947.828159
941.092718,-4811.338623,13406.671215,19541.436869
941.093048,-8882.471304,1915.238745,15914.427753
941.093377,-9770.718434,-4903.011187,9474.636058
941.093707,-8660.409521,-7354.516781,4441.235652
941.094036,-4293.194464,-13636.499864,1480.411884
941.094365,-666.185348,-14862.252661,1850.514855
941.094695,1110.308913,-8350.440928,2738.761985
941.095024,2664.741391,689.485948,4589.276840
941.095354,4663.297435,6971.469032,6217.729913
941.095683,5033.400406,13559.890315,10658.965565
941.096012,4219.173869,17160.539155,13915.871710
941.096342,1554.432478,14172.766713,14359.995275
941.096671,-1776.494261,3294.210641,17320.819043
941.097001,-7994.224174,153.219100,18357.107362
941.097330,-15174.221811,689.485948,14878.139434
941.097660,-14285.974681,-5439.278036,10510.924376
941.097989,-7920.203579,-12257.527968,6217.729913
941.098318,-814.226536,-11874.480219,370.102971
941.098648,7920.203579,-10189.070123,-3330.926739
941.098977,14211.954086,-8273.831378,-222.061783
941.099307,13027.624579,4903.011187,5181.441594
941.099636,7550.100608,16547.662757,10140.821405
941.099965,6143.709319,16547.662757,15470.304188
941.100295,2664.741391,17007.320056,19319.375086
941.100624,-3034.844362,13330.061665,20725.766376
941.100954,-7254.018232,2911.162892,18801.230927
941.101283,-10732.986159,-2834.553343,13249.686362
941.101612,-11917.315666,-5439.278036,7772.162391
941.101942,-9622.677246,-11721.261119,1702.473667
941.102271,-5033.400406,-16471.053207,666.185348
941.102601,740.205942,-12947.013916,2738.761985
941.102930,3182.885551,-2757.943793,5551.544565
941.103260,3330.926739,6281.983084,5625.565159
941.103589,3923.091493,11414.822920,8068.244768
941.103918,5033.400406,13100.233016,11621.233289
941.104248,2960.823768,15551.738609,14211.954086
941.104577,-444.123565,9346.365076,16654.633695
941.104907,-5773.606348,-153.219100,18875.251521
941.105236,-12657.521608,1072.533697,16506.592507
941.105565,-14730.098246,-2298.286494,12065.356855
941.105895,-9844.739029,-13253.452115,7920.203579
941.106224,-2442.679609,-12563.966167,3997.112087
941.106554,4811.338623,-8963.317327,148.041188
941.106883,11769.274478,-9193.145976,-370.102971
941.107213,12435.459826,-1378.971896,2146.597232
941.107542,9400.615463,13253.452115,8142.265362
941.107871,7254.018232,16471.053207,13693.809927
941.108201,3330.926739,15781.567259,18505.148550
941.108530,-2294.638420,15628.348159,20725.766376
941.108860,-7105.977043,5975.544884,18949.272115
941.109189,-10362.883188,-3677.258390,13619.789333
941.109518,-12139.377449,-5669.106685,8512.368333
941.109848,-10658.965565,-11568.042020,5107.421000
941.110177,-6069.688724,-14479.204912,1628.453072
941.110507,-1258.350101,-13559.890315,444.123565
941.110836,3330.926739,-8503.660028,1998.556043
941.111166,4959.379811,2451.505594,5107.421000
941.111495,4811.338623,10189.070123,6809.894666
941.111824,5477.523971,14172.766713,10510.924376
941.112154,4071.132681,16088.005458,14730.098246
941.112483,592.164754,14479.204912,15988.448347
941.112813,-3775.050304,2681.334243,18135.045579
941.113142,-9696.697840,-2911.162892,17912.983796
941.113471,-15470.304188,383.047749,14508.036463
941.113801,-13101.645173,-8273.831378,10436.903782
941.114130,-5699.585753,-14479.204912,6365.771101
941.114460,1628.453072,-10801.946522,1776.494261
941.114789,8512.368333,-9499.584175,-666.185348
941.115118,13323.706956,-5975.544884,1554.432478
941.115448,11399.171507,6665.030833,4885.359217
941.115777,7402.059420,16547.662757,10436.903782
941.116107,4885.359217,15628.348159,16358.551318
941.116436,-1332.370696,14709.033562,20651.745782
941.116766,-6069.688724,11644.651570,20577.725188
941.117095,-9770.718434,0.000000,16284.530724
941.117424,-11621.233289,-4596.572988,9992.780217
941.117754,-10362.883188,-8963.317327,5699.585753
941.118083,-5551.544565,-14785.643111,2738.761985
941.118413,-1332.370696,-13789.718964,1776.494261
941.118742,2886.803174,-7431.126331,2294.638420
941.119071,5181.441594,689.485948,4811.338623
941.119401,5773.606348,8197.221829,6957.935855
941.119730,5847.626942,14555.814462,9622.677246
941.120060,4441.235652,16700.881856,12731.542202
941.120389,2146.597232,14938.862211,15026.180623
941.120719,-2220.617826,5822.325785,18283.086767
941.121048,-8586.388927,76.609550,18505.148550
941.121378,-15174.221811,-229.828649,14285.974681
941.121707,-14063.912898,-5822.325785,10066.800811
941.122037,-7254.018232,-12640.575717,6217.729913
941.122366,0.000000,-11568.042020,1110.308913
941.122696,7254.018232,-9269.755526,-2368.659014
941.123025,13397.727550,-6665.030833,-518.144159
941.123354,13101.645173,4826.401637,4293.194464
941.123684,8734.430116,15475.129060,9474.636058
941.124013,5773.606348,16854.100956,15174.221811
941.124343,0.000000,16624.272307,19689.478057
941.124672,-5477.523971,12870.404366,21095.869347
941.125002,-9178.553681,2987.772442,18801.230927
941.125331,-11177.109724,-3830.477490,12879.583391
941.125661,-11029.068536,-7354.516781,7920.203579
941.125990,-8068.244768,-13406.671215,2294.638420
941.126320,-2738.761985,-14785.643111,-0.000000
941.126649,3182.885551,-10648.727422,888.247130
941.126979,6587.832884,-2681.334243,4737.318029
941.127308,5255.462188,7584.345430,6291.750507
941.127638,4367.215058,13942.938064,8512.368333
941.127967,4959.379811,15015.471761,12731.542202
941.128297,2072.576638,16241.224558,14730.098246
941.128626,-1998.556043,9882.631924,16580.613101
941.128955,-7031.956449,-2068.457845,18061.024985
941.129285,-12731.542202,-2604.724693,16358.551318
941.129614,-15026.180623,-3217.601092,11843.295072
941.129944,-9844.739029,-12563.966167,7698.141797
941.130273,-2442.679609,-13483.280765,3478.967927
941.130603,4885.359217,-8120.612279,-0.000000
941.130932,11251.130318,-7354.516781,444.123565
941.131262,13101.645173,-919.314598,3108.864956
941.131591,9622.677246,12870.404366,8068.244768
941.131921,6069.688724,16700.881856,14434.015869
941.132250,1554.432478,14249.376263,19023.292709
941.132580,-4441.235652,14709.033562,20799.786970
941.132909,-7846.182985,5669.106685,18579.169144
941.133239,-9770.718434,-4596.572988,13323.706956
941.133568,-11029.068536,-6971.469032,7772.162391
941.133897,-8734.430116,-12257.527968,3108.864956
941.134227,-2812.782580,-15704.957709,1110.308913
941.134556,1332.370696,-12027.699319,1184.329507
941.134886,3404.947333,-2834.553343,3034.844362
941.135215,3701.029710,4979.620737,5699.585753
941.135545,4737.318029,9806.022374,7550.100608
941.135874,4811.338623,14325.985813,12657.521608
941.136204,2072.576638,16700.881856,14656.077652
941.136533,-1702.473667,9806.022374,16506.592507
941.136863,-5921.647536,-689.485948,18727.210333
941.137192,-13175.665768,-995.924147,17172.777854
941.137522,-15692.365970,-2068.457845,12361.439231
941.137851,-10807.006753,-11491.432470,7624.121203
941.138181,-3478.967927,-13023.623466,3182.885551
941.138510,3330.926739,-8656.879127,-962.267725
941.138840,11547.212695,-9116.536426,-222.061783
941.139169,14434.015869,-1838.629195,1702.473667
941.139498,10658.965565,12027.699319,6513.812290
941.139828,6735.874072,16930.710506,11769.274478
941.140157,3182.885551,15321.909960,18209.066173
941.140487,-2072.576638,14479.204912,21465.972318
941.140816,-7698.141797,6818.249932,20281.642811
941.141146,-10955.047942,-1838.629195,15248.242405
941.141475,-12213.398043,-4826.401637,9326.594869
941.141805,-9622.677246,-11261.603821,4959.379811
941.142134,-4959.379811,-15245.300410,1776.494261
941.142464,-444.123565,-12717.185267,740.205942
941.142793,3849.070898,-6281.983084,3108.864956
941.143123,5773.606348,2834.553343,5107.421000
941.143452,4441.235652,11338.213370,8512.368333
941.143782,4737.318029,15245.300410,11843.295072
941.144111,3404.947333,16241.224558,13915.871710
941.144440,888.247130,13253.452115,15618.345376
941.144770,-3849.070898,1378.971896,18505.148550
941.145099,-10066.800811,-2068.457845,17542.880825
941.145429,-15396.283594,-536.266849,13101.645173
941.145758,-12139.377449,-9346.365076,9548.656652
941.146088,-5255.462188,-12717.185267,5033.400406
941.146417,2220.617826,-9116.536426,-518.144159
941.146747,10288.862594,-9346.365076,-1554.432478
941.147076,15100.201217,-4903.011187,1332.370696
941.147406,12065.356855,10572.117872,5329.482782
941.147735,8808.450710,17160.539155,11325.150913
941.148065,5625.565159,15781.567259,17394.839637
941.148394,-1924.535449,17466.977354,20133.601622
941.148724,-7105.977043,11261.603821,19615.457463
941.149053,-9622.677246,-612.876398,15396.283594
941.149382,-11769.274478,-4290.134789,9474.636058
941.149712,-11473.192101,-9499.584175,3923.091493
941.150041,-7105.977043,-15934.786358,370.102971
941.150371,-2294.638420,-15781.567259,1110.308913
941.150700,2368.659014,-8427.050478,3034.844362
941.151030,3627.009116,153.219100,6661.853478
941.151359,3701.029710,9116.536426,7772.162391
941.151689,4515.256246,15245.300410,9326.594869
941.152018,5033.400406,15551.738609,13027.624579
941.152348,2886.803174,14555.814462,14952.160028
941.152677,-888.247130,4519.963438,18875.251521
941.153007,-7105.977043,-1915.238745,18431.127956
941.153336,-14508.036463,1378.971896,13915.871710
941.153666,-14211.954086,-6358.592633,9622.677246
941.153995,-6661.853478,-13253.452115,6587.832884
941.154325,148.041188,-12257.527968,2368.659014
941.154654,7624.121203,-10112.460574,-0.000000
941.154983,12435.459826,-7124.688131,1850.514855
941.155313,11103.089130,5592.497135,5329.482782
941.155642,7105.977043,15398.519510,10362.883188
941.155972,4959.379811,16011.395908,15544.324782
941.156301,-444.123565,15781.567259,19171.333898
941.156631,-4663.297435,11108.384721,19837.519246
941.156960,-8142.265362,766.095498,17838.963202
941.157290,-12287.418637,-4213.525239,11843.295072
941.157619,-13397.727550,-7354.516781,7105.977043
941.157949,-9548.656652,-14632.424012,2960.823768
941.158278,-3552.988522,-16088.005458,1480.411884
941.158608,1258.350101,-11644.651570,1554.432478
941.158937,4441.235652,-2834.553343,4515.256246
941.159267,5033.400406,6665.030833,6365.771101
941.159596,5033.400406,13789.718964,9252.574275
941.159925,5995.668130,15934.786358,11843.295072
941.160255,3256.906145,17007.320056,13841.851115
941.160584,-370.102971,10112.460574,14878.139434
941.160914,-5329.482782,-1378.971896,16654.633695
941.161243,-11473.192101,-2987.772442,15396.283594
941.161573,-14359.995275,-3830.477490,11547.212695
941.161902,-10584.944971,-12334.137518,7105.977043
941.162232,-4071.132681,-13559.890315,3849.070898
941.162561,3108.864956,-9422.974625,1406.391290
941.162891,10066.800811,-7584.345430,1480.411884
941.163220,12213.398043,-306.438199,2960.823768
941.163550,9400.615463,12180.918418,7476.080014
941.163879,7031.956449,17543.586904,13249.686362
941.164209,3330.926739,15704.957709,18579.169144
941.164538,-2220.617826,14172.766713,20281.642811
941.164868,-7105.977043,6511.811733,17838.963202
941.165197,-10658.965565,-3370.820191,12657.521608
941.165526,-12065.356855,-6665.030833,8290.306550
941.165856,-9696.697840,-12410.747068,5033.400406
941.166185,-5477.523971,-15934.786358,2886.803174
941.166515,-666.185348,-12717.185267,2146.597232
941.166844,3330.926739,-5209.449386,3997.112087
941.167174,5329.482782,3140.991542,6883.915261
941.167503,5773.606348,9806.022374,8586.388927
941.167833,6069.688724,16624.272307,11843.295072
941.168162,4441.235652,18079.853753,13027.624579
941.168492,1998.556043,11108.384721,16210.510130
941.168821,-3108.864956,1838.629195,18949.272115
941.169151,-10881.027347,306.438199,16210.510130
941.169480,-14804.118840,-1991.848295,11621.233289
941.169810,-11251.130318,-10265.679673,8216.285956
941.170139,-4589.276840,-12640.575717,4367.215058
941.170468,2886.803174,-11184.994271,-74.020594
941.170798,9992.780217,-10572.117872,-1110.308913
941.171127,12805.562797,-1378.971896,1924.535449
941.171457,10214.842000,11797.870669,6809.894666
941.171786,7624.121203,17543.586904,11695.253884
941.172116,4071.132681,18233.072852,16876.695478
941.172445,-1776.494261,16777.491406,19541.436869
941.172775,-6661.853478,7890.783629,18801.230927
941.173104,-10510.924376,-689.485948,14804.118840
941.173434,-12287.418637,-4903.011187,9770.718434
941.173763,-11547.212695,-10955.165621,4589.276840
941.174093,-7550.100608,-15551.738609,1184.329507
941.174422,-1998.556043,-15092.081311,1110.308913
941.174752,3108.864956,-8580.269578,3034.844362
941.175081,4515.256246,2145.067394,5995.668130
941.175411,4737.318029,11031.775171,8586.388927
941.175740,6291.750507,15398.519510,10140.821405
941.176069,5921.647536,17543.586904,13545.768739
941.176399,2516.700203,17007.320056,14137.933492
941.176728,-2368.659014,6358.592633,15914.427753
941.177058,-7402.059420,-2451.505594,16654.633695
941.177387,-13323.706956,-2145.067394,14730.098246
941.177717,-14359.995275,-7814.174080,11251.130318
941.178046,-8586.388927,-13866.328514,7179.997637
941.178376,-2146.597232,-13176.842566,2960.823768
941.178705,5477.523971,-10342.289223,962.267725
941.179035,11473.192101,-6052.154434,2146.597232
941.179364,11843.295072,3830.477490,5551.544565
941.179694,9104.533087,14709.033562,10066.800811
941.180023,5921.647536,17696.806004,16580.613101
941.180353,0.000000,17160.539155,20207.622217
941.180682,-4885.359217,13713.109414,19615.457463
941.181011,-7920.203579,2374.896044,15470.304188
941.181341,-9622.677246,-5056.230287,9178.553681
941.181670,-9918.759623,-9729.412825,4737.318029
941.182000,-6587.832884,-15168.690860,2072.576638
941.182329,-2516.700203,-16088.005458,1258.350101
941.182659,74.020594,-10189.070123,3108.864956
941.182988,1924.535449,-306.438199,5995.668130
941.183318,3775.050304,6205.373534,7772.162391
941.183647,4071.132681,12793.794817,11473.192101
941.183977,3923.091493,17850.025103,12805.562797
941.184306,1628.453072,15245.300410,14434.015869
941.184636,0.000000,3983.696590,17838.963202
941.184965,-6587.832884,229.828649,17468.860231
941.185295,-13989.892304,0.000000,13471.748144
941.185624,-13767.830521,-6128.763984,8882.471304
941.185953,-8290.306550,-12334.137518,5551.544565
941.186283,-888.247130,-12640.575717,888.247130
941.186612,7105.977043,-12180.918418,-2072.576638
941.186942,12805.562797,-8733.488677,-0.000000
941.187271,12287.418637,5056.230287,6143.709319
941.187601,7402.059420,15245.300410,11029.068536
941.187930,4811.338623,17696.806004,14804.118840
941.188260,888.247130,18309.682402,17468.860231
941.188589,-3108.864956,11108.384721,20799.786970
941.188919,-7254.018232,1302.362347,20355.663405
941.189248,-12509.480420,-2834.553343,13989.892304
941.189578,-14211.954086,-6971.469032,8364.327145
941.189907,-10807.006753,-13483.280765,3330.926739
941.190237,-5551.544565,-15475.129060,-0.000000
941.190566,1924.535449,-13253.452115,370.102971
941.190896,6291.750507,-7737.564530,4071.132681
941.191225,6883.915261,4673.182538,7624.121203
941.191554,4441.235652,15704.957709,10214.842000
941.191884,4663.297435,18003.244203,12435.459826
941.192213,3701.029710,18079.853753,13545.768739
941.192543,1036.288319,10955.165621,16580.613101
941.192872,-3256.906145,-612.876398,19097.313304
941.193202,-9992.780217,-1608.800546,15840.407159
941.193531,-14137.933492,-2834.553343,11621.233289
941.193861,-11029.068536,-11108.384721,9178.553681
941.194190,-5699.585753,-13330.061665,5329.482782
941.194520,1406.391290,-9652.803275,518.144159
941.194849,9770.718434,-8580.269578,-1332.370696
941.195179,13545.768739,-766.095498,1406.391290
941.195508,11399.171507,12563.966167,6957.935855
941.195838,8142.265362,17620.196454,12805.562797
941.196167,2368.659014,17160.539155,17542.880825
941.196496,-3997.112087,18003.244203,18949.272115
941.196826,-9030.512492,9422.974625,17690.922014
941.197155,-10807.006753,-2451.505594,14285.974681
941.197485,-11547.212695,-7584.345430,8808.450710
941.197814,-10510.924376,-13253.452115,3997.112087
941.198144,-6661.853478,-16088.005458,148.041188
941.198473,-1702.473667,-12793.794817,-370.102971
941.198803,3404.947333,-7507.735880,3330.926739
941.199132,5551.544565,1455.581446,7994.224174
941.199462,4885.359217,11338.213370,9548.656652
941.199791,5699.585753,18156.463303,11325.150913
941.200121,5107.421000,17773.415554,12509.480420
941.200450,2812.782580,12487.356617,17542.880825
941.200780,-2664.741391,3370.820191,20799.786970
941.201109,-9400.615463,689.485948,17394.839637
941.201439,-13101.645173,-612.876398,11399.171507
941.201768,-11177.109724,-8427.050478,8068.244768
941.202097,-5699.585753,-13713.109414,4515.256246
941.202427,1628.453072,-13253.452115,444.123565
941.202756,8882.471304,-11721.261119,-74.020594
941.203086,11843.295072,-2604.724693,2886.803174
941.203415,9178.553681,10189.070123,7105.977043
941.203745,5477.523971,15245.300410,11769.274478
941.204074,2664.741391,15475.129060,16210.510130
941.204404,-2886.803174,15015.471761,19541.436869
941.204733,-5847.626942,9652.803275,20059.581028
941.205063,-8808.450710,459.657299,16210.510130
941.205392,-10955.047942,-5209.449386,10510.924376
941.205722,-11695.253884,-11108.384721,4589.276840
941.206051,-7846.182985,-15245.300410,592.164754
941.206381,-1184.329507,-13942.938064,518.144159
941.206710,4219.173869,-8580.269578,2368.659014
941.207039,5255.462188,0.000000,7105.977043
941.207369,5181.441594,10189.070123,8216.285956
941.207698,6513.812290,14019.547613,9326.594869
941.208028,5699.585753,15704.957709,11695.253884
941.208357,2368.659014,13713.109414,15692.365970
941.208687,-2664.741391,4519.963438,20429.683999
941.209016,-9252.574275,153.219100,17838.963202
941.209346,-13989.892304,-536.266849,12731.542202
941.209675,-11917.315666,-6894.859482,9104.533087
941.210005,-7105.977043,-12947.013916,5329.482782
941.210334,-1184.329507,-12870.404366,962.267725
941.210664,6365.771101,-11338.213370,-2072.576638
941.210993,11029.068536,-5822.325785,1628.453072
941.211323,10362.883188,8350.440928,6217.729913
941.211652,6735.874072,14555.814462,11251.130318
941.211982,4071.132681,15245.300410,14434.015869
941.212311,-1110.308913,16088.005458,17764.942608
941.212640,-3923.091493,9806.022374,20133.601622
941.212970,-8142.265362,1072.533697,18579.169144
941.213299,-12805.562797,-3447.429741,13027.624579
941.213629,-13397.727550,-8580.269578,7698.141797
941.213958,-8882.471304,-13713.109414,3108.864956
941.214288,-2368.659014,-14709.033562,888.247130
941.214617,3627.009116,-11261.603821,962.267725
941.214947,6069.688724,-4443.353888,4367.215058
941.215276,6291.750507,6894.859482,7476.080014
941.215606,5329.482782,15015.471761,10214.842000
941.215935,5847.626942,16317.834107,12287.418637
941.216265,2886.803174,15168.690860,14804.118840
941.216594,-74.020594,7431.126331,18209.066173
941.216924,-5699.585753,-306.438199,18579.169144
941.217253,-11917.315666,-306.438199,14434.015869
941.217582,-13323.706956,-3983.696590,10658.965565
941.217912,-9474.636058,-10648.727422,7698.141797
941.218241,-3923.091493,-12180.918418,2368.659014
941.218571,4219.173869,-10035.851024,-1850.514855
941.218900,11399.171507,-7814.174080,-814.226536
941.219230,12879.583391,2681.334243,3330.926739
941.219559,8956.491898,14479.204912,8660.409521
941.219889,5403.503377,16164.615008,13545.768739
941.220218,888.247130,15781.567259,17764.942608
941.220548,-4441.235652,14555.814462,19689.478057
941.220877,-8438.347739,5439.278036,18135.045579
941.221207,-11325.150913,-3370.820191,13397.727550
941.221536,-11621.233289,-7354.516781,8660.409521
941.221865,-9326.594869,-11874.480219,3552.988522
941.222195,-4219.173869,-14096.157163,296.082377
941.222524,1998.556043,-11108.384721,-222.061783
941.222854,6365.771101,-4596.572988,3997.112087
941.223183,6661.853478,4290.134789,7846.182985
941.223513,5995.668130,13253.452115,8956.491898
941.223842,5773.606348,16624.272307,10584.944971
941.224172,3404.947333,15781.567259,13101.645173
941.224501,-296.082377,10112.460574,18283.086767
941.224831,-5033.400406,1302.362347,21021.848753
941.225160,-10362.883188,76.609550,16802.674883
941.225490,-13915.871710,-2451.505594,10732.986159
941.225819,-10881.027347,-10112.460574,6809.894666
941.226148,-4515.256246,-13483.280765,3775.050304
941.226478,3552.988522,-11031.775171,666.185348
941.226807,10362.883188,-8580.269578,444.123565
941.227137,12287.418637,842.705048,3034.844362
941.227466,8734.430116,12717.185267,8216.285956
941.227796,5551.544565,16164.615008,12213.398043
941.228125,1628.453072,14709.033562,16876.695478
941.228455,-3034.844362,13866.328514,20059.581028
941.228784,-7254.018232,6358.592633,19689.478057
941.229114,-10436.903782,-2145.067394,15100.201217
941.229443,-13027.624579,-5898.935335,9770.718434
941.229772,-11547.212695,-11951.089769,4367.215058
941.230102,-5995.668130,-14862.252661,444.123565
941.230431,1110.308913,-13100.233016,-444.123565
941.230761,6513.812290,-6894.859482,2368.659014
941.231090,7328.038826,2528.115143,6957.935855
941.231420,5403.503377,11568.042020,9696.697840
941.231749,5181.441594,15934.786358,10288.862594
941.232079,3849.070898,16011.395908,13323.706956
941.232408,1258.350101,9806.022374,18875.251521
941.232738,-4293.194464,2911.162892,20799.786970
941.233067,-10510.924376,-612.876398,16506.592507
941.233397,-13101.645173,-2834.553343,10955.047942
941.233726,-10436.903782,-9269.755526,8512.368333
941.234055,-5329.482782,-12793.794817,3330.926739
941.234385,1332.370696,-11338.213370,-1480.411884
941.234714,9104.533087,-10572.117872,-1702.473667
941.235044,12805.562797,-612.876398,4071.132681
941.235373,9178.553681,12334.137518,8660.409521
941.235703,5921.647536,16471.053207,11399.171507
941.236032,1554.432478,16011.395908,14211.954086
941.236362,-2368.659014,13023.623466,18801.230927
941.236691,-5921.647536,6052.154434,21984.116477
941.237021,-10362.883188,-1685.410096,17987.004391
941.237350,-13915.871710,-4903.011187,10955.047942
941.237679,-13545.768739,-9193.145976,4885.359217
941.238009,-7624.121203,-14709.033562,1036.288319
941.238338,0.000000,-14402.595362,296.082377
941.238668,6513.812290,-9652.803275,1850.514855
941.238997,7624.121203,383.047749,6291.750507
941.239327,6291.750507,11644.651570,7994.224174
941.239656,6069.688724,15781.567259,9770.718434
941.239986,5033.400406,16700.881856,12065.356855
941.240315,1776.494261,13253.452115,16062.468941
941.240645,-2516.700203,3370.820191,21021.848753
941.240974,-7328.038826,-229.828649,19171.333898
941.241304,-13101.645173,-995.924147,13693.809927
941.241633,-12731.542202,-7660.954980,9548.656652
941.241962,-8216.285956,-12793.794817,5329.482782
941.242292,-1480.411884,-11568.042020,518.144159
941.242621,7402.059420,-10035.851024,-2886.803174
941.242951,13175.665768,-5362.668486,370.102971
941.243280,11029.068536,8503.660028,6365.771101
941.243610,5773.606348,17083.929605,11029.068536
941.243939,2368.659014,16777.491406,13915.871710
941.244269,-1776.494261,15628.348159,17172.777854
941.244598,-4811.338623,8886.707777,20207.622217
941.244928,-8808.450710,0.000000,18061.024985
941.245257,-12509.480420,-6205.373534,12287.418637
941.245586,-12361.439231,-9806.022374,8216.285956
941.245916,-8808.450710,-12104.308868,3923.091493
941.246245,-3108.864956,-12180.918418,-0.000000
941.246575,4441.235652,-9346.365076,-518.144159
941.246904,9696.697840,-3370.820191,3997.112087
941.247234,10881.027347,6971.469032,7772.162391
941.247563,7994.224174,16241.224558,9696.697840
941.247893,6069.688724,18156.463303,10436.903782
941.248222,2294.638420,15398.519510,15026.180623
941.248552,-1554.432478,8350.440928,21465.972318
941.248881,-7920.203579,2604.724693,20503.704593
941.249211,-12213.398043,-1455.581446,13989.892304
941.249540,-12583.501014,-6971.469032,9030.512492
941.249869,-9400.615463,-11721.261119,5699.585753
941.250199,-4663.297435,-14479.204912,1850.514855
941.250528,3256.906145,-11644.651570,-814.226536
941.250858,9030.512492,-5056.230287,1258.350101
941.251187,10066.800811,5362.668486,5477.523971
941.251517,6957.935855,14862.252661,9770.718434
941.251846,5033.400406,16471.053207,11843.295072
941.252176,1258.350101,14862.252661,15544.324782
941.252505,-2368.659014,10955.165621,19319.375086
941.252835,-7105.977043,4826.401637,19467.416275
941.253164,-11251.130318,-1991.848295,14285.974681
941.253494,-12805.562797,-8120.612279,9104.533087
941.253823,-11399.171507,-12104.308868,3108.864956
941.254152,-4811.338623,-14555.814462,1110.308913
941.254482,3701.029710,-12870.404366,888.247130
941.254811,7772.162391,-5132.839837,4663.297435
941.255141,7698.141797,4749.792088,7105.977043
941.255470,6587.832884,12257.527968,9474.636058
941.255800,6735.874072,15704.957709,10362.883188
941.256129,4071.132681,16241.224558,14952.160028
941.256459,0.000000,8886.707777,20355.663405
941.256788,-5181.441594,3830.477490,20133.601622
941.257118,-10732.986159,-229.828649,14582.057057
941.257447,-11769.274478,-5822.325785,9992.780217
941.257776,-9622.677246,-11797.870669,7105.977043
941.258106,-5551.544565,-14632.424012,2664.741391
941.258435,1850.514855,-12410.747068,-1776.494261
941.258765,8290.306550,-8580.269578,-370.102971
941.259094,10584.944971,2068.457845,4737.318029
941.259424,8438.347739,11797.870669,10362.883188
941.259753,5699.585753,15398.519510,12731.542202
941.260083,1702.473667,16011.395908,14952.160028
941.260412,-1924.535449,12717.185267,18727.210333
941.260742,-6069.688724,5362.668486,19245.354492
941.261071,-9696.697840,-2451.505594,15174.221811
941.261401,-12139.377449,-7431.126331,10066.800811
941.261730,-11547.212695,-11414.822920,4959.379811
941.262059,-7031.956449,-13636.499864,740.205942
941.262389,-296.082377,-14172.766713,-592.164754
941.262718,5403.503377,-8810.098227,2812.782580
941.263048,7328.038826,2068.457845,7698.141797
941.263377,7402.059420,11261.603821,9252.574275
941.263707,7105.977043,15551.738609,10140.821405
941.264036,4589.276840,17160.539155,11251.130318
941.264366,1554.432478,12257.527968,16950.716072
941.264695,-2664.741391,2834.553343,20873.807564
941.265025,-8956.491898,-153.219100,18579.169144
941.265354,-14285.974681,-1455.581446,12361.439231
941.265683,-14211.954086,-8733.488677,8216.285956
941.266013,-8660.409521,-14402.595362,5329.482782
941.266342,-1332.370696,-13253.452115,1110.308913
941.266672,7031.956449,-10495.508323,-666.185348
941.267001,11917.315666,-3140.991542,2664.741391
941.267331,10214.842000,9652.803275,7179.997637
941.267660,6513.812290,17390.367805,11177.109724
941.267990,3404.947333,17773.415554,14804.118840
941.268319,-1036.288319,16394.443657,17616.901420
941.268649,-4219.173869,10035.851024,19689.478057
941.268978,-8586.388927,1149.143247,15914.427753
941.269308,-12139.377449,-4979.620737,10658.965565
941.269637,-12953.603985,-9959.241474,6217.729913
941.269966,-9104.533087,-13559.890315,2368.659014
941.270296,-3108.864956,-13789.718964,-0.000000
941.270625,3256.906145,-9806.022374,1480.411884
941.270955,6883.915261,-1608.800546,5255.462188
941.271284,7254.018232,9039.926876,8364.327145
941.271614,6439.791695,16777.491406,9178.553681
941.271943,6069.688724,18462.901502,10807.006753
941.272273,3923.091493,16011.395908,15322.262999
941.272602,-74.020594,7967.393179,19541.436869
941.272932,-6439.791695,1991.848295,18135.045579
941.273261,-11917.315666,-383.047749,12509.480420
941.273590,-12435.459826,-6665.030833,8512.368333
941.273920,-8734.430116,-12410.747068,5995.668130
941.274249,-3182.885551,-13253.452115,1332.370696
941.274579,4219.173869,-11414.822920,-1110.308913
941.274908,10066.800811,-5515.887586,1258.350101
941.275238,10732.986159,5898.935335,5995.668130
941.275567,7846.182985,13789.718964,10584.944971
941.275897,5329.482782,14938.862211,14359.995275
941.276226,370.102971,16471.053207,17987.004391
941.276556,-4441.235652,13176.842566,19689.478057
941.276885,-7624.121203,3447.429741,17912.983796
941.277215,-9696.697840,-3983.696590,12731.542202
941.277544,-10807.006753,-9576.193725,7476.080014
941.277873,-8438.347739,-13942.938064,1702.473667
941.278203,-3478.967927,-15781.567259,-74.020594
941.278532,3552.988522,-11874.480219,2146.597232
941.278862,5921.647536,-3217.601092,7476.080014
941.279191,5847.626942,6205.373534,9252.574275
941.279521,5181.441594,13406.671215,10140.821405
941.279850,6143.709319,16471.053207,10881.027347
941.280180,3775.050304,14632.424012,15766.386565
941.280509,888.247130,6818.249932,20429.683999
941.280839,-5477.523971,1762.019645,19023.292709
941.281168,-11399.171507,-383.047749,13101.645173
941.281498,-12139.377449,-5975.544884,8364.327145
941.281827,-9696.697840,-11951.089769,5551.544565
941.282156,-4515.256246,-14555.814462,2072.576638
941.282486,2812.782580,-12870.404366,-962.267725
941.282815,8734.430116,-8044.002729,1628.453072
941.283145,9030.512492,4826.401637,6661.853478
941.283474,5699.585753,13713.109414,10066.800811
941.283804,4145.153275,15092.081311,12731.542202
941.284133,888.247130,15858.176809,16284.530724
941.284463,-2072.576638,11874.480219,19171.333898
941.284792,-5773.606348,3524.039291,18209.066173
941.285122,-10955.047942,-2834.553343,12879.583391
941.285451,-13989.892304,-6818.249932,7920.203579
941.285780,-11621.233289,-12257.527968,3182.885551
941.286110,-5255.462188,-15551.738609,1110.308913
941.286439,1406.391290,-12410.747068,1554.432478
941.286769,4737.318029,-5898.935335,4441.235652
941.287098,5255.462188,4749.792088,7920.203579
941.287428,4959.379811,12717.185267,9400.615463
941.287757,6587.832884,16317.834107,11177.109724
941.288087,5329.482782,17466.977354,12583.501014
941.288416,2516.700203,10418.898773,17838.963202
941.288746,-2590.720797,766.095498,19911.539840
941.289075,-10436.903782,995.924147,16210.510130
941.289405,-14211.954086,-1532.190996,11399.171507
941.289734,-11843.295072,-9959.241474,7179.997637
941.290063,-6661.853478,-13559.890315,2812.782580
941.290393,814.226536,-13100.233016,-222.061783
941.290722,7402.059420,-11108.384721,1850.514855
941.291052,9104.533087,459.657299,5033.400406
941.291381,6217.729913,13636.499864,9622.677246
941.291711,4737.318029,16088.005458,11917.315666
941.292040,2368.659014,15398.519510,15988.448347
941.292370,-370.102971,12947.013916,18949.272115
941.292699,-4219.173869,5362.668486,18357.107362
941.293029,-8290.306550,-842.705048,13841.851115
941.293358,-10807.006753,-4749.792088,9844.739029
941.293687,-10658.965565,-10648.727422,6513.812290
941.294017,-6513.812290,-13023.623466,2368.659014
941.294346,-814.226536,-12104.308868,-592.164754
941.294676,5921.647536,-8580.269578,2072.576638
941.295005,8660.409521,1532.190996,6143.709319
941.295335,6661.853478,11951.089769,8956.491898
941.295664,6439.791695,15628.348159,9252.574275
941.295994,4811.338623,16471.053207,12065.356855
941.296323,2294.638420,13789.718964,17838.963202
941.296653,-2886.803174,5132.839837,21243.910535
941.296982,-8734.430116,0.000000,16654.633695
941.297312,-13471.748144,-2068.457845,10510.924376
941.297641,-11991.336260,-8886.707777,8364.327145
941.297970,-7846.182985,-13406.671215,5921.647536
941.298300,-2516.700203,-11797.870669,1184.329507
941.298629,4737.318029,-9806.022374,-814.226536
941.298959,10732.986159,-3524.039291,2368.659014
941.299288,9992.780217,8810.098227,7031.956449
941.299618,7328.038826,15168.690860,10140.821405
941.299947,4663.297435,15321.909960,12805.562797
941.300277,0.000000,14862.252661,16506.592507
941.300606,-3108.864956,9576.193725,20651.745782
941.300936,-7846.182985,1378.971896,18949.272115
941.301265,-11917.315666,-4366.744339,12509.480420
941.301594,-13323.706956,-8733.488677,6143.709319
941.301924,-8808.450710,-13406.671215,2590.720797
941.302253,-1480.411884,-15321.909960,1998.556043
941.302583,4515.256246,-10648.727422,3108.864956
941.302912,6069.688724,-2068.457845,6069.688724
941.303242,5625.565159,7737.564530,8216.285956
941.303571,5477.523971,14096.157163,9918.759623
941.303901,5255.462188,15934.786358,12139.377449
941.304230,2368.659014,14019.547613,15692.365970
941.304560,-1480.411884,5975.544884,19615.457463
941.304889,-7402.059420,2068.457845,17690.922014
941.305219,-11917.315666,-766.095498,12657.521608
941.305548,-12139.377449,-7660.954980,8882.471304
941.305877,-8586.388927,-12257.527968,4885.359217
941.306207,-2886.803174,-13253.452115,888.247130
941.306536,4663.297435,-11874.480219,-222.061783
941.306866,9030.512492,-4749.792088,2738.761985
941.307195,8734.430116,7354.516781,7179.997637
941.307525,6439.791695,14632.424012,10510.924376
941.307854,5625.565159,15092.081311,12879.583391
941.308184,1554.432478,14709.033562,16580.613101
941.308513,-1702.473667,9193.145976,19393.395680
941.308843,-6809.894666,1991.848295,17394.839637
941.309172,-11843.295072,-1915.238745,12805.562797
941.309502,-12879.583391,-6511.811733,8956.491898
941.309831,-9770.718434,-11874.480219,4515.256246
941.310160,-4367.215058,-13713.109414,-0.000000
941.310490,3034.844362,-12257.527968,-666.185348
941.310819,7254.018232,-6052.154434,3701.029710
941.311149,7476.080014,5515.887586,7031.956449
941.311478,5921.647536,13176.842566,8734.430116
941.311808,5625.565159,15168.690860,10436.903782
941.312137,2886.803174,16930.710506,13915.871710
941.312467,-592.164754,9422.974625,19023.292709
941.312796,-5033.400406,383.047749,20947.828159
941.313126,-12139.377449,-612.876398,16210.510130
941.313455,-15026.180623,-2987.772442,10807.006753
941.313784,-11251.130318,-11414.822920,7105.977043
941.314114,-4737.318029,-14479.204912,3775.050304
941.314443,3330.926739,-11338.213370,-0.000000
941.314773,9326.594869,-8350.440928,518.144159
941.315102,10881.027347,1991.848295,3997.112087
941.315432,7994.224174,14019.547613,9178.553681
941.315761,5773.606348,16930.710506,12805.562797
941.316091,2960.823768,15858.176809,15840.407159
941.316420,-888.247130,12410.747068,19245.354492
941.316750,-5255.462188,4673.182538,19171.333898
941.317079,-10732.986159,-1915.238745,14434.015869
941.317409,-14137.933492,-5286.058936,10066.800811
941.317738,-12287.418637,-10801.946522,6217.729913
941.318067,-7105.977043,-13559.890315,2368.659014
941.318397,148.041188,-12257.527968,-0.000000
941.318726,5921.647536,-8273.831378,1924.535449
941.319056,7624.121203,1608.800546,4737.318029
941.319385,6439.791695,11874.480219,7772.162391
941.319715,6291.750507,16164.615008,10288.862594
941.320044,4515.256246,18156.463303,12509.480420
941.320374,1776.494261,14938.862211,16580.613101
941.320703,-3034.844362,3064.381992,19171.333898
941.321033,-9474.636058,-1685.410096,16802.674883
941.321362,-14952.160028,-1532.190996,11769.274478
941.321692,-12805.562797,-9269.755526,8364.327145
941.322021,-6883.915261,-13253.452115,4811.338623
941.322351,-370.102971,-10955.165621,962.267725
941.322680,7105.977043,-9806.022374,-592.164754
941.323010,11325.150913,-4290.134789,1924.535449
941.323339,10066.800811,9116.536426,6291.750507
941.323668,7254.018232,17160.539155,11029.068536
941.323998,4071.132681,16317.834107,16654.633695
941.324327,-1258.350101,15168.690860,19245.354492
941.324657,-5995.668130,8963.317327,19763.498651
941.324986,-9918.759623,-1302.362347,16136.489536
941.325316,-11399.171507,-4443.353888,10732.986159
941.325645,-11251.130318,-9346.365076,6439.791695
941.325975,-6513.812290,-14019.547613,2590.720797
941.326304,-666.185348,-13713.109414,962.267725
941.326634,4367.215058,-9193.145976,2146.597232
941.326963,6587.832884,-383.047749,5551.544565
941.327293,6069.688724,8580.269578,8290.306550
941.327622,5699.585753,15628.348159,9992.780217
941.327952,4663.297435,16854.100956,12731.542202
941.328281,2294.638420,12180.918418,17690.922014
941.328611,-2220.617826,4366.744339,20873.807564
941.328940,-9400.615463,1378.971896,17024.736666
941.329270,-13619.789333,-1149.143247,11695.253884
941.329599,-11917.315666,-8197.221829,8882.471304
941.329929,-6809.894666,-12793.794817,4737.318029
941.330258,0.000000,-12563.966167,-0.000000
941.330588,7105.977043,-11951.089769,-1332.370696
941.330917,11029.068536,-3064.381992,2516.700203
941.331247,9252.574275,9269.755526,6661.853478
941.331576,6883.915261,14785.643111,10510.924376
941.331906,5107.421000,15168.690860,14582.057057
941.332235,0.000000,13942.938064,18209.066173
941.332565,-3923.091493,8350.440928,20429.683999
941.332894,-8882.471304,766.095498,16950.716072
941.333223,-12139.377449,-3600.648841,12287.418637
941.333553,-12731.542202,-8350.440928,7772.162391
941.333882,-9400.615463,-12334.137518,2738.761985
941.334212,-3034.844362,-13636.499864,-296.082377
941.334541,3775.050304,-11108.384721,370.102971
941.334871,6587.832884,-3524.039291,4737.318029
941.335200,6587.832884,8120.612279,7772.162391
941.335530,5403.503377,14402.595362,9844.739029
941.335859,5921.647536,16317.834107,10807.006753
941.336189,2886.803174,15475.129060,15026.180623
941.336518,-518.144159,5669.106685,20651.745782
941.336848,-6439.791695,0.000000,20355.663405
941.337177,-13323.706956,0.000000,14508.036463
941.337507,-14804.118840,-4290.134789,8956.491898
941.337836,-9918.759623,-11338.213370,5329.482782
941.338166,-3478.967927,-13636.499864,2220.617826
941.338495,4293.194464,-11874.480219,-592.164754
941.338825,9252.574275,-6894.859482,1924.535449
941.339154,9918.759623,6052.154434,6069.688724
941.339484,7105.977043,14785.643111,9770.718434
941.339813,5329.482782,14862.252661,12213.398043
941.340143,1776.494261,14862.252661,15988.448347
941.340472,-1998.556043,10189.070123,19689.478057
941.340802,-6217.729913,2834.553343,18801.230927
941.341131,-12065.356855,-1915.238745,13619.789333
941.341461,-14211.954086,-5822.325785,9918.759623
941.341790,-11399.171507,-11797.870669,5625.565159
941.342120,-5329.482782,-13789.718964,1554.432478
941.342449,2516.700203,-11568.042020,-888.247130
941.342778,7920.203579,-6971.469032,1406.391290
941.343108,8734.430116,3753.867940,6217.729913
941.343437,6735.874072,13406.671215,9400.615463
941.343767,5847.626942,16930.710506,11103.089130
941.344096,3849.070898,18079.853753,13545.768739
941.344426,518.144159,11031.775171,18875.251521
941.344755,-4959.379811,1378.971896,19763.498651
941.345085,-11547.212695,-1149.143247,15248.242405
941.345414,-14063.912898,-3753.867940,10510.924376
941.345744,-10732.986159,-10418.898773,8882.471304
941.346073,-6587.832884,-12410.747068,4589.276840
941.346403,74.020594,-10648.727422,-962.267725
941.346732,8438.347739,-9576.193725,-1184.329507
941.347062,12583.501014,-612.876398,2738.761985
941.347391,10214.842000,12640.575717,7920.203579
941.347721,7031.956449,16471.053207,11769.274478
941.348050,3034.844362,15092.081311,15026.180623
941.348380,-1554.432478,14709.033562,18949.272115
941.348709,-6143.709319,7584.345430,20651.745782
941.349039,-9400.615463,-1072.533697,16580.613101
941.349368,-11547.212695,-6052.154434,10584.944971
941.349698,-11399.171507,-10342.289223,5403.503377
941.350027,-7254.018232,-14402.595362,1628.453072
941.350357,-592.164754,-13023.623466,518.144159
941.350686,5551.544565,-7354.516781,2812.782580
941.351016,7476.080014,1072.533697,6439.791695
941.351345,6439.791695,10878.556072,9178.553681
941.351675,5995.668130,16394.443657,9844.739029
941.352004,4367.215058,16700.881856,11621.233289
941.352333,1480.411884,12487.356617,16432.571912
941.352663,-3552.988522,4903.011187,20429.683999
941.352992,-8586.388927,0.000000,17468.860231
941.353322,-12731.542202,-2911.162892,11029.068536
941.353651,-13027.624579,-9269.755526,7105.977043
941.353981,-8808.450710,-13406.671215,4071.132681
941.354310,-1702.473667,-13406.671215,1702.473667
941.354640,6365.771101,-10418.898773,962.267725
941.354969,10362.883188,-1455.581446,3701.029710
941.355299,9770.718434,9116.536426,7105.977043
941.355628,7179.997637,14709.033562,10140.821405
941.355958,4293.194464,15168.690860,14359.995275
941.356287,-296.082377,14785.643111,18505.148550
941.356617,-4441.235652,9729.412825,20133.601622
941.356946,-7920.203579,1302.362347,16506.592507
941.357276,-11029.068536,-5209.449386,11325.150913
941.357605,-12065.356855,-10801.946522,7031.956449
941.357935,-8290.306550,-14785.643111,2368.659014
941.358264,-2146.597232,-14325.985813,-74.020594
941.358594,4219.173869,-9576.193725,1554.432478
941.358923,6735.874072,-1072.533697,6365.771101
941.359253,6661.853478,8273.831378,9104.533087
941.359582,6735.874072,13866.328514,9770.718434
941.359912,6069.688724,16700.881856,11177.109724
941.360241,3552.988522,14555.814462,15618.345376
941.360571,-1110.308913,6128.763984,20577.725188
941.360900,-7550.100608,-153.219100,18431.127956
941.361230,-12805.562797,-1762.019645,13101.645173
941.361559,-13323.706956,-6665.030833,9622.677246
941.361888,-9770.718434,-11951.089769,6143.709319
941.362218,-4219.173869,-13866.328514,1924.535449
941.362547,3997.112087,-11797.870669,-1110.308913
941.362877,10436.903782,-6052.154434,2072.576638
941.363206,11177.109724,6435.202183,6587.832884
941.363536,7994.224174,15168.690860,10214.842000
941.363865,6143.709319,16624.272307,11843.295072
941.364195,1332.370696,16624.272307,14878.139434
941.364524,-1924.535449,10418.898773,19171.333898
941.364854,-6365.771101,2145.067394,18801.230927
941.365183,-11695.253884,-2757.943793,13101.645173
941.365513,-13397.727550,-7277.907231,7920.203579
941.365842,-11473.192101,-13406.671215,3330.926739
941.366172,-5921.647536,-15092.081311,1776.494261
941.366501,1998.556043,-12257.527968,1332.370696
941.366831,6291.750507,-5669.106685,5033.400406
941.367160,7105.977043,6435.202183,7994.224174
941.367490,5625.565159,14709.033562,9844.739029
941.367819,6365.771101,16317.834107,11251.130318
941.368149,3923.091493,17313.758255,13693.809927
941.368478,444.123565,11414.822920,17246.798449
941.368808,-4145.153275,1455.581446,18431.127956
941.369137,-10362.883188,-1378.971896,14211.954086
941.369467,-13915.871710,-4826.401637,10140.821405
941.369796,-11843.295072,-11874.480219,6587.832884
941.370126,-6291.750507,-14632.424012,4367.215058
941.370455,1332.370696,-11568.042020,888.247130
941.370785,7698.141797,-7737.564530,1628.453072
941.371114,10288.862594,1608.800546,4367.215058
941.371443,8586.388927,13253.452115,9474.636058
941.371773,6809.894666,17007.320056,13175.665768
941.372102,3404.947333,17160.539155,16950.716072
941.372432,-1406.391290,15015.471761,18505.148550
941.372761,-5699.585753,6128.763984,17024.736666
941.373091,-9178.553681,-2221.676944,12583.501014
941.373420,-11177.109724,-6894.859482,9104.533087
941.373750,-9844.739029,-12180.918418,5551.544565
941.374079,-6291.750507,-14555.814462,1184.329507
941.374409,0.000000,-12334.137518,-296.082377
941.374738,5255.462188,-7124.688131,2960.823768
941.375068,7105.977043,2374.896044,7179.997637
941.375397,6069.688724,12104.308868,9992.780217
941.375727,6069.688724,17160.539155,10288.862594
941.376056,4663.297435,17773.415554,13323.706956
941.376386,1924.535449,12027.699319,18283.086767
941.376715,-3552.988522,4290.134789,20207.622217
941.377045,-9252.574275,-1225.752797,14952.160028
941.377374,-12213.398043,-4290.134789,9104.533087
941.377704,-11177.109724,-10342.289223,6439.791695
941.378033,-6143.709319,-14785.643111,3849.070898
941.378363,-148.041188,-13176.842566,1628.453072
941.378692,6365.771101,-8886.707777,2442.679609
941.379022,9844.739029,995.924147,5551.544565
941.379351,8364.327145,11491.432470,9770.718434
941.379681,7328.038826,15551.738609,11769.274478
941.380010,3849.070898,15245.300410,14952.160028
941.380340,0.000000,13559.890315,18801.230927
941.380669,-4441.235652,7354.516781,19393.395680
941.380998,-8808.450710,-689.485948,14804.118840
941.381328,-11917.315666,-5898.935335,9474.636058
941.381657,-12657.521608,-11951.089769,4959.379811
941.381987,-7698.141797,-15934.786358,2220.617826
941.382316,-1480.411884,-14709.033562,1406.391290
941.382646,3627.009116,-8580.269578,4145.153275
941.382975,5033.400406,689.485948,6809.894666
941.383305,4959.379811,10342.289223,9844.739029
941.383634,6365.771101,15092.081311,10955.047942
941.383964,5995.668130,16854.100956,12657.521608
941.384293,4145.153275,13483.280765,17024.736666
941.384623,-962.267725,5592.497135,18949.272115
941.384952,-7476.080014,536.266849,14359.995275
941.385282,-12583.501014,-2681.334243,9992.780217
941.385611,-13471.748144,-8656.879127,7328.038826
941.385941,-9622.677246,-13253.452115,3701.029710
941.386270,-3478.967927,-14555.814462,1332.370696
941.386600,3849.070898,-11261.603821,1776.494261
941.386929,7105.977043,-2451.505594,4737.318029
941.387259,7031.956449,8810.098227,7994.224174
941.387588,6809.894666,13942.938064,10584.944971
941.387918,5995.668130,17160.539155,12731.542202
941.388247,2516.700203,15781.567259,16062.468941
941.388577,0.000000,7354.516781,18209.066173
941.388906,-6661.853478,919.314598,15988.448347
941.389236,-11843.295072,-2451.505594,11325.150913
941.389565,-12805.562797,-8044.002729,8808.450710
941.389895,-9474.636058,-12563.966167,5107.421000
941.390224,-3182.885551,-13713.109414,1998.556043
941.390553,2960.823768,-11568.042020,1628.453072
941.390883,6513.812290,-3677.258390,5107.421000
941.391212,7105.977043,8120.612279,7402.059420
941.391542,6513.812290,13406.671215,9844.739029
941.391871,6365.771101,16547.662757,11695.253884
941.392201,3478.967927,17773.415554,14508.036463
941.392530,740.205942,8120.612279,18283.086767
941.392860,-5107.421000,536.266849,17542.880825
941.393189,-11991.336260,-1302.362347,12879.583391
941.393519,-13915.871710,-5745.716235,9918.759623
941.393848,-10510.924376,-12487.356617,8216.285956
941.394178,-5699.585753,-13100.233016,5033.400406
941.394507,1776.494261,-9652.803275,888.247130
941.394837,8512.368333,-6588.421283,962.267725
941.395166,11547.212695,3524.039291,5033.400406
941.395496,9696.697840,13636.499864,8956.491898
941.395825,7698.141797,15628.348159,12583.501014
941.396155,3256.906145,16854.100956,16210.510130
941.396484,-1480.411884,14172.766713,17987.004391
941.396814,-5699.585753,5439.278036,16728.654289
941.397143,-9104.533087,-2451.505594,11843.295072
941.397473,-10732.986159,-7890.783629,8512.368333
941.397802,-9992.780217,-12104.308868,4885.359217
941.398132,-6809.894666,-14096.157163,1924.535449
941.398461,-740.205942,-10648.727422,1258.350101
941.398791,4293.194464,-4673.182538,4441.235652
941.399120,6513.812290,2757.943793,7328.038826
941.399450,5329.482782,11414.822920,8882.471304
941.399779,5551.544565,16164.615008,9622.677246
941.400108,4071.132681,16241.224558,13101.645173
941.400438,1628.453072,11261.603821,18431.127956
941.400767,-3923.091493,4136.915689,19467.416275
941.401097,-9992.780217,-459.657299,14952.160028
941.401426,-12953.603985,-4749.792088,9696.697840
941.401756,-11325.150913,-10495.508323,7254.018232
941.402085,-6291.750507,-14019.547613,5033.400406
941.402415,296.082377,-11951.089769,1998.556043
941.402744,6809.894666,-7584.345430,2368.659014
941.403074,9696.697840,919.314598,4737.318029
941.403403,8512.368333,10648.727422,8660.409521
941.403733,6957.935855,14325.985813,11695.253884
941.404062,3627.009116,14862.252661,15100.201217
941.404392,-592.164754,12947.013916,18283.086767
941.404721,-4959.379811,7124.688131,18653.189738
941.405051,-8512.368333,-919.314598,14878.139434
941.405380,-11843.295072,-5975.544884,10140.821405
941.405710,-12139.377449,-11644.651570,5181.441594
941.406039,-7179.997637,-14019.547613,2072.576638
941.406369,-666.185348,-12640.575717,1332.370696
941.406698,4071.132681,-7124.688131,3849.070898
941.407028,5625.565159,1532.190996,6143.709319
941.407357,5329.482782,9499.584175,8586.388927
941.407687,6735.874072,14325.985813,9770.718434
941.408016,5403.503377,16700.881856,12139.377449
941.408346,2072.576638,12640.575717,16876.695478
941.408675,-3701.029710,3830.477490,19245.354492
941.409005,-10436.903782,-612.876398,16432.571912
941.409334,-14804.118840,-2451.505594,11621.233289
941.409664,-12583.501014,-8503.660028,9474.636058
941.409993,-7920.203579,-12870.404366,5551.544565
941.410322,-1850.514855,-12487.356617,-0.000000
941.410652,5847.626942,-11184.994271,-1258.350101
941.410981,10955.047942,-3217.601092,2516.700203
941.411311,10807.006753,9193.145976,7402.059420
941.411640,7550.100608,15858.176809,10807.006753
941.411970,4737.318029,16547.662757,13989.892304
941.412299,962.267725,15092.081311,16802.674883
941.412629,-2664.741391,7967.393179,19615.457463
941.412958,-7476.080014,0.000000,17394.839637
941.413288,-11843.295072,-3983.696590,12731.542202
941.413617,-12509.480420,-8120.612279,8660.409521
941.413947,-9030.512492,-12717.185267,4737.318029
941.414276,-3627.009116,-13023.623466,1702.473667
941.414606,2664.741391,-10035.851024,1036.288319
941.414935,6957.935855,-3753.867940,4515.256246
941.415265,6883.915261,7431.126331,7179.997637
941.415594,6143.709319,14249.376263,8882.471304
941.415924,5921.647536,15628.348159,11399.171507
941.416253,2516.700203,14938.862211,14359.995275
941.416583,-1554.432478,7354.516781,19097.313304
941.416912,-7994.224174,1225.752797,18209.066173
941.417242,-13545.768739,-919.314598,13545.768739
941.417571,-14582.057057,-5592.497135,9474.636058
941.417901,-10362.883188,-11031.775171,6661.853478
941.418230,-4367.215058,-12793.794817,3330.926739
941.418560,2812.782580,-9959.241474,370.102971
941.418889,8512.368333,-4979.620737,1702.473667
941.419219,8956.491898,5132.839837,4959.379811
941.419548,6957.935855,14096.157163,9474.636058
941.419877,5403.503377,15704.957709,12657.521608
941.420207,1332.370696,15092.081311,17024.736666
941.420536,-2960.823768,11184.994271,18949.272115
941.420866,-8290.306550,3677.258390,16876.695478
941.421195,-12583.501014,-2757.943793,11991.336260
941.421525,-14285.974681,-7584.345430,8512.368333
941.421854,-12509.480420,-10725.336972,4071.132681
941.422184,-6957.935855,-12717.185267,1406.391290
941.422513,148.041188,-11568.042020,740.205942
941.422843,4663.297435,-5132.839837,4145.153275
941.423172,4885.359217,5209.449386,6957.935855
941.423502,4367.215058,12793.794817,8438.347739
941.423832,4145.153275,15781.567259,10436.903782
941.424161,592.164754,17620.196454,14508.036463
941.424491,-2516.700203,12640.575717,16580.613101
941.424820,-6661.853478,1685.410096,18431.127956
941.425150,-12657.521608,-2987.772442,15914.427753
941.425479,-17690.922014,-4749.792088,11325.150913
941.425809,-16728.654289,-11414.822920,8290.306550
941.426138,-11325.150913,-14019.547613,5995.668130
941.426468,-4737.318029,-10648.727422,2960.823768
941.426798,2368.659014,-7354.516781,1850.514855
941.427127,7624.121203,-1685.410096,3034.844362
941.427457,7624.121203,8350.440928,6291.750507
941.427786,5773.606348,16317.834107,9696.697840
941.428116,2664.741391,17160.539155,13471.748144
941.428445,-370.102971,15245.300410,15396.283594
941.428775,-3330.926739,8350.440928,14952.160028
941.429104,-7105.977043,-1302.362347,14063.912898
941.429434,-10732.986159,-5975.544884,12805.562797
941.429763,-13693.809927,-10648.727422,11843.295072
941.430093,-14211.954086,-12257.527968,9696.697840
941.430423,-12731.542202,-9193.145976,6661.853478
941.430752,-7624.121203,-6511.811733,5033.400406
941.431082,-1110.308913,-2911.162892,5403.503377
941.431411,2960.823768,1685.410096,6439.791695
941.431741,3849.070898,8963.317327,7105.977043
941.432070,3478.967927,13559.890315,8660.409521
941.432400,1184.329507,13176.842566,10362.883188
941.432729,-1480.411884,9652.803275,12213.398043
941.433059,-5329.482782,4519.963438,11991.336260
941.433389,-8660.409521,-459.657299,9770.718434
941.433718,-9474.636058,-5898.935335,8290.306550
941.434048,-9696.697840,-9729.412825,8290.306550
941.434377,-9400.615463,-9039.926876,9178.553681
941.434707,-7994.224174,-6281.983084,9252.574275
941.435036,-4737.318029,-3294.210641,8882.471304
941.435366,-2072.576638,1991.848295,9030.512492
941.435695,592.164754,6971.469032,10362.883188
941.436025,2072.576638,8273.831378,11103.089130
941.436354,1628.453072,8656.879127,11695.253884
941.436684,74.020594,6894.859482,12065.356855
941.437014,-2442.679609,5209.449386,12361.439231
941.437343,-5477.523971,2374.896044,11621.233289
941.437673,-7476.080014,-2298.286494,9178.553681
941.438002,-8364.327145,-5669.106685,7105.977043
941.438332,-7179.997637,-6665.030833,6217.729913
941.438661,-4959.379811,-4826.401637,6365.771101
941.438991,-3552.988522,-2987.772442,7105.977043
941.439320,-2368.659014,1455.581446,7402.059420
941.439650,-1628.453072,4673.182538,8734.430116
941.439980,-740.205942,6205.373534,10140.821405
941.440309,-962.267725,8197.221829,11177.109724
941.440639,-2590.720797,6894.859482,11621.233289
941.440968,-3701.029710,3753.867940,11991.336260
941.441298,-4737.318029,1991.848295,12139.377449
941.441627,-6365.771101,383.047749,11843.295072
941.441957,-7105.977043,-1685.410096,10140.821405
941.442286,-6883.915261,-2604.724693,8882.471304
941.442616,-5551.544565,-536.266849,8142.265362
941.442946,-3478.967927,919.314598,7550.100608
941.443275,-1184.329507,2145.067394,7476.080014
941.443605,222.061783,4213.525239,7476.080014
941.443934,222.061783,5362.668486,7920.203579
941.444264,-888.247130,5286.058936,8068.244768
941.444593,-2442.679609,4749.792088,8142.265362
941.444923,-3330.926739,2298.286494,9474.636058
941.445252,-4071.132681,995.924147,10436.903782
941.445582,-5033.400406,153.219100,10510.924376
941.445911,-4663.297435,-459.657299,10288.862594
941.446241,-3182.885551,-689.485948,9770.718434
941.446571,-2516.700203,919.314598,9474.636058
941.446900,-1924.535449,3753.867940,10214.842000
941.447230,-1258.350101,5362.668486,10362.883188
941.447559,-592.164754,5898.935335,10288.862594
941.447889,-1258.350101,5745.716235,9918.759623
941.448218,-814.226536,4826.401637,10140.821405
941.448548,-2146.597232,3830.477490,9992.780217
941.448877,-2516.700203,2145.067394,9696.697840
941.449207,-2664.741391,1685.410096,9622.677246
941.449537,-2886.803174,1685.410096,9326.594869
941.449866,-2368.659014,1991.848295,8956.491898
941.450196,-1110.308913,1685.410096,8956.491898
941.450525,-296.082377,3600.648841,9696.697840
941.450855,-370.102971,6128.763984,10288.862594
941.451184,-814.226536,7660.954980,10881.027347
941.451514,-1406.391290,7660.954980,10436.903782
941.451843,-2368.659014,7814.174080,10510.924376
941.452173,-2664.741391,6741.640382,9548.656652
941.452503,-2368.659014,4290.134789,8068.244768
941.452832,-1110.308913,1915.238745,6735.874072
941.453162,74.020594,536.266849,5551.544565
941.453491,-296.082377,1072.533697,5551.544565
941.453821,-666.185348,1532.190996,6661.853478
941.454150,-1332.370696,3677.258390,8068.244768
941.454480,-1776.494261,5898.935335,9178.553681
941.454809,-2368.659014,6971.469032,9844.739029
941.455139,-2146.597232,6665.030833,10362.883188
941.455468,-1924.535449,6052.154434,10288.862594
941.455798,-1702.473667,5362.668486,9992.780217
941.456128,-1332.370696,3830.477490,10140.821405
941.456457,-1332.370696,2911.162892,10362.883188
