#time,accel_x,accel_y,accel_z
842.503855,-1036.288319,766.095498,9474.636058
842.504184,-1036.288319,919.314598,9474.636058
842.504514,-1110.308913,1225.752797,9400.615463
842.504843,-814.226536,842.705048,9474.636058
842.505172,-1258.350101,995.924147,9400.615463
842.505501,-1036.288319,919.314598,9474.636058
842.505830,-1184.329507,1149.143247,9400.615463
842.506159,-1110.308913,919.314598,9622.677246
842.506488,-962.267725,766.095498,9400.615463
842.506818,-1036.288319,995.924147,9252.574275
842.507147,-814.226536,1072.533697,9474.636058
842.507476,-1110.308913,995.924147,9474.636058
842.507805,-962.267725,842.705048,9474.636058
842.508134,-1184.329507,766.095498,9548.656652
842.508463,-814.226536,995.924147,10140.821405
842.508792,-1036.288319,1072.533697,9918.759623
842.509122,-962.267725,689.485948,9696.697840
842.509451,-1036.288319,919.314598,9474.636058
842.509780,-1110.308913,919.314598,9474.636058
842.510109,-1036.288319,1455.581446,9474.636058
842.510438,-814.226536,995.924147,9548.656652
842.510767,-814.226536,919.314598,9770.718434
842.511096,-1110.308913,995.924147,9548.656652
842.511426,-1036.288319,842.705048,9474.636058
842.511755,-1036.288319,1149.143247,9400.615463
842.512084,-1036.288319,1072.533697,9474.636058
842.512413,-1110.308913,766.095498,9770.718434
842.512742,-962.267725,919.314598,9548.656652
842.513071,-1184.329507,766.095498,9548.656652
842.513400,-1036.288319,995.924147,9696.697840
842.513730,-962.267725,919.314598,9400.615463
842.514059,-962.267725,766.095498,9696.697840
842.514388,-962.267725,842.705048,9622.677246
842.514717,-1036.288319,1149.143247,9548.656652
842.515046,-1036.288319,842.705048,9400.615463
842.515375,-1332.370696,536.266849,9474.636058
842.515704,-888.247130,766.095498,9622.677246
842.516034,-1110.308913,842.705048,9474.636058
842.516363,-1184.329507,1072.533697,9548.656652
842.516692,-1036.288319,1072.533697,9548.656652
842.517021,-888.247130,919.314598,9474.636058
842.517350,-814.226536,1455.581446,9400.615463
842.517679,-888.247130,995.924147,9474.636058
842.518008,-962.267725,919.314598,9548.656652
842.518337,-888.247130,1072.533697,9474.636058
842.518667,-1110.308913,766.095498,9622.677246
842.518996,-814.226536,612.876398,9696.697840
842.519325,-592.164754,689.485948,9548.656652
842.519654,-962.267725,689.485948,9622.677246
842.519983,-962.267725,842.705048,9474.636058
842.520312,-1036.288319,766.095498,9474.636058
842.520641,-666.185348,1072.533697,9474.636058
842.520971,-1036.288319,766.095498,9474.636058
842.521300,-1036.288319,1225.752797,9696.697840
842.521629,-1036.288319,689.485948,9548.656652
842.521958,-1110.308913,995.924147,9622.677246
842.522287,-1036.288319,1225.752797,9474.636058
842.522616,-962.267725,766.095498,9178.553681
842.522945,-1036.288319,995.924147,9474.636058
842.523275,-888.247130,995.924147,9622.677246
842.523604,-1110.308913,689.485948,9474.636058
842.523933,-1110.308913,1072.533697,9474.636058
842.524262,-1036.288319,1378.971896,9918.759623
842.524591,-1036.288319,766.095498,9548.656652
842.524920,-1184.329507,842.705048,9474.636058
842.525249,-1184.329507,1072.533697,9474.636058
842.525579,-962.267725,995.924147,9622.677246
842.525908,-1110.308913,1149.143247,9400.615463
842.526237,-888.247130,995.924147,9178.553681
842.526566,-1110.308913,1072.533697,9474.636058
842.526895,-1036.288319,995.924147,9696.697840
842.527224,-1036.288319,1072.533697,9696.697840
842.527553,-888.247130,1072.533697,9770.718434
842.527883,-444.123565,995.924147,9992.780217
842.528212,-1036.288319,689.485948,9474.636058
842.528541,-1184.329507,919.314598,9252.574275
842.528870,-1110.308913,842.705048,9474.636058
842.529199,-888.247130,1072.533697,9474.636058
842.529528,-1036.288319,919.314598,9696.697840
842.529857,-1332.370696,919.314598,9548.656652
842.530186,-962.267725,919.314598,9474.636058
842.530516,-1110.308913,995.924147,9622.677246
842.530845,-962.267725,842.705048,9770.718434
842.531174,-740.205942,842.705048,9178.553681
842.531503,-370.102971,919.314598,9474.636058
842.531832,148.041188,842.705048,9252.574275
842.532161,814.226536,459.657299,9326.594869
842.532490,814.226536,536.266849,9178.553681
842.532820,444.123565,919.314598,9104.533087
842.533149,444.123565,1072.533697,9548.656652
842.533478,0.000000,612.876398,10288.862594
842.533807,-592.164754,842.705048,10584.944971
842.534136,-666.185348,383.047749,10140.821405
842.534465,-296.082377,153.219100,9918.759623
842.534794,370.102971,0.000000,9400.615463
842.535124,1406.391290,76.609550,9252.574275
842.535453,2516.700203,459.657299,8956.491898
842.535782,3182.885551,919.314598,8734.430116
842.536111,3627.009116,1455.581446,9030.512492
842.536440,3478.967927,1915.238745,9400.615463
842.536769,3478.967927,2298.286494,9474.636058
842.537098,2960.823768,1378.971896,10140.821405
842.537428,2220.617826,919.314598,10362.883188
842.537757,1480.411884,919.314598,10658.965565
842.538086,1406.391290,229.828649,10584.944971
842.538415,1702.473667,-612.876398,10732.986159
842.538744,1850.514855,-76.609550,9844.739029
842.539073,2664.741391,-306.438199,9326.594869
842.539402,3701.029710,76.609550,9252.574275
842.539732,4293.194464,1072.533697,9252.574275
842.540061,4589.276840,1991.848295,9178.553681
842.540390,3552.988522,2604.724693,9770.718434
842.540719,2368.659014,2834.553343,10362.883188
842.541048,296.082377,2987.772442,10584.944971
842.541377,-1332.370696,2374.896044,10140.821405
842.541706,-2146.597232,689.485948,9104.533087
842.542036,-1110.308913,-459.657299,7476.080014
842.542365,370.102971,-1455.581446,7031.956449
842.542694,1850.514855,-1302.362347,6735.874072
842.543023,2812.782580,0.000000,6883.915261
842.543352,3701.029710,1149.143247,7179.997637
842.543681,3182.885551,3064.381992,9030.512492
842.544010,1628.453072,4290.134789,11029.068536
842.544339,518.144159,4290.134789,11843.295072
842.544669,-888.247130,3064.381992,12361.439231
842.544998,-2146.597232,1762.019645,12287.418637
842.545327,-2664.741391,-306.438199,11399.171507
842.545656,-2664.741391,-2068.457845,10362.883188
842.545985,-2072.576638,-2604.724693,9474.636058
842.546314,-1184.329507,-2298.286494,8290.306550
842.546643,296.082377,-1149.143247,8068.244768
842.546973,2220.617826,-536.266849,7698.141797
842.547302,3404.947333,536.266849,7550.100608
842.547631,3330.926739,2451.505594,8364.327145
842.547960,2590.720797,3524.039291,9474.636058
842.548289,1406.391290,3830.477490,10436.903782
842.548618,74.020594,3983.696590,10807.006753
842.548947,-1332.370696,2451.505594,11547.212695
842.549277,-2368.659014,383.047749,11325.150913
842.549606,-2146.597232,-1149.143247,10584.944971
842.549935,-1850.514855,-2298.286494,9918.759623
842.550264,-2220.617826,-2221.676944,9918.759623
842.550593,-2294.638420,-1302.362347,9844.739029
842.550922,-2072.576638,229.828649,9548.656652
842.551251,-1184.329507,1762.019645,9400.615463
842.551581,-148.041188,2068.457845,8882.471304
842.551910,1036.288319,1608.800546,8142.265362
842.552239,1998.556043,919.314598,7476.080014
842.552568,1776.494261,612.876398,7550.100608
842.552897,1184.329507,459.657299,8290.306550
842.553226,888.247130,689.485948,9326.594869
842.553555,888.247130,612.876398,10436.903782
842.553885,592.164754,1072.533697,10658.965565
842.554214,74.020594,1149.143247,11103.089130
842.554543,-370.102971,1762.019645,11325.150913
842.554872,-888.247130,2068.457845,11399.171507
842.555201,-1850.514855,2451.505594,11325.150913
842.555530,-2516.700203,2221.676944,10362.883188
842.555859,-2590.720797,1225.752797,9030.512492
842.556189,-2294.638420,0.000000,7402.059420
842.556518,-1036.288319,-1225.752797,5847.626942
842.556847,-222.061783,-1532.190996,5181.441594
842.557176,592.164754,-1149.143247,5921.647536
842.557505,1332.370696,-766.095498,7550.100608
842.557834,-222.061783,1302.362347,9696.697840
842.558163,-2220.617826,3370.820191,11843.295072
842.558492,-3997.112087,4136.915689,13397.727550
842.558822,-5033.400406,3830.477490,14063.912898
842.559151,-4885.359217,3064.381992,13767.830521
842.559480,-4737.318029,1149.143247,11843.295072
842.559809,-3849.070898,-536.266849,9696.697840
842.560138,-1850.514855,-2298.286494,7846.182985
842.560467,0.000000,-2374.896044,6809.894666
842.560796,1628.453072,-689.485948,6217.729913
842.561126,2960.823768,383.047749,5921.647536
842.561455,4441.235652,1455.581446,7402.059420
842.561784,3849.070898,2681.334243,9178.553681
842.562113,2368.659014,4366.744339,11769.274478
842.562442,-296.082377,5515.887586,12953.603985
842.562771,-2664.741391,4749.792088,13249.686362
842.563100,-4885.359217,3370.820191,13027.624579
842.563430,-5773.606348,459.657299,11547.212695
842.563759,-4737.318029,-2374.896044,9622.677246
842.564088,-3478.967927,-4290.134789,7402.059420
842.564417,-2368.659014,-3753.867940,5847.626942
842.564746,-370.102971,-2145.067394,4959.379811
842.565075,1998.556043,0.000000,5329.482782
842.565404,3034.844362,1378.971896,6883.915261
842.565734,2146.597232,3983.696590,8882.471304
842.566063,518.144159,6281.983084,10807.006753
842.566392,-1406.391290,6971.469032,12435.459826
842.566721,-3478.967927,4903.011187,13323.706956
842.567050,-5181.441594,1991.848295,12731.542202
842.567379,-5181.441594,-612.876398,11103.089130
842.567708,-3404.947333,-3140.991542,9326.594869
842.568038,-1406.391290,-5286.058936,7105.977043
842.568367,962.267725,-4136.915689,6143.709319
842.568696,3404.947333,-2757.943793,6143.709319
842.569025,5033.400406,-229.828649,6883.915261
842.569354,5033.400406,2298.286494,8734.430116
842.569683,3775.050304,4979.620737,9844.739029
842.570012,1776.494261,6818.249932,12361.439231
842.570342,-1480.411884,6281.983084,13767.830521
842.570671,-4441.235652,4673.182538,13989.892304
842.571000,-6217.729913,1685.410096,13175.665768
842.571329,-6143.709319,-1072.533697,10955.047942
842.571658,-5403.503377,-4903.011187,8142.265362
842.571987,-4367.215058,-5592.497135,5995.668130
842.572316,-2146.597232,-4749.792088,4293.194464
842.572645,592.164754,-3064.381992,4515.256246
842.572975,2664.741391,-383.047749,6735.874072
842.573304,2072.576638,3064.381992,9474.636058
842.573633,74.020594,6052.154434,11251.130318
842.573962,-2072.576638,7354.516781,13323.706956
842.574291,-3997.112087,6665.030833,14285.974681
842.574620,-5329.482782,3524.039291,14063.912898
842.574949,-5699.585753,306.438199,12287.418637
842.575279,-4293.194464,-2604.724693,10362.883188
842.575608,-2590.720797,-5056.230287,7698.141797
842.575937,-296.082377,-5056.230287,6217.729913
842.576266,2294.638420,-3677.258390,5625.565159
842.576595,4737.318029,-306.438199,5921.647536
842.576924,5477.523971,2451.505594,7031.956449
842.577253,4737.318029,5209.449386,8882.471304
842.577583,3923.091493,7354.516781,10881.027347
842.577912,1628.453072,7354.516781,12805.562797
842.578241,-1776.494261,6511.811733,13545.768739
842.578570,-4737.318029,4443.353888,13101.645173
842.578899,-5995.668130,689.485948,11695.253884
842.579228,-5773.606348,-3830.477490,9474.636058
842.579557,-4515.256246,-5515.887586,7105.977043
842.579887,-2664.741391,-5745.716235,5255.462188
842.580216,74.020594,-3600.648841,4515.256246
842.580545,2738.761985,-1072.533697,5255.462188
842.580874,3034.844362,1838.629195,7105.977043
842.581204,1924.535449,5209.449386,9326.594869
842.581533,814.226536,7584.345430,12065.356855
842.581862,-962.267725,7507.735880,13989.892304
842.582192,-2516.700203,6128.763984,13619.789333
842.582521,-4071.132681,2911.162892,12509.480420
842.582850,-3404.947333,-1838.629195,11029.068536
842.583180,-2368.659014,-4673.182538,9548.656652
842.583509,-1406.391290,-4673.182538,8068.244768
842.583838,222.061783,-3677.258390,6883.915261
842.584167,2590.720797,-2145.067394,7105.977043
842.584497,3923.091493,153.219100,7550.100608
842.584826,4293.194464,2451.505594,8660.409521
842.585155,3108.864956,5209.449386,10140.821405
842.585485,1776.494261,6818.249932,11769.274478
842.585814,-1332.370696,6358.592633,12953.603985
842.586143,-4589.276840,4519.963438,13397.727550
842.586473,-6587.832884,1532.190996,12213.398043
842.586802,-6439.791695,-2145.067394,10214.842000
842.587131,-5255.462188,-4749.792088,8290.306550
842.587460,-4145.153275,-5056.230287,6291.750507
842.587790,-1924.535449,-4213.525239,4367.215058
842.588119,592.164754,-2911.162892,4589.276840
842.588448,1850.514855,-229.828649,6809.894666
842.588778,814.226536,3677.258390,8882.471304
842.589107,-814.226536,6358.592633,11547.212695
842.589436,-2590.720797,6358.592633,13397.727550
842.589766,-4737.318029,5515.887586,14137.933492
842.590095,-5625.565159,3217.601092,13545.768739
842.590424,-4737.318029,-1072.533697,11843.295072
842.590754,-3404.947333,-3677.258390,9844.739029
842.591083,-1702.473667,-4213.525239,7402.059420
842.591412,148.041188,-4673.182538,6661.853478
842.591741,3108.864956,-3370.820191,6735.874072
842.592071,5033.400406,-306.438199,7031.956449
842.592400,5329.482782,2528.115143,8068.244768
842.592729,4663.297435,5132.839837,9844.739029
842.593059,2664.741391,6741.640382,11473.192101
842.593388,148.041188,6588.421283,12731.542202
842.593717,-3404.947333,5362.668486,12879.583391
842.594047,-5477.523971,2221.676944,12435.459826
842.594376,-5551.544565,-995.924147,10807.006753
842.594705,-5181.441594,-4443.353888,8734.430116
842.595034,-4293.194464,-5362.668486,7031.956449
842.595364,-2072.576638,-4673.182538,5847.626942
842.595693,592.164754,-2451.505594,5477.523971
842.596022,2368.659014,612.876398,6217.729913
842.596352,2146.597232,3600.648841,8068.244768
842.596681,1480.411884,6588.421283,9992.780217
842.597010,518.144159,7354.516781,11917.315666
842.597340,-1702.473667,6358.592633,13397.727550
842.597669,-3701.029710,5132.839837,12509.480420
842.597998,-4441.235652,1838.629195,10881.027347
842.598327,-3108.864956,-3140.991542,9918.759623
842.598657,-2368.659014,-5056.230287,8364.327145
842.598986,-666.185348,-4519.963438,7179.997637
842.599315,1998.556043,-3447.429741,6661.853478
842.599645,3997.112087,-1149.143247,7328.038826
842.599974,3849.070898,1608.800546,8290.306550
842.600303,2812.782580,4673.182538,9400.615463
842.600633,1850.514855,6741.640382,11029.068536
842.600962,-148.041188,7277.907231,12435.459826
842.601291,-3108.864956,6128.763984,12657.521608
842.601620,-5181.441594,2681.334243,12213.398043
842.601950,-6069.688724,-995.924147,10807.006753
842.602279,-6143.709319,-3370.820191,8290.306550
842.602608,-4959.379811,-4213.525239,5921.647536
842.602938,-2664.741391,-4903.011187,5033.400406
842.603267,-666.185348,-3524.039291,5551.544565
842.603596,222.061783,-1072.533697,6957.935855
842.603926,-444.123565,2451.505594,9326.594869
842.604255,-2072.576638,5515.887586,11325.150913
842.604584,-2738.761985,7048.078582,13397.727550
842.604913,-3923.091493,5745.716235,14359.995275
842.605243,-4811.338623,2834.553343,13101.645173
842.605572,-4737.318029,76.609550,11251.130318
842.605901,-2738.761985,-2834.553343,9178.553681
842.606231,-740.205942,-4903.011187,7846.182985
842.606560,1480.411884,-4060.306139,6735.874072
842.606889,3404.947333,-2987.772442,6957.935855
842.607219,5477.523971,-842.705048,7550.100608
842.607548,5773.606348,2451.505594,8882.471304
842.607877,4811.338623,5592.497135,10066.800811
842.608206,3997.112087,7048.078582,11547.212695
842.608536,1110.308913,6818.249932,12435.459826
842.608865,-2294.638420,5515.887586,12509.480420
842.609194,-4737.318029,2757.943793,11769.274478
842.609524,-5921.647536,-1302.362347,10436.903782
842.609853,-6069.688724,-4366.744339,8290.306550
842.610182,-5477.523971,-5362.668486,6365.771101
842.610512,-2960.823768,-5898.935335,5773.606348
842.610841,-296.082377,-4290.134789,5921.647536
842.611170,1480.411884,-1072.533697,7179.997637
842.611500,1776.494261,2911.162892,8216.285956
842.611829,1406.391290,6205.373534,9474.636058
842.612158,1406.391290,6818.249932,10807.006753
842.612487,222.061783,6358.592633,12287.418637
842.612817,-1554.432478,4673.182538,12435.459826
842.613146,-2886.803174,2145.067394,11621.233289
842.613475,-2368.659014,-1225.752797,10658.965565
842.613805,-2072.576638,-3064.381992,9252.574275
842.614134,-740.205942,-3677.258390,8290.306550
842.614463,1406.391290,-3524.039291,7624.121203
842.614793,3034.844362,-1991.848295,7698.141797
842.615122,3849.070898,1072.533697,8808.450710
842.615451,2664.741391,3983.696590,9400.615463
842.615780,1702.473667,6205.373534,11177.109724
842.616110,-444.123565,6818.249932,12065.356855
842.616439,-3478.967927,5975.544884,12435.459826
842.616768,-5551.544565,3677.258390,11843.295072
842.617098,-6809.894666,0.000000,9918.759623
842.617427,-6143.709319,-3983.696590,8364.327145
842.617756,-5403.503377,-5439.278036,7402.059420
842.618086,-3923.091493,-4366.744339,5921.647536
842.618415,-2072.576638,-2221.676944,4737.318029
842.618744,148.041188,-995.924147,5773.606348
842.619073,1036.288319,2068.457845,8068.244768
842.619403,-296.082377,5669.106685,10881.027347
842.619732,-1332.370696,7507.735880,12583.501014
842.620061,-3182.885551,6894.859482,13545.768739
842.620391,-4737.318029,5669.106685,13397.727550
842.620720,-4885.359217,2681.334243,11769.274478
842.621049,-3182.885551,-1762.019645,9770.718434
842.621379,-1480.411884,-4290.134789,7994.224174
842.621708,370.102971,-4673.182538,6957.935855
842.622037,2294.638420,-4060.306139,7105.977043
842.622366,3404.947333,-1225.752797,7402.059420
842.622696,4367.215058,2068.457845,8290.306550
842.623025,3849.070898,4366.744339,9622.677246
842.623354,3034.844362,6971.469032,10510.924376
842.623684,1776.494261,7048.078582,11843.295072
842.624013,-1110.308913,5056.230287,12139.377449
842.624342,-3849.070898,3370.820191,11843.295072
842.624672,-5921.647536,1149.143247,10807.006753
842.625001,-6069.688724,-2528.115143,8956.491898
842.625330,-5403.503377,-5592.497135,7105.977043
842.625659,-3627.009116,-6128.763984,6217.729913
842.625989,-740.205942,-5362.668486,6365.771101
842.626318,1332.370696,-2374.896044,7402.059420
842.626647,1998.556043,1915.238745,8216.285956
842.626977,1184.329507,4903.011187,9622.677246
842.627306,1332.370696,6818.249932,10732.986159
842.627635,1406.391290,6358.592633,12065.356855
842.627965,-296.082377,4519.963438,11991.336260
842.628294,-1702.473667,2834.553343,11695.253884
842.628623,-2072.576638,0.000000,10807.006753
842.628953,-1258.350101,-3600.648841,9770.718434
842.629282,0.000000,-4826.401637,8956.491898
842.629611,814.226536,-3677.258390,7550.100608
842.629940,2664.741391,-2298.286494,7624.121203
842.630270,3701.029710,-306.438199,8808.450710
842.630599,2886.803174,2451.505594,9548.656652
842.630928,1702.473667,4903.011187,10584.944971
842.631258,148.041188,5822.325785,11843.295072
842.631587,-2664.741391,5745.716235,12509.480420
842.631916,-5625.565159,4213.525239,12213.398043
842.632246,-7105.977043,766.095498,11103.089130
842.632575,-7031.956449,-3217.601092,9400.615463
842.632904,-5921.647536,-5362.668486,8142.265362
842.633233,-4663.297435,-5286.058936,7402.059420
842.633563,-2960.823768,-2451.505594,5477.523971
842.633892,-888.247130,-383.047749,4737.318029
842.634221,1036.288319,459.657299,6513.812290
842.634551,1258.350101,3907.087040,9326.594869
842.634880,148.041188,6818.249932,11177.109724
842.635209,-1628.453072,6971.469032,13323.706956
842.635539,-3849.070898,6665.030833,13767.830521
842.635868,-5255.462188,4060.306139,13101.645173
842.636197,-4219.173869,-459.657299,10807.006753
842.636526,-1850.514855,-4443.353888,8364.327145
842.636856,-296.082377,-4673.182538,7179.997637
842.637185,1406.391290,-4060.306139,6957.935855
842.637514,3256.906145,-2834.553343,7402.059420
842.637844,3849.070898,306.438199,7698.141797
842.638173,3701.029710,2681.334243,8364.327145
842.638502,3182.885551,6205.373534,9696.697840
842.638832,2442.679609,7201.297681,11251.130318
842.639161,148.041188,5669.106685,12065.356855
842.639490,-3034.844362,4443.353888,12213.398043
842.639819,-5107.421000,1762.019645,11177.109724
842.640149,-5033.400406,-1762.019645,9992.780217
842.640478,-4885.359217,-4213.525239,8068.244768
842.640807,-3997.112087,-5132.839837,6735.874072
842.641137,-1924.535449,-5132.839837,6365.771101
842.641466,962.267725,-2681.334243,7031.956449
842.641795,2590.720797,1225.752797,7994.224174
842.642125,2072.576638,4519.963438,9178.553681
842.642454,1184.329507,6665.030833,10288.862594
842.642783,740.205942,6511.811733,11325.150913
842.643112,-592.164754,5209.449386,12065.356855
842.643442,-2072.576638,3064.381992,11399.171507
842.643771,-2960.823768,153.219100,10658.965565
842.644100,-2590.720797,-2911.162892,10584.944971
842.644430,-2220.617826,-4290.134789,9252.574275
842.644759,-740.205942,-4213.525239,8364.327145
842.645088,1998.556043,-3064.381992,7846.182985
842.645418,3330.926739,-1149.143247,8290.306550
842.645747,3256.906145,1608.800546,9400.615463
842.646076,2368.659014,4366.744339,10584.944971
842.646406,962.267725,6128.763984,11695.253884
842.646735,-1332.370696,5745.716235,12287.418637
842.647064,-4145.153275,4903.011187,12139.377449
842.647393,-6217.729913,1915.238745,11621.233289
842.647723,-6365.771101,-1838.629195,10362.883188
842.648052,-5995.668130,-4290.134789,8734.430116
842.648381,-4959.379811,-3907.087040,6291.750507
842.648711,-2738.761985,-2757.943793,3923.091493
842.649040,0.000000,-2681.334243,4589.276840
842.649369,1480.411884,-536.266849,7105.977043
842.649699,0.000000,3830.477490,9474.636058
842.650028,-1998.556043,7048.078582,11621.233289
842.650357,-2886.803174,7814.174080,13027.624579
842.650686,-4441.235652,6052.154434,13545.768739
842.651016,-4737.318029,2834.553343,12435.459826
842.651345,-4145.153275,-1225.752797,10436.903782
842.651674,-2442.679609,-3983.696590,8512.368333
842.652004,-1036.288319,-4673.182538,7254.018232
842.652333,740.205942,-4136.915689,7031.956449
842.652662,2368.659014,-2834.553343,7179.997637
842.652992,4219.173869,153.219100,8068.244768
842.653321,4589.276840,3140.991542,8660.409521
842.653650,4219.173869,6052.154434,10066.800811
842.653979,3627.009116,7507.735880,11325.150913
842.654309,1184.329507,6818.249932,12065.356855
842.654638,-2294.638420,5209.449386,12213.398043
842.654967,-4515.256246,2528.115143,11843.295072
842.655297,-5403.503377,-383.047749,10510.924376
842.655626,-5403.503377,-3907.087040,8364.327145
842.655955,-5033.400406,-5592.497135,6439.791695
842.656285,-2368.659014,-5362.668486,6143.709319
842.656614,0.000000,-3447.429741,6661.853478
842.656943,1776.494261,229.828649,7624.121203
842.657272,1406.391290,3907.087040,8660.409521
842.657602,1480.411884,6971.469032,9918.759623
842.657931,1332.370696,6971.469032,10881.027347
842.658260,370.102971,5592.497135,11621.233289
842.658590,-1406.391290,4213.525239,11769.274478
842.658919,-2368.659014,1762.019645,11029.068536
842.659248,-2516.700203,-1149.143247,10214.842000
842.659578,-2368.659014,-3830.477490,9400.615463
842.659907,-1110.308913,-3524.039291,8586.388927
842.660236,666.185348,-3064.381992,7920.203579
842.660565,2590.720797,-1302.362347,8290.306550
842.660895,2516.700203,1378.971896,8808.450710
842.661224,2442.679609,3907.087040,9474.636058
842.661553,1184.329507,5515.887586,10732.986159
842.661883,-814.226536,6052.154434,11695.253884
842.662212,-3849.070898,4826.401637,11695.253884
842.662541,-5625.565159,2221.676944,11251.130318
842.662871,-5995.668130,-995.924147,9622.677246
842.663200,-5551.544565,-4060.306139,9030.512492
842.663529,-4885.359217,-4826.401637,6883.915261
842.663858,-3627.009116,-2987.772442,5255.462188
842.664188,-1110.308913,-2451.505594,5033.400406
842.664517,1036.288319,-612.876398,6735.874072
842.664846,740.205942,2604.724693,9696.697840
842.665176,-962.267725,5898.935335,11621.233289
842.665505,-2368.659014,7201.297681,13175.665768
842.665834,-3701.029710,6128.763984,13767.830521
842.666164,-4959.379811,2834.553343,13027.624579
842.666493,-4885.359217,-383.047749,11399.171507
842.666822,-3552.988522,-3217.601092,9474.636058
842.667152,-2294.638420,-4443.353888,7698.141797
842.667481,0.000000,-4826.401637,7254.018232
842.667810,1998.556043,-3140.991542,7105.977043
842.668139,4145.153275,-689.485948,7179.997637
842.668469,5181.441594,1838.629195,8438.347739
842.668798,4589.276840,5362.668486,9770.718434
842.669127,3775.050304,7737.564530,10807.006753
842.669457,2072.576638,7277.907231,11991.336260
842.669786,-518.144159,5439.278036,12731.542202
842.670115,-3330.926739,3600.648841,11843.295072
842.670445,-4515.256246,229.828649,10658.965565
842.670774,-4737.318029,-3600.648841,9030.512492
842.671103,-4663.297435,-5439.278036,7328.038826
842.671432,-3256.906145,-5056.230287,6513.812290
842.671762,-814.226536,-3524.039291,6439.791695
842.672091,1406.391290,-766.095498,7550.100608
842.672420,1998.556043,2834.553343,8438.347739
842.672750,1776.494261,5822.325785,9548.656652
842.673079,1776.494261,7048.078582,10362.883188
842.673408,740.205942,6281.983084,10807.006753
842.673738,-814.226536,4673.182538,11325.150913
842.674067,-2368.659014,2374.896044,11029.068536
842.674396,-2960.823768,-689.485948,10510.924376
842.674725,-2590.720797,-3064.381992,9918.759623
842.675055,-1850.514855,-3600.648841,8882.471304
842.675384,148.041188,-2987.772442,8290.306550
842.675713,2220.617826,-1608.800546,8216.285956
842.676043,3182.885551,383.047749,8734.430116
842.676372,3108.864956,2987.772442,9474.636058
842.676701,2220.617826,5286.058936,10362.883188
842.677031,962.267725,6741.640382,11621.233289
842.677360,-2072.576638,5286.058936,11843.295072
842.677689,-4737.318029,3294.210641,11769.274478
842.678018,-5773.606348,0.000000,10436.903782
842.678348,-5699.585753,-3370.820191,9474.636058
842.678677,-5033.400406,-4366.744339,7920.203579
842.679006,-4367.215058,-3907.087040,6217.729913
842.679336,-2368.659014,-2987.772442,5107.421000
842.679665,74.020594,-1838.629195,6217.729913
842.679994,518.144159,1378.971896,8512.368333
842.680324,-370.102971,4290.134789,10510.924376
842.680653,-1702.473667,6818.249932,12361.439231
842.680982,-2812.782580,6588.421283,13397.727550
842.681311,-4293.194464,4443.353888,13175.665768
842.681641,-4589.276840,536.266849,12435.459826
842.681970,-3775.050304,-2374.896044,10214.842000
842.682299,-2368.659014,-3907.087040,8660.409521
842.682629,-962.267725,-4673.182538,7031.956449
842.682958,1406.391290,-4519.963438,6735.874072
842.683287,3775.050304,-2451.505594,7105.977043
842.683616,5255.462188,766.095498,7772.162391
842.683946,4737.318029,3677.258390,8808.450710
842.684275,3701.029710,7124.688131,10584.944971
842.684604,2368.659014,7124.688131,12213.398043
842.684933,0.000000,5592.497135,12583.501014
842.685263,-2886.803174,3677.258390,12065.356855
842.685592,-4515.256246,766.095498,11177.109724
842.685921,-5033.400406,-3064.381992,9844.739029
842.686250,-5329.482782,-4903.011187,8142.265362
842.686580,-4441.235652,-5209.449386,7105.977043
842.686909,-2072.576638,-4596.572988,6883.915261
842.687238,148.041188,-1378.971896,6957.935855
842.687567,1628.453072,1915.238745,7328.038826
842.687897,1850.514855,4366.744339,8734.430116
842.688226,1332.370696,6205.373534,9918.759623
842.688555,740.205942,6588.421283,11399.171507
842.688884,-1258.350101,5362.668486,11695.253884
842.689214,-3330.926739,3600.648841,11177.109724
842.689543,-3552.988522,383.047749,10584.944971
842.689872,-2664.741391,-3217.601092,9918.759623
842.690201,-1850.514855,-4366.744339,8956.491898
842.690531,-222.061783,-3677.258390,8068.244768
842.690860,1998.556043,-2145.067394,8216.285956
842.691189,3182.885551,536.266849,8734.430116
842.691518,3108.864956,3294.210641,9548.656652
842.691848,2516.700203,5515.887586,10584.944971
842.692177,1628.453072,6588.421283,11473.192101
842.692506,-814.226536,6588.421283,11917.315666
842.692835,-3552.988522,4903.011187,11547.212695
842.693165,-5847.626942,1532.190996,10658.965565
842.693494,-6365.771101,-2145.067394,9030.512492
842.693823,-6291.750507,-4903.011187,7624.121203
842.694152,-5329.482782,-4903.011187,6365.771101
842.694482,-3627.009116,-3370.820191,5921.647536
842.694811,-1480.411884,-1838.629195,5995.668130
842.695140,0.000000,229.828649,7550.100608
842.695469,0.000000,3524.039291,9474.636058
842.695799,-888.247130,6511.811733,11399.171507
842.696128,-1036.288319,7277.907231,12657.521608
842.696457,-2442.679609,5439.278036,12805.562797
842.696786,-3552.988522,2757.943793,12287.418637
842.697116,-3034.844362,-612.876398,10955.047942
842.697445,-1850.514855,-3294.210641,9326.594869
842.697774,-222.061783,-3983.696590,8290.306550
842.698103,1036.288319,-4136.915689,7550.100608
842.698433,2738.761985,-2604.724693,7328.038826
842.698762,4293.194464,76.609550,8068.244768
842.699091,4071.132681,2911.162892,9178.553681
842.699420,3108.864956,5592.497135,10288.862594
842.699750,2516.700203,7124.688131,11399.171507
842.700079,296.082377,5515.887586,11621.233289
842.700408,-2368.659014,3524.039291,11473.192101
842.700737,-4663.297435,842.705048,10955.047942
842.701067,-5033.400406,-1915.238745,10066.800811
842.701396,-5403.503377,-4366.744339,8438.347739
842.701725,-4737.318029,-5132.839837,7105.977043
842.702054,-2368.659014,-4979.620737,6587.832884
842.702384,370.102971,-2987.772442,7254.018232
842.702713,1924.535449,229.828649,8290.306550
842.703042,2146.597232,3907.087040,9400.615463
842.703371,1258.350101,7124.688131,9918.759623
842.703701,1036.288319,6818.249932,11399.171507
842.704030,0.000000,5822.325785,12213.398043
842.704359,-1628.453072,3753.867940,11769.274478
842.704688,-2072.576638,766.095498,10510.924376
842.705018,-1924.535449,-2451.505594,9252.574275
842.705347,-1554.432478,-4213.525239,8882.471304
842.705676,-518.144159,-4136.915689,8290.306550
842.706005,1110.308913,-2681.334243,8142.265362
842.706335,2738.761985,-383.047749,8438.347739
842.706664,2738.761985,1838.629195,9252.574275
842.706993,2146.597232,4136.915689,10584.944971
842.707322,1258.350101,6281.983084,11251.130318
842.707651,-592.164754,5898.935335,11917.315666
842.707981,-3404.947333,4903.011187,11843.295072
842.708310,-5181.441594,2221.676944,10732.986159
842.708639,-5625.565159,-1225.752797,8586.388927
842.708968,-5477.523971,-4443.353888,7772.162391
842.709298,-4441.235652,-5898.935335,7105.977043
842.709627,-2960.823768,-4366.744339,7254.018232
842.709956,-1184.329507,-1072.533697,6069.688724
842.710285,-518.144159,1762.019645,6957.935855
842.710615,0.000000,3370.820191,8438.347739
842.710944,0.000000,6281.983084,10510.924376
842.711273,-222.061783,7048.078582,12287.418637
842.711602,-2072.576638,6052.154434,12953.603985
842.711932,-3330.926739,4519.963438,12435.459826
842.712261,-4367.215058,1838.629195,11251.130318
842.712590,-3108.864956,-1991.848295,9548.656652
842.712919,-1702.473667,-4979.620737,8068.244768
842.713249,-444.123565,-4213.525239,7550.100608
842.713578,1258.350101,-3524.039291,7624.121203
842.713907,2738.761985,-689.485948,8216.285956
842.714236,2664.741391,2221.676944,8882.471304
842.714566,2590.720797,4136.915689,9474.636058
842.714895,2590.720797,5669.106685,10658.965565
842.715224,1258.350101,5592.497135,11621.233289
842.715553,-1924.535449,5132.839837,11251.130318
842.715883,-3849.070898,2681.334243,10658.965565
842.716212,-4737.318029,-536.266849,9326.594869
842.716541,-3997.112087,-3524.039291,7698.141797
842.716870,-2738.761985,-6128.763984,7105.977043
842.717200,-1924.535449,-5515.887586,7031.956449
842.717529,-222.061783,-2528.115143,7698.141797
842.717858,888.247130,536.266849,8512.368333
842.718187,1628.453072,3447.429741,9548.656652
842.718517,1776.494261,5822.325785,10436.903782
842.718846,2368.659014,6205.373534,11325.150913
842.719175,1184.329507,5209.449386,11843.295072
842.719504,-814.226536,3753.867940,11621.233289
842.719834,-2442.679609,2068.457845,10732.986159
842.720163,-2590.720797,-1608.800546,9622.677246
842.720492,-2294.638420,-4366.744339,9474.636058
842.720821,-1628.453072,-3753.867940,8660.409521
842.721151,0.000000,-3830.477490,8290.306550
842.721480,2072.576638,-1838.629195,7994.224174
842.721809,2368.659014,383.047749,8734.430116
842.722138,2294.638420,2681.334243,9696.697840
842.722468,1184.329507,5362.668486,11177.109724
842.722797,74.020594,5745.716235,12509.480420
842.723126,-2516.700203,5822.325785,12583.501014
842.723455,-4885.359217,3294.210641,11695.253884
842.723785,-5551.544565,306.438199,9770.718434
842.724114,-5033.400406,-3524.039291,8586.388927
842.724443,-3775.050304,-5209.449386,7772.162391
842.724772,-3330.926739,-4213.525239,7402.059420
842.725102,-2220.617826,-1762.019645,7031.956449
842.725431,-888.247130,1072.533697,6217.729913
842.725760,296.082377,2681.334243,7031.956449
842.726089,814.226536,4213.525239,9252.574275
842.726419,296.082377,6435.202183,10807.006753
842.726748,-1406.391290,6128.763984,12213.398043
842.727077,-3627.009116,4826.401637,12287.418637
842.727406,-5329.482782,2604.724693,11695.253884
842.727736,-4515.256246,-995.924147,9844.739029
842.728065,-2664.741391,-4903.011187,8808.450710
842.728394,-1406.391290,-5056.230287,7994.224174
842.728723,296.082377,-3447.429741,7772.162391
842.729053,2664.741391,-1915.238745,8216.285956
842.729382,3256.906145,1225.752797,8364.327145
842.729711,3701.029710,3983.696590,9104.533087
842.730040,3256.906145,6205.373534,10510.924376
842.730370,2738.761985,6818.249932,11621.233289
842.730699,370.102971,6128.763984,11843.295072
842.731028,-2368.659014,4290.134789,11399.171507
842.731357,-3923.091493,459.657299,9844.739029
842.731687,-4071.132681,-3140.991542,8808.450710
842.732016,-4293.194464,-4979.620737,7624.121203
842.732345,-3330.926739,-5286.058936,6883.915261
842.732674,-1776.494261,-3907.087040,7031.956449
842.733004,444.123565,-1685.410096,7476.080014
842.733333,1184.329507,1685.410096,8808.450710
842.733662,740.205942,4749.792088,9622.677246
842.733991,666.185348,6588.421283,10288.862594
842.734321,222.061783,6358.592633,11473.192101
842.734650,-1480.411884,4213.525239,11473.192101
842.734979,-2886.803174,2068.457845,10955.047942
842.735308,-3330.926739,-612.876398,10362.883188
842.735638,-2738.761985,-3524.039291,9844.739029
842.735967,-2294.638420,-4749.792088,8438.347739
842.736296,-444.123565,-4366.744339,8142.265362
842.736625,1628.453072,-2604.724693,8290.306550
842.736955,2664.741391,-383.047749,8438.347739
842.737284,2516.700203,2298.286494,9696.697840
842.737613,1776.494261,4903.011187,11029.068536
842.737942,1110.308913,5975.544884,11991.336260
842.738272,-1258.350101,5745.716235,12287.418637
842.738601,-3923.091493,3983.696590,11769.274478
842.738930,-5033.400406,995.924147,10584.944971
842.739259,-5107.421000,-2757.943793,9252.574275
842.739589,-4589.276840,-4903.011187,8216.285956
842.739918,-3627.009116,-4903.011187,7105.977043
842.740247,-2146.597232,-2451.505594,6069.688724
842.740576,-222.061783,-995.924147,6143.709319
842.740906,518.144159,1149.143247,7772.162391
842.741235,-222.061783,4519.963438,9622.677246
842.741564,-1332.370696,6358.592633,10955.047942
842.741893,-1924.535449,6588.421283,12879.583391
842.742223,-4145.153275,5132.839837,12435.459826
842.742552,-5033.400406,2451.505594,11621.233289
842.742881,-4293.194464,-1608.800546,10214.842000
842.743210,-2960.823768,-4136.915689,8660.409521
842.743540,-1628.453072,-3907.087040,7254.018232
842.743869,296.082377,-3447.429741,7105.977043
842.744198,2812.782580,-2221.676944,7402.059420
842.744527,4293.194464,842.705048,7846.182985
842.744857,4589.276840,3524.039291,9030.512492
842.745186,4367.215058,6971.469032,10658.965565
842.745515,3627.009116,7967.393179,11547.212695
842.745844,814.226536,7124.688131,12065.356855
842.746174,-2146.597232,4673.182538,11991.336260
842.746503,-4071.132681,1532.190996,11177.109724
842.746832,-4663.297435,-2145.067394,9400.615463
842.747161,-4589.276840,-4060.306139,7994.224174
842.747491,-3923.091493,-5439.278036,6957.935855
842.747820,-2220.617826,-4826.401637,6809.894666
842.748149,74.020594,-2374.896044,7254.018232
842.748478,1036.288319,1378.971896,8660.409521
842.748808,740.205942,4673.182538,9326.594869
842.749137,444.123565,6971.469032,10214.842000
842.749466,444.123565,7048.078582,11547.212695
842.749795,-888.247130,5362.668486,11695.253884
842.750125,-2072.576638,2987.772442,11103.089130
842.750454,-2146.597232,-383.047749,9844.739029
842.750783,-2072.576638,-2681.334243,9178.553681
842.751112,-1850.514855,-4213.525239,8882.471304
842.751442,-888.247130,-3753.867940,8512.368333
842.751771,1258.350101,-2145.067394,8290.306550
842.752100,2886.803174,-306.438199,8364.327145
842.752429,3108.864956,1762.019645,9252.574275
842.752759,2368.659014,4290.134789,10214.842000
842.753088,1184.329507,5975.544884,11325.150913
842.753417,-962.267725,5592.497135,12213.398043
842.753746,-3775.050304,4673.182538,11991.336260
842.754076,-5255.462188,1685.410096,10807.006753
842.754405,-5477.523971,-2528.115143,9252.574275
842.754734,-5329.482782,-4979.620737,8068.244768
842.755063,-4367.215058,-5515.887586,7254.018232
842.755393,-2664.741391,-3983.696590,6735.874072
842.755722,-740.205942,-766.095498,5995.668130
842.756051,592.164754,459.657299,6957.935855
842.756380,370.102971,3140.991542,9178.553681
842.756710,-296.082377,6128.763984,11029.068536
842.757039,-1554.432478,6588.421283,12509.480420
842.757368,-3034.844362,5362.668486,13323.706956
842.757697,-4885.359217,3064.381992,11991.336260
842.758027,-4959.379811,-306.438199,10881.027347
842.758356,-3330.926739,-4213.525239,9252.574275
842.758685,-1850.514855,-5132.839837,7994.224174
842.759014,-296.082377,-3830.477490,7328.038826
842.759344,2294.638420,-2834.553343,7328.038826
842.759673,3701.029710,-306.438199,7772.162391
842.760002,3775.050304,2681.334243,8660.409521
842.760331,3775.050304,5439.278036,9696.697840
842.760661,3256.906145,7431.126331,10881.027347
842.760990,1332.370696,7048.078582,11917.315666
842.761319,-1702.473667,4903.011187,11769.274478
842.761648,-4219.173869,1991.848295,10881.027347
842.761978,-4737.318029,-995.924147,9474.636058
842.762307,-4589.276840,-4213.525239,8216.285956
842.762636,-3701.029710,-4903.011187,7179.997637
842.762965,-2146.597232,-4826.401637,6513.812290
842.763295,0.000000,-2681.334243,7105.977043
842.763624,1184.329507,612.876398,8216.285956
842.763953,1184.329507,4136.915689,9326.594869
842.764282,592.164754,7201.297681,10955.047942
842.764612,370.102971,7890.783629,11769.274478
842.764941,-740.205942,6128.763984,11695.253884
842.765270,-2368.659014,3370.820191,10732.986159
842.765599,-2516.700203,842.705048,9844.739029
842.765929,-2368.659014,-2451.505594,9400.615463
842.766258,-1998.556043,-4366.744339,8586.388927
842.766587,-1110.308913,-3907.087040,8216.285956
842.766916,592.164754,-2451.505594,7994.224174
842.767246,2590.720797,-689.485948,7846.182985
842.767575,3034.844362,1302.362347,8956.491898
842.767904,2368.659014,4366.744339,9992.780217
842.768233,1850.514855,6435.202183,11325.150913
842.768563,0.000000,6281.983084,12435.459826
842.768892,-2664.741391,5209.449386,12583.501014
842.769221,-5033.400406,2374.896044,11769.274478
842.769550,-5921.647536,-1225.752797,10066.800811
842.769880,-5033.400406,-4673.182538,8956.491898
842.770209,-4441.235652,-4903.011187,7994.224174
842.770538,-2960.823768,-4443.353888,6957.935855
842.770867,-1110.308913,-1685.410096,5773.606348
842.771197,444.123565,76.609550,6143.709319
842.771526,1110.308913,2451.505594,7698.141797
842.771855,-148.041188,5515.887586,9992.780217
842.772184,-962.267725,6971.469032,11917.315666
842.772514,-2886.803174,5975.544884,12879.583391
842.772843,-4959.379811,3600.648841,12805.562797
842.773172,-5329.482782,689.485948,11843.295072
842.773501,-3627.009116,-3830.477490,9844.739029
842.773830,-2368.659014,-5286.058936,8660.409521
842.774160,-1110.308913,-4519.963438,7476.080014
842.774489,1406.391290,-3830.477490,7550.100608
842.774818,3701.029710,-1532.190996,7920.203579
842.775147,3701.029710,1838.629195,8290.306550
842.775477,3923.091493,4519.963438,9548.656652
842.775806,3256.906145,6971.469032,10881.027347
842.776135,1998.556043,7354.516781,12213.398043
842.776464,-888.247130,5515.887586,11991.336260
842.776794,-3256.906145,2528.115143,10881.027347
842.777123,-4145.153275,0.000000,9844.739029
842.777452,-4293.194464,-3524.039291,8364.327145
842.777781,-3997.112087,-5669.106685,7105.977043
842.778111,-2886.803174,-5439.278036,6883.915261
842.778440,-1258.350101,-3753.867940,7031.956449
842.778769,444.123565,-536.266849,7624.121203
842.779098,666.185348,3064.381992,9104.533087
842.779428,370.102971,5975.544884,10140.821405
842.779757,296.082377,7048.078582,11399.171507
842.780086,-814.226536,6205.373534,12065.356855
842.780415,-2146.597232,4519.963438,11843.295072
842.780745,-2960.823768,1685.410096,10807.006753
842.781074,-3034.844362,-1302.362347,9770.718434
842.781403,-2516.700203,-3830.477490,9252.574275
842.781733,-1480.411884,-4136.915689,8586.388927
842.782062,296.082377,-3140.991542,7476.080014
842.782392,2072.576638,-1378.971896,7550.100608
842.782721,2738.761985,1149.143247,8512.368333
842.783050,2368.659014,3830.477490,9770.718434
842.783380,1332.370696,6128.763984,10658.965565
842.783709,74.020594,5822.325785,11917.315666
842.784039,-2516.700203,5439.278036,12361.439231
842.784368,-4737.318029,3064.381992,11843.295072
842.784697,-5847.626942,0.000000,10362.883188
842.785027,-5329.482782,-3140.991542,8734.430116
842.785356,-4589.276840,-4903.011187,7105.977043
842.785685,-2590.720797,-4903.011187,6661.853478
842.786015,-592.164754,-3140.991542,7105.977043
842.786344,518.144159,-229.828649,7550.100608
842.786674,148.041188,3524.039291,8068.244768
842.787003,-370.102971,6435.202183,9030.512492
842.787332,592.164754,7354.516781,10140.821405
842.787662,-740.205942,5822.325785,11843.295072
842.787991,-2886.803174,3677.258390,11621.233289
842.788320,-4441.235652,1302.362347,11103.089130
842.788650,-4589.276840,-1455.581446,9918.759623
842.788979,-3627.009116,-3600.648841,8438.347739
842.789309,-1998.556043,-4826.401637,7772.162391
842.789638,74.020594,-4519.963438,7846.182985
842.789967,2516.700203,-2221.676944,7772.162391
842.790297,3701.029710,612.876398,9030.512492
842.790626,3627.009116,3217.601092,9770.718434
842.790956,2590.720797,6052.154434,10807.006753
842.791285,2220.617826,6511.811733,11843.295072
842.791614,222.061783,5286.058936,12583.501014
842.791944,-2220.617826,3140.991542,12287.418637
842.792273,-3923.091493,1072.533697,11029.068536
842.792602,-4071.132681,-2221.676944,9252.574275
842.792932,-3849.070898,-5132.839837,7402.059420
842.793261,-2220.617826,-5669.106685,6809.894666
842.793591,-222.061783,-3753.867940,6957.935855
842.793920,1036.288319,-995.924147,7624.121203
842.794249,888.247130,2528.115143,8808.450710
842.794579,370.102971,5132.839837,9696.697840
842.794908,0.000000,7048.078582,10955.047942
842.795237,-592.164754,6052.154434,11991.336260
842.795567,-2294.638420,4596.572988,11991.336260
842.795896,-3330.926739,1991.848295,10807.006753
842.796226,-3775.050304,-1685.410096,9770.718434
842.796555,-2738.761985,-3677.258390,9178.553681
842.796884,-2146.597232,-4136.915689,8364.327145
842.797214,-370.102971,-3370.820191,7624.121203
842.797543,2072.576638,-1991.848295,7254.018232
842.797873,3627.009116,459.657299,7476.080014
842.798202,2960.823768,3447.429741,8734.430116
842.798531,2146.597232,5439.278036,10362.883188
842.798861,814.226536,6894.859482,11473.192101
842.799190,-1480.411884,6358.592633,12435.459826
842.799519,-3775.050304,4366.744339,12065.356855
842.799849,-5107.421000,612.876398,10510.924376
842.800178,-5181.441594,-2681.334243,9030.512492
842.800508,-4441.235652,-4749.792088,7846.182985
842.800837,-3404.947333,-4903.011187,7031.956449
842.801166,-1332.370696,-3677.258390,7550.100608
842.801496,222.061783,0.000000,7624.121203
842.801825,444.123565,3370.820191,8364.327145
842.802154,74.020594,5439.278036,9178.553681
842.802484,296.082377,6894.859482,10658.965565
842.802813,-740.205942,6358.592633,11843.295072
842.803143,-3182.885551,4596.572988,11991.336260
842.803472,-5181.441594,2145.067394,11103.089130
842.803801,-5477.523971,-536.266849,9622.677246
842.804131,-4589.276840,-3983.696590,8364.327145
842.804460,-2960.823768,-6052.154434,7550.100608
842.804790,-962.267725,-4826.401637,7105.977043
842.805119,1036.288319,-2834.553343,7624.121203
842.805448,2738.761985,-689.485948,8882.471304
842.805778,2738.761985,2834.553343,10140.821405
842.806107,2516.700203,5592.497135,10955.047942
842.806436,2664.741391,6281.983084,11843.295072
842.806766,1332.370696,5745.716235,13323.706956
842.807095,-1036.288319,4749.792088,12731.542202
842.807425,-2590.720797,2145.067394,11029.068536
842.807754,-2516.700203,-1762.019645,8660.409521
842.808083,-1554.432478,-4673.182538,7254.018232
842.808413,-518.144159,-5362.668486,6217.729913
842.808742,444.123565,-4903.011187,6069.688724
842.809071,1702.473667,-1532.190996,6883.915261
842.809401,1702.473667,1532.190996,8364.327145
842.809730,740.205942,4596.572988,10214.842000
842.810060,0.000000,7354.516781,11547.212695
842.810389,-962.267725,6281.983084,11547.212695
842.810718,-2664.741391,4979.620737,11769.274478
842.811048,-4293.194464,2221.676944,10881.027347
842.811377,-4737.318029,-689.485948,10066.800811
842.811707,-4219.173869,-3907.087040,9474.636058
842.812036,-3701.029710,-4443.353888,9030.512492
842.812365,-2442.679609,-3447.429741,8216.285956
842.812695,0.000000,-2528.115143,7624.121203
842.813024,2072.576638,-229.828649,8068.244768
842.813353,3108.864956,2298.286494,9030.512492
842.813683,2664.741391,4903.011187,10066.800811
842.814012,2442.679609,6741.640382,11029.068536
842.814342,592.164754,6818.249932,12065.356855
842.814671,-2146.597232,5209.449386,12361.439231
842.815000,-3552.988522,2451.505594,11177.109724
842.815330,-3775.050304,-612.876398,9548.656652
842.815659,-2960.823768,-3677.258390,8364.327145
842.815988,-2886.803174,-4443.353888,6957.935855
842.816318,-1480.411884,-3753.867940,6883.915261
842.816647,-148.041188,-1608.800546,7402.059420
842.816977,148.041188,2145.067394,8290.306550
842.817306,-666.185348,5132.839837,9252.574275
842.817635,-1480.411884,6588.421283,10214.842000
842.817965,-1554.432478,6435.202183,11473.192101
842.818294,-3034.844362,4366.744339,11843.295072
842.818624,-4737.318029,2221.676944,11029.068536
842.818953,-4885.359217,-766.095498,9918.759623
842.819282,-4515.256246,-2987.772442,8956.491898
842.819612,-2960.823768,-4903.011187,8068.244768
842.819941,-1628.453072,-4443.353888,7698.141797
842.820270,1258.350101,-2451.505594,7698.141797
842.820600,3627.009116,-306.438199,7698.141797
842.820929,4663.297435,2528.115143,9178.553681
842.821259,4219.173869,5132.839837,10066.800811
842.821588,3552.988522,6741.640382,11103.089130
842.821917,1924.535449,6281.983084,11991.336260
842.822247,-370.102971,4903.011187,12213.398043
842.822576,-2294.638420,2834.553343,11991.336260
842.822905,-3478.967927,-612.876398,10140.821405
842.823235,-3404.947333,-4596.572988,8808.450710
842.823564,-3108.864956,-5592.497135,7105.977043
842.823894,-1628.453072,-4903.011187,6809.894666
842.824223,0.000000,-3524.039291,7105.977043
842.824552,814.226536,0.000000,7994.224174
842.824882,370.102971,3370.820191,9252.574275
842.825211,-444.123565,6052.154434,10362.883188
842.825540,-296.082377,6818.249932,11547.212695
842.825870,-1850.514855,5515.887586,11325.150913
842.826199,-3182.885551,2757.943793,10881.027347
842.826529,-3997.112087,0.000000,10362.883188
842.826858,-3923.091493,-2987.772442,9474.636058
842.827187,-3330.926739,-4443.353888,9178.553681
842.827517,-2516.700203,-4290.134789,8512.368333
842.827846,-370.102971,-2145.067394,7994.224174
842.828176,1998.556043,-995.924147,7920.203579
842.828505,3182.885551,1378.971896,8660.409521
842.828834,3108.864956,3600.648841,9178.553681
842.829164,2368.659014,5822.325785,10362.883188
842.829493,888.247130,6435.202183,11621.233289
842.829822,-2294.638420,5209.449386,11695.253884
842.830152,-4219.173869,2681.334243,11325.150913
842.830481,-4811.338623,-536.266849,9844.739029
842.830811,-4515.256246,-3370.820191,8808.450710
842.831140,-3923.091493,-4826.401637,7179.997637
842.831469,-2664.741391,-4596.572988,6809.894666
842.831799,-1258.350101,-2451.505594,7031.956449
842.832128,-148.041188,919.314598,7550.100608
842.832457,-444.123565,3140.991542,8956.491898
842.832787,-1406.391290,5209.449386,10658.965565
842.833116,-1702.473667,6741.640382,11547.212695
842.833446,-3256.906145,5056.230287,12361.439231
842.833775,-4589.276840,3294.210641,12065.356855
842.834104,-5033.400406,842.705048,10732.986159
842.834434,-3552.988522,-3140.991542,9474.636058
842.834763,-2294.638420,-5439.278036,8142.265362
842.835093,-518.144159,-4290.134789,7105.977043
842.835422,1628.453072,-2681.334243,7328.038826
842.835751,3627.009116,-612.876398,8142.265362
842.836081,4293.194464,2834.553343,9326.594869
842.836410,4293.194464,6052.154434,9918.759623
842.836739,3997.112087,6588.421283,10510.924376
842.837069,2368.659014,6741.640382,11547.212695
842.837398,-444.123565,5209.449386,11695.253884
842.837728,-2738.761985,2451.505594,11473.192101
842.838057,-3997.112087,-76.609550,10732.986159
842.838386,-4589.276840,-3217.601092,8882.471304
842.838716,-4367.215058,-5209.449386,7402.059420
842.839045,-2812.782580,-5439.278036,6587.832884
842.839374,-592.164754,-3600.648841,6587.832884
842.839704,888.247130,-1072.533697,7698.141797
842.840033,814.226536,3140.991542,8956.491898
842.840363,370.102971,6358.592633,9992.780217
842.840692,74.020594,7431.126331,11103.089130
842.841021,-1036.288319,6281.983084,11769.274478
842.841351,-2590.720797,4290.134789,11473.192101
842.841680,-2886.803174,1608.800546,10510.924376
842.842010,-2516.700203,-1762.019645,9474.636058
842.842339,-2146.597232,-3753.867940,9400.615463
842.842668,-1628.453072,-3753.867940,8734.430116
842.842998,74.020594,-2987.772442,8216.285956
842.843327,2442.679609,-1455.581446,7994.224174
842.843656,3478.967927,1608.800546,8882.471304
842.843986,3034.844362,3677.258390,10066.800811
842.844315,2220.617826,5745.716235,11103.089130
842.844645,814.226536,6435.202183,11843.295072
842.844974,-1924.535449,5592.497135,11917.315666
842.845303,-4219.173869,3064.381992,11621.233289
842.845633,-5181.441594,0.000000,10436.903782
842.845962,-5921.647536,-3677.258390,9030.512492
842.846291,-5107.421000,-5209.449386,7624.121203
842.846621,-3923.091493,-5132.839837,7179.997637
842.846950,-1998.556043,-2834.553343,6365.771101
842.847280,-444.123565,766.095498,6661.853478
842.847609,296.082377,2604.724693,7772.162391
842.847938,0.000000,4903.011187,9474.636058
842.848268,0.000000,6741.640382,11251.130318
842.848597,-1480.411884,6052.154434,12879.583391
842.848927,-3923.091493,4749.792088,13101.645173
842.849256,-5477.523971,2145.067394,11843.295072
842.849585,-4515.256246,-1532.190996,10140.821405
842.849915,-2590.720797,-5056.230287,8882.471304
842.850244,-962.267725,-5056.230287,7402.059420
842.850573,888.247130,-3600.648841,6735.874072
842.850903,3256.906145,-2068.457845,7105.977043
842.851232,4367.215058,1149.143247,8438.347739
842.851562,3923.091493,4596.572988,9326.594869
842.851891,3627.009116,6665.030833,10288.862594
842.852220,2590.720797,7354.516781,11251.130318
842.852550,592.164754,6435.202183,12139.377449
842.852879,-2368.659014,3677.258390,11695.253884
842.853208,-4293.194464,76.609550,10436.903782
842.853538,-4737.318029,-3064.381992,9178.553681
842.853867,-4293.194464,-5056.230287,8216.285956
842.854197,-3182.885551,-4903.011187,6957.935855
842.854526,-1332.370696,-3983.696590,7031.956449
842.854855,296.082377,-1302.362347,7105.977043
842.855185,1110.308913,1532.190996,8438.347739
842.855514,518.144159,5056.230287,9918.759623
842.855844,740.205942,7584.345430,11251.130318
842.856173,74.020594,6358.592633,11991.336260
842.856502,-1850.514855,5209.449386,11621.233289
842.856832,-3108.864956,2374.896044,10807.006753
842.857161,-2960.823768,-1149.143247,9918.759623
842.857490,-2368.659014,-3677.258390,9548.656652
842.857820,-1776.494261,-3447.429741,8586.388927
842.858149,-296.082377,-3294.210641,8290.306550
842.858479,2072.576638,-1915.238745,7772.162391
842.858808,3108.864956,306.438199,8586.388927
842.859137,3256.906145,2681.334243,9474.636058
842.859467,2368.659014,5286.058936,10584.944971
842.859796,1406.391290,7048.078582,11621.233289
842.860125,-1036.288319,5975.544884,11991.336260
842.860455,-3182.885551,3600.648841,11621.233289
842.860784,-5033.400406,612.876398,10436.903782
842.861114,-5773.606348,-2604.724693,9030.512492
842.861443,-5477.523971,-4826.401637,8068.244768
842.861772,-4515.256246,-4826.401637,7402.059420
842.862102,-2442.679609,-3447.429741,6957.935855
842.862431,-1036.288319,-459.657299,6069.688724
842.862761,148.041188,1991.848295,6513.812290
842.863090,370.102971,3677.258390,8586.388927
842.863419,-444.123565,6511.811733,10288.862594
842.863749,-1332.370696,6358.592633,12361.439231
842.864078,-3552.988522,4903.011187,12731.542202
842.864407,-5181.441594,2681.334243,12657.521608
842.864737,-4737.318029,0.000000,10732.986159
842.865066,-2886.803174,-4826.401637,9474.636058
842.865396,-1110.308913,-5745.716235,8364.327145
842.865725,444.123565,-4136.915689,7698.141797
842.866054,2738.761985,-2528.115143,7698.141797
842.866384,4589.276840,766.095498,8882.471304
842.866713,4071.132681,3600.648841,9252.574275
842.867042,3627.009116,5669.106685,10436.903782
842.867372,3108.864956,6665.030833,11325.150913
842.867701,962.267725,6052.154434,11769.274478
842.868031,-1480.411884,4519.963438,11547.212695
842.868360,-3627.009116,1149.143247,10881.027347
842.868689,-4515.256246,-2451.505594,9696.697840
842.869019,-4589.276840,-4903.011187,8438.347739
842.869348,-3775.050304,-5592.497135,7254.018232
842.869678,-2368.659014,-4213.525239,7031.956449
842.870007,-222.061783,-2374.896044,7254.018232
842.870336,814.226536,459.657299,8808.450710
842.870666,222.061783,4213.525239,9474.636058
842.870995,74.020594,7201.297681,10584.944971
842.871324,222.061783,7201.297681,11473.192101
842.871654,-1036.288319,6052.154434,11325.150913
842.871983,-3108.864956,2911.162892,10732.986159
842.872313,-3182.885551,0.000000,9696.697840
842.872642,-2442.679609,-2834.553343,9474.636058
842.872971,-1998.556043,-3907.087040,8734.430116
842.873301,-740.205942,-3524.039291,8142.265362
842.873630,888.247130,-2451.505594,7402.059420
842.873959,3108.864956,-229.828649,7624.121203
842.874289,3404.947333,2145.067394,8734.430116
842.874618,2664.741391,4903.011187,9918.759623
842.874948,1702.473667,6665.030833,11473.192101
842.875277,-1036.288319,6435.202183,11843.295072
842.875606,-3627.009116,4903.011187,12213.398043
842.875936,-5255.462188,1915.238745,10955.047942
842.876265,-5625.565159,-1991.848295,9548.656652
842.876595,-5033.400406,-4903.011187,8808.450710
842.876924,-4589.276840,-4136.915689,7031.956449
842.877253,-3034.844362,-2987.772442,5329.482782
842.877583,-444.123565,-1762.019645,5477.523971
842.877912,888.247130,76.609550,7105.977043
842.878241,0.000000,2987.772442,9770.718434
842.878571,-1554.432478,6281.983084,11621.233289
842.878900,-2738.761985,6971.469032,12879.583391
842.879230,-4145.153275,5669.106685,13545.768739
842.879559,-4737.318029,2604.724693,12287.418637
842.879888,-3923.091493,-1915.238745,10584.944971
842.880218,-2368.659014,-5056.230287,9474.636058
842.880547,-1332.370696,-4903.011187,8068.244768
842.880876,0.000000,-3830.477490,7920.203579
842.881206,2072.576638,-2374.896044,8512.368333
842.881535,3775.050304,229.828649,8660.409521
842.881865,4663.297435,2068.457845,9104.533087
842.882194,4885.359217,5056.230287,9252.574275
842.882523,4515.256246,7124.688131,10658.965565
842.882853,2220.617826,6894.859482,11843.295072
842.883183,-1332.370696,4903.011187,11991.336260
842.883512,-4219.173869,2068.457845,11251.130318
842.883841,-5181.441594,-1149.143247,9474.636058
842.884171,-5181.441594,-4596.572988,8142.265362
842.884500,-4737.318029,-5822.325785,7105.977043
842.884829,-2886.803174,-5056.230287,6291.750507
842.885159,-518.144159,-3294.210641,6365.771101
842.885488,962.267725,0.000000,7476.080014
842.885818,962.267725,3907.087040,8808.450710
842.886147,296.082377,6665.030833,10214.842000
842.886476,296.082377,7354.516781,11251.130318
842.886806,-518.144159,5975.544884,11621.233289
842.887135,-1702.473667,4290.134789,11251.130318
842.887464,-1924.535449,1455.581446,10584.944971
842.887794,-1924.535449,-1991.848295,9770.718434
842.888123,-1924.535449,-3447.429741,9326.594869
842.888452,-1036.288319,-3140.991542,8364.327145
842.888782,1184.329507,-2298.286494,8142.265362
842.889111,2590.720797,-612.876398,7846.182985
842.889440,3552.988522,1685.410096,9178.553681
842.889770,2812.782580,4136.915689,10066.800811
842.890099,1702.473667,6205.373534,11325.150913
842.890428,0.000000,6588.421283,12065.356855
842.890758,-3108.864956,5286.058936,11991.336260
842.891087,-5033.400406,2911.162892,11547.212695
842.891417,-5773.606348,-612.876398,9992.780217
842.891746,-5699.585753,-3600.648841,8660.409521
842.892075,-4737.318029,-4366.744339,7254.018232
842.892405,-3404.947333,-4136.915689,6735.874072
842.892734,-1628.453072,-1915.238745,6661.853478
842.893063,-666.185348,1225.752797,7105.977043
842.893393,-1036.288319,3753.867940,7920.203579
842.893722,-1258.350101,5439.278036,9326.594869
842.894051,-1480.411884,6052.154434,11103.089130
842.894381,-2738.761985,4596.572988,11917.315666
842.894710,-4515.256246,2374.896044,12065.356855
842.895039,-5551.544565,229.828649,10807.006753
842.895369,-4589.276840,-2451.505594,9474.636058
842.895698,-2738.761985,-4979.620737,8586.388927
842.896027,-370.102971,-5132.839837,7698.141797
842.896357,1998.556043,-3294.210641,7920.203579
842.896686,4367.215058,-1378.971896,8142.265362
842.897015,5181.441594,1915.238745,9104.533087
842.897345,4737.318029,4903.011187,9770.718434
842.897674,4589.276840,6818.249932,10807.006753
842.898004,3182.885551,6588.421283,12287.418637
842.898333,444.123565,5515.887586,12213.398043
842.898662,-2368.659014,2911.162892,11843.295072
842.898992,-4071.132681,-612.876398,10436.903782
842.899321,-4663.297435,-3830.477490,8586.388927
842.899650,-3923.091493,-5669.106685,7254.018232
842.899980,-2812.782580,-5898.935335,6735.874072
842.900309,-1406.391290,-3753.867940,7105.977043
842.900638,-222.061783,-306.438199,7476.080014
842.900968,0.000000,2604.724693,9178.553681
842.901297,-444.123565,5669.106685,10140.821405
842.901626,0.000000,7048.078582,11399.171507
842.901956,-888.247130,6052.154434,12139.377449
842.902285,-2812.782580,4596.572988,11843.295072
842.902614,-3478.967927,1915.238745,10807.006753
842.902944,-2960.823768,-1378.971896,9770.718434
842.903273,-2072.576638,-2757.943793,9104.533087
842.903603,-1184.329507,-3677.258390,8290.306550
842.903932,888.247130,-2987.772442,7846.182985
842.904261,2960.823768,-1072.533697,7920.203579
842.904591,3849.070898,1838.629195,8438.347739
842.904920,3552.988522,3907.087040,9400.615463
842.905249,2664.741391,6205.373534,10362.883188
842.905579,962.267725,7277.907231,11695.253884
842.905908,-1406.391290,5822.325785,11843.295072
842.906237,-3701.029710,3524.039291,11325.150913
842.906567,-4811.338623,459.657299,9844.739029
842.906896,-5033.400406,-2681.334243,8142.265362
842.907225,-5181.441594,-4519.963438,7476.080014
842.907555,-3997.112087,-4443.353888,7105.977043
842.907884,-2368.659014,-2528.115143,7328.038826
842.908213,-1184.329507,766.095498,6883.915261
842.908543,-592.164754,3370.820191,7402.059420
842.908872,-740.205942,4826.401637,8438.347739
842.909201,-740.205942,6205.373534,10436.903782
842.909531,-2072.576638,5669.106685,11843.295072
842.909860,-4293.194464,3907.087040,12139.377449
842.910190,-5107.421000,1532.190996,11547.212695
842.910519,-4663.297435,-919.314598,10584.944971
842.910848,-2960.823768,-4443.353888,9326.594869
842.911178,-1036.288319,-5439.278036,8142.265362
842.911507,1406.391290,-3753.867940,7698.141797
842.911836,3849.070898,-2068.457845,8364.327145
842.912166,4811.338623,842.705048,8956.491898
842.912495,4441.235652,3753.867940,9622.677246
842.912824,3775.050304,5669.106685,10510.924376
842.913154,2960.823768,6052.154434,11917.315666
842.913483,592.164754,5439.278036,12287.418637
842.913812,-1850.514855,3064.381992,12509.480420
842.914142,-3849.070898,0.000000,10955.047942
842.914471,-4589.276840,-2911.162892,9622.677246
842.914800,-4515.256246,-5132.839837,8290.306550
842.915130,-3404.947333,-5439.278036,7105.977043
842.915459,-1998.556043,-3830.477490,6513.812290
842.915789,0.000000,-1532.190996,7105.977043
842.916118,444.123565,1455.581446,8364.327145
842.916447,-148.041188,4290.134789,9474.636058
842.916777,-296.082377,6358.592633,10362.883188
842.917106,-444.123565,6511.811733,10955.047942
842.917435,-2072.576638,4213.525239,11177.109724
842.917765,-3182.885551,1991.848295,10807.006753
842.918094,-3404.947333,-689.485948,10066.800811
842.918423,-2664.741391,-2987.772442,9622.677246
842.918753,-2072.576638,-3600.648841,8808.450710
842.919082,-222.061783,-2911.162892,7772.162391
842.919411,1702.473667,-1762.019645,7624.121203
842.919741,3256.906145,536.266849,7920.203579
842.920070,3552.988522,2911.162892,8882.471304
842.920399,2960.823768,5209.449386,10066.800811
842.920729,1776.494261,6435.202183,11695.253884
842.921058,-962.267725,6128.763984,12435.459826
842.921388,-3923.091493,4213.525239,12065.356855
842.921717,-5403.503377,1378.971896,10732.986159
842.922046,-5625.565159,-1991.848295,9252.574275
842.922376,-5255.462188,-4519.963438,7846.182985
842.922705,-3478.967927,-4749.792088,7105.977043
842.923034,-2368.659014,-3983.696590,7105.977043
842.923364,-962.267725,-919.314598,7031.956449
842.923693,-740.205942,2528.115143,7476.080014
842.924022,-1110.308913,4136.915689,8216.285956
842.924352,-592.164754,5439.278036,10584.944971
842.924681,-1406.391290,5822.325785,11769.274478
842.925010,-2960.823768,4290.134789,12213.398043
842.925340,-4441.235652,2221.676944,11991.336260
842.925669,-4737.318029,76.609550,11103.089130
842.925998,-3330.926739,-2911.162892,9400.615463
842.926328,-2220.617826,-4596.572988,8216.285956
842.926657,148.041188,-3753.867940,7772.162391
842.926986,2664.741391,-2374.896044,7698.141797
842.927316,3997.112087,-153.219100,8290.306550
842.927645,3923.091493,2987.772442,8882.471304
842.927975,3552.988522,5362.668486,9326.594869
842.928304,3108.864956,5669.106685,10732.986159
842.928633,1110.308913,5362.668486,11917.315666
842.928963,-1332.370696,4060.306139,12065.356855
842.929292,-3478.967927,1455.581446,11251.130318
842.929621,-4145.153275,-2068.457845,9696.697840
842.929951,-4219.173869,-4596.572988,8068.244768
842.930280,-3034.844362,-5286.058936,7031.956449
842.930609,-1702.473667,-4366.744339,6735.874072
842.930939,222.061783,-2145.067394,7179.997637
842.931268,1110.308913,1149.143247,8216.285956
842.931597,444.123565,3830.477490,9622.677246
842.931927,0.000000,6281.983084,10584.944971
842.932256,-296.082377,6511.811733,11695.253884
842.932585,-1406.391290,4979.620737,11917.315666
842.932915,-2368.659014,2834.553343,11029.068536
842.933244,-2960.823768,-306.438199,9770.718434
842.933574,-2516.700203,-2911.162892,9474.636058
842.933903,-2146.597232,-4136.915689,8956.491898
842.934232,-666.185348,-3524.039291,8364.327145
842.934562,814.226536,-2451.505594,7994.224174
842.934891,3256.906145,-153.219100,7994.224174
842.935220,3552.988522,1991.848295,9104.533087
842.935550,2738.761985,4519.963438,10140.821405
842.935879,1776.494261,6511.811733,11621.233289
842.936208,-518.144159,6358.592633,12509.480420
842.936538,-3034.844362,5056.230287,11917.315666
842.936867,-4959.379811,1991.848295,10955.047942
842.937196,-5255.462188,-1532.190996,9696.697840
842.937526,-5033.400406,-4290.134789,8438.347739
842.937855,-4811.338623,-4749.792088,7179.997637
842.938184,-3182.885551,-4213.525239,6883.915261
842.938514,-1480.411884,-1455.581446,7031.956449
842.938843,-370.102971,1991.848295,7105.977043
842.939173,-148.041188,3524.039291,7772.162391
842.939502,-444.123565,5209.449386,9474.636058
842.939831,-962.267725,6511.811733,10955.047942
842.940161,-2590.720797,5286.058936,11843.295072
842.940490,-4441.235652,2834.553343,11769.274478
842.940819,-4811.338623,1072.533697,10732.986159
842.941149,-3627.009116,-2528.115143,9400.615463
842.941478,-2294.638420,-5132.839837,8586.388927
842.941807,-222.061783,-3447.429741,7550.100608
842.942137,1406.391290,-2145.067394,7772.162391
842.942466,3478.967927,-229.828649,8290.306550
842.942795,3997.112087,3064.381992,9030.512492
842.943125,3849.070898,5209.449386,9622.677246
842.943454,4219.173869,5975.544884,10288.862594
842.943783,2072.576638,5898.935335,11473.192101
842.944113,-740.205942,5209.449386,11769.274478
842.944442,-3182.885551,2221.676944,11177.109724
842.944771,-4441.235652,-1149.143247,9918.759623
842.945101,-4515.256246,-3447.429741,8660.409521
842.945430,-3701.029710,-5592.497135,7476.080014
842.945760,-2442.679609,-5362.668486,6957.935855
842.946089,-666.185348,-2757.943793,7254.018232
842.946418,592.164754,-153.219100,8364.327145
842.946748,518.144159,2757.943793,9548.656652
842.947077,74.020594,5515.887586,10510.924376
842.947406,74.020594,6665.030833,11473.192101
842.947736,-666.185348,6052.154434,11843.295072
842.948065,-1850.514855,3600.648841,11177.109724
842.948394,-2220.617826,383.047749,10288.862594
842.948724,-1776.494261,-2451.505594,9400.615463
842.949053,-2072.576638,-3983.696590,9178.553681
842.949382,-1184.329507,-3217.601092,8734.430116
842.949712,518.144159,-2834.553343,8142.265362
842.950041,2368.659014,-1072.533697,7698.141797
842.950370,3552.988522,1378.971896,8882.471304
842.950700,3330.926739,3370.820191,9474.636058
842.951029,2072.576638,5592.497135,10584.944971
842.951359,296.082377,6052.154434,11695.253884
842.951688,-2368.659014,4903.011187,12139.377449
842.952017,-4737.318029,2757.943793,11695.253884
842.952347,-5403.503377,-459.657299,10214.842000
842.952676,-5403.503377,-3140.991542,8808.450710
842.953005,-4737.318029,-4826.401637,7624.121203
842.953335,-3330.926739,-4673.182538,7105.977043
842.953664,-1554.432478,-2757.943793,7476.080014
842.953993,0.000000,1455.581446,7179.997637
842.954323,0.000000,4136.915689,7550.100608
842.954652,-148.041188,5209.449386,8882.471304
842.954981,-296.082377,5898.935335,10436.903782
842.955311,-1406.391290,5362.668486,11843.295072
842.955640,-3627.009116,3600.648841,11621.233289
842.955969,-4367.215058,1378.971896,10881.027347
842.956299,-3997.112087,-1378.971896,9622.677246
842.956628,-2812.782580,-4366.744339,8586.388927
842.956957,-1184.329507,-5209.449386,8364.327145
842.957287,666.185348,-3447.429741,8438.347739
842.957616,2812.782580,-536.266849,9104.533087
842.957946,2960.823768,2374.896044,9622.677246
842.958275,2738.761985,4673.182538,9696.697840
842.958604,2812.782580,6052.154434,10140.821405
842.958934,2368.659014,5286.058936,11177.109724
842.959263,148.041188,4290.134789,11843.295072
842.959592,-2442.679609,2987.772442,11843.295072
842.959922,-4737.318029,459.657299,10584.944971
842.960251,-5107.421000,-2834.553343,9252.574275
842.960580,-4145.153275,-4366.744339,7254.018232
842.960910,-2072.576638,-4443.353888,6291.750507
842.961239,74.020594,-3447.429741,5773.606348
842.961568,1406.391290,-689.485948,7328.038826
842.961898,1332.370696,2681.334243,9030.512492
842.962227,296.082377,5669.106685,10140.821405
842.962556,0.000000,7814.174080,11103.089130
842.962886,-592.164754,6205.373534,11769.274478
842.963215,-1480.411884,3753.867940,11399.171507
842.963545,-2146.597232,689.485948,10658.965565
842.963874,-1998.556043,-1608.800546,9548.656652
842.964203,-1776.494261,-3217.601092,8956.491898
842.964533,-962.267725,-3447.429741,7846.182985
842.964862,740.205942,-2145.067394,7698.141797
842.965191,2664.741391,-1149.143247,7624.121203
842.965521,3775.050304,995.924147,8142.265362
842.965850,3108.864956,3600.648841,9326.594869
842.966179,1776.494261,5745.716235,10584.944971
842.966509,518.144159,6052.154434,11843.295072
842.966838,-2220.617826,5132.839837,12805.562797
842.967167,-4219.173869,2987.772442,11769.274478
842.967497,-5403.503377,-383.047749,9918.759623
842.967826,-5329.482782,-3677.258390,8734.430116
842.968155,-4663.297435,-4826.401637,7476.080014
842.968485,-3552.988522,-5209.449386,7105.977043
842.968814,-1924.535449,-3447.429741,7846.182985
842.969144,-518.144159,-536.266849,8956.491898
842.969473,-1036.288319,2604.724693,9474.636058
842.969802,-1850.514855,4903.011187,9252.574275
842.970132,-1480.411884,6205.373534,10288.862594
842.970461,-962.267725,4749.792088,11473.192101
842.970790,-2368.659014,3294.210641,11547.212695
842.971120,-3330.926739,995.924147,10658.965565
842.971449,-3627.009116,-1685.410096,9548.656652
842.971778,-3256.906145,-3294.210641,8956.491898
842.972108,-2146.597232,-4136.915689,8512.368333
842.972437,-296.082377,-2911.162892,8660.409521
842.972766,2072.576638,-1455.581446,8512.368333
842.973096,2738.761985,1608.800546,8512.368333
842.973425,3182.885551,3524.039291,9030.512492
842.973754,2812.782580,5439.278036,9622.677246
842.974084,1628.453072,5669.106685,10362.883188
842.974413,-888.247130,4596.572988,11399.171507
842.974742,-3552.988522,2911.162892,11621.233289
842.975072,-4589.276840,612.876398,10584.944971
842.975401,-4811.338623,-2451.505594,9474.636058
842.975731,-4515.256246,-4596.572988,7846.182985
842.976060,-3034.844362,-4673.182538,6439.791695
842.976389,-666.185348,-3600.648841,6587.832884
842.976719,1184.329507,-1455.581446,6957.935855
842.977048,1628.453072,2528.115143,8882.471304
842.977377,962.267725,5669.106685,10214.842000
842.977707,888.247130,7354.516781,11399.171507
842.978036,444.123565,6358.592633,11843.295072
842.978365,-666.185348,4749.792088,11547.212695
842.978695,-1258.350101,1685.410096,11103.089130
842.979024,-1776.494261,-1149.143247,10436.903782
842.979353,-2220.617826,-2451.505594,10140.821405
842.979683,-1998.556043,-2911.162892,9400.615463
842.980012,-444.123565,-2528.115143,8586.388927
842.980341,2072.576638,-1762.019645,7920.203579
842.980671,3330.926739,0.000000,8438.347739
842.981000,3256.906145,2528.115143,9178.553681
842.981330,2590.720797,4826.401637,10066.800811
842.981659,1702.473667,6205.373534,11251.130318
842.981988,-740.205942,6358.592633,11991.336260
842.982318,-3404.947333,4749.792088,11621.233289
842.982647,-4737.318029,1685.410096,9992.780217
842.982976,-4811.338623,-1302.362347,8364.327145
842.983306,-4219.173869,-3753.867940,7476.080014
842.983635,-3404.947333,-4519.963438,7105.977043
842.983964,-2368.659014,-4136.915689,7624.121203
842.984294,-1850.514855,-842.705048,8438.347739
842.984623,-1406.391290,2298.286494,9104.533087
842.984952,-1628.453072,4213.525239,9326.594869
842.985282,-1184.329507,5056.230287,9918.759623
842.985611,-518.144159,4519.963438,10955.047942
842.985940,-2146.597232,2987.772442,11251.130318
842.986270,-3552.988522,1685.410096,11103.089130
842.986599,-3849.070898,-306.438199,10066.800811
842.986928,-2590.720797,-2604.724693,9474.636058
842.987258,-1258.350101,-3983.696590,8808.450710
842.987587,814.226536,-3907.087040,8364.327145
842.987916,2812.782580,-1991.848295,7920.203579
842.988246,4145.153275,536.266849,8290.306550
842.988575,4219.173869,3217.601092,9400.615463
842.988904,3701.029710,4673.182538,10362.883188
842.989234,2072.576638,5286.058936,10288.862594
842.989563,0.000000,5056.230287,11547.212695
842.989892,-2960.823768,3753.867940,11917.315666
842.990222,-5107.421000,689.485948,11473.192101
842.990551,-5773.606348,-2221.676944,9992.780217
842.990880,-5403.503377,-4290.134789,8882.471304
842.991210,-4515.256246,-5056.230287,7328.038826
842.991539,-2516.700203,-4519.963438,6513.812290
842.991868,0.000000,-2451.505594,7031.956449
842.992198,814.226536,766.095498,8216.285956
842.992527,962.267725,3983.696590,9474.636058
842.992856,592.164754,7048.078582,10732.986159
842.993186,518.144159,7048.078582,11843.295072
842.993515,-740.205942,5669.106685,11843.295072
842.993844,-2146.597232,3064.381992,11103.089130
842.994174,-2072.576638,0.000000,10288.862594
842.994503,-1332.370696,-2528.115143,9844.739029
842.994832,-1258.350101,-3217.601092,9326.594869
842.995162,-296.082377,-2757.943793,8734.430116
842.995491,1628.453072,-1838.629195,8068.244768
842.995820,3108.864956,0.000000,8142.265362
842.996150,4071.132681,2374.896044,8956.491898
842.996479,3108.864956,4749.792088,9696.697840
842.996808,1998.556043,5975.544884,11103.089130
842.997138,-222.061783,5898.935335,11843.295072
842.997467,-3108.864956,4979.620737,11843.295072
842.997796,-4737.318029,2374.896044,10510.924376
842.998126,-5181.441594,-919.314598,8956.491898
842.998455,-5181.441594,-3370.820191,7920.203579
842.998784,-4293.194464,-4519.963438,6661.853478
842.999114,-2738.761985,-4366.744339,6661.853478
842.999443,-1332.370696,-2298.286494,7476.080014
842.999772,-518.144159,2374.896044,8808.450710
843.000102,-888.247130,4903.011187,9178.553681
843.000431,-888.247130,6435.202183,9696.697840
843.000760,-222.061783,6052.154434,10362.883188
843.001090,-666.185348,4213.525239,11621.233289
843.001419,-2146.597232,2911.162892,11399.171507
843.001748,-3182.885551,536.266849,10584.944971
843.002078,-3330.926739,-1838.629195,9844.739029
843.002407,-2664.741391,-3447.429741,9178.553681
843.002736,-1554.432478,-4060.306139,8734.430116
843.003066,1480.411884,-3217.601092,8882.471304
843.003395,3108.864956,-1455.581446,8734.430116
843.003724,2960.823768,2145.067394,9844.739029
843.004054,2442.679609,4213.525239,10140.821405
843.004383,1702.473667,5132.839837,10658.965565
843.004712,1184.329507,4673.182538,11991.336260
843.005042,-1406.391290,4136.915689,11991.336260
843.005371,-3701.029710,2068.457845,11695.253884
843.005700,-4589.276840,-842.705048,9548.656652
843.006030,-4737.318029,-3447.429741,8068.244768
843.006359,-3404.947333,-5132.839837,6661.853478
843.006688,-1258.350101,-4979.620737,6291.750507
843.007018,296.082377,-2451.505594,7105.977043
843.007347,1258.350101,612.876398,8364.327145
843.007676,370.102971,3524.039291,9326.594869
843.008006,0.000000,5745.716235,10362.883188
843.008335,296.082377,7277.907231,11621.233289
843.008665,-888.247130,4979.620737,11843.295072
843.008994,-2368.659014,3370.820191,11399.171507
843.009323,-3108.864956,612.876398,10584.944971
843.009653,-2886.803174,-2451.505594,9770.718434
843.009982,-2738.761985,-3600.648841,9252.574275
843.010311,-1406.391290,-3524.039291,8364.327145
843.010641,592.164754,-2528.115143,7920.203579
843.010970,2664.741391,-1149.143247,7698.141797
843.011299,3478.967927,1072.533697,8216.285956
843.011629,3552.988522,3447.429741,9178.553681
843.011958,3182.885551,5975.544884,10510.924376
843.012287,1406.391290,5975.544884,11695.253884
843.012617,-1480.411884,5669.106685,12065.356855
843.012946,-3404.947333,3370.820191,11547.212695
843.013275,-4367.215058,0.000000,9992.780217
843.013605,-4737.318029,-2681.334243,8438.347739
843.013934,-4071.132681,-3907.087040,7105.977043
843.014263,-2886.803174,-4443.353888,7105.977043
843.014593,-1332.370696,-2911.162892,8068.244768
843.014922,-888.247130,306.438199,9178.553681
843.015251,-1258.350101,3370.820191,9326.594869
843.015581,-1184.329507,5745.716235,9548.656652
843.015910,-888.247130,6205.373534,10140.821405
843.016239,-1258.350101,4903.011187,10732.986159
843.016569,-2738.761985,2834.553343,10510.924376
843.016898,-3627.009116,459.657299,9770.718434
843.017227,-3701.029710,-995.924147,9030.512492
843.017557,-3108.864956,-3140.991542,8734.430116
843.017886,-2368.659014,-3524.039291,8364.327145
843.018215,0.000000,-3064.381992,8364.327145
843.018545,2294.638420,-1378.971896,8660.409521
843.018874,3182.885551,1608.800546,9252.574275
843.019203,3108.864956,3677.258390,9696.697840
843.019533,2664.741391,5286.058936,10510.924376
843.019862,1480.411884,5132.839837,11547.212695
843.020191,-1036.288319,4673.182538,12065.356855
843.020521,-3108.864956,3064.381992,12065.356855
843.020850,-4441.235652,0.000000,10288.862594
843.021179,-4737.318029,-2681.334243,8956.491898
843.021509,-4441.235652,-4596.572988,7254.018232
843.021838,-2516.700203,-5286.058936,6365.771101
843.022167,-518.144159,-4213.525239,6217.729913
843.022497,592.164754,-383.047749,7328.038826
843.022826,370.102971,1991.848295,8586.388927
843.023155,-148.041188,5209.449386,10214.842000
843.023485,0.000000,6894.859482,10955.047942
843.023814,-222.061783,5362.668486,11769.274478
843.024143,-1258.350101,4060.306139,11695.253884
843.024473,-2516.700203,995.924147,11029.068536
843.024802,-2960.823768,-1225.752797,10362.883188
843.025131,-2886.803174,-2987.772442,10140.821405
843.025461,-2664.741391,-3447.429741,9548.656652
843.025790,-370.102971,-2757.943793,8660.409521
843.026119,1628.453072,-1838.629195,8364.327145
843.026449,3034.844362,459.657299,8290.306550
843.026778,3478.967927,2757.943793,8808.450710
843.027107,2886.803174,5056.230287,9696.697840
843.027437,1998.556043,5592.497135,11103.089130
843.027766,-296.082377,5898.935335,11621.233289
843.028095,-3330.926739,4443.353888,11399.171507
843.028425,-4441.235652,1072.533697,10288.862594
843.028754,-4441.235652,-2298.286494,8882.471304
843.029083,-3997.112087,-3830.477490,7550.100608
843.029413,-2664.741391,-4213.525239,6291.750507
843.029742,-1554.432478,-4213.525239,7105.977043
843.030071,-370.102971,-459.657299,8734.430116
843.030401,-962.267725,3140.991542,9548.656652
843.030730,-1702.473667,5592.497135,9992.780217
843.031059,-1480.411884,6741.640382,10732.986159
843.031389,-1332.370696,6511.811733,11103.089130
843.031718,-2590.720797,4136.915689,10658.965565
843.032047,-3404.947333,1762.019645,10288.862594
843.032377,-3923.091493,-612.876398,9252.574275
843.032706,-3404.947333,-2604.724693,8956.491898
843.033035,-2442.679609,-3217.601092,7994.224174
843.033365,-222.061783,-2987.772442,7846.182985
843.033694,2146.597232,-2145.067394,8068.244768
843.034023,3478.967927,383.047749,8660.409521
843.034353,3627.009116,3294.210641,9548.656652
843.034682,3108.864956,5975.544884,10140.821405
843.035011,2368.659014,6435.202183,10658.965565
843.035341,148.041188,5286.058936,12287.418637
843.035670,-2294.638420,3600.648841,12731.542202
843.035999,-4145.153275,1149.143247,11695.253884
843.036329,-4737.318029,-1915.238745,9992.780217
843.036658,-4737.318029,-4366.744339,8216.285956
843.036987,-3404.947333,-4903.011187,7031.956449
843.037317,-1258.350101,-4443.353888,6661.853478
843.037646,592.164754,-2145.067394,6957.935855
843.037975,888.247130,1455.581446,7920.203579
843.038305,814.226536,4290.134789,8808.450710
843.038634,370.102971,6281.983084,10214.842000
843.038963,-148.041188,6128.763984,11547.212695
843.039293,-1628.453072,4903.011187,11621.233289
843.039622,-2886.803174,2911.162892,10807.006753
843.039951,-2812.782580,-306.438199,9622.677246
843.040281,-2664.741391,-2528.115143,9474.636058
843.040610,-2146.597232,-3983.696590,8956.491898
843.040939,-1036.288319,-3447.429741,8290.306550
843.041269,1110.308913,-1991.848295,8216.285956
843.041598,2664.741391,0.000000,8586.388927
843.041927,2738.761985,2298.286494,9326.594869
843.042257,2294.638420,4290.134789,9918.759623
843.042586,1480.411884,5745.716235,11029.068536
843.042915,-444.123565,5822.325785,11843.295072
843.043245,-2812.782580,4673.182538,11473.192101
843.043574,-4219.173869,689.485948,10362.883188
843.043903,-4811.338623,-1762.019645,8734.430116
843.044233,-4367.215058,-3983.696590,7846.182985
843.044562,-3404.947333,-4673.182538,6809.894666
843.044891,-1998.556043,-3983.696590,6957.935855
843.045221,-444.123565,-1991.848295,7994.224174
843.045550,-296.082377,1072.533697,8956.491898
843.045879,-1258.350101,4366.744339,9770.718434
843.046209,-1036.288319,6511.811733,10362.883188
843.046538,-1036.288319,6052.154434,11325.150913
843.046867,-2368.659014,4749.792088,11695.253884
843.047197,-3034.844362,2145.067394,11029.068536
843.047526,-3775.050304,0.000000,10214.842000
843.047855,-3182.885551,-2298.286494,9548.656652
843.048185,-2664.741391,-3294.210641,8808.450710
843.048514,-1110.308913,-3600.648841,8290.306550
843.048843,1258.350101,-2145.067394,8068.244768
843.049173,2738.761985,0.000000,8512.368333
843.049502,2960.823768,2911.162892,8956.491898
843.049831,2738.761985,5056.230287,9252.574275
843.050161,2516.700203,5209.449386,10436.903782
843.050490,814.226536,4366.744339,11991.336260
843.050819,-2146.597232,4290.134789,12361.439231
843.051149,-4367.215058,2068.457845,11621.233289
843.051478,-4737.318029,-536.266849,9474.636058
843.051807,-3775.050304,-3600.648841,7698.141797
843.052137,-1850.514855,-4596.572988,5847.626942
843.052466,518.144159,-4443.353888,4959.379811
843.052795,2368.659014,-2221.676944,6291.750507
843.053125,1850.514855,1762.019645,8142.265362
843.053454,370.102971,5209.449386,10214.842000
843.053783,-666.185348,7584.345430,11695.253884
843.054113,-666.185348,7737.564530,12731.542202
843.054442,-1702.473667,4979.620737,12139.377449
843.054771,-2664.741391,2145.067394,11177.109724
843.055101,-3256.906145,-919.314598,10140.821405
843.055430,-3256.906145,-3830.477490,9474.636058
843.055759,-2886.803174,-4366.744339,8734.430116
843.056089,-1924.535449,-3907.087040,7550.100608
843.056418,666.185348,-2451.505594,7624.121203
843.056747,2812.782580,-919.314598,7846.182985
843.057077,3627.009116,1532.190996,8882.471304
843.057406,3552.988522,3983.696590,9992.780217
843.057735,2886.803174,6511.811733,11029.068536
843.058065,666.185348,6205.373534,12731.542202
843.058394,-2294.638420,4979.620737,13027.624579
843.058723,-4293.194464,2374.896044,11991.336260
843.059053,-4663.297435,-995.924147,10214.842000
843.059382,-4515.256246,-3217.601092,8586.388927
843.059711,-3552.988522,-4749.792088,7698.141797
843.060041,-2516.700203,-4596.572988,7031.956449
843.060370,-1332.370696,-2451.505594,7476.080014
843.060699,-740.205942,536.266849,8512.368333
843.061029,-1258.350101,3830.477490,9104.533087
843.061358,-2072.576638,4903.011187,9548.656652
843.061687,-1702.473667,5669.106685,10807.006753
843.062017,-2516.700203,3983.696590,11325.150913
843.062346,-3478.967927,2298.286494,10658.965565
843.062675,-3552.988522,0.000000,9548.656652
843.063005,-2886.803174,-2987.772442,8660.409521
843.063334,-2368.659014,-4213.525239,8734.430116
843.063663,-1036.288319,-3140.991542,8364.327145
843.063993,1480.411884,-1991.848295,8512.368333
843.064322,3108.864956,153.219100,8882.471304
843.064651,3997.112087,2681.334243,9844.739029
843.064981,3256.906145,4673.182538,10140.821405
843.065310,2664.741391,5286.058936,11103.089130
843.065639,1110.308913,5056.230287,11991.336260
843.065969,-1628.453072,4213.525239,11843.295072
843.066298,-4071.132681,2451.505594,10955.047942
843.066627,-4145.153275,-612.876398,9474.636058
843.066957,-4071.132681,-3294.210641,8216.285956
843.067286,-3552.988522,-4826.401637,6217.729913
843.067615,-1850.514855,-4366.744339,5551.544565
843.067945,148.041188,-2221.676944,6217.729913
843.068274,518.144159,306.438199,8142.265362
843.068603,296.082377,3677.258390,9770.718434
843.068933,-222.061783,5975.544884,10732.986159
843.069262,-296.082377,6511.811733,11769.274478
843.069591,-1332.370696,5132.839837,12435.459826
843.069921,-2664.741391,3064.381992,11843.295072
843.070250,-3034.844362,0.000000,11547.212695
843.070579,-3182.885551,-1991.848295,10436.903782
843.070909,-3034.844362,-2987.772442,9474.636058
843.071238,-1258.350101,-2987.772442,8142.265362
843.071567,962.267725,-2145.067394,7328.038826
843.071897,3627.009116,-306.438199,7179.997637
843.072226,3997.112087,1532.190996,7698.141797
843.072555,3108.864956,3907.087040,8734.430116
843.072885,1702.473667,5975.544884,10066.800811
843.073214,-222.061783,6205.373534,11769.274478
843.073543,-3330.926739,5132.839837,11843.295072
843.073873,-5329.482782,2374.896044,11177.109724
843.074202,-5921.647536,-1225.752797,9918.759623
843.074531,-5773.606348,-3830.477490,9030.512492
843.074861,-5625.565159,-4903.011187,7550.100608
843.075190,-4071.132681,-4903.011187,7254.018232
843.075519,-2294.638420,-3370.820191,7846.182985
843.075849,-592.164754,0.000000,9030.512492
843.076178,-222.061783,2834.553343,9918.759623
843.076507,-666.185348,5132.839837,9992.780217
843.076837,370.102971,6588.421283,10807.006753
843.077166,0.000000,4979.620737,11251.130318
843.077495,-1332.370696,3447.429741,11399.171507
843.077825,-2368.659014,536.266849,10436.903782
843.078154,-2294.638420,-1302.362347,9400.615463
843.078483,-1924.535449,-3140.991542,8956.491898
843.078813,-666.185348,-3753.867940,8068.244768
843.079142,1184.329507,-2681.334243,8438.347739
843.079471,2960.823768,-919.314598,8586.388927
843.079801,3330.926739,1762.019645,9104.533087
843.080130,2738.761985,3524.039291,9770.718434
843.080459,2294.638420,4979.620737,11473.192101
843.080789,592.164754,4979.620737,12213.398043
843.081118,-2368.659014,4903.011187,12435.459826
843.081447,-4367.215058,2987.772442,11547.212695
843.081777,-4589.276840,0.000000,9844.739029
843.082106,-4293.194464,-2681.334243,7698.141797
843.082436,-3108.864956,-4519.963438,5921.647536
843.082765,-1850.514855,-4673.182538,5181.441594
843.083094,296.082377,-2451.505594,6439.791695
843.083424,1110.308913,766.095498,8068.244768
843.083753,666.185348,4213.525239,9548.656652
843.084082,0.000000,6741.640382,10066.800811
843.084412,0.000000,7277.907231,11103.089130
843.084741,0.000000,5515.887586,12065.356855
843.085071,-1036.288319,3524.039291,12139.377449
843.085400,-2220.617826,919.314598,11547.212695
843.085729,-2442.679609,-1608.800546,10214.842000
843.086059,-2368.659014,-2911.162892,9326.594869
843.086388,-1480.411884,-3370.820191,8586.388927
843.086718,962.267725,-2834.553343,7624.121203
843.087047,3034.844362,-1225.752797,7476.080014
843.087376,3478.967927,1302.362347,7698.141797
843.087706,3256.906145,4213.525239,8956.491898
843.088035,1776.494261,5898.935335,10214.842000
843.088365,148.041188,6435.202183,11621.233289
843.088694,-2664.741391,5898.935335,12213.398043
843.089024,-5107.421000,3294.210641,11695.253884
843.089353,-5551.544565,306.438199,9992.780217
843.089682,-5551.544565,-3294.210641,8956.491898
843.090012,-5551.544565,-4979.620737,7920.203579
843.090341,-4441.235652,-4749.792088,6809.894666
843.090671,-2220.617826,-3677.258390,7179.997637
843.091000,-222.061783,-842.705048,8142.265362
843.091330,-148.041188,2528.115143,8660.409521
843.091659,-222.061783,4749.792088,9474.636058
843.091988,0.000000,6205.373534,10807.006753
843.092318,-222.061783,5592.497135,11621.233289
843.092647,-1628.453072,4290.134789,11695.253884
843.092977,-2738.761985,1608.800546,10732.986159
843.093306,-3108.864956,-1225.752797,9992.780217
843.093635,-2812.782580,-3447.429741,9622.677246
843.093965,-1924.535449,-3677.258390,9104.533087
843.094294,0.000000,-2987.772442,8364.327145
843.094624,1776.494261,-1762.019645,7772.162391
843.094953,2886.803174,995.924147,8586.388927
843.095283,2960.823768,3064.381992,9326.594869
843.095612,2442.679609,4826.401637,9992.780217
843.095941,1628.453072,5286.058936,11547.212695
843.096271,-962.267725,4749.792088,12213.398043
843.096600,-3627.009116,3370.820191,11843.295072
843.096930,-4515.256246,612.876398,10288.862594
843.097259,-4293.194464,-2451.505594,8364.327145
843.097589,-3256.906145,-4596.572988,6587.832884
843.097918,-1554.432478,-5439.278036,5403.503377
843.098247,296.082377,-3447.429741,5921.647536
843.098577,1332.370696,-612.876398,7328.038826
843.098906,1332.370696,3217.601092,9178.553681
843.099236,444.123565,5975.544884,10584.944971
843.099565,0.000000,7584.345430,11547.212695
843.099894,-888.247130,6894.859482,12139.377449
843.100224,-1406.391290,4673.182538,12213.398043
843.100553,-2368.659014,842.705048,11621.233289
843.100883,-2516.700203,-1685.410096,10807.006753
843.101212,-2738.761985,-3294.210641,9844.739029
843.101542,-2294.638420,-3983.696590,8142.265362
843.101871,148.041188,-3140.991542,7105.977043
843.102200,2812.782580,-1685.410096,7105.977043
843.102530,4367.215058,153.219100,7550.100608
843.102859,4441.235652,2528.115143,8660.409521
843.103189,3404.947333,5669.106685,9844.739029
843.103518,1776.494261,7354.516781,11177.109724
843.103848,-962.267725,6205.373534,12361.439231
843.104177,-4145.153275,4673.182538,12435.459826
843.104506,-5329.482782,1378.971896,11103.089130
843.104836,-5551.544565,-2374.896044,9400.615463
843.105165,-5403.503377,-3983.696590,7698.141797
843.105495,-4071.132681,-5056.230287,6957.935855
843.105824,-2812.782580,-4443.353888,7031.956449
843.106153,-1184.329507,-1608.800546,7846.182985
843.106483,-592.164754,1532.190996,8660.409521
843.106812,-740.205942,4213.525239,9030.512492
843.107142,-666.185348,5822.325785,9844.739029
843.107471,-666.185348,5822.325785,10955.047942
843.107801,-1554.432478,3447.429741,11251.130318
843.108130,-2516.700203,1685.410096,10955.047942
843.108459,-3478.967927,-536.266849,9918.759623
843.108789,-2442.679609,-2681.334243,9474.636058
843.109118,-2072.576638,-4060.306139,9104.533087
843.109448,-370.102971,-3524.039291,8808.450710
843.109777,2072.576638,-2145.067394,8586.388927
843.110107,3552.988522,229.828649,9030.512492
843.110436,3849.070898,2911.162892,10066.800811
843.110765,2738.761985,4673.182538,10658.965565
843.111095,1702.473667,5669.106685,11991.336260
843.111424,-370.102971,5439.278036,12657.521608
843.111754,-2738.761985,4136.915689,11917.315666
843.112083,-4441.235652,1225.752797,10140.821405
843.112412,-4515.256246,-2374.896044,8512.368333
843.112742,-3627.009116,-4903.011187,6735.874072
843.113071,-2590.720797,-5132.839837,5033.400406
843.113401,-1332.370696,-4596.572988,5403.503377
843.113730,148.041188,-1378.971896,7179.997637
843.114060,518.144159,1991.848295,8882.471304
843.114389,-444.123565,4903.011187,10436.903782
843.114718,-518.144159,7201.297681,11103.089130
843.115048,-296.082377,6818.249932,12139.377449
843.115377,-1184.329507,5132.839837,12139.377449
843.115707,-2738.761985,2374.896044,11621.233289
843.116036,-3404.947333,-459.657299,10436.903782
843.116366,-3404.947333,-2374.896044,10066.800811
843.116695,-2812.782580,-3677.258390,9030.512492
843.117024,-1036.288319,-3294.210641,7846.182985
843.117354,1924.535449,-2068.457845,7031.956449
843.117683,3775.050304,-919.314598,7031.956449
843.118013,4441.235652,1685.410096,7920.203579
843.118342,3552.988522,4443.353888,9400.615463
843.118672,1998.556043,6435.202183,11103.089130
843.119001,-740.205942,6665.030833,12361.439231
843.119330,-3404.947333,5286.058936,12361.439231
843.119660,-5181.441594,2528.115143,11547.212695
843.119989,-5329.482782,-995.924147,10140.821405
843.120319,-4959.379811,-3753.867940,8586.388927
843.120648,-4293.194464,-4749.792088,7476.080014
843.120977,-2960.823768,-4596.572988,7031.956449
843.121307,-1406.391290,-1838.629195,7920.203579
843.121636,-814.226536,1302.362347,8438.347739
843.121966,-740.205942,3753.867940,9104.533087
843.122295,-888.247130,5515.887586,9918.759623
843.122625,-444.123565,5362.668486,10881.027347
843.122954,-1480.411884,4903.011187,10955.047942
843.123283,-2886.803174,2451.505594,10584.944971
843.123613,-3478.967927,76.609550,9770.718434
843.123942,-2886.803174,-2834.553343,9178.553681
843.124272,-2072.576638,-4290.134789,8438.347739
843.124601,0.000000,-3907.087040,7994.224174
843.124931,1924.535449,-2451.505594,8142.265362
843.125260,3627.009116,0.000000,8364.327145
843.125589,3701.029710,2374.896044,9474.636058
843.125919,3182.885551,4519.963438,10881.027347
843.126248,2590.720797,5975.544884,12139.377449
843.126578,148.041188,5515.887586,13101.645173
843.126907,-2886.803174,4749.792088,12731.542202
843.127236,-4367.215058,1991.848295,11325.150913
843.127566,-4145.153275,-1072.533697,9030.512492
843.127895,-3256.906145,-3907.087040,7254.018232
843.128225,-2664.741391,-5286.058936,5255.462188
843.128554,-962.267725,-4903.011187,4885.359217
843.128884,962.267725,-2834.553343,6291.750507
843.129213,1332.370696,1149.143247,8290.306550
843.129542,740.205942,4749.792088,9252.574275
843.129872,0.000000,6588.421283,10732.986159
843.130201,74.020594,6971.469032,12139.377449
843.130531,-962.267725,5515.887586,12953.603985
843.130860,-2516.700203,3064.381992,12139.377449
843.131190,-3256.906145,153.219100,11177.109724
843.131519,-3256.906145,-2068.457845,10584.944971
843.131848,-2886.803174,-3600.648841,9696.697840
843.132178,-1628.453072,-4136.915689,8438.347739
843.132507,814.226536,-2451.505594,7476.080014
843.132837,3108.864956,-766.095498,7254.018232
843.133166,3849.070898,1762.019645,8142.265362
843.133495,3552.988522,4213.525239,8956.491898
843.133825,2072.576638,6588.421283,10288.862594
843.134154,0.000000,6511.811733,11399.171507
843.134484,-2738.761985,5209.449386,11917.315666
843.134813,-4811.338623,3447.429741,11251.130318
843.135143,-5255.462188,-842.705048,9622.677246
843.135472,-5181.441594,-3677.258390,8586.388927
843.135801,-4811.338623,-4596.572988,7624.121203
843.136131,-3478.967927,-4443.353888,7402.059420
843.136460,-1998.556043,-2374.896044,7920.203579
843.136790,-740.205942,842.705048,8290.306550
843.137119,-740.205942,3140.991542,9474.636058
843.137449,-1258.350101,5209.449386,10214.842000
843.137778,-1258.350101,6588.421283,11177.109724
843.138107,-1850.514855,5362.668486,11547.212695
843.138437,-2886.803174,3370.820191,10807.006753
843.138766,-3404.947333,612.876398,9770.718434
843.139096,-2812.782580,-2374.896044,8734.430116
843.139425,-2072.576638,-4596.572988,8364.327145
843.139754,-740.205942,-3830.477490,8068.244768
843.140084,1110.308913,-2757.943793,8142.265362
843.140413,3034.844362,-1149.143247,8438.347739
843.140743,3701.029710,1378.971896,10066.800811
843.141072,3256.906145,3753.867940,11029.068536
843.141402,2590.720797,5515.887586,11399.171507
843.141731,1332.370696,5822.325785,12213.398043
843.142060,-1110.308913,5209.449386,12287.418637
843.142390,-2516.700203,2757.943793,11547.212695
843.142719,-3256.906145,229.828649,9030.512492
843.143049,-2960.823768,-2604.724693,6957.935855
843.143378,-2368.659014,-4443.353888,5033.400406
843.143708,-666.185348,-3907.087040,5033.400406
843.144037,370.102971,-2911.162892,6291.750507
843.144366,666.185348,766.095498,7994.224174
843.144696,-296.082377,3677.258390,9474.636058
843.145025,-1110.308913,5745.716235,10732.986159
843.145355,-1628.453072,6281.983084,11399.171507
843.145684,-1702.473667,4290.134789,12731.542202
843.146013,-3182.885551,1455.581446,13101.645173
843.146343,-4071.132681,306.438199,11843.295072
843.146672,-3849.070898,-1838.629195,10510.924376
843.147002,-2590.720797,-3294.210641,8734.430116
843.147331,-370.102971,-3907.087040,7402.059420
843.147661,2590.720797,-2604.724693,6883.915261
843.147990,5255.462188,-842.705048,7105.977043
843.148319,5551.544565,2374.896044,8364.327145
843.148649,3701.029710,5439.278036,9548.656652
843.148978,2368.659014,7048.078582,11399.171507
843.149308,-222.061783,6741.640382,13175.665768
843.149637,-3034.844362,5592.497135,13471.748144
843.149967,-5255.462188,2451.505594,12509.480420
843.150296,-6513.812290,-689.485948,10362.883188
843.150625,-6661.853478,-3217.601092,8660.409521
843.150955,-5551.544565,-5745.716235,6439.791695
843.151284,-4219.173869,-5745.716235,5625.565159
843.151614,-1998.556043,-3830.477490,6217.729913
843.151943,-592.164754,-383.047749,7920.203579
843.152272,-666.185348,2834.553343,9326.594869
843.152602,-1480.411884,6052.154434,9474.636058
843.152931,-888.247130,7584.345430,10658.965565
843.153261,-888.247130,5975.544884,11399.171507
843.153590,-1850.514855,3753.867940,11251.130318
843.153920,-2590.720797,536.266849,10140.821405
843.154249,-2738.761985,-1991.848295,9844.739029
843.154578,-1924.535449,-3600.648841,8808.450710
843.154908,-1406.391290,-4136.915689,8512.368333
843.155237,592.164754,-2604.724693,8512.368333
843.155567,2442.679609,-995.924147,8512.368333
843.155896,3997.112087,766.095498,8808.450710
843.156226,3552.988522,3677.258390,9474.636058
843.156555,2738.761985,5362.668486,10881.027347
843.156884,1628.453072,5515.887586,12065.356855
843.157214,-1332.370696,4673.182538,12657.521608
843.157543,-3330.926739,3830.477490,11695.253884
843.157873,-4293.194464,153.219100,9770.718434
843.158202,-4071.132681,-2834.553343,8142.265362
843.158531,-3108.864956,-4519.963438,6291.750507
843.158861,-1850.514855,-4903.011187,5033.400406
843.159190,444.123565,-3830.477490,5921.647536
843.159520,1776.494261,-459.657299,7920.203579
843.159849,1036.288319,2987.772442,9548.656652
843.160179,-296.082377,5592.497135,10732.986159
843.160508,-740.205942,6971.469032,12139.377449
843.160837,-1702.473667,5515.887586,13471.748144
843.161167,-3034.844362,3907.087040,13397.727550
843.161496,-3997.112087,1455.581446,12287.418637
843.161826,-4145.153275,-1378.971896,9770.718434
843.162155,-3034.844362,-3753.867940,8068.244768
843.162485,-1702.473667,-4903.011187,6587.832884
843.162814,814.226536,-3830.477490,6217.729913
843.163143,2812.782580,-2374.896044,6587.832884
843.163473,3627.009116,1302.362347,7772.162391
843.163802,3404.947333,4060.306139,9696.697840
843.164132,2368.659014,6052.154434,10955.047942
843.164461,888.247130,6511.811733,12139.377449
843.164790,-1184.329507,4979.620737,13397.727550
843.165120,-3775.050304,3907.087040,12953.603985
843.165449,-5255.462188,919.314598,11769.274478
843.165779,-5847.626942,-2221.676944,9548.656652
843.166108,-5477.523971,-4749.792088,7328.038826
843.166438,-3627.009116,-5898.935335,5625.565159
843.166767,-1554.432478,-4673.182538,6143.709319
843.167096,148.041188,-1532.190996,7550.100608
843.167426,-222.061783,2145.067394,8586.388927
843.167755,-1184.329507,5209.449386,9326.594869
843.168085,-1480.411884,7201.297681,10436.903782
843.168414,-1554.432478,6818.249932,11547.212695
843.168744,-2516.700203,4366.744339,11843.295072
843.169073,-3627.009116,1225.752797,10807.006753
843.169402,-3849.070898,-919.314598,9548.656652
843.169732,-3404.947333,-3370.820191,9474.636058
843.170061,-2368.659014,-4596.572988,9400.615463
843.170391,-740.205942,-3677.258390,8808.450710
843.170720,1480.411884,-1762.019645,8660.409521
843.171049,3404.947333,536.266849,9252.574275
843.171379,3849.070898,2681.334243,10066.800811
843.171708,3701.029710,4673.182538,10362.883188
843.172038,3034.844362,5822.325785,11251.130318
843.172367,666.185348,5898.935335,12435.459826
843.172697,-1850.514855,4749.792088,11695.253884
843.173026,-3108.864956,2221.676944,10288.862594
843.173355,-2886.803174,-1378.971896,7994.224174
843.173685,-3034.844362,-3140.991542,6661.853478
843.174014,-1702.473667,-4366.744339,5107.421000
843.174344,74.020594,-3907.087040,5403.503377
843.174673,1406.391290,-919.314598,7105.977043
843.175003,666.185348,2068.457845,9030.512492
843.175332,-296.082377,5362.668486,10140.821405
843.175661,-1036.288319,6665.030833,11547.212695
843.175991,-1258.350101,5439.278036,13027.624579
843.176320,-2516.700203,4060.306139,13767.830521
843.176650,-4293.194464,2145.067394,12657.521608
843.176979,-4145.153275,0.000000,10584.944971
843.177309,-2738.761985,-2221.676944,8734.430116
843.177638,-1702.473667,-3677.258390,7105.977043
843.177967,666.185348,-3447.429741,6143.709319
843.178297,2960.823768,-2221.676944,5699.585753
843.178626,4515.256246,612.876398,6957.935855
843.178956,4145.153275,3830.477490,8290.306550
843.179285,2812.782580,5209.449386,9844.739029
843.179614,1406.391290,6665.030833,11621.233289
843.179944,-1332.370696,5822.325785,13027.624579
843.180273,-4293.194464,3830.477490,13101.645173
843.180603,-5847.626942,1225.752797,12361.439231
843.180932,-6217.729913,-1378.971896,10658.965565
843.181262,-6291.750507,-4366.744339,8734.430116
843.181591,-4811.338623,-5209.449386,6809.894666
843.181920,-2590.720797,-5056.230287,6883.915261
843.182250,-592.164754,-1991.848295,7698.141797
843.182579,0.000000,1302.362347,8512.368333
843.182909,-962.267725,4213.525239,9474.636058
843.183238,-962.267725,6205.373534,10288.862594
843.183568,-1110.308913,6435.202183,11251.130318
843.183897,-2220.617826,4519.963438,11399.171507
843.184226,-3552.988522,2221.676944,10584.944971
843.184556,-4071.132681,-689.485948,9918.759623
843.184885,-3108.864956,-2757.943793,9474.636058
843.185215,-2368.659014,-4443.353888,8734.430116
843.185544,-444.123565,-4290.134789,8142.265362
843.185873,1924.535449,-2298.286494,7624.121203
843.186203,4071.132681,-536.266849,8660.409521
843.186532,4367.215058,2451.505594,9992.780217
843.186862,3552.988522,5209.449386,11029.068536
843.187191,2590.720797,6588.421283,11917.315666
843.187520,296.082377,5898.935335,12509.480420
843.187850,-1924.535449,4903.011187,11769.274478
843.188179,-3404.947333,2221.676944,10510.924376
843.188509,-3701.029710,-1072.533697,8068.244768
843.188838,-3701.029710,-3600.648841,6291.750507
843.189167,-2664.741391,-4979.620737,4589.276840
843.189497,-740.205942,-4443.353888,4959.379811
843.189826,888.247130,-2451.505594,6513.812290
843.190156,740.205942,1532.190996,8586.388927
843.190485,-370.102971,4826.401637,9992.780217
843.190814,-814.226536,6818.249932,10955.047942
843.191144,-222.061783,7277.907231,12065.356855
843.191473,-1480.411884,4290.134789,13693.809927
843.191803,-2812.782580,1762.019645,13545.768739
843.192132,-3849.070898,536.266849,11843.295072
843.192461,-3478.967927,-1532.190996,10066.800811
843.192791,-2294.638420,-3294.210641,7994.224174
843.193120,666.185348,-3753.867940,7105.977043
843.193450,3182.885551,-2604.724693,6143.709319
843.193779,5033.400406,-306.438199,6439.791695
843.194108,5107.421000,3064.381992,7994.224174
843.194438,3701.029710,5975.544884,9548.656652
843.194767,1406.391290,6818.249932,11769.274478
843.195097,-1406.391290,6435.202183,13323.706956
843.195426,-4515.256246,5132.839837,13323.706956
843.195755,-6143.709319,1991.848295,12361.439231
843.196085,-6513.812290,-1608.800546,10436.903782
843.196414,-6735.874072,-4749.792088,7920.203579
843.196744,-5329.482782,-5975.544884,5625.565159
843.197073,-3108.864956,-5822.325785,5403.503377
843.197402,-740.205942,-2757.943793,6661.853478
843.197732,0.000000,612.876398,8438.347739
843.198061,-666.185348,4213.525239,9696.697840
843.198391,-1110.308913,6358.592633,10066.800811
843.198720,-740.205942,7354.516781,11177.109724
843.199049,-1332.370696,4903.011187,11917.315666
843.199379,-2442.679609,2528.115143,11695.253884
843.199708,-3478.967927,0.000000,10288.862594
843.200037,-3330.926739,-3064.381992,9400.615463
843.200367,-2442.679609,-4443.353888,9178.553681
843.200696,-1036.288319,-4596.572988,8586.388927
843.201026,1480.411884,-3447.429741,8364.327145
843.201355,3404.947333,-1225.752797,8290.306550
843.201684,4145.153275,1378.971896,9178.553681
843.202014,4367.215058,4136.915689,9992.780217
843.202343,3404.947333,5975.544884,11399.171507
843.202673,1110.308913,6281.983084,12287.418637
843.203002,-1850.514855,5209.449386,12657.521608
843.203331,-3404.947333,3217.601092,11251.130318
843.203661,-3701.029710,-306.438199,9030.512492
843.203990,-4293.194464,-3370.820191,7624.121203
843.204320,-3552.988522,-5209.449386,5921.647536
843.204649,-2072.576638,-5209.449386,5477.523971
843.204978,-814.226536,-3064.381992,6513.812290
843.205308,0.000000,689.485948,7698.141797
843.205637,-370.102971,3677.258390,9474.636058
843.205967,-592.164754,5669.106685,10214.842000
843.206296,0.000000,6435.202183,11473.192101
843.206625,-518.144159,4596.572988,12953.603985
843.206955,-2220.617826,2987.772442,13027.624579
843.207284,-3552.988522,1302.362347,11843.295072
843.207614,-3256.906145,-1149.143247,10436.903782
843.207943,-2294.638420,-2911.162892,8956.491898
843.208272,0.000000,-3447.429741,7105.977043
843.208602,2590.720797,-3140.991542,5551.544565
843.208931,4663.297435,-995.924147,5995.668130
843.209261,4737.318029,2298.286494,7550.100608
843.209590,3330.926739,5286.058936,9178.553681
843.209919,1406.391290,7201.297681,11029.068536
843.210249,-740.205942,7354.516781,12139.377449
843.210578,-4441.235652,5439.278036,12657.521608
843.210908,-5995.668130,2451.505594,11991.336260
843.211237,-7031.956449,-995.924147,10584.944971
843.211566,-6883.915261,-3983.696590,8734.430116
843.211896,-6513.812290,-5592.497135,6809.894666
843.212225,-4737.318029,-6052.154434,5847.626942
843.212555,-2220.617826,-4290.134789,6587.832884
843.212884,-518.144159,-689.485948,7846.182985
843.213213,-370.102971,2604.724693,9030.512492
843.213543,-592.164754,5515.887586,9918.759623
843.213872,0.000000,7048.078582,10658.965565
843.214202,-296.082377,5822.325785,11843.295072
843.214531,-1998.556043,3600.648841,11843.295072
843.214860,-2664.741391,842.705048,11103.089130
843.215190,-2516.700203,-1762.019645,10362.883188
843.215519,-2072.576638,-3753.867940,9474.636058
843.215849,-1332.370696,-4290.134789,8586.388927
843.216178,962.267725,-3753.867940,8512.368333
843.216507,2738.761985,-1991.848295,8364.327145
843.216837,3849.070898,383.047749,8956.491898
843.217166,3701.029710,3140.991542,9992.780217
843.217495,2960.823768,5515.887586,11251.130318
843.217825,1702.473667,6052.154434,11917.315666
843.218154,-1258.350101,4826.401637,12361.439231
843.218484,-2886.803174,3370.820191,11695.253884
843.218813,-3849.070898,229.828649,9326.594869
843.219142,-3997.112087,-2604.724693,7105.977043
843.219472,-3923.091493,-4519.963438,5551.544565
843.219801,-1924.535449,-5132.839837,5255.462188
843.220131,0.000000,-3524.039291,5921.647536
843.220460,888.247130,-229.828649,7550.100608
843.220789,370.102971,3524.039291,9474.636058
843.221119,222.061783,5822.325785,10732.986159
843.221448,148.041188,7201.297681,11547.212695
843.221778,-518.144159,5745.716235,12805.562797
843.222107,-1924.535449,2987.772442,13471.748144
843.222436,-3330.926739,995.924147,12583.501014
843.222766,-3627.009116,-306.438199,10955.047942
843.223095,-2812.782580,-2757.943793,9178.553681
843.223425,-962.267725,-3983.696590,7402.059420
843.223754,1702.473667,-3370.820191,5921.647536
843.224083,4145.153275,-2145.067394,5329.482782
843.224413,5181.441594,1149.143247,6439.791695
843.224742,4737.318029,4826.401637,8216.285956
843.225072,2220.617826,7201.297681,10510.924376
843.225401,148.041188,7737.564530,12657.521608
843.225730,-3034.844362,6358.592633,13397.727550
843.226060,-5699.585753,4443.353888,12583.501014
843.226389,-6439.791695,1455.581446,11621.233289
843.226719,-7031.956449,-2757.943793,9474.636058
843.227048,-6587.832884,-4903.011187,7698.141797
843.227377,-5107.421000,-6128.763984,6439.791695
843.227707,-2812.782580,-4596.572988,6217.729913
843.228036,-666.185348,-919.314598,7476.080014
843.228366,-518.144159,1915.238745,8660.409521
843.228695,-888.247130,4826.401637,9770.718434
843.229024,-1184.329507,7124.688131,10584.944971
843.229354,-1036.288319,6511.811733,11695.253884
843.229683,-1776.494261,4136.915689,11325.150913
843.230013,-2590.720797,1302.362347,10955.047942
843.230342,-2812.782580,-1378.971896,10436.903782
843.230671,-2368.659014,-3677.258390,9622.677246
843.231001,-1258.350101,-4213.525239,8660.409521
843.231330,1110.308913,-3447.429741,7772.162391
843.231660,3256.906145,-2374.896044,7994.224174
843.231989,4515.256246,306.438199,8734.430116
843.232318,4515.256246,3064.381992,9696.697840
843.232648,3182.885551,5592.497135,10584.944971
843.232977,1776.494261,6894.859482,11695.253884
843.233307,-222.061783,5439.278036,12509.480420
843.233636,-2960.823768,3600.648841,11843.295072
843.233965,-4293.194464,919.314598,9770.718434
843.234295,-4293.194464,-2451.505594,7624.121203
843.234624,-3478.967927,-4596.572988,6069.688724
843.234953,-2516.700203,-5362.668486,4663.297435
843.235283,-740.205942,-4519.963438,4737.318029
843.235612,888.247130,-1762.019645,6735.874072
843.235942,1036.288319,1838.629195,9030.512492
843.236271,0.000000,5209.449386,10658.965565
843.236600,-370.102971,6818.249932,12065.356855
843.236930,-518.144159,5669.106685,13989.892304
843.237259,-1998.556043,3907.087040,14508.036463
843.237589,-3330.926739,1455.581446,13545.768739
843.237918,-3330.926739,-536.266849,11177.109724
843.238247,-1998.556043,-2911.162892,9252.574275
843.238577,-666.185348,-3753.867940,6809.894666
843.238906,2294.638420,-3447.429741,6143.709319
843.239236,4515.256246,-2145.067394,5995.668130
843.239565,5181.441594,1149.143247,7105.977043
843.239894,3775.050304,4290.134789,8882.471304
843.240224,1702.473667,6971.469032,10881.027347
843.240553,0.000000,7737.564530,11843.295072
843.240883,-2738.761985,5592.497135,13101.645173
843.241212,-5847.626942,3600.648841,12953.603985
843.241541,-7328.038826,689.485948,11695.253884
843.241871,-7550.100608,-2528.115143,9474.636058
843.242200,-6883.915261,-4903.011187,7476.080014
843.242530,-5403.503377,-5669.106685,5551.544565
843.242859,-2664.741391,-5056.230287,5625.565159
843.243188,-370.102971,-2068.457845,7105.977043
843.243518,222.061783,1991.848295,8438.347739
843.243847,-444.123565,5439.278036,9400.615463
843.244177,-370.102971,7431.126331,10288.862594
843.244506,-222.061783,7431.126331,11695.253884
843.244835,-1258.350101,4826.401637,12139.377449
843.245165,-2368.659014,1838.629195,11029.068536
843.245494,-2738.761985,-995.924147,10214.842000
843.245824,-2516.700203,-3370.820191,9770.718434
843.246153,-2072.576638,-4366.744339,9400.615463
843.246482,-518.144159,-3600.648841,8512.368333
843.246812,1850.514855,-1838.629195,8068.244768
843.247141,3552.988522,0.000000,8068.244768
843.247471,4589.276840,2451.505594,8808.450710
843.247800,4071.132681,4673.182538,10214.842000
843.248129,2886.803174,6128.763984,11325.150913
843.248459,222.061783,5669.106685,12731.542202
843.248788,-2516.700203,4519.963438,12879.583391
843.249118,-4441.235652,2298.286494,11325.150913
843.249447,-4219.173869,-1149.143247,9252.574275
843.249776,-3849.070898,-3907.087040,7031.956449
843.250106,-2368.659014,-4596.572988,5477.523971
843.250435,-592.164754,-4596.572988,5181.441594
843.250764,1036.288319,-1685.410096,5995.668130
843.251094,444.123565,1378.971896,8068.244768
843.251423,0.000000,4213.525239,9844.739029
843.251753,-740.205942,6358.592633,11473.192101
843.252082,-1332.370696,6741.640382,12805.562797
843.252411,-2442.679609,4443.353888,13545.768739
843.252741,-3627.009116,1685.410096,12435.459826
843.253070,-3923.091493,-689.485948,11103.089130
843.253400,-3034.844362,-2604.724693,9326.594869
843.253729,-1850.514855,-4749.792088,7772.162391
843.254058,222.061783,-3677.258390,6883.915261
843.254388,2812.782580,-2298.286494,6587.832884
843.254717,4663.297435,76.609550,6957.935855
843.255047,4737.318029,2757.943793,8512.368333
843.255376,3775.050304,5362.668486,10214.842000
843.255705,2146.597232,6665.030833,11547.212695
843.256035,-1036.288319,6588.421283,13027.624579
843.256364,-3997.112087,4519.963438,13175.665768
843.256694,-5551.544565,1608.800546,12287.418637
843.257023,-6439.791695,-1685.410096,10288.862594
843.257352,-6735.874072,-4366.744339,8216.285956
843.257682,-5773.606348,-5515.887586,6143.709319
843.258011,-3552.988522,-5439.278036,5995.668130
843.258341,-1776.494261,-2987.772442,6883.915261
843.258670,-962.267725,459.657299,8290.306550
843.258999,-1480.411884,3753.867940,9400.615463
843.259329,-1776.494261,6435.202183,10362.883188
843.259658,-1554.432478,6511.811733,11177.109724
843.259988,-2294.638420,4979.620737,11991.336260
843.260317,-2960.823768,2451.505594,11695.253884
843.260646,-3775.050304,153.219100,10362.883188
843.260976,-3034.844362,-2528.115143,9918.759623
843.261305,-2220.617826,-4673.182538,9326.594869
843.261635,-666.185348,-4060.306139,8808.450710
843.261964,1702.473667,-2451.505594,7846.182985
843.262293,3997.112087,-689.485948,8068.244768
843.262623,5107.421000,2145.067394,8956.491898
843.262952,4959.379811,4826.401637,9844.739029
843.263282,4441.235652,6205.373534,10584.944971
843.263611,2072.576638,5745.716235,11843.295072
843.263940,-740.205942,5209.449386,12287.418637
843.264270,-2812.782580,3294.210641,11473.192101
843.264599,-3775.050304,-229.828649,9622.677246
843.264929,-3923.091493,-2451.505594,7698.141797
843.265258,-3627.009116,-4366.744339,6217.729913
843.265587,-1924.535449,-4749.792088,5181.441594
843.265917,-222.061783,-2834.553343,5921.647536
843.266246,740.205942,0.000000,7772.162391
843.266576,296.082377,2604.724693,9474.636058
843.266905,-444.123565,5439.278036,10436.903782
843.267234,-444.123565,6511.811733,11917.315666
843.267564,-1184.329507,4903.011187,13545.768739
843.267893,-2738.761985,3447.429741,13323.706956
843.268222,-3108.864956,1225.752797,11695.253884
843.268552,-2664.741391,-1225.752797,9696.697840
843.268881,-1480.411884,-3294.210641,8438.347739
843.269211,0.000000,-3600.648841,6809.894666
843.269540,2516.700203,-2757.943793,6513.812290
843.269869,4663.297435,-306.438199,6291.750507
843.270199,4737.318029,2145.067394,7550.100608
843.270528,3701.029710,4749.792088,9400.615463
843.270858,2072.576638,6435.202183,10955.047942
843.271187,-370.102971,6358.592633,12657.521608
843.271516,-3256.906145,5209.449386,13693.809927
843.271846,-6217.729913,3140.991542,13101.645173
843.272175,-7105.977043,-306.438199,11473.192101
843.272505,-7402.059420,-3294.210641,9400.615463
843.272834,-6883.915261,-4979.620737,7105.977043
843.273163,-4811.338623,-5592.497135,5995.668130
843.273493,-2220.617826,-3830.477490,6439.791695
843.273822,-592.164754,-459.657299,7328.038826
843.274152,-888.247130,2834.553343,8290.306550
843.274481,-1332.370696,5439.278036,9252.574275
843.274810,-1110.308913,6741.640382,10214.842000
843.275140,-1184.329507,5592.497135,11251.130318
843.275469,-2220.617826,3447.429741,11769.274478
843.275799,-2960.823768,1072.533697,10807.006753
843.276128,-2664.741391,-1455.581446,10214.842000
843.276457,-2146.597232,-3217.601092,9696.697840
843.276787,-1184.329507,-3830.477490,8882.471304
843.277116,1258.350101,-2834.553343,8734.430116
843.277446,3404.947333,-1532.190996,8660.409521
843.277775,3997.112087,919.314598,9474.636058
843.278104,3775.050304,3600.648841,9844.739029
843.278434,3108.864956,5132.839837,10584.944971
843.278763,2072.576638,4979.620737,11399.171507
843.279093,-148.041188,4749.792088,11843.295072
843.279422,-2590.720797,2987.772442,11029.068536
843.279751,-3256.906145,536.266849,9548.656652
843.280081,-3849.070898,-2451.505594,7476.080014
843.280410,-3552.988522,-3753.867940,5995.668130
843.280740,-1924.535449,-4826.401637,5551.544565
843.281069,0.000000,-2987.772442,6291.750507
843.281398,1036.288319,-306.438199,7846.182985
843.281728,740.205942,2451.505594,9400.615463
843.282057,0.000000,5209.449386,10510.924376
843.282387,0.000000,6128.763984,11695.253884
843.282716,-296.082377,5132.839837,13397.727550
843.283045,-2072.576638,3753.867940,13841.851115
843.283375,-3256.906145,1532.190996,12435.459826
843.283704,-3256.906145,-1302.362347,10584.944971
843.284034,-2220.617826,-2911.162892,9400.615463
843.284363,-888.247130,-3600.648841,7624.121203
843.284692,1332.370696,-2834.553343,6661.853478
843.285022,3627.009116,-1532.190996,5921.647536
843.285351,4515.256246,1532.190996,6809.894666
843.285681,3923.091493,4826.401637,8068.244768
843.286010,2738.761985,5592.497135,10362.883188
843.286339,814.226536,6665.030833,11843.295072
843.286669,-2442.679609,5669.106685,12953.603985
843.286998,-5255.462188,3907.087040,12657.521608
843.287328,-6513.812290,766.095498,11769.274478
843.287657,-6883.915261,-1762.019645,9770.718434
843.287986,-6439.791695,-4290.134789,8142.265362
843.288316,-4959.379811,-5209.449386,6069.688724
843.288645,-2738.761985,-4366.744339,6513.812290
843.288975,-814.226536,-1532.190996,7698.141797
843.289304,-814.226536,2298.286494,8512.368333
843.289633,-1702.473667,4749.792088,8882.471304
843.289963,-1184.329507,6205.373534,10066.800811
843.290292,-962.267725,5822.325785,11103.089130
843.290622,-2368.659014,3983.696590,11325.150913
843.290951,-2886.803174,1685.410096,10881.027347
843.291280,-2812.782580,-1455.581446,10066.800811
843.291610,-2368.659014,-2604.724693,9770.718434
843.291939,-1850.514855,-3830.477490,9178.553681
843.292269,0.000000,-3140.991542,8734.430116
843.292598,2442.679609,-1685.410096,8512.368333
843.292927,3775.050304,612.876398,9104.533087
843.293257,4367.215058,2987.772442,9770.718434
843.293586,3552.988522,4826.401637,10658.965565
843.293916,2590.720797,5439.278036,11399.171507
843.294245,0.000000,4903.011187,12213.398043
843.294574,-2146.597232,4213.525239,11695.253884
843.294904,-3701.029710,1608.800546,10140.821405
843.295233,-3997.112087,-1608.800546,8734.430116
843.295563,-4071.132681,-3830.477490,7105.977043
843.295892,-3034.844362,-4366.744339,5773.606348
843.296221,-740.205942,-4136.915689,5181.441594
843.296551,666.185348,-1149.143247,6735.874072
843.296880,592.164754,1455.581446,8512.368333
843.297210,74.020594,3753.867940,9844.739029
843.297539,-296.082377,5515.887586,11399.171507
843.297868,-740.205942,5439.278036,12879.583391
843.298198,-1258.350101,4979.620737,13619.789333
843.298527,-2664.741391,2145.067394,12509.480420
843.298857,-2664.741391,-536.266849,10658.965565
843.299186,-1554.432478,-2145.067394,9474.636058
843.299515,-592.164754,-3140.991542,7994.224174
843.299845,1110.308913,-2145.067394,6587.832884
843.300174,2738.761985,-842.705048,6439.791695
843.300504,4219.173869,1072.533697,7105.977043
843.300833,3923.091493,3907.087040,8660.409521
843.301162,2664.741391,5362.668486,10214.842000
843.301492,518.144159,5362.668486,11399.171507
843.301821,-1776.494261,5745.716235,12509.480420
843.302151,-5033.400406,4060.306139,12657.521608
843.302480,-6587.832884,1149.143247,11843.295072
843.302809,-6957.935855,-2068.457845,10066.800811
843.303139,-7105.977043,-4290.134789,7846.182985
843.303468,-5773.606348,-4749.792088,5847.626942
843.303798,-3552.988522,-4903.011187,6069.688724
843.304127,-1258.350101,-2145.067394,7105.977043
843.304456,-666.185348,1302.362347,8734.430116
843.304786,-1110.308913,4290.134789,9326.594869
843.305115,-888.247130,6818.249932,10214.842000
843.305445,-222.061783,6281.983084,10955.047942
843.305774,-1332.370696,4903.011187,11399.171507
843.306103,-2516.700203,2374.896044,11325.150913
843.306433,-3108.864956,-153.219100,10288.862594
843.306762,-2812.782580,-2221.676944,9548.656652
843.307092,-2960.823768,-3524.039291,9252.574275
843.307421,-1184.329507,-3753.867940,8586.388927
843.307750,1110.308913,-3064.381992,8364.327145
843.308080,2886.803174,-1302.362347,8586.388927
843.308409,3552.988522,1455.581446,9474.636058
843.308739,3330.926739,3370.820191,10066.800811
843.309068,2294.638420,4903.011187,11029.068536
843.309397,666.185348,5056.230287,12139.377449
843.309727,-1332.370696,4213.525239,11843.295072
843.310056,-2812.782580,2451.505594,10881.027347
843.310386,-2960.823768,-459.657299,9104.533087
843.310715,-3330.926739,-2834.553343,7624.121203
843.311044,-2664.741391,-3983.696590,6587.832884
843.311374,-1480.411884,-4060.306139,5995.668130
843.311703,148.041188,-2145.067394,7179.997637
843.312033,148.041188,306.438199,8586.388927
843.312362,-148.041188,3983.696590,9474.636058
843.312691,-222.061783,4596.572988,10288.862594
843.313021,0.000000,4979.620737,11769.274478
843.313350,-666.185348,4213.525239,13027.624579
843.313680,-1998.556043,2145.067394,12583.501014
843.314009,-2368.659014,459.657299,11547.212695
843.314338,-2220.617826,-1455.581446,9770.718434
843.314668,-1480.411884,-2528.115143,8586.388927
843.314997,296.082377,-2757.943793,7031.956449
843.315327,2738.761985,-1915.238745,6513.812290
843.315656,4441.235652,229.828649,6661.853478
843.315985,4219.173869,2757.943793,8216.285956
843.316315,3256.906145,5132.839837,9622.677246
843.316644,1480.411884,6588.421283,11251.130318
843.316974,-888.247130,6358.592633,12805.562797
843.317303,-3775.050304,5362.668486,13471.748144
843.317632,-6217.729913,2757.943793,12065.356855
843.317962,-6735.874072,-689.485948,10732.986159
843.318291,-6809.894666,-3217.601092,8808.450710
843.318621,-6069.688724,-4213.525239,6735.874072
843.318950,-3923.091493,-4519.963438,5329.482782
843.319279,-2294.638420,-3064.381992,6291.750507
843.319609,-740.205942,76.609550,7476.080014
843.319938,-888.247130,3447.429741,9178.553681
843.320268,-1554.432478,5669.106685,10288.862594
843.320597,-1406.391290,6818.249932,10955.047942
843.320926,-1406.391290,5515.887586,11399.171507
843.321256,-2294.638420,2757.943793,11399.171507
843.321585,-2664.741391,-229.828649,10881.027347
843.321915,-2368.659014,-2298.286494,10362.883188
843.322244,-2590.720797,-3294.210641,9696.697840
843.322573,-1406.391290,-2298.286494,8956.491898
843.322903,1406.391290,-1915.238745,8216.285956
843.323232,3330.926739,-689.485948,7772.162391
843.323562,4663.297435,1532.190996,8660.409521
843.323891,4441.235652,3830.477490,9178.553681
843.324220,3034.844362,5515.887586,10214.842000
843.324550,1406.391290,6205.373534,11399.171507
843.324879,-1628.453072,4673.182538,11917.315666
843.325209,-3627.009116,2911.162892,11473.192101
843.325538,-4219.173869,-383.047749,9696.697840
843.325867,-4071.132681,-3140.991542,8290.306550
843.326197,-3997.112087,-4749.792088,6883.915261
843.326526,-2442.679609,-4826.401637,5921.647536
843.326856,-592.164754,-3370.820191,6587.832884
843.327185,740.205942,0.000000,8364.327145
