#time,accel_x,accel_y,accel_z
1109.617802,-1036.288319,1455.581446,9474.636058
1109.618132,-962.267725,1149.143247,9474.636058
1109.618461,-1036.288319,1072.533697,9548.656652
1109.618791,-962.267725,995.924147,9696.697840
1109.619120,-1110.308913,842.705048,9548.656652
1109.619450,-1184.329507,1302.362347,9548.656652
1109.619780,-888.247130,919.314598,9548.656652
1109.620109,-1036.288319,459.657299,9400.615463
1109.620439,-1036.288319,842.705048,9474.636058
1109.620768,-1184.329507,919.314598,9474.636058
1109.621098,-1110.308913,919.314598,9622.677246
1109.621427,-888.247130,1455.581446,9474.636058
1109.621757,-1184.329507,995.924147,9474.636058
1109.622086,-962.267725,842.705048,9548.656652
1109.622416,-1110.308913,919.314598,9326.594869
1109.622746,-1110.308913,459.657299,9400.615463
1109.623075,-1036.288319,612.876398,9252.574275
1109.623405,-814.226536,995.924147,9474.636058
1109.623734,-1036.288319,919.314598,9622.677246
1109.624064,-1110.308913,766.095498,9548.656652
1109.624393,-888.247130,995.924147,9622.677246
1109.624723,-814.226536,842.705048,9696.697840
1109.625052,-1110.308913,995.924147,9326.594869
1109.625382,-962.267725,842.705048,9622.677246
1109.625711,-1036.288319,689.485948,9474.636058
1109.626041,-962.267725,995.924147,9696.697840
1109.626371,-1110.308913,1149.143247,9844.739029
1109.626700,-888.247130,1072.533697,9474.636058
1109.627030,-814.226536,995.924147,9696.697840
1109.627359,-1110.308913,842.705048,9622.677246
1109.627689,-888.247130,919.314598,9474.636058
1109.628018,-962.267725,919.314598,9622.677246
1109.628348,-1036.288319,612.876398,9178.553681
1109.628677,-1258.350101,995.924147,9474.636058
1109.629007,-1184.329507,842.705048,9548.656652
1109.629337,-1036.288319,766.095498,9548.656652
1109.629666,-1110.308913,919.314598,9548.656652
1109.629996,-962.267725,1072.533697,9252.574275
1109.630325,-1036.288319,689.485948,9252.574275
1109.630655,-888.247130,919.314598,9622.677246
1109.630984,-888.247130,919.314598,9770.718434
1109.631314,-1036.288319,842.705048,9548.656652
1109.631643,-1036.288319,919.314598,9474.636058
1109.631973,-1332.370696,1378.971896,9400.615463
1109.632303,-1184.329507,919.314598,9326.594869
1109.632632,-1036.288319,995.924147,9400.615463
1109.632962,-1036.288319,919.314598,9474.636058
1109.633291,-1110.308913,689.485948,9400.615463
1109.633621,-888.247130,1225.752797,9474.636058
1109.633950,-814.226536,689.485948,9622.677246
1109.634280,-962.267725,919.314598,9696.697840
1109.634609,-1036.288319,995.924147,9622.677246
1109.634939,-1184.329507,919.314598,9622.677246
1109.635268,-962.267725,1455.581446,9696.697840
1109.635598,-962.267725,689.485948,9474.636058
1109.635928,-1036.288319,842.705048,9622.677246
1109.636257,-1110.308913,919.314598,9474.636058
1109.636587,-1036.288319,919.314598,9696.697840
1109.636916,-1036.288319,1072.533697,9918.759623
1109.637246,-666.185348,1225.752797,9696.697840
1109.637575,-1036.288319,612.876398,9474.636058
1109.637905,-1110.308913,919.314598,9548.656652
1109.638234,-888.247130,919.314598,9474.636058
1109.638564,-1258.350101,995.924147,9548.656652
1109.638894,-962.267725,612.876398,9622.677246
1109.639223,-666.185348,536.266849,9474.636058
1109.639553,-1184.329507,766.095498,9400.615463
1109.639882,-814.226536,919.314598,9548.656652
1109.640212,-888.247130,919.314598,9770.718434
1109.640541,-1110.308913,1149.143247,9474.636058
1109.640871,-1258.350101,1225.752797,9030.512492
1109.641200,-1110.308913,1072.533697,9400.615463
1109.641530,-1036.288319,842.705048,9326.594869
1109.641860,-962.267725,842.705048,9548.656652
1109.642189,-1036.288319,919.314598,9474.636058
1109.642519,-962.267725,919.314598,9622.677246
1109.642848,-962.267725,995.924147,9474.636058
1109.643178,-1036.288319,919.314598,9474.636058
1109.643507,-962.267725,919.314598,9400.615463
1109.643837,-814.226536,995.924147,9548.656652
1109.644166,-962.267725,612.876398,9400.615463
1109.644496,-1036.288319,842.705048,9474.636058
1109.644825,-888.247130,1072.533697,9474.636058
1109.645155,-1110.308913,842.705048,9474.636058
1109.645485,-962.267725,995.924147,9548.656652
1109.645814,-1036.288319,1225.752797,9252.574275
1109.646144,-370.102971,612.876398,9104.533087
1109.646473,0.000000,766.095498,8956.491898
1109.646803,592.164754,459.657299,9252.574275
1109.647132,1036.288319,459.657299,9178.553681
1109.647462,962.267725,612.876398,9400.615463
1109.647791,888.247130,689.485948,10214.842000
1109.648121,-296.082377,1225.752797,10288.862594
1109.648451,-740.205942,1225.752797,10584.944971
1109.648780,-740.205942,536.266849,10658.965565
1109.649110,-518.144159,459.657299,10140.821405
1109.649439,222.061783,459.657299,9326.594869
1109.649769,1036.288319,-306.438199,9326.594869
1109.650098,1998.556043,229.828649,8808.450710
1109.650428,2812.782580,842.705048,8734.430116
1109.650757,3330.926739,1149.143247,8808.450710
1109.651087,3849.070898,1838.629195,9104.533087
1109.651417,3923.091493,1991.848295,9326.594869
1109.651746,3627.009116,1455.581446,9918.759623
1109.652076,2738.761985,1302.362347,10288.862594
1109.652405,1850.514855,1302.362347,10436.903782
1109.652735,1850.514855,612.876398,11177.109724
1109.653064,1110.308913,459.657299,10436.903782
1109.653394,1628.453072,0.000000,10362.883188
1109.653723,2294.638420,-383.047749,9696.697840
1109.654053,2812.782580,-612.876398,9252.574275
1109.654382,3775.050304,306.438199,9326.594869
1109.654712,4071.132681,1532.190996,9104.533087
1109.655042,3997.112087,2451.505594,9474.636058
1109.655371,3034.844362,2451.505594,9918.759623
1109.655701,1702.473667,2757.943793,10066.800811
1109.656030,0.000000,2528.115143,9992.780217
1109.656360,-1480.411884,1915.238745,9104.533087
1109.656689,-1628.453072,229.828649,8586.388927
1109.657019,-444.123565,-689.485948,7624.121203
1109.657348,1258.350101,-995.924147,7254.018232
1109.657678,2590.720797,-919.314598,6809.894666
1109.658008,3552.988522,-229.828649,6587.832884
1109.658337,3701.029710,1302.362347,7994.224174
1109.658667,3108.864956,3370.820191,9992.780217
1109.658996,1924.535449,4443.353888,11843.295072
1109.659326,444.123565,3983.696590,12509.480420
1109.659655,-518.144159,2528.115143,12805.562797
1109.659985,-1036.288319,612.876398,12139.377449
1109.660314,-1258.350101,-1149.143247,11843.295072
1109.660644,-1554.432478,-2221.676944,10362.883188
1109.660973,-518.144159,-2298.286494,9104.533087
1109.661303,1036.288319,-2451.505594,8068.244768
1109.661633,2886.803174,-1991.848295,7476.080014
1109.661962,4515.256246,0.000000,7254.018232
1109.662292,5033.400406,1838.629195,7328.038826
1109.662621,5033.400406,3294.210641,8068.244768
1109.662951,4737.318029,4060.306139,8956.491898
1109.663280,3997.112087,4136.915689,10288.862594
1109.663610,3256.906145,3447.429741,11473.192101
1109.663939,1998.556043,2451.505594,11621.233289
1109.664269,814.226536,842.705048,11473.192101
1109.664599,-444.123565,-383.047749,11177.109724
1109.664928,-1332.370696,-1149.143247,10732.986159
1109.665258,-1110.308913,-1608.800546,10658.965565
1109.665587,-1036.288319,-1685.410096,10436.903782
1109.665917,-370.102971,-612.876398,9992.780217
1109.666246,666.185348,153.219100,8808.450710
1109.666576,2072.576638,153.219100,7476.080014
1109.666905,3701.029710,689.485948,7179.997637
1109.667235,5033.400406,229.828649,7105.977043
1109.667565,5329.482782,1072.533697,7328.038826
1109.667894,5181.441594,1532.190996,8512.368333
1109.668224,4589.276840,1685.410096,9696.697840
1109.668553,3034.844362,2374.896044,10436.903782
1109.668883,2072.576638,2451.505594,10732.986159
1109.669212,1628.453072,2451.505594,11695.253884
1109.669542,1332.370696,2374.896044,11547.212695
1109.669871,1332.370696,1991.848295,10658.965565
1109.670201,1850.514855,1072.533697,9622.677246
1109.670530,2590.720797,0.000000,8438.347739
1109.670860,2368.659014,0.000000,7920.203579
1109.671190,2294.638420,0.000000,7772.162391
1109.671519,1480.411884,536.266849,8882.471304
1109.671849,222.061783,229.828649,9474.636058
1109.672178,-814.226536,229.828649,9474.636058
1109.672508,-1184.329507,306.438199,10807.006753
1109.672837,-1110.308913,229.828649,11325.150913
1109.673167,-1036.288319,153.219100,11251.130318
1109.673496,-814.226536,229.828649,10881.027347
1109.673826,0.000000,306.438199,9696.697840
1109.674156,2146.597232,459.657299,8882.471304
1109.674485,4145.153275,1072.533697,8438.347739
1109.674815,6069.688724,2374.896044,7994.224174
1109.675144,7772.162391,2604.724693,7772.162391
1109.675474,8882.471304,2681.334243,8142.265362
1109.675803,8512.368333,3677.258390,9474.636058
1109.676133,6069.688724,4826.401637,10955.047942
1109.676462,3330.926739,4979.620737,11991.336260
1109.676792,518.144159,2528.115143,13027.624579
1109.677122,-2368.659014,0.000000,13767.830521
1109.677451,-5847.626942,-919.314598,12583.501014
1109.677781,-8068.244768,-1302.362347,11325.150913
1109.678110,-7846.182985,-2298.286494,8808.450710
1109.678440,-4515.256246,-3370.820191,5329.482782
1109.678769,1036.288319,-4443.353888,2812.782580
1109.679099,7031.956449,-4213.525239,1554.432478
1109.679428,9326.594869,0.000000,2886.803174
1109.679758,9696.697840,4979.620737,4737.318029
1109.680087,9178.553681,7048.078582,7254.018232
1109.680417,7920.203579,7431.126331,12139.377449
1109.680747,3701.029710,9269.755526,16136.489536
1109.681076,-1480.411884,8427.050478,16432.571912
1109.681406,-4515.256246,1685.410096,16580.613101
1109.681735,-5255.462188,-2145.067394,16062.468941
1109.682065,-5033.400406,-3064.381992,13693.809927
1109.682394,-3034.844362,-5669.106685,10288.862594
1109.682724,962.267725,-7431.126331,7402.059420
1109.683053,5107.421000,-5209.449386,3775.050304
1109.683383,8882.471304,-2298.286494,2516.700203
1109.683713,11399.171507,-229.828649,4441.235652
1109.684042,10881.027347,4443.353888,7772.162391
1109.684372,6661.853478,8733.488677,9474.636058
1109.684701,1850.514855,8963.317327,11029.068536
1109.685031,-888.247130,7124.688131,13175.665768
1109.685360,-1924.535449,3524.039291,13841.851115
1109.685690,-2220.617826,-1149.143247,12509.480420
1109.686019,-2960.823768,-4519.963438,10214.842000
1109.686349,-1776.494261,-5515.887586,7698.141797
1109.686678,148.041188,-6205.373534,7031.956449
1109.687008,888.247130,-3753.867940,7550.100608
1109.687338,1850.514855,229.828649,8660.409521
1109.687667,3775.050304,2451.505594,9178.553681
1109.687997,4441.235652,3140.991542,10214.842000
1109.688326,4071.132681,4749.792088,11399.171507
1109.688656,2664.741391,4903.011187,11843.295072
1109.688985,2368.659014,1838.629195,11399.171507
1109.689315,740.205942,-689.485948,11843.295072
1109.689644,-518.144159,-229.828649,11029.068536
1109.689974,-1776.494261,-1915.238745,8808.450710
1109.690304,-370.102971,-3524.039291,5921.647536
1109.690633,2812.782580,-4136.915689,5107.421000
1109.690963,5773.606348,-2298.286494,5329.482782
1109.691292,7846.182985,229.828649,6217.729913
1109.691622,8438.347739,2681.334243,7920.203579
1109.691951,7179.997637,5745.716235,10214.842000
1109.692281,3701.029710,7737.564530,11769.274478
1109.692610,1406.391290,6435.202183,13323.706956
1109.692940,222.061783,3064.381992,16876.695478
1109.693270,-2220.617826,1302.362347,16876.695478
1109.693599,-6587.832884,1072.533697,13101.645173
1109.693929,-7624.121203,-3600.648841,9992.780217
1109.694258,-5329.482782,-6511.811733,8956.491898
1109.694588,-4737.318029,-5822.325785,7179.997637
1109.694917,-3923.091493,-4443.353888,3330.926739
1109.695247,370.102971,-1915.238745,2294.638420
1109.695576,6513.812290,0.000000,4145.153275
1109.695906,10584.944971,3140.991542,6587.832884
1109.696235,11621.233289,4903.011187,7179.997637
1109.696565,10658.965565,7507.735880,7994.224174
1109.696895,8808.450710,9422.974625,10732.986159
1109.697224,6439.791695,10648.727422,14804.118840
1109.697554,3997.112087,7124.688131,16432.571912
1109.697883,1406.391290,1149.143247,15322.262999
1109.698213,-1332.370696,-689.485948,12509.480420
1109.698542,-2220.617826,-1685.410096,11399.171507
1109.698872,-2368.659014,-3907.087040,11473.192101
1109.699201,-4071.132681,-3753.867940,10362.883188
1109.699531,-5403.503377,-1838.629195,7698.141797
1109.699861,-2590.720797,-689.485948,5033.400406
1109.700190,3849.070898,0.000000,1850.514855
1109.700520,9030.512492,1685.410096,370.102971
1109.700849,11103.089130,306.438199,3034.844362
1109.701179,9326.594869,2298.286494,5477.523971
1109.701508,5995.668130,7048.078582,7698.141797
1109.701838,5403.503377,7201.297681,11399.171507
1109.702167,3478.967927,5592.497135,14804.118840
1109.702497,0.000000,3064.381992,16580.613101
1109.702827,-2664.741391,-1149.143247,16654.633695
1109.703156,-3701.029710,-4826.401637,14508.036463
1109.703486,-5847.626942,-3830.477490,12657.521608
1109.703815,-7105.977043,-2145.067394,12657.521608
1109.704145,-4737.318029,-2528.115143,11843.295072
1109.704474,444.123565,-2681.334243,6439.791695
1109.704804,7031.956449,-2681.334243,2220.617826
1109.705133,12065.356855,-2834.553343,1776.494261
1109.705463,12287.418637,1762.019645,5107.421000
1109.705792,8438.347739,5592.497135,8808.450710
1109.706122,5551.544565,7890.783629,11917.315666
1109.706452,4145.153275,9422.974625,14359.995275
1109.706781,592.164754,7507.735880,15840.407159
1109.707111,-4219.173869,2068.457845,14434.015869
1109.707440,-7402.059420,-3753.867940,12139.377449
1109.707770,-8142.265362,-5898.935335,12139.377449
1109.708099,-6217.729913,-4673.182538,10955.047942
1109.708429,-3775.050304,-5286.058936,8364.327145
1109.708758,-1332.370696,-5209.449386,6365.771101
1109.709088,1406.391290,-3677.258390,4071.132681
1109.709418,5625.565159,-459.657299,3775.050304
1109.709747,9844.739029,3370.820191,6291.750507
1109.710077,8882.471304,7507.735880,10807.006753
1109.710406,3478.967927,11184.994271,12361.439231
1109.710736,-1998.556043,10418.898773,12361.439231
1109.711065,-2146.597232,4979.620737,13471.748144
1109.711395,-1036.288319,1915.238745,12879.583391
1109.711724,-1628.453072,-459.657299,10066.800811
1109.712054,-1998.556043,-4903.011187,6957.935855
1109.712384,-148.041188,-7431.126331,4515.256246
1109.712713,2590.720797,-6128.763984,2886.803174
1109.713043,3701.029710,-2145.067394,3182.885551
1109.713372,5329.482782,1072.533697,5773.606348
1109.713702,5847.626942,4060.306139,9474.636058
1109.714031,4219.173869,6588.421283,11991.336260
1109.714361,814.226536,6511.811733,13693.809927
1109.714690,-1998.556043,7048.078582,14952.160028
1109.715020,-2516.700203,4290.134789,17098.757260
1109.715349,-3701.029710,1608.800546,15174.221811
1109.715679,-6883.915261,-995.924147,9474.636058
1109.716009,-7920.203579,-5286.058936,4441.235652
1109.716338,-3997.112087,-7354.516781,3478.967927
1109.716668,888.247130,-7048.078582,6365.771101
1109.716997,3108.864956,-3140.991542,8734.430116
1109.717327,1184.329507,2757.943793,7402.059420
1109.717656,-444.123565,5592.497135,5329.482782
1109.717986,1110.308913,5362.668486,8068.244768
1109.718315,3330.926739,4136.915689,13619.789333
1109.718645,2368.659014,6205.373534,17616.901420
1109.718975,-1258.350101,6435.202183,16580.613101
1109.719304,-4737.318029,3064.381992,13027.624579
1109.719634,-4293.194464,-383.047749,10066.800811
1109.719963,-1258.350101,-5132.839837,10066.800811
1109.720293,296.082377,-6435.202183,9622.677246
1109.720622,-444.123565,-3830.477490,8808.450710
1109.720952,-962.267725,-459.657299,7550.100608
1109.721281,-2368.659014,1762.019645,7254.018232
1109.721611,-1850.514855,1608.800546,7698.141797
1109.721941,740.205942,2911.162892,9104.533087
1109.722270,3775.050304,4060.306139,8956.491898
1109.722600,2516.700203,3753.867940,6587.832884
1109.722929,592.164754,2068.457845,5921.647536
1109.723259,0.000000,459.657299,8216.285956
1109.723588,-962.267725,-842.705048,9770.718434
1109.723918,-3108.864956,-1149.143247,10658.965565
1109.724247,-5847.626942,306.438199,9992.780217
1109.724577,-6809.894666,-766.095498,8882.471304
1109.724906,-6439.791695,-2068.457845,9104.533087
1109.725236,-4885.359217,-689.485948,9696.697840
1109.725566,-2812.782580,306.438199,8882.471304
1109.725895,0.000000,0.000000,7031.956449
1109.726225,296.082377,229.828649,6661.853478
1109.726554,1110.308913,2451.505594,8142.265362
1109.726884,2368.659014,2451.505594,10807.006753
1109.727213,2146.597232,1302.362347,12435.459826
1109.727543,-296.082377,3753.867940,12435.459826
1109.727872,-3404.947333,2834.553343,12213.398043
1109.728202,-3775.050304,-153.219100,12879.583391
1109.728532,-2812.782580,-766.095498,13027.624579
1109.728861,-2368.659014,-1762.019645,11325.150913
1109.729191,-2072.576638,-1915.238745,7920.203579
1109.729520,-222.061783,-1915.238745,7105.977043
1109.729850,2590.720797,-306.438199,9474.636058
1109.730179,3923.091493,2834.553343,10807.006753
1109.730509,2960.823768,3907.087040,11251.130318
1109.730838,1998.556043,5898.935335,9696.697840
1109.731168,370.102971,4826.401637,8956.491898
1109.731498,-1480.411884,3753.867940,10584.944971
1109.731827,-2812.782580,3907.087040,13027.624579
1109.732157,-3478.967927,1225.752797,11769.274478
1109.732486,-4293.194464,-306.438199,7254.018232
1109.732816,-4293.194464,-2374.896044,5255.462188
1109.733145,-1850.514855,-2911.162892,5847.626942
1109.733475,888.247130,-1302.362347,6365.771101
1109.733804,888.247130,-2221.676944,5995.668130
1109.734134,1258.350101,1378.971896,6365.771101
1109.734463,296.082377,4519.963438,7550.100608
1109.734793,-444.123565,4060.306139,8512.368333
1109.735123,-1480.411884,3140.991542,10288.862594
1109.735452,-2294.638420,2298.286494,10807.006753
1109.735782,-2368.659014,2374.896044,9548.656652
1109.736111,-1628.453072,-1685.410096,8438.347739
1109.736441,-888.247130,-3753.867940,9104.533087
1109.736770,-296.082377,-1455.581446,10732.986159
1109.737100,0.000000,-1455.581446,10955.047942
1109.737429,-666.185348,-1762.019645,9400.615463
1109.737759,-1332.370696,995.924147,9918.759623
1109.738089,-1406.391290,4290.134789,11769.274478
1109.738418,0.000000,4136.915689,12361.439231
1109.738748,444.123565,919.314598,11843.295072
1109.739077,-740.205942,1378.971896,10288.862594
1109.739407,-2072.576638,1838.629195,9104.533087
1109.739736,-1702.473667,-1225.752797,9622.677246
1109.740066,-740.205942,-1149.143247,12361.439231
1109.740395,-1776.494261,-536.266849,13323.706956
1109.740725,-4071.132681,153.219100,11695.253884
1109.741054,-4811.338623,-153.219100,10288.862594
1109.741384,-3108.864956,1455.581446,10066.800811
1109.741714,-296.082377,1915.238745,9844.739029
1109.742043,592.164754,-229.828649,9770.718434
1109.742373,-222.061783,1455.581446,7920.203579
1109.742702,-1110.308913,2987.772442,6365.771101
1109.743032,0.000000,1991.848295,6883.915261
1109.743361,1258.350101,1762.019645,8660.409521
1109.743691,1332.370696,1302.362347,9104.533087
1109.744020,-888.247130,766.095498,7402.059420
1109.744350,-2664.741391,229.828649,6957.935855
1109.744680,-3923.091493,1608.800546,7920.203579
1109.745009,-2960.823768,2604.724693,9474.636058
1109.745339,-3404.947333,383.047749,10066.800811
1109.745668,-4293.194464,153.219100,8512.368333
1109.745998,-4071.132681,995.924147,6291.750507
1109.746327,-1258.350101,0.000000,5181.441594
1109.746657,1332.370696,-842.705048,6587.832884
1109.746986,1924.535449,0.000000,8660.409521
1109.747316,0.000000,2068.457845,9696.697840
1109.747646,-2072.576638,2757.943793,10658.965565
1109.747975,-3108.864956,2221.676944,12361.439231
1109.748305,-2738.761985,3600.648841,13397.727550
1109.748634,-2590.720797,1762.019645,13841.851115
1109.748964,-2294.638420,-612.876398,13027.624579
1109.749293,-1702.473667,-766.095498,10214.842000
1109.749623,-1036.288319,-306.438199,9400.615463
1109.749952,1850.514855,-153.219100,10288.862594
1109.750282,2072.576638,1378.971896,11991.336260
1109.750611,888.247130,2451.505594,11547.212695
1109.750941,0.000000,2451.505594,11029.068536
1109.751271,-222.061783,3294.210641,10955.047942
1109.751600,0.000000,4213.525239,10732.986159
1109.751930,74.020594,2604.724693,10807.006753
1109.752259,222.061783,383.047749,10066.800811
1109.752589,-518.144159,-383.047749,8216.285956
1109.752918,-1184.329507,-153.219100,7254.018232
1109.753248,-444.123565,842.705048,7698.141797
1109.753577,740.205942,1302.362347,9104.533087
1109.753907,1554.432478,612.876398,8364.327145
1109.754237,444.123565,919.314598,7105.977043
1109.754566,-2220.617826,2451.505594,5773.606348
1109.754896,-3627.009116,2145.067394,6365.771101
1109.755225,-2516.700203,1838.629195,8882.471304
1109.755555,-2590.720797,919.314598,9030.512492
1109.755884,-3552.988522,-842.705048,7328.038826
1109.756214,-3627.009116,-2681.334243,5847.626942
1109.756543,-1184.329507,-2681.334243,6513.812290
1109.756873,1850.514855,-2145.067394,8216.285956
1109.757203,1776.494261,-2298.286494,8882.471304
1109.757532,-222.061783,1149.143247,9918.759623
1109.757862,-2368.659014,4826.401637,11547.212695
1109.758191,-1924.535449,3907.087040,12731.542202
1109.758521,0.000000,2451.505594,12953.603985
1109.758850,74.020594,1915.238745,11177.109724
1109.759180,-444.123565,0.000000,9104.533087
1109.759509,370.102971,-2681.334243,9252.574275
1109.759839,2072.576638,-2374.896044,11251.130318
1109.760168,444.123565,306.438199,12509.480420
1109.760498,-2146.597232,383.047749,13619.789333
1109.760828,-4071.132681,229.828649,13989.892304
1109.761157,-3923.091493,2528.115143,13915.871710
1109.761487,-2590.720797,2451.505594,12213.398043
1109.761816,-962.267725,1072.533697,11473.192101
1109.762146,-592.164754,0.000000,10658.965565
1109.762475,-962.267725,383.047749,8882.471304
1109.762805,-888.247130,0.000000,7698.141797
1109.763134,-296.082377,459.657299,7994.224174
1109.763464,0.000000,2298.286494,8512.368333
1109.763794,0.000000,1455.581446,7994.224174
1109.764123,-814.226536,689.485948,7328.038826
1109.764453,-1332.370696,1455.581446,6587.832884
1109.764782,-1628.453072,2528.115143,6957.935855
1109.765112,-2516.700203,2834.553343,7920.203579
1109.765441,-3182.885551,2451.505594,8882.471304
1109.765771,-3775.050304,2145.067394,7550.100608
1109.766100,-2516.700203,1455.581446,6587.832884
1109.766430,-814.226536,229.828649,4959.379811
1109.766760,222.061783,1072.533697,5477.523971
1109.767089,592.164754,-153.219100,7105.977043
1109.767419,-592.164754,612.876398,8364.327145
1109.767748,-2738.761985,2068.457845,8586.388927
1109.768078,-3997.112087,3294.210641,10066.800811
1109.768407,-3552.988522,2911.162892,11769.274478
1109.768737,-2590.720797,536.266849,11473.192101
1109.769066,-1850.514855,-1149.143247,10436.903782
1109.769396,-1406.391290,-1302.362347,10658.965565
1109.769725,-814.226536,1072.533697,11029.068536
1109.770055,296.082377,689.485948,13175.665768
1109.770385,1776.494261,536.266849,13175.665768
1109.770714,0.000000,1991.848295,12435.459826
1109.771044,-592.164754,1915.238745,11621.233289
1109.771373,-296.082377,2068.457845,12361.439231
1109.771703,666.185348,2757.943793,12805.562797
1109.772032,-296.082377,1072.533697,11843.295072
1109.772362,-740.205942,-995.924147,10955.047942
1109.772691,-1554.432478,153.219100,9252.574275
1109.773021,0.000000,536.266849,8512.368333
1109.773351,2664.741391,-1915.238745,8734.430116
1109.773680,3552.988522,0.000000,9844.739029
1109.774010,1702.473667,2145.067394,9400.615463
1109.774339,-2368.659014,2834.553343,6587.832884
1109.774669,-3775.050304,3600.648841,6883.915261
1109.774998,-2294.638420,4136.915689,8956.491898
1109.775328,-1998.556043,2604.724693,8512.368333
1109.775657,-3256.906145,-919.314598,5995.668130
1109.775987,-2960.823768,-2681.334243,4441.235652
1109.776317,-2368.659014,-1685.410096,4589.276840
1109.776646,-518.144159,-459.657299,6957.935855
1109.776976,518.144159,-1225.752797,8290.306550
1109.777305,-888.247130,1225.752797,7994.224174
1109.777635,-3108.864956,2757.943793,7105.977043
1109.777964,-2738.761985,1225.752797,8808.450710
1109.778294,-148.041188,1302.362347,11029.068536
1109.778623,0.000000,2374.896044,11843.295072
1109.778953,-1776.494261,919.314598,10732.986159
1109.779282,-2294.638420,-536.266849,9918.759623
1109.779612,-1110.308913,-306.438199,10140.821405
1109.779942,296.082377,-612.876398,11325.150913
1109.780271,518.144159,-842.705048,12805.562797
1109.780601,-148.041188,689.485948,13175.665768
1109.780930,-296.082377,1225.752797,11547.212695
1109.781260,-1554.432478,76.609550,11029.068536
1109.781589,-1554.432478,1685.410096,12953.603985
1109.781919,-2072.576638,3217.601092,14137.933492
1109.782248,-2516.700203,1685.410096,13471.748144
1109.782578,-2368.659014,995.924147,11991.336260
1109.782908,-1776.494261,689.485948,9400.615463
1109.783237,0.000000,153.219100,8586.388927
1109.783567,1554.432478,-995.924147,8586.388927
1109.783896,1628.453072,-383.047749,8956.491898
1109.784226,0.000000,2757.943793,7994.224174
1109.784555,-2072.576638,3600.648841,6957.935855
1109.784885,-2220.617826,2451.505594,8660.409521
1109.785214,-2072.576638,2451.505594,9400.615463
1109.785544,-2590.720797,2374.896044,8660.409521
1109.785874,-2368.659014,995.924147,6217.729913
1109.786203,-1702.473667,0.000000,4071.132681
1109.786533,-296.082377,-306.438199,4811.338623
1109.786862,296.082377,-153.219100,6587.832884
1109.787192,-518.144159,-842.705048,7920.203579
1109.787521,-2516.700203,1915.238745,7698.141797
1109.787851,-3849.070898,4290.134789,7105.977043
1109.788180,-3552.988522,2451.505594,7846.182985
1109.788510,-1258.350101,153.219100,9474.636058
1109.788839,-888.247130,306.438199,10658.965565
1109.789169,-2368.659014,1378.971896,9918.759623
1109.789499,-2590.720797,842.705048,9770.718434
1109.789828,-740.205942,1149.143247,10140.821405
1109.790158,1110.308913,766.095498,11917.315666
1109.790487,740.205942,-383.047749,12657.521608
1109.790817,-814.226536,1072.533697,12139.377449
1109.791146,-1702.473667,2604.724693,11843.295072
1109.791476,-1036.288319,2145.067394,12509.480420
1109.791805,-1406.391290,1532.190996,13545.768739
1109.792135,-1702.473667,919.314598,13841.851115
1109.792465,-1850.514855,-306.438199,12435.459826
1109.792794,-740.205942,-766.095498,10436.903782
1109.793124,1628.453072,766.095498,10066.800811
1109.793453,3627.009116,0.000000,9548.656652
1109.793783,1850.514855,-995.924147,9104.533087
1109.794112,-962.267725,1532.190996,8956.491898
1109.794442,-1332.370696,4903.011187,9844.739029
1109.794771,-740.205942,3907.087040,9696.697840
1109.795101,-1110.308913,2834.553343,9918.759623
1109.795431,-2146.597232,1532.190996,9252.574275
1109.795760,-2146.597232,995.924147,6291.750507
1109.796090,-1184.329507,-306.438199,4367.215058
1109.796419,296.082377,-1762.019645,4885.359217
1109.796749,-148.041188,1149.143247,6735.874072
1109.797078,-1998.556043,1608.800546,7772.162391
1109.797408,-2368.659014,306.438199,7105.977043
1109.797738,-1850.514855,1072.533697,6217.729913
1109.798067,-1850.514855,2451.505594,6291.750507
1109.798397,-1554.432478,919.314598,7920.203579
1109.798726,-2368.659014,-1302.362347,10214.842000
1109.799056,-3404.947333,459.657299,9770.718434
1109.799385,-4145.153275,1378.971896,8364.327145
1109.799715,-2886.803174,-536.266849,9252.574275
1109.800045,222.061783,-1149.143247,10881.027347
1109.800374,1258.350101,-766.095498,11695.253884
1109.800704,370.102971,-766.095498,10436.903782
1109.801033,-740.205942,0.000000,10288.862594
1109.801363,-1554.432478,1762.019645,12509.480420
1109.801692,-1332.370696,2987.772442,15026.180623
1109.802022,-1480.411884,2221.676944,15248.242405
1109.802351,-666.185348,229.828649,13693.809927
1109.802681,-1110.308913,229.828649,11547.212695
1109.803011,74.020594,459.657299,10658.965565
1109.803340,1776.494261,-306.438199,10881.027347
1109.803670,2738.761985,-919.314598,11917.315666
1109.803999,1480.411884,1302.362347,10214.842000
1109.804329,-740.205942,1991.848295,8808.450710
1109.804658,-1480.411884,1378.971896,9548.656652
1109.804988,-518.144159,3064.381992,10732.986159
1109.805318,0.000000,2604.724693,10362.883188
1109.805647,-962.267725,536.266849,6957.935855
1109.805977,-1998.556043,0.000000,5329.482782
1109.806306,-1628.453072,995.924147,6143.709319
1109.806636,-296.082377,536.266849,7624.121203
1109.806965,-444.123565,306.438199,8142.265362
1109.807295,-2664.741391,2298.286494,6587.832884
1109.807625,-3849.070898,1915.238745,5181.441594
1109.807954,-4219.173869,612.876398,5033.400406
1109.808284,-2072.576638,1149.143247,6587.832884
1109.808613,-1258.350101,995.924147,8586.388927
1109.808943,-2368.659014,1072.533697,8586.388927
1109.809272,-4515.256246,1532.190996,6513.812290
1109.809602,-2664.741391,1149.143247,7402.059420
1109.809931,222.061783,-153.219100,8882.471304
1109.810261,1850.514855,306.438199,10436.903782
1109.810591,1406.391290,842.705048,10881.027347
1109.810920,-296.082377,995.924147,10955.047942
1109.811250,-1850.514855,1455.581446,11695.253884
1109.811579,-2220.617826,2451.505594,13841.851115
1109.811909,-666.185348,1455.581446,15914.427753
1109.812238,-666.185348,612.876398,15618.345376
1109.812568,-1332.370696,919.314598,10658.965565
1109.812898,-1258.350101,0.000000,7624.121203
1109.813227,1554.432478,-2298.286494,8734.430116
1109.813557,2738.761985,-689.485948,10881.027347
1109.813886,1628.453072,1072.533697,11991.336260
1109.814216,-888.247130,1378.971896,11843.295072
1109.814545,-3478.967927,3753.867940,11991.336260
1109.814875,-3775.050304,3753.867940,11695.253884
1109.815205,-2220.617826,0.000000,12139.377449
1109.815534,-1998.556043,-2145.067394,10955.047942
1109.815864,-3775.050304,383.047749,8438.347739
1109.816193,-2812.782580,612.876398,7105.977043
1109.816523,-222.061783,-1378.971896,7550.100608
1109.816852,592.164754,0.000000,7624.121203
1109.817182,-370.102971,-383.047749,5699.585753
1109.817511,-740.205942,153.219100,4885.359217
1109.817841,-592.164754,2451.505594,5033.400406
1109.818171,-814.226536,2911.162892,6883.915261
1109.818500,-1036.288319,2145.067394,8068.244768
1109.818830,-2072.576638,1378.971896,8290.306550
1109.819159,-2220.617826,1225.752797,7105.977043
1109.819489,-1924.535449,306.438199,6735.874072
1109.819818,148.041188,306.438199,8142.265362
1109.820148,666.185348,-306.438199,9770.718434
1109.820478,444.123565,-1149.143247,10732.986159
1109.820807,-296.082377,0.000000,10140.821405
1109.821137,-1406.391290,1762.019645,10732.986159
1109.821466,-740.205942,2298.286494,11991.336260
1109.821796,-888.247130,2451.505594,12657.521608
1109.822125,-592.164754,0.000000,12805.562797
1109.822455,-296.082377,-383.047749,11399.171507
1109.822785,444.123565,153.219100,9326.594869
1109.823114,1406.391290,-383.047749,9326.594869
1109.823444,1924.535449,-1532.190996,11325.150913
1109.823773,1258.350101,689.485948,13249.686362
1109.824103,-592.164754,2221.676944,12361.439231
1109.824432,-2442.679609,2068.457845,12361.439231
1109.824762,-3330.926739,3217.601092,12435.459826
1109.825091,-2442.679609,3524.039291,12953.603985
1109.825421,-1406.391290,0.000000,12361.439231
1109.825751,-1406.391290,-1072.533697,9474.636058
1109.826080,-2146.597232,1608.800546,6069.688724
1109.826410,-518.144159,842.705048,5255.462188
1109.826739,1480.411884,-1149.143247,8068.244768
1109.827069,148.041188,1225.752797,9178.553681
1109.827398,-2146.597232,3064.381992,7550.100608
1109.827728,-3997.112087,2451.505594,5625.565159
1109.828058,-3478.967927,2911.162892,5995.668130
1109.828387,-1850.514855,3370.820191,7254.018232
1109.828717,-1406.391290,995.924147,8586.388927
1109.829046,-2590.720797,-459.657299,7254.018232
1109.829376,-3997.112087,1532.190996,5699.585753
1109.829705,-2294.638420,1608.800546,5625.565159
1109.830035,0.000000,-306.438199,7105.977043
1109.830365,1036.288319,0.000000,9326.594869
1109.830694,444.123565,1378.971896,9252.574275
1109.831024,-1258.350101,1378.971896,8882.471304
1109.831353,-1332.370696,1455.581446,11621.233289
1109.831683,-1036.288319,3370.820191,14508.036463
1109.832012,-2960.823768,3064.381992,14137.933492
1109.832342,-3849.070898,1532.190996,10066.800811
1109.832672,-2516.700203,-766.095498,8216.285956
1109.833001,1406.391290,-1302.362347,9030.512492
1109.833331,2960.823768,-1302.362347,10140.821405
1109.833660,1184.329507,-1838.629195,11769.274478
1109.833990,-1332.370696,229.828649,12583.501014
1109.834319,-3478.967927,3907.087040,12509.480420
1109.834649,-2664.741391,2068.457845,13175.665768
1109.834978,-1110.308913,229.828649,13249.686362
1109.835308,-1998.556043,1685.410096,12509.480420
1109.835638,-2368.659014,842.705048,11843.295072
1109.835967,-1702.473667,-1225.752797,9992.780217
1109.836297,-1184.329507,842.705048,7846.182985
1109.836626,-444.123565,1149.143247,7105.977043
1109.836956,1628.453072,-1225.752797,7624.121203
1109.837285,1850.514855,0.000000,7994.224174
1109.837615,0.000000,2451.505594,6661.853478
1109.837945,-2368.659014,2145.067394,7105.977043
1109.838274,-3330.926739,3370.820191,8068.244768
1109.838604,-4071.132681,2987.772442,9622.677246
1109.838933,-3034.844362,76.609550,8734.430116
1109.839263,-3775.050304,-842.705048,6661.853478
1109.839592,-2886.803174,-1302.362347,5403.503377
1109.839922,-518.144159,-2068.457845,6291.750507
1109.840252,666.185348,-1762.019645,7772.162391
1109.840581,222.061783,-536.266849,9252.574275
1109.840911,-1554.432478,1915.238745,9326.594869
1109.841240,-2886.803174,4826.401637,9474.636058
1109.841570,-1110.308913,4366.744339,11029.068536
1109.841899,1258.350101,612.876398,12139.377449
1109.842229,740.205942,536.266849,11399.171507
1109.842558,-148.041188,1532.190996,8068.244768
1109.842888,370.102971,-919.314598,8290.306550
1109.843218,2442.679609,-1072.533697,10214.842000
1109.843547,3108.864956,229.828649,12657.521608
1109.843877,2368.659014,-459.657299,13175.665768
1109.844206,0.000000,842.705048,12287.418637
1109.844536,-1258.350101,3140.991542,12361.439231
1109.844865,74.020594,3524.039291,13693.809927
1109.845195,962.267725,1762.019645,13915.871710
1109.845525,-148.041188,842.705048,12139.377449
1109.845854,-1258.350101,689.485948,8660.409521
1109.846184,-1110.308913,153.219100,7179.997637
1109.846513,740.205942,-612.876398,8734.430116
1109.846843,592.164754,612.876398,8734.430116
1109.847172,0.000000,766.095498,7698.141797
1109.847502,-370.102971,76.609550,6365.771101
1109.847832,-1998.556043,1532.190996,8068.244768
1109.848161,-3182.885551,4826.401637,9178.553681
1109.848491,-3923.091493,3370.820191,10510.924376
1109.848820,-4219.173869,1149.143247,10658.965565
1109.849150,-4959.379811,3140.991542,7550.100608
1109.849479,-2590.720797,1378.971896,4663.297435
1109.849809,1184.329507,-3064.381992,4737.318029
1109.850138,2442.679609,-1991.848295,5699.585753
1109.850468,962.267725,-612.876398,6883.915261
1109.850798,-888.247130,-1302.362347,8068.244768
1109.851127,-1998.556043,2145.067394,10510.924376
1109.851457,-3701.029710,6435.202183,11251.130318
1109.851786,-2664.741391,4749.792088,10362.883188
1109.852116,-1184.329507,-1608.800546,10584.944971
1109.852445,740.205942,0.000000,9252.574275
1109.852775,-148.041188,1378.971896,8142.265362
1109.853105,-444.123565,-1455.581446,9326.594869
1109.853434,-1036.288319,1302.362347,12879.583391
1109.853764,-1628.453072,2834.553343,13767.830521
1109.854093,-2072.576638,-459.657299,11843.295072
1109.854423,-2664.741391,-1915.238745,10510.924376
1109.854752,-2812.782580,2298.286494,11029.068536
1109.855082,-1924.535449,1915.238745,12657.521608
1109.855412,-962.267725,-2145.067394,13841.851115
1109.855741,-1480.411884,306.438199,12213.398043
1109.856071,-2886.803174,1915.238745,8808.450710
1109.856400,-592.164754,-536.266849,7994.224174
1109.856730,2960.823768,-842.705048,9844.739029
1109.857059,3997.112087,1378.971896,11103.089130
1109.857389,2220.617826,1608.800546,9400.615463
1109.857718,-1184.329507,2451.505594,8216.285956
1109.858048,-1406.391290,4519.963438,8956.491898
1109.858378,-1702.473667,3294.210641,10214.842000
1109.858707,-2516.700203,0.000000,10140.821405
1109.859037,-3627.009116,229.828649,7254.018232
1109.859366,-3108.864956,-612.876398,5033.400406
1109.859696,-518.144159,-2604.724693,4663.297435
1109.860025,1036.288319,-1225.752797,6513.812290
1109.860355,962.267725,-153.219100,7476.080014
1109.860685,-592.164754,1455.581446,6957.935855
1109.861014,-2664.741391,2528.115143,7772.162391
1109.861344,-3108.864956,3983.696590,10066.800811
1109.861673,-2294.638420,5056.230287,11325.150913
1109.862003,-1628.453072,2681.334243,10732.986159
1109.862332,-1332.370696,0.000000,8512.368333
1109.862662,-444.123565,-1762.019645,7179.997637
1109.862992,1036.288319,-1608.800546,7994.224174
1109.863321,1924.535449,-1302.362347,9770.718434
1109.863651,444.123565,-612.876398,11547.212695
1109.863980,-444.123565,1378.971896,12213.398043
1109.864310,-740.205942,1532.190996,12953.603985
1109.864639,0.000000,1685.410096,13323.706956
1109.864969,-518.144159,3524.039291,13323.706956
1109.865299,-666.185348,3447.429741,13175.665768
1109.865628,-592.164754,1762.019645,12213.398043
1109.865958,-814.226536,0.000000,10584.944971
1109.866287,-148.041188,1072.533697,8808.450710
1109.866617,2072.576638,995.924147,8290.306550
1109.866946,3775.050304,-766.095498,8290.306550
1109.867276,2146.597232,-153.219100,8734.430116
1109.867605,-518.144159,2451.505594,9030.512492
1109.867935,-2886.803174,3140.991542,10658.965565
1109.868265,-4071.132681,3830.477490,12657.521608
1109.868594,-4737.318029,4596.572988,13101.645173
1109.868924,-5033.400406,2757.943793,9992.780217
1109.869253,-4367.215058,-1608.800546,5995.668130
1109.869583,-2368.659014,-2528.115143,4293.194464
1109.869912,0.000000,-995.924147,4885.359217
1109.870242,518.144159,-2528.115143,6291.750507
1109.870572,-148.041188,-919.314598,7772.162391
1109.870901,-3404.947333,4596.572988,6291.750507
1109.871231,-3775.050304,5286.058936,4441.235652
1109.871560,-444.123565,1072.533697,6513.812290
1109.871890,2146.597232,995.924147,9548.656652
1109.872219,444.123565,2987.772442,9474.636058
1109.872549,-2516.700203,0.000000,7920.203579
1109.872879,-2590.720797,0.000000,10066.800811
1109.873208,-1036.288319,2911.162892,12361.439231
1109.873538,0.000000,-689.485948,12879.583391
1109.873867,-222.061783,-3524.039291,11991.336260
1109.874197,-2072.576638,689.485948,10881.027347
1109.874526,-3182.885551,2374.896044,12213.398043
1109.874856,-1998.556043,1225.752797,13767.830521
1109.875185,-1554.432478,2528.115143,13989.892304
1109.875515,-1776.494261,1302.362347,10881.027347
1109.875845,-1850.514855,-1072.533697,7624.121203
1109.876174,444.123565,-1302.362347,7105.977043
1109.876504,3478.967927,-153.219100,9400.615463
1109.876833,3330.926739,-229.828649,10658.965565
1109.877163,74.020594,1685.410096,10955.047942
1109.877492,-1998.556043,4290.134789,11695.253884
1109.877822,-2368.659014,2604.724693,12953.603985
1109.878152,-3034.844362,2834.553343,13471.748144
1109.878481,-4367.215058,3370.820191,12953.603985
1109.878811,-3849.070898,612.876398,11029.068536
1109.879140,-2442.679609,-1072.533697,7402.059420
1109.879470,-1258.350101,-2298.286494,5033.400406
1109.879799,0.000000,-1302.362347,4441.235652
1109.880129,1036.288319,229.828649,4589.276840
1109.880459,1184.329507,229.828649,5403.503377
1109.880788,222.061783,689.485948,5921.647536
1109.881118,-1850.514855,4213.525239,5995.668130
1109.881447,-1702.473667,4366.744339,7402.059420
1109.881777,-1258.350101,1608.800546,9696.697840
1109.882106,-1776.494261,1608.800546,10658.965565
1109.882436,-2812.782580,1838.629195,9400.615463
1109.882765,-2442.679609,-229.828649,8438.347739
1109.883095,-1184.329507,-995.924147,8734.430116
1109.883425,222.061783,383.047749,10140.821405
1109.883754,1702.473667,-842.705048,11177.109724
1109.884084,1702.473667,-306.438199,10214.842000
1109.884413,-296.082377,2145.067394,9178.553681
1109.884743,-888.247130,3830.477490,10362.883188
1109.885072,0.000000,3294.210641,12879.583391
1109.885402,-148.041188,1608.800546,14434.015869
1109.885732,-1776.494261,1762.019645,10807.006753
1109.886061,-1628.453072,1608.800546,8142.265362
1109.886391,1258.350101,-1072.533697,8660.409521
1109.886720,3404.947333,-2451.505594,10881.027347
1109.887050,1036.288319,153.219100,12139.377449
1109.887379,-1628.453072,842.705048,12509.480420
1109.887709,-3775.050304,2298.286494,13249.686362
1109.888039,-4589.276840,4519.963438,12879.583391
1109.888368,-3701.029710,4673.182538,12509.480420
1109.888698,-1184.329507,-306.438199,10807.006753
1109.889027,-296.082377,-2221.676944,7328.038826
1109.889357,-444.123565,-1302.362347,4663.297435
1109.889686,518.144159,-1225.752797,6513.812290
1109.890016,1258.350101,-229.828649,8882.471304
1109.890345,-1184.329507,3140.991542,7254.018232
1109.890675,-2442.679609,1762.019645,4811.338623
1109.891005,-1702.473667,76.609550,5773.606348
1109.891334,0.000000,1915.238745,7772.162391
1109.891664,-1480.411884,2757.943793,9104.533087
1109.891993,-4441.235652,229.828649,9474.636058
1109.892323,-5847.626942,1455.581446,9474.636058
1109.892652,-4441.235652,1608.800546,8290.306550
1109.892982,-1702.473667,-2451.505594,7624.121203
1109.893312,74.020594,-3217.601092,7105.977043
1109.893641,592.164754,-459.657299,8438.347739
1109.893971,666.185348,-536.266849,9844.739029
1109.894300,0.000000,383.047749,11399.171507
1109.894630,-2072.576638,4596.572988,12213.398043
1109.894959,-2146.597232,4903.011187,12879.583391
1109.895289,-1480.411884,995.924147,13249.686362
1109.895619,-962.267725,459.657299,12213.398043
1109.895948,-370.102971,536.266849,9696.697840
1109.896278,814.226536,-1532.190996,8734.430116
1109.896607,2220.617826,-842.705048,9844.739029
1109.896937,2294.638420,306.438199,11103.089130
1109.897267,1110.308913,0.000000,12361.439231
1109.897596,-1184.329507,1225.752797,11843.295072
1109.897926,-3478.967927,4213.525239,12435.459826
1109.898256,-2960.823768,4213.525239,13619.789333
1109.898585,-1406.391290,2528.115143,13619.789333
1109.898915,-1406.391290,766.095498,10881.027347
1109.899244,-2516.700203,-459.657299,6883.915261
1109.899574,-2220.617826,-229.828649,4885.359217
1109.899904,444.123565,-383.047749,5995.668130
1109.900233,2220.617826,-612.876398,6957.935855
1109.900563,444.123565,-229.828649,6513.812290
1109.900893,-1480.411884,2681.334243,5773.606348
1109.901222,-2220.617826,3600.648841,6809.894666
1109.901552,-1776.494261,2911.162892,8956.491898
1109.901881,-2072.576638,3600.648841,10436.903782
1109.902211,-3923.091493,2374.896044,9104.533087
1109.902541,-4367.215058,0.000000,7254.018232
1109.902870,-3256.906145,-1072.533697,6883.915261
1109.903200,-592.164754,-383.047749,7846.182985
1109.903529,1184.329507,-995.924147,8586.388927
1109.903859,296.082377,-1915.238745,8364.327145
1109.904189,-1258.350101,1225.752797,7550.100608
1109.904518,-1998.556043,2911.162892,9548.656652
1109.904848,-444.123565,2451.505594,12213.398043
1109.905178,0.000000,3294.210641,12509.480420
1109.905507,-444.123565,2834.553343,11769.274478
1109.905837,-1184.329507,-383.047749,9696.697840
1109.906166,-222.061783,-842.705048,9474.636058
1109.906496,1776.494261,0.000000,10955.047942
1109.906826,1924.535449,-995.924147,13545.768739
1109.907155,-888.247130,-383.047749,14508.036463
1109.907485,-3997.112087,2451.505594,12213.398043
1109.907815,-3997.112087,1685.410096,11843.295072
1109.908144,-1850.514855,0.000000,12583.501014
1109.908474,-740.205942,1608.800546,12953.603985
1109.908803,-814.226536,766.095498,11325.150913
1109.909133,-814.226536,-1072.533697,8364.327145
1109.909463,-1776.494261,459.657299,5329.482782
1109.909792,-740.205942,1991.848295,4737.318029
1109.910122,1850.514855,-995.924147,6735.874072
1109.910451,2294.638420,-1225.752797,9178.553681
1109.910781,0.000000,2528.115143,8216.285956
1109.911111,-2590.720797,2451.505594,7624.121203
1109.911440,-4293.194464,2298.286494,8882.471304
1109.911770,-3182.885551,2987.772442,10955.047942
1109.912100,-2146.597232,306.438199,10955.047942
1109.912429,-2072.576638,-536.266849,7402.059420
1109.912759,-2960.823768,229.828649,3701.029710
1109.913088,-296.082377,-766.095498,4441.235652
1109.913418,2516.700203,-2145.067394,6513.812290
1109.913748,2294.638420,0.000000,8438.347739
1109.914077,370.102971,1685.410096,8512.368333
1109.914407,-888.247130,2604.724693,8216.285956
1109.914737,-1480.411884,4519.963438,11029.068536
1109.915066,-962.267725,2451.505594,13397.727550
1109.915396,-1184.329507,153.219100,13619.789333
1109.915725,-1258.350101,1838.629195,11621.233289
1109.916055,-888.247130,1225.752797,9400.615463
1109.916385,592.164754,-1072.533697,9844.739029
1109.916714,814.226536,-995.924147,11399.171507
1109.917044,74.020594,0.000000,12509.480420
1109.917373,-1036.288319,0.000000,11843.295072
1109.917703,-2294.638420,1991.848295,11917.315666
1109.918033,-2146.597232,3600.648841,12953.603985
1109.918362,-2072.576638,2068.457845,11843.295072
1109.918692,-1924.535449,-536.266849,10955.047942
1109.919022,-1332.370696,0.000000,9548.656652
1109.919351,-1480.411884,2068.457845,8068.244768
1109.919681,-666.185348,1838.629195,6957.935855
1109.920010,1036.288319,459.657299,8068.244768
1109.920340,1258.350101,536.266849,8956.491898
1109.920670,-444.123565,1302.362347,7994.224174
1109.920999,-2516.700203,1838.629195,7550.100608
1109.921329,-2886.803174,2834.553343,8882.471304
1109.921659,-3849.070898,4366.744339,9696.697840
1109.921988,-4515.256246,919.314598,9770.718434
1109.922318,-4219.173869,-1302.362347,7994.224174
1109.922647,-3478.967927,0.000000,4885.359217
1109.922977,-2516.700203,-459.657299,4663.297435
1109.923307,-592.164754,-1302.362347,5625.565159
1109.923636,222.061783,383.047749,8956.491898
1109.923966,-962.267725,919.314598,8808.450710
1109.924296,-3108.864956,2987.772442,8068.244768
1109.924625,-3108.864956,4519.963438,9178.553681
1109.924955,-962.267725,3524.039291,10881.027347
1109.925284,0.000000,-153.219100,12213.398043
1109.925614,-1480.411884,-1302.362347,10807.006753
1109.925944,-1776.494261,-153.219100,9030.512492
1109.926273,-370.102971,-1378.971896,9474.636058
1109.926603,1184.329507,-229.828649,11251.130318
1109.926932,1406.391290,-766.095498,12805.562797
1109.927262,592.164754,-1302.362347,13175.665768
1109.927592,-444.123565,612.876398,12435.459826
1109.927921,-1628.453072,1762.019645,13323.706956
1109.928251,0.000000,2374.896044,14434.015869
1109.928581,74.020594,2681.334243,13915.871710
1109.928910,-666.185348,1915.238745,9548.656652
1109.929240,-592.164754,-153.219100,5921.647536
1109.929569,1924.535449,-1532.190996,6365.771101
1109.929899,3627.009116,995.924147,7994.224174
1109.930229,2368.659014,-766.095498,9770.718434
1109.930558,-1036.288319,-689.485948,10288.862594
1109.930888,-3108.864956,3830.477490,9400.615463
1109.931218,-3627.009116,2451.505594,9622.677246
1109.931547,-2146.597232,-766.095498,10658.965565
1109.931877,-2960.823768,1838.629195,10881.027347
1109.932206,-3108.864956,2221.676944,8438.347739
1109.932536,-2368.659014,-1532.190996,6291.750507
1109.932866,-740.205942,-1072.533697,4589.276840
1109.933195,370.102971,1915.238745,4441.235652
1109.933525,2146.597232,-536.266849,5773.606348
1109.933854,2442.679609,-1072.533697,7402.059420
1109.934184,222.061783,3830.477490,8438.347739
1109.934514,-3404.947333,3753.867940,8734.430116
1109.934843,-4219.173869,2451.505594,10510.924376
1109.935173,-3478.967927,2681.334243,12435.459826
1109.935503,-2960.823768,2068.457845,11843.295072
1109.935832,-2442.679609,-1378.971896,8734.430116
1109.936162,-1998.556043,-2221.676944,7846.182985
1109.936491,0.000000,-689.485948,9474.636058
1109.936821,370.102971,-536.266849,11843.295072
1109.937151,0.000000,76.609550,13027.624579
1109.937480,-2220.617826,3294.210641,12435.459826
1109.937810,-3108.864956,4136.915689,11103.089130
1109.938140,-2072.576638,2528.115143,11103.089130
1109.938469,74.020594,995.924147,12731.542202
1109.938799,-222.061783,1072.533697,12065.356855
1109.939128,-1406.391290,1225.752797,9178.553681
1109.939458,-1480.411884,-153.219100,7624.121203
1109.939788,518.144159,76.609550,9326.594869
1109.940117,1406.391290,766.095498,10807.006753
1109.940447,0.000000,76.609550,10584.944971
1109.940776,-1036.288319,1685.410096,9548.656652
1109.941106,-3182.885551,2911.162892,9326.594869
1109.941436,-3330.926739,2834.553343,10214.842000
1109.941765,-2960.823768,2068.457845,10955.047942
1109.942095,-2294.638420,612.876398,9178.553681
1109.942425,-2072.576638,383.047749,5329.482782
1109.942754,-1480.411884,-689.485948,3108.864956
1109.943084,1258.350101,-689.485948,4737.318029
1109.943413,2442.679609,306.438199,6587.832884
1109.943743,1702.473667,995.924147,7772.162391
1109.944073,-888.247130,2374.896044,8438.347739
1109.944402,-2442.679609,3600.648841,9400.615463
1109.944732,-3182.885551,3524.039291,10288.862594
1109.945062,-2072.576638,2145.067394,10955.047942
1109.945391,-1480.411884,153.219100,11547.212695
1109.945721,-962.267725,-766.095498,9548.656652
1109.946050,-1110.308913,-459.657299,7550.100608
1109.946380,518.144159,-1149.143247,8068.244768
1109.946710,1702.473667,-306.438199,10658.965565
1109.947039,1332.370696,919.314598,12731.542202
1109.947369,0.000000,1608.800546,13101.645173
1109.947698,-1702.473667,2451.505594,12435.459826
1109.948028,-1628.453072,2374.896044,13323.706956
1109.948358,-1702.473667,3370.820191,13841.851115
1109.948687,-2146.597232,2374.896044,11917.315666
1109.949017,-1850.514855,-1915.238745,9326.594869
1109.949347,-444.123565,-1072.533697,7698.141797
1109.949676,518.144159,-306.438199,7772.162391
1109.950006,1554.432478,-2221.676944,9474.636058
1109.950335,962.267725,0.000000,11177.109724
1109.950665,-592.164754,3064.381992,10362.883188
1109.950995,-2072.576638,2451.505594,9400.615463
1109.951324,-2442.679609,1072.533697,10288.862594
1109.951654,-2738.761985,4213.525239,11399.171507
1109.951984,-2886.803174,3447.429741,11547.212695
1109.952313,-2590.720797,-842.705048,8734.430116
1109.952643,-2886.803174,229.828649,5477.523971
1109.952972,-2368.659014,-1302.362347,3923.091493
1109.953302,0.000000,-2221.676944,5625.565159
1109.953632,444.123565,0.000000,7994.224174
1109.953961,-370.102971,2834.553343,8216.285956
1109.954291,-2442.679609,2911.162892,6809.894666
1109.954621,-3552.988522,1685.410096,7550.100608
1109.954950,-2146.597232,3370.820191,9844.739029
1109.955280,-1406.391290,2145.067394,10955.047942
1109.955609,-1554.432478,689.485948,9326.594869
1109.955939,-1702.473667,1378.971896,7105.977043
1109.956269,-296.082377,-919.314598,7846.182985
1109.956598,1702.473667,-1685.410096,10362.883188
1109.956928,1332.370696,-229.828649,12805.562797
1109.957257,-592.164754,1378.971896,12879.583391
1109.957587,-2516.700203,3217.601092,12287.418637
1109.957917,-3701.029710,2298.286494,12509.480420
1109.958246,-3256.906145,1838.629195,12435.459826
1109.958576,-2516.700203,1072.533697,12139.377449
1109.958906,-2368.659014,-536.266849,10807.006753
1109.959235,-2294.638420,842.705048,8660.409521
1109.959565,-1628.453072,153.219100,6957.935855
1109.959894,1480.411884,-842.705048,7031.956449
1109.960224,3108.864956,-612.876398,8734.430116
1109.960554,2072.576638,1685.410096,9844.739029
1109.960883,-592.164754,3983.696590,9178.553681
1109.961213,-2664.741391,2604.724693,10436.903782
1109.961543,-3478.967927,2911.162892,13397.727550
1109.961872,-5403.503377,3064.381992,15100.201217
1109.962202,-7254.018232,383.047749,13471.748144
1109.962531,-7476.080014,-689.485948,9474.636058
1109.962861,-6809.894666,-2221.676944,5625.565159
1109.963191,-3404.947333,-3217.601092,4811.338623
1109.963520,444.123565,-3447.429741,4219.173869
1109.963850,2886.803174,-1072.533697,4811.338623
1109.964179,2220.617826,1455.581446,5625.565159
1109.964509,-1702.473667,4060.306139,6513.812290
1109.964839,-3627.009116,5898.935335,8956.491898
1109.965168,-4441.235652,5822.325785,11325.150913
1109.965498,-5107.421000,3677.258390,13249.686362
1109.965828,-7550.100608,1685.410096,10807.006753
1109.966157,-8586.388927,-1149.143247,7772.162391
1109.966487,-7328.038826,-4903.011187,8068.244768
1109.966816,-6217.729913,-4903.011187,10362.883188
1109.967146,-4515.256246,-1608.800546,11547.212695
1109.967476,-2664.741391,76.609550,10584.944971
1109.967805,-2368.659014,459.657299,8808.450710
1109.968135,-2146.597232,1762.019645,8734.430116
1109.968465,-1776.494261,3600.648841,10955.047942
1109.968794,-1702.473667,4596.572988,12953.603985
1109.969124,-2664.741391,5209.449386,12731.542202
1109.969453,-4811.338623,4060.306139,11843.295072
1109.969783,-6809.894666,-383.047749,9696.697840
1109.970113,-7105.977043,-3217.601092,9474.636058
1109.970442,-5477.523971,-4903.011187,10510.924376
1109.970772,-3627.009116,-2298.286494,9770.718434
1109.971101,-2220.617826,153.219100,9326.594869
1109.971431,-1998.556043,995.924147,9326.594869
1109.971761,-3330.926739,2528.115143,9326.594869
1109.972090,-4737.318029,4136.915689,9844.739029
1109.972420,-4219.173869,5515.887586,10658.965565
1109.972750,-5033.400406,6205.373534,11029.068536
1109.973079,-6217.729913,4443.353888,9622.677246
1109.973409,-6291.750507,0.000000,7698.141797
1109.973738,-5921.647536,-4443.353888,5699.585753
1109.974068,-5107.421000,-3907.087040,4959.379811
1109.974398,-3627.009116,-2068.457845,5995.668130
1109.974727,-1480.411884,-766.095498,7624.121203
1109.975057,-222.061783,2221.676944,8882.471304
1109.975387,-1406.391290,3753.867940,8808.450710
1109.975716,-2812.782580,4903.011187,8290.306550
1109.976046,-3256.906145,6128.763984,9696.697840
1109.976375,-5255.462188,5822.325785,10955.047942
1109.976705,-6883.915261,3983.696590,11769.274478
1109.977035,-7105.977043,0.000000,10214.842000
1109.977364,-5255.462188,-3370.820191,6957.935855
1109.977694,-2664.741391,-6128.763984,5625.565159
1109.978024,-1406.391290,-6741.640382,6069.688724
1109.978353,0.000000,-3447.429741,7698.141797
1109.978683,-222.061783,229.828649,10510.924376
1109.979012,-370.102971,4979.620737,13619.789333
1109.979342,-1332.370696,8963.317327,14656.077652
1109.979672,-2294.638420,9193.145976,15174.221811
1109.980001,-3478.967927,6818.249932,14137.933492
1109.980331,-6365.771101,1225.752797,14434.015869
1109.980660,-9252.574275,-536.266849,14582.057057
1109.980990,-11029.068536,-1378.971896,11325.150913
1109.981320,-9474.636058,-4749.792088,7328.038826
1109.981649,-5847.626942,-9499.584175,5403.503377
1109.981979,-2368.659014,-8656.879127,4737.318029
1109.982309,1480.411884,-4213.525239,4219.173869
1109.982638,3552.988522,-383.047749,5773.606348
1109.982968,3256.906145,6052.154434,9474.636058
1109.983297,518.144159,12257.527968,12583.501014
1109.983627,-1332.370696,12257.527968,13915.871710
1109.983957,-4293.194464,10035.851024,13175.665768
1109.984286,-5921.647536,7201.297681,12213.398043
1109.984616,-5773.606348,1302.362347,10510.924376
1109.984946,-5773.606348,-3830.477490,8882.471304
1109.985275,-7105.977043,-7814.174080,7179.997637
1109.985605,-8512.368333,-8810.098227,5699.585753
1109.985934,-8512.368333,-6205.373534,4737.318029
1109.986264,-6735.874072,-2911.162892,4737.318029
1109.986594,-3701.029710,0.000000,6365.771101
1109.986923,-1628.453072,2604.724693,7920.203579
1109.987253,444.123565,6435.202183,9030.512492
1109.987582,1332.370696,8120.612279,9030.512492
1109.987912,-370.102971,7124.688131,11177.109724
1109.988242,-3701.029710,5822.325785,12361.439231
1109.988571,-7624.121203,3907.087040,12139.377449
1109.988901,-9326.594869,229.828649,10436.903782
1109.989231,-8734.430116,-3064.381992,10140.821405
1109.989560,-7476.080014,-5132.839837,9844.739029
1109.989890,-5033.400406,-5592.497135,8290.306550
1109.990219,-3256.906145,-4826.401637,7105.977043
1109.990549,-1554.432478,-1532.190996,6883.915261
1109.990879,-296.082377,2528.115143,9030.512492
1109.991208,-814.226536,4673.182538,11843.295072
1109.991538,-2738.761985,7584.345430,13693.809927
1109.991868,-6365.771101,7354.516781,14434.015869
1109.992197,-7402.059420,4903.011187,14063.912898
1109.992527,-7031.956449,1915.238745,12953.603985
1109.992856,-6143.709319,-2374.896044,10658.965565
1109.993186,-5625.565159,-5669.106685,7328.038826
1109.993516,-3923.091493,-6971.469032,5255.462188
1109.993845,-1480.411884,-4903.011187,5625.565159
1109.994175,-148.041188,-1072.533697,7328.038826
1109.994504,-1110.308913,1762.019645,9030.512492
1109.994834,-3256.906145,4749.792088,10436.903782
1109.995164,-4367.215058,7737.564530,11991.336260
1109.995493,-4885.359217,8810.098227,13767.830521
1109.995823,-5033.400406,6894.859482,12583.501014
1109.996153,-4737.318029,2145.067394,9474.636058
1109.996482,-3256.906145,-3140.991542,7402.059420
1109.996812,-2146.597232,-5209.449386,7105.977043
1109.997141,-1924.535449,-5056.230287,6809.894666
1109.997471,-1998.556043,-2834.553343,6217.729913
1109.997801,-1628.453072,-1149.143247,6587.832884
1109.998130,-1924.535449,689.485948,7698.141797
1109.998459,-2368.659014,2757.943793,9992.780217
1109.998789,-3108.864956,4673.182538,10584.944971
1109.999118,-4145.153275,6894.859482,11029.068536
1109.999448,-4885.359217,6052.154434,10955.047942
1109.999777,-4515.256246,2834.553343,10066.800811
1110.000107,-2960.823768,306.438199,8290.306550
1110.000436,-1850.514855,-1685.410096,6587.832884
1110.000766,-1554.432478,-2451.505594,6587.832884
1110.001095,-1776.494261,-1378.971896,7328.038826
1110.001424,-2146.597232,536.266849,7994.224174
1110.001754,-2960.823768,1302.362347,9474.636058
1110.002083,-5773.606348,2604.724693,11843.295072
1110.002413,-8512.368333,5132.839837,13175.665768
1110.002742,-9992.780217,3983.696590,13841.851115
1110.003072,-9992.780217,1225.752797,14656.077652
1110.003401,-9696.697840,-612.876398,14137.933492
1110.003731,-8586.388927,-1302.362347,11177.109724
1110.004060,-5403.503377,-4136.915689,7328.038826
1110.004390,-1332.370696,-4596.572988,5699.585753
1110.004719,2072.576638,-3064.381992,5921.647536
1110.005048,3849.070898,-383.047749,6735.874072
1110.005378,3997.112087,3064.381992,7846.182985
1110.005707,2072.576638,5898.935335,9622.677246
1110.006037,-222.061783,8580.269578,11399.171507
1110.006366,-2368.659014,6741.640382,12583.501014
1110.006696,-5107.421000,4060.306139,13323.706956
1110.007025,-8068.244768,995.924147,13323.706956
1110.007355,-10510.924376,-229.828649,11843.295072
1110.007684,-10658.965565,-1685.410096,9400.615463
1110.008014,-9474.636058,-4596.572988,6883.915261
1110.008343,-6587.832884,-6052.154434,4737.318029
1110.008672,-3923.091493,-4596.572988,4071.132681
1110.009002,-1332.370696,-842.705048,4441.235652
1110.009331,-370.102971,2451.505594,5995.668130
1110.009661,-2072.576638,5822.325785,7402.059420
1110.009990,-3478.967927,7277.907231,9326.594869
1110.010320,-4663.297435,6894.859482,11695.253884
1110.010649,-6217.729913,4443.353888,12953.603985
1110.010979,-8068.244768,2068.457845,11769.274478
1110.011308,-8882.471304,-1149.143247,10658.965565
1110.011637,-8438.347739,-4903.011187,10510.924376
1110.011967,-6439.791695,-5898.935335,10362.883188
1110.012296,-3775.050304,-4060.306139,9474.636058
1110.012626,-1036.288319,-1455.581446,7031.956449
1110.012955,1702.473667,459.657299,7031.956449
1110.013285,3478.967927,2451.505594,8364.327145
1110.013614,3552.988522,5132.839837,10066.800811
1110.013944,2072.576638,7124.688131,11325.150913
1110.014273,-1036.288319,6052.154434,12583.501014
1110.014603,-4737.318029,3600.648841,14211.954086
1110.014932,-8512.368333,2451.505594,14730.098246
1110.015261,-10732.986159,0.000000,12509.480420
1110.015591,-10140.821405,-4136.915689,9252.574275
1110.015920,-7624.121203,-6128.763984,6365.771101
1110.016250,-4589.276840,-5056.230287,5551.544565
1110.016579,-2072.576638,-3907.087040,5403.503377
1110.016909,-1036.288319,-459.657299,5625.565159
1110.017238,-962.267725,4596.572988,6809.894666
1110.017568,-1258.350101,7890.783629,9326.594869
1110.017897,-1702.473667,8886.707777,11103.089130
1110.018226,-3701.029710,7814.174080,11991.336260
1110.018556,-5255.462188,4826.401637,12435.459826
1110.018885,-5921.647536,1378.971896,12361.439231
1110.019215,-6587.832884,-766.095498,11917.315666
1110.019544,-7402.059420,-2451.505594,10658.965565
1110.019874,-7031.956449,-3830.477490,8290.306550
1110.020203,-4293.194464,-2298.286494,6661.853478
1110.020533,-962.267725,-612.876398,5625.565159
1110.020862,2072.576638,1072.533697,5995.668130
1110.021192,2590.720797,3907.087040,7105.977043
1110.021521,1110.308913,7737.564530,8142.265362
1110.021850,-370.102971,8427.050478,9400.615463
1110.022180,-1998.556043,6818.249932,11177.109724
1110.022509,-3701.029710,5056.230287,12435.459826
1110.022839,-5255.462188,3064.381992,11843.295072
1110.023168,-5699.585753,766.095498,10510.924376
1110.023498,-5477.523971,-1225.752797,9326.594869
1110.023827,-4441.235652,-2528.115143,8438.347739
1110.024157,-3701.029710,-842.705048,8882.471304
1110.024486,-3552.988522,1762.019645,8808.450710
1110.024815,-3330.926739,3217.601092,9400.615463
1110.025145,-2590.720797,4903.011187,10066.800811
1110.025474,-2368.659014,6665.030833,10807.006753
1110.025804,-1776.494261,6358.592633,11621.233289
1110.026133,-1850.514855,5362.668486,11399.171507
1110.026463,-1702.473667,4290.134789,10955.047942
1110.026792,-814.226536,2911.162892,9548.656652
1110.027122,0.000000,1991.848295,8512.368333
1110.027451,-222.061783,1532.190996,8364.327145
1110.027781,370.102971,2298.286494,9252.574275
1110.028110,888.247130,4060.306139,9548.656652
1110.028439,444.123565,6741.640382,10066.800811
1110.028769,-1628.453072,7507.735880,10066.800811
1110.029098,-2220.617826,7354.516781,9696.697840
1110.029428,-2368.659014,6741.640382,9252.574275
1110.029757,-2220.617826,5898.935335,8438.347739
1110.030087,-1998.556043,3830.477490,7105.977043
1110.030416,-1702.473667,2221.676944,5847.626942
1110.030746,-1554.432478,536.266849,5995.668130
1110.031075,-2294.638420,766.095498,7031.956449
1110.031405,-3330.926739,2528.115143,7698.141797
1110.031734,-3552.988522,4136.915689,8734.430116
1110.032063,-3923.091493,5209.449386,9474.636058
1110.032393,-3108.864956,6128.763984,10436.903782
1110.032722,-2442.679609,5975.544884,10732.986159
1110.033052,-1110.308913,5592.497135,10140.821405
1110.033381,0.000000,4979.620737,10066.800811
1110.033711,0.000000,4979.620737,10066.800811
1110.034040,-592.164754,3677.258390,10066.800811
1110.034370,0.000000,2987.772442,9548.656652
1110.034699,148.041188,2681.334243,9104.533087
1110.035028,962.267725,2681.334243,9400.615463
1110.035358,1332.370696,2451.505594,9770.718434
1110.035687,1184.329507,2528.115143,10658.965565
1110.036017,-666.185348,3907.087040,11177.109724
1110.036346,-2146.597232,5362.668486,11473.192101
1110.036676,-1924.535449,5592.497135,11769.274478
1110.037005,-1554.432478,4826.401637,11769.274478
1110.037335,-1702.473667,4060.306139,10955.047942
1110.037664,-1332.370696,4136.915689,10066.800811
1110.037994,-1036.288319,4213.525239,9474.636058
1110.038323,-444.123565,4749.792088,9548.656652
1110.038652,-444.123565,5209.449386,8734.430116
1110.038982,-814.226536,4213.525239,7402.059420
1110.039311,0.000000,3370.820191,6587.832884
1110.039641,-148.041188,1915.238745,6365.771101
1110.039970,-740.205942,1608.800546,7328.038826
1110.040300,-2368.659014,2068.457845,8364.327145
1110.040629,-3478.967927,2681.334243,9400.615463
1110.040959,-3627.009116,3753.867940,10066.800811
1110.041288,-2664.741391,4519.963438,11251.130318
1110.041617,-1702.473667,4979.620737,10955.047942
1110.041947,-814.226536,5439.278036,9844.739029
1110.042276,74.020594,6052.154434,9474.636058
1110.042606,814.226536,5669.106685,9474.636058
1110.042935,222.061783,6358.592633,9474.636058
1110.043265,-518.144159,6435.202183,8734.430116
1110.043594,-1776.494261,5286.058936,7402.059420
1110.043924,-1628.453072,2987.772442,6513.812290
1110.044253,-1406.391290,919.314598,5921.647536
1110.044583,-1184.329507,-612.876398,6587.832884
1110.044912,-1702.473667,-1378.971896,7772.162391
1110.045241,-2294.638420,-536.266849,9326.594869
1110.045571,-2664.741391,1991.848295,11621.233289
1110.045900,-2220.617826,4213.525239,13323.706956
1110.046230,-888.247130,5898.935335,13767.830521
1110.046559,-518.144159,6205.373534,14211.954086
1110.046889,-370.102971,6818.249932,13693.809927
1110.047218,-370.102971,6588.421283,11917.315666
1110.047548,-444.123565,5286.058936,10732.986159
1110.047877,0.000000,3677.258390,9844.739029
1110.048207,-740.205942,3524.039291,8364.327145
1110.048536,-1110.308913,2374.896044,7476.080014
1110.048865,-1702.473667,1608.800546,6809.894666
1110.049195,-1184.329507,919.314598,6883.915261
1110.049524,-518.144159,2068.457845,7254.018232
1110.049854,0.000000,2374.896044,8216.285956
1110.050183,222.061783,3064.381992,9622.677246
1110.050513,0.000000,4443.353888,10658.965565
1110.050842,-1110.308913,6281.983084,11473.192101
1110.051172,-1776.494261,7584.345430,11991.336260
1110.051501,-1480.411884,7201.297681,12583.501014
1110.051830,-2294.638420,6588.421283,12583.501014
1110.052160,-3330.926739,6818.249932,11251.130318
1110.052489,-4293.194464,5975.544884,8364.327145
1110.052819,-2960.823768,4213.525239,5255.462188
1110.053148,0.000000,2221.676944,2368.659014
1110.053478,2886.803174,612.876398,2590.720797
1110.053807,3701.029710,1225.752797,4145.153275
1110.054137,1628.453072,3907.087040,5625.565159
1110.054466,-1184.329507,5745.716235,7476.080014
1110.054796,-3330.926739,6205.373534,10362.883188
1110.055125,-4293.194464,6358.592633,13767.830521
1110.055454,-5181.441594,6511.811733,15988.448347
1110.055784,-5921.647536,5286.058936,15174.221811
1110.056113,-5551.544565,4213.525239,12361.439231
1110.056443,-3775.050304,2834.553343,9844.739029
1110.056772,-592.164754,1608.800546,8438.347739
1110.057102,2146.597232,842.705048,7550.100608
1110.057431,3997.112087,2834.553343,6069.688724
1110.057761,4959.379811,3907.087040,5107.421000
1110.058090,4811.338623,4443.353888,6217.729913
1110.058419,2886.803174,5975.544884,9844.739029
1110.058749,-1184.329507,8044.002729,13249.686362
1110.059078,-4663.297435,9499.584175,14508.036463
1110.059408,-5699.585753,7737.564530,14211.954086
1110.059737,-4219.173869,4366.744339,12805.562797
1110.060067,-2294.638420,306.438199,9918.759623
1110.060396,-1110.308913,-2221.676944,7031.956449
1110.060726,-592.164754,-766.095498,5625.565159
1110.061055,-1258.350101,1915.238745,6291.750507
1110.061385,-1406.391290,4443.353888,7994.224174
1110.061714,-1998.556043,4979.620737,7994.224174
1110.062043,-1184.329507,4673.182538,6883.915261
1110.062373,148.041188,2834.553343,7254.018232
1110.062702,296.082377,1915.238745,9548.656652
1110.063032,-1258.350101,3677.258390,11843.295072
1110.063361,-3478.967927,5132.839837,13101.645173
1110.063691,-3627.009116,5362.668486,14137.933492
1110.064020,-2886.803174,5362.668486,13915.871710
1110.064350,-2146.597232,5439.278036,11251.130318
1110.064679,-370.102971,2757.943793,6735.874072
1110.065009,1924.535449,-689.485948,4219.173869
1110.065338,2960.823768,-995.924147,4589.276840
1110.065667,2886.803174,1991.848295,6365.771101
1110.065997,1702.473667,4213.525239,8438.347739
1110.066326,-592.164754,5439.278036,10584.944971
1110.066656,-2886.803174,5362.668486,12361.439231
1110.066985,-3478.967927,5209.449386,12509.480420
1110.067315,-2146.597232,3370.820191,11843.295072
1110.067644,-1184.329507,1838.629195,12361.439231
1110.067974,-1332.370696,2528.115143,12435.459826
1110.068303,-2368.659014,3370.820191,11251.130318
1110.068632,-2516.700203,3600.648841,9844.739029
1110.068962,-2146.597232,5745.716235,8364.327145
1110.069291,-888.247130,6588.421283,6809.894666
1110.069621,1850.514855,4443.353888,5403.503377
1110.069950,3849.070898,1072.533697,4663.297435
1110.070280,3256.906145,1838.629195,4885.359217
1110.070609,888.247130,4596.572988,7402.059420
1110.070939,-1332.370696,5975.544884,10955.047942
1110.071268,-3627.009116,7584.345430,14211.954086
1110.071598,-5181.441594,8733.488677,14582.057057
1110.071927,-3997.112087,6665.030833,13915.871710
1110.072256,-1924.535449,4443.353888,12583.501014
1110.072586,-1480.411884,2451.505594,10510.924376
1110.072915,-2960.823768,2604.724693,8216.285956
1110.073245,-3478.967927,3140.991542,6661.853478
1110.073574,-2812.782580,3753.867940,5921.647536
1110.073904,-444.123565,3677.258390,5403.503377
1110.074233,2220.617826,3140.991542,4589.276840
1110.074563,3478.967927,3677.258390,4589.276840
1110.074892,3182.885551,5132.839837,6069.688724
1110.075221,2368.659014,6665.030833,8956.491898
1110.075551,74.020594,7967.393179,11621.233289
1110.075880,-2146.597232,8886.707777,14063.912898
1110.076210,-3034.844362,8350.440928,15174.221811
1110.076539,-3478.967927,6358.592633,14582.057057
1110.076869,-3923.091493,4366.744339,12139.377449
1110.077198,-3997.112087,2221.676944,8956.491898
1110.077528,-3404.947333,-383.047749,6439.791695
1110.077857,-3256.906145,-2528.115143,4515.256246
1110.078187,-1628.453072,-1225.752797,4293.194464
1110.078516,592.164754,153.219100,4219.173869
1110.078845,2220.617826,1991.848295,4737.318029
1110.079175,2886.803174,3907.087040,6735.874072
1110.079504,3256.906145,5515.887586,10510.924376
1110.079834,2220.617826,5745.716235,14137.933492
1110.080163,296.082377,8656.879127,16580.613101
1110.080493,-1406.391290,9576.193725,16950.716072
1110.080822,-2886.803174,6052.154434,15840.407159
1110.081152,-3552.988522,3140.991542,13841.851115
1110.081481,-3627.009116,842.705048,9696.697840
1110.081810,-1776.494261,-1149.143247,7179.997637
1110.082140,888.247130,-1991.848295,5773.606348
1110.082469,2220.617826,-1532.190996,4293.194464
1110.082799,2368.659014,-995.924147,2738.761985
1110.083128,2368.659014,76.609550,3849.070898
1110.083458,2368.659014,2374.896044,7476.080014
1110.083787,1110.308913,5515.887586,12805.562797
1110.084117,-1702.473667,8427.050478,16580.613101
1110.084446,-5033.400406,9576.193725,17024.736666
1110.084776,-6587.832884,6358.592633,15544.324782
1110.085105,-6883.915261,3753.867940,13471.748144
1110.085434,-5625.565159,1225.752797,10807.006753
1110.085764,-3330.926739,-1302.362347,7031.956449
1110.086093,-1628.453072,-2834.553343,3182.885551
1110.086423,740.205942,-3294.210641,-0.000000
1110.086752,2886.803174,-2987.772442,370.102971
1110.087082,4589.276840,-459.657299,2664.741391
1110.087411,2960.823768,4136.915689,6587.832884
1110.087741,0.000000,7354.516781,11695.253884
1110.088070,-2960.823768,9346.365076,14508.036463
1110.088400,-4219.173869,7660.954980,14878.139434
1110.088729,-3849.070898,2911.162892,15470.304188
1110.089058,-3182.885551,-229.828649,14285.974681
1110.089388,-2812.782580,-2145.067394,10807.006753
1110.089717,-2146.597232,-4213.525239,6365.771101
1110.090047,-444.123565,-4903.011187,4071.132681
1110.090376,1628.453072,-3294.210641,4811.338623
1110.090706,3997.112087,-1455.581446,7698.141797
1110.091035,4737.318029,1225.752797,9178.553681
1110.091365,2220.617826,4136.915689,9030.512492
1110.091694,0.000000,4136.915689,11177.109724
1110.092023,-1258.350101,4749.792088,15544.324782
1110.092353,-2516.700203,6741.640382,19541.436869
1110.092682,-4071.132681,6205.373534,19763.498651
1110.093012,-4811.338623,3447.429741,14211.954086
1110.093341,-2516.700203,-919.314598,7994.224174
1110.093671,1332.370696,-6358.592633,5107.421000
1110.094000,2960.823768,-6588.421283,4441.235652
1110.094330,2516.700203,-1991.848295,4737.318029
1110.094659,814.226536,689.485948,4589.276840
1110.094989,-1998.556043,1762.019645,5477.523971
1110.095318,-3182.885551,1838.629195,8290.306550
1110.095647,-3478.967927,2221.676944,12287.418637
1110.095977,-2812.782580,3140.991542,14582.057057
1110.096306,-3256.906145,5515.887586,12879.583391
1110.096634,-2664.741391,4443.353888,10436.903782
1110.096964,222.061783,-459.657299,9178.553681
1110.097294,1628.453072,-1762.019645,8512.368333
1110.097623,740.205942,76.609550,8808.450710
1110.097953,-1406.391290,3524.039291,6809.894666
1110.098282,-2738.761985,2681.334243,4589.276840
1110.098612,-1850.514855,-1149.143247,4589.276840
1110.098941,-296.082377,-2834.553343,6661.853478
1110.099271,-592.164754,-1455.581446,8808.450710
1110.099600,-1554.432478,919.314598,8882.471304
1110.099930,-2146.597232,1149.143247,9104.533087
1110.100259,-1480.411884,-919.314598,10584.944971
1110.100589,-296.082377,-1072.533697,12805.562797
1110.100918,740.205942,1532.190996,14137.933492
1110.101248,370.102971,3830.477490,12361.439231
1110.101577,-296.082377,4443.353888,9178.553681
1110.101907,370.102971,536.266849,7920.203579
1110.102236,2146.597232,-2757.943793,8882.471304
1110.102566,1036.288319,-3217.601092,10584.944971
1110.102895,-1184.329507,229.828649,9474.636058
1110.103225,-1924.535449,1685.410096,8364.327145
1110.103554,-444.123565,-2221.676944,9770.718434
1110.103884,296.082377,-2221.676944,12583.501014
1110.104213,-1480.411884,306.438199,14804.118840
1110.104543,-2368.659014,3830.477490,15396.283594
1110.104873,-3923.091493,5745.716235,14063.912898
1110.105202,-4145.153275,3907.087040,12287.418637
1110.105532,-2368.659014,842.705048,10658.965565
1110.105861,74.020594,-1991.848295,9400.615463
1110.106191,296.082377,-842.705048,7624.121203
1110.106520,-1406.391290,2145.067394,4219.173869
1110.106850,-666.185348,229.828649,3849.070898
1110.107179,1628.453072,-1991.848295,6069.688724
1110.107509,1332.370696,766.095498,8586.388927
1110.107838,-518.144159,3677.258390,9030.512492
1110.108168,-2738.761985,5822.325785,8734.430116
1110.108497,-3627.009116,4596.572988,9104.533087
1110.108827,-2960.823768,3064.381992,9622.677246
1110.109156,-1924.535449,229.828649,10288.862594
1110.109486,-296.082377,0.000000,9178.553681
1110.109815,-1332.370696,1532.190996,5625.565159
1110.110145,-1850.514855,-229.828649,3256.906145
1110.110474,370.102971,-2604.724693,4145.153275
1110.110804,2294.638420,-2451.505594,7550.100608
1110.111133,2294.638420,1455.581446,9844.739029
1110.111463,-370.102971,5132.839837,9992.780217
1110.111792,-2368.659014,3753.867940,10658.965565
1110.112122,-1850.514855,383.047749,11991.336260
1110.112451,-1110.308913,0.000000,14434.015869
1110.112781,-814.226536,1685.410096,15174.221811
1110.113111,-962.267725,3140.991542,11917.315666
1110.113440,-222.061783,153.219100,9844.739029
1110.113770,1628.453072,-2834.553343,9770.718434
1110.114099,1332.370696,-2374.896044,11029.068536
1110.114429,666.185348,919.314598,11843.295072
1110.114758,-518.144159,3370.820191,9474.636058
1110.115088,-1998.556043,1915.238745,8882.471304
1110.115417,-1184.329507,0.000000,9770.718434
1110.115747,-1110.308913,-612.876398,10807.006753
1110.116076,-1184.329507,-1455.581446,10807.006753
1110.116406,-2590.720797,919.314598,8660.409521
1110.116735,-2960.823768,536.266849,9252.574275
1110.117065,-2146.597232,-919.314598,10066.800811
1110.117394,-1850.514855,-1762.019645,10658.965565
1110.117724,-1924.535449,-306.438199,10288.862594
1110.118053,-1776.494261,3370.820191,9696.697840
1110.118383,-2146.597232,3753.867940,8586.388927
1110.118712,-1554.432478,1225.752797,7920.203579
1110.119042,-1332.370696,-995.924147,7105.977043
1110.119371,-1332.370696,-1991.848295,7105.977043
1110.119701,-592.164754,919.314598,6143.709319
1110.120030,-518.144159,1072.533697,6069.688724
1110.120360,518.144159,-1455.581446,6587.832884
1110.120690,1406.391290,-1991.848295,8512.368333
1110.121019,666.185348,-1149.143247,11473.192101
1110.121349,-1110.308913,2911.162892,11473.192101
1110.121678,-3404.947333,4903.011187,11029.068536
1110.122008,-2590.720797,1991.848295,10658.965565
1110.122337,-962.267725,-153.219100,10732.986159
1110.122667,-518.144159,-1762.019645,10436.903782
1110.122996,-592.164754,76.609550,7994.224174
1110.123326,-592.164754,842.705048,6883.915261
1110.123655,814.226536,-842.705048,8512.368333
1110.123985,1554.432478,-229.828649,10955.047942
1110.124314,518.144159,229.828649,12731.542202
1110.124644,-1554.432478,2911.162892,12509.480420
1110.124973,-3775.050304,4366.744339,11991.336260
1110.125303,-3478.967927,3907.087040,13323.706956
1110.125632,-2368.659014,2528.115143,13397.727550
1110.125962,-1554.432478,536.266849,12213.398043
1110.126291,-740.205942,536.266849,8734.430116
1110.126621,-444.123565,383.047749,6957.935855
1110.126950,518.144159,-306.438199,6809.894666
1110.127280,1110.308913,76.609550,7254.018232
1110.127609,666.185348,306.438199,8808.450710
1110.127939,-518.144159,2451.505594,9326.594869
1110.128268,-2368.659014,4596.572988,8734.430116
1110.128598,-2442.679609,2604.724693,8512.368333
1110.128928,-1036.288319,536.266849,8438.347739
1110.129257,-666.185348,-459.657299,9474.636058
1110.129587,-1110.308913,1915.238745,8438.347739
1110.129916,-2072.576638,2068.457845,6365.771101
1110.130246,-814.226536,-536.266849,6217.729913
1110.130575,444.123565,-1762.019645,7476.080014
1110.130905,222.061783,-1149.143247,9326.594869
1110.131234,-740.205942,1149.143247,9696.697840
1110.131564,-2368.659014,2911.162892,9474.636058
1110.131893,-2590.720797,919.314598,9696.697840
1110.132223,-1776.494261,-536.266849,10436.903782
1110.132552,-1332.370696,-1608.800546,11843.295072
1110.132882,-740.205942,-153.219100,11325.150913
1110.133211,-1258.350101,919.314598,8808.450710
1110.133541,0.000000,-229.828649,8512.368333
1110.133870,1406.391290,-1915.238745,10288.862594
1110.134200,888.247130,-1225.752797,12435.459826
1110.134529,-592.164754,2451.505594,11769.274478
1110.134859,-1480.411884,2911.162892,10658.965565
1110.135188,-1110.308913,-536.266849,11029.068536
1110.135518,-370.102971,-1149.143247,11843.295072
1110.135847,-1924.535449,-1455.581446,11843.295072
1110.136177,-1924.535449,-612.876398,11029.068536
1110.136507,-1776.494261,1532.190996,9474.636058
1110.136836,-888.247130,306.438199,9030.512492
1110.137166,0.000000,-1302.362347,8364.327145
1110.137495,-148.041188,-689.485948,10288.862594
1110.137825,-592.164754,2757.943793,10807.006753
1110.138154,-2368.659014,5515.887586,9104.533087
1110.138484,-2516.700203,2911.162892,8364.327145
1110.138813,-1924.535449,842.705048,7920.203579
1110.139143,-1850.514855,-1072.533697,8660.409521
1110.139472,-1480.411884,-229.828649,7994.224174
1110.139802,-1702.473667,1991.848295,6291.750507
1110.140131,-1554.432478,-306.438199,5329.482782
1110.140461,0.000000,-1225.752797,6735.874072
1110.140790,296.082377,-1149.143247,9622.677246
1110.141120,0.000000,1991.848295,10288.862594
1110.141449,-1628.453072,5515.887586,9252.574275
1110.141779,-2368.659014,3830.477490,9030.512492
1110.142108,-814.226536,2068.457845,9622.677246
1110.142438,0.000000,306.438199,10732.986159
1110.142767,962.267725,153.219100,9326.594869
1110.143097,444.123565,1838.629195,7476.080014
1110.143426,74.020594,995.924147,7624.121203
1110.143756,888.247130,383.047749,9252.574275
1110.144086,0.000000,-766.095498,11325.150913
1110.144415,-1036.288319,612.876398,12361.439231
1110.144745,-2960.823768,3600.648841,11769.274478
1110.145074,-3627.009116,2681.334243,11843.295072
1110.145404,-2146.597232,842.705048,12583.501014
1110.145733,-1924.535449,-766.095498,12509.480420
1110.146063,-2072.576638,0.000000,11547.212695
1110.146392,-1850.514855,2451.505594,10214.842000
1110.146722,-1332.370696,1915.238745,9696.697840
1110.147051,370.102971,1072.533697,9400.615463
1110.147381,592.164754,383.047749,9252.574275
1110.147710,0.000000,306.438199,9622.677246
1110.148040,-1702.473667,3983.696590,9622.677246
1110.148369,-3404.947333,4443.353888,9326.594869
1110.148699,-2368.659014,1608.800546,8956.491898
1110.149028,-1258.350101,-1378.971896,8808.450710
1110.149358,-962.267725,-1838.629195,8586.388927
1110.149687,-1110.308913,1762.019645,7031.956449
1110.150017,-1924.535449,1149.143247,6661.853478
1110.150346,-444.123565,306.438199,7105.977043
1110.150676,74.020594,536.266849,8512.368333
1110.151005,-444.123565,689.485948,9474.636058
1110.151335,-1406.391290,2604.724693,8142.265362
1110.151664,-2220.617826,2528.115143,7550.100608
1110.151994,-1554.432478,153.219100,7476.080014
1110.152324,-888.247130,-1225.752797,8364.327145
1110.152653,-666.185348,-1762.019645,10066.800811
1110.152983,-1036.288319,842.705048,9474.636058
1110.153312,-1110.308913,1455.581446,8216.285956
1110.153642,-518.144159,0.000000,9474.636058
1110.153971,740.205942,-536.266849,11769.274478
1110.154301,296.082377,536.266849,13471.748144
1110.154630,-1332.370696,3907.087040,12879.583391
1110.154960,-2812.782580,3983.696590,11177.109724
1110.155289,-2220.617826,536.266849,11029.068536
1110.155619,-1110.308913,-842.705048,11325.150913
1110.155948,-740.205942,-1302.362347,11917.315666
1110.156278,-592.164754,919.314598,9474.636058
1110.156607,-1036.288319,383.047749,6957.935855
1110.156937,666.185348,-1149.143247,7476.080014
1110.157266,962.267725,-306.438199,10510.924376
1110.157596,-518.144159,2068.457845,12657.521608
1110.157925,-1924.535449,5056.230287,11843.295072
1110.158255,-3108.864956,4596.572988,10510.924376
1110.158584,-3256.906145,1608.800546,9918.759623
1110.158914,-2812.782580,-383.047749,9844.739029
1110.159243,-1776.494261,-1302.362347,10362.883188
1110.159573,-1554.432478,1532.190996,8068.244768
1110.159903,-2368.659014,2528.115143,5551.544565
1110.160232,-1110.308913,-153.219100,5255.462188
1110.160562,444.123565,-995.924147,8068.244768
1110.160891,-296.082377,1072.533697,9918.759623
1110.161221,-1628.453072,4673.182538,8512.368333
1110.161550,-2294.638420,4673.182538,6883.915261
1110.161880,-1628.453072,536.266849,8364.327145
1110.162209,-1184.329507,1149.143247,9770.718434
1110.162539,-1332.370696,766.095498,10362.883188
1110.162868,-592.164754,919.314598,8956.491898
1110.163198,-222.061783,612.876398,7772.162391
1110.163527,-370.102971,76.609550,8438.347739
1110.163857,444.123565,76.609550,9622.677246
1110.164186,518.144159,153.219100,11325.150913
1110.164516,0.000000,3983.696590,10881.027347
1110.164845,-1480.411884,5209.449386,9844.739029
1110.165175,-1628.453072,1991.848295,10658.965565
1110.165504,-666.185348,153.219100,11103.089130
1110.165834,-962.267725,229.828649,11547.212695
1110.166163,-1184.329507,1991.848295,10140.821405
1110.166493,-1332.370696,2298.286494,8882.471304
1110.166822,-740.205942,0.000000,9178.553681
1110.167152,-370.102971,-766.095498,10510.924376
1110.167481,-1110.308913,459.657299,11769.274478
1110.167811,-1850.514855,3140.991542,11251.130318
1110.168141,-2516.700203,4749.792088,9844.739029
1110.168470,-3034.844362,2221.676944,9104.533087
1110.168800,-2516.700203,306.438199,8216.285956
1110.169129,-1110.308913,-766.095498,9326.594869
1110.169459,-444.123565,995.924147,8734.430116
1110.169788,-1406.391290,3370.820191,7328.038826
1110.170118,-1554.432478,1149.143247,7179.997637
1110.170447,0.000000,-612.876398,7550.100608
1110.170777,148.041188,-766.095498,9178.553681
1110.171106,-1184.329507,2374.896044,9622.677246
1110.171436,-2960.823768,4673.182538,8882.471304
1110.171765,-2960.823768,1762.019645,8808.450710
1110.172095,-1850.514855,-1149.143247,8882.471304
1110.172424,-1036.288319,-2221.676944,9030.512492
1110.172754,-444.123565,-1608.800546,9326.594869
1110.173083,-666.185348,612.876398,8068.244768
1110.173413,-222.061783,1072.533697,8586.388927
1110.173742,888.247130,153.219100,9474.636058
1110.174072,962.267725,0.000000,11177.109724
1110.174401,296.082377,2298.286494,12657.521608
1110.174731,-1332.370696,4366.744339,12509.480420
1110.175060,-2368.659014,3370.820191,11103.089130
1110.175390,-1480.411884,383.047749,10658.965565
1110.175720,-666.185348,-2221.676944,10881.027347
1110.176049,-1184.329507,-1991.848295,11251.130318
1110.176379,-2220.617826,1608.800546,10140.821405
1110.176708,-1406.391290,1225.752797,9474.636058
1110.177038,296.082377,-612.876398,9326.594869
1110.177367,518.144159,-766.095498,9992.780217
1110.177697,-74.020594,1762.019645,11399.171507
1110.178026,-1776.494261,4136.915689,10955.047942
1110.178356,-3478.967927,5592.497135,10362.883188
1110.178685,-3330.926739,3140.991542,9326.594869
1110.179015,-2294.638420,-612.876398,9326.594869
1110.179344,-1850.514855,-1302.362347,9030.512492
1110.179674,-1332.370696,1991.848295,7476.080014
1110.180003,-2072.576638,1915.238745,5921.647536
1110.180333,-962.267725,-153.219100,6809.894666
1110.180662,-222.061783,842.705048,8364.327145
1110.180992,-888.247130,2451.505594,9992.780217
1110.181321,-2146.597232,4443.353888,8734.430116
1110.181651,-2738.761985,4060.306139,8142.265362
1110.181980,-1554.432478,1455.581446,7994.224174
1110.182310,-666.185348,306.438199,8068.244768
1110.182639,74.020594,-842.705048,8586.388927
1110.182969,148.041188,1225.752797,7254.018232
1110.183298,-222.061783,1838.629195,6735.874072
1110.183628,444.123565,0.000000,7994.224174
1110.183958,1184.329507,76.609550,10436.903782
1110.184287,148.041188,459.657299,11695.253884
1110.184617,-962.267725,3064.381992,11029.068536
1110.184946,-2146.597232,4519.963438,10658.965565
1110.185276,-1776.494261,1532.190996,11103.089130
1110.185605,-1110.308913,459.657299,11103.089130
1110.185935,-888.247130,-1378.971896,11029.068536
1110.186264,-666.185348,-1072.533697,9548.656652
1110.186594,-1332.370696,0.000000,9400.615463
1110.186923,-1406.391290,-383.047749,11325.150913
1110.187253,-1628.453072,1072.533697,12435.459826
1110.187582,-2368.659014,766.095498,12879.583391
1110.187912,-2516.700203,2451.505594,11991.336260
1110.188241,-2516.700203,2911.162892,11769.274478
1110.188571,-3034.844362,1149.143247,11621.233289
1110.188900,-2516.700203,1225.752797,10362.883188
1110.189230,-1998.556043,-536.266849,8808.450710
1110.189559,-444.123565,-229.828649,6883.915261
1110.189889,0.000000,1072.533697,6513.812290
1110.190218,1258.350101,459.657299,6957.935855
1110.190548,1480.411884,1072.533697,8068.244768
1110.190877,222.061783,919.314598,8956.491898
1110.191207,-814.226536,2451.505594,8808.450710
1110.191537,-2368.659014,3217.601092,8438.347739
1110.191866,-2738.761985,612.876398,8660.409521
1110.192196,-1702.473667,306.438199,8734.430116
1110.192525,-1924.535449,-1378.971896,8586.388927
1110.192855,-1702.473667,-1072.533697,7402.059420
1110.193184,-1850.514855,-306.438199,6587.832884
1110.193514,-1184.329507,-1762.019645,7698.141797
1110.193843,370.102971,-306.438199,8734.430116
1110.194173,370.102971,306.438199,10140.821405
1110.194502,0.000000,1455.581446,9844.739029
1110.194832,-1480.411884,2834.553343,10436.903782
1110.195161,-1998.556043,1149.143247,11769.274478
1110.195491,-1628.453072,1991.848295,12361.439231
1110.195820,-1110.308913,459.657299,11843.295072
1110.196150,-518.144159,-1149.143247,10658.965565
1110.196479,-222.061783,-383.047749,9548.656652
1110.196809,518.144159,-1072.533697,10436.903782
1110.197138,1702.473667,383.047749,10584.944971
1110.197468,296.082377,1302.362347,11621.233289
1110.197797,-296.082377,2681.334243,11473.192101
1110.198127,-1554.432478,3907.087040,10881.027347
1110.198456,-1554.432478,2451.505594,11547.212695
1110.198786,-1184.329507,2298.286494,9844.739029
1110.199116,-2220.617826,1532.190996,8660.409521
1110.199445,-1998.556043,612.876398,8364.327145
1110.199775,-1924.535449,919.314598,7402.059420
1110.200105,-1924.535449,-689.485948,7254.018232
1110.200434,-1258.350101,0.000000,7994.224174
1110.200764,-1776.494261,1225.752797,8660.409521
1110.201093,-2516.700203,2604.724693,9326.594869
1110.201423,-3330.926739,4443.353888,8438.347739
1110.201753,-3108.864956,2451.505594,8512.368333
1110.202082,-1406.391290,1302.362347,8660.409521
1110.202412,-1036.288319,1762.019645,8512.368333
1110.202741,-1036.288319,1072.533697,7698.141797
1110.203071,-444.123565,536.266849,5847.626942
1110.203401,518.144159,-1762.019645,5921.647536
1110.203730,1628.453072,-995.924147,7698.141797
1110.204060,1480.411884,459.657299,10658.965565
1110.204389,222.061783,2298.286494,12139.377449
1110.204719,-1850.514855,4136.915689,10362.883188
1110.205049,-1924.535449,612.876398,10214.842000
1110.205378,0.000000,-1915.238745,11325.150913
1110.205708,296.082377,0.000000,12657.521608
1110.206037,-296.082377,612.876398,11103.089130
1110.206367,-814.226536,306.438199,8216.285956
1110.206697,0.000000,-2451.505594,8586.388927
1110.207026,814.226536,-1685.410096,11621.233289
1110.207356,0.000000,1225.752797,13989.892304
1110.207686,-2220.617826,1915.238745,12213.398043
1110.208015,-2590.720797,2298.286494,10436.903782
1110.208345,-2886.803174,0.000000,10807.006753
1110.208674,-2072.576638,-766.095498,11917.315666
1110.209004,-2516.700203,-306.438199,12139.377449
1110.209334,-2960.823768,766.095498,10362.883188
1110.209663,-3034.844362,1685.410096,7550.100608
1110.209993,-2294.638420,0.000000,7254.018232
1110.210322,740.205942,-1149.143247,8734.430116
1110.210652,1628.453072,0.000000,9252.574275
1110.210982,296.082377,2068.457845,7920.203579
1110.211311,-1184.329507,3294.210641,7031.956449
1110.211641,-2368.659014,1762.019645,8290.306550
1110.211970,-2368.659014,1072.533697,9992.780217
1110.212300,-2368.659014,1378.971896,10140.821405
1110.212630,-1924.535449,1225.752797,8660.409521
1110.212959,-888.247130,536.266849,5921.647536
1110.213289,0.000000,-1685.410096,5181.441594
1110.213618,1258.350101,-2451.505594,6365.771101
1110.213948,1110.308913,0.000000,8068.244768
1110.214278,444.123565,2757.943793,10214.842000
1110.214607,-888.247130,5209.449386,9400.615463
1110.214937,-2738.761985,2987.772442,9548.656652
1110.215267,-1628.453072,0.000000,10362.883188
1110.215596,-444.123565,-612.876398,11251.130318
1110.215926,-444.123565,-383.047749,11251.130318
1110.216255,-740.205942,1149.143247,9474.636058
1110.216585,-1628.453072,306.438199,8660.409521
1110.216915,0.000000,-1378.971896,10658.965565
1110.217244,666.185348,76.609550,12657.521608
1110.217574,0.000000,1991.848295,12953.603985
1110.217903,-1258.350101,3677.258390,11843.295072
1110.218233,-2442.679609,2987.772442,11177.109724
1110.218563,-1924.535449,995.924147,11251.130318
1110.218892,-1184.329507,306.438199,10955.047942
1110.219222,-518.144159,-842.705048,10436.903782
1110.219551,-962.267725,995.924147,9030.512492
1110.219881,-1850.514855,2068.457845,7920.203579
1110.220211,-444.123565,0.000000,8068.244768
1110.220540,962.267725,-536.266849,8586.388927
1110.220870,0.000000,1149.143247,9696.697840
1110.221200,-1406.391290,3600.648841,9252.574275
1110.221529,-3404.947333,3064.381992,8364.327145
1110.221859,-2812.782580,459.657299,8290.306550
1110.222188,-2220.617826,0.000000,8438.347739
1110.222518,-1924.535449,-919.314598,8808.450710
1110.222848,-2072.576638,612.876398,8068.244768
1110.223177,-2220.617826,1532.190996,6735.874072
1110.223507,-740.205942,-919.314598,5477.523971
1110.223836,1036.288319,-2068.457845,7179.997637
1110.224166,1480.411884,-306.438199,9326.594869
1110.224496,370.102971,2145.067394,10436.903782
1110.224825,-962.267725,3524.039291,10881.027347
1110.225155,-1924.535449,2451.505594,10214.842000
1110.225484,-962.267725,-153.219100,10658.965565
1110.225814,-518.144159,-2068.457845,11769.274478
1110.226144,-222.061783,-689.485948,11621.233289
1110.226473,-740.205942,919.314598,9548.656652
1110.226803,74.020594,-995.924147,8660.409521
1110.227132,1628.453072,-2757.943793,9252.574275
1110.227462,1998.556043,-1149.143247,11547.212695
1110.227792,1110.308913,2374.896044,12657.521608
1110.228121,-1554.432478,5975.544884,11177.109724
1110.228451,-1998.556043,3294.210641,9400.615463
1110.228781,-962.267725,0.000000,10288.862594
1110.229110,-888.247130,-1225.752797,11843.295072
1110.229440,-1924.535449,0.000000,11843.295072
1110.229769,-3256.906145,1378.971896,9104.533087
1110.230099,-3108.864956,0.000000,7920.203579
1110.230429,-2072.576638,-1532.190996,7772.162391
1110.230758,-1628.453072,-995.924147,11177.109724
1110.231088,-2368.659014,1838.629195,11621.233289
1110.231417,-3034.844362,5209.449386,9400.615463
1110.231747,-2738.761985,2451.505594,7698.141797
1110.232077,-1258.350101,0.000000,7698.141797
1110.232406,-444.123565,-919.314598,8068.244768
1110.232736,-666.185348,0.000000,8586.388927
1110.233065,-1406.391290,2451.505594,7105.977043
1110.233395,-1776.494261,2451.505594,7031.956449
1110.233725,222.061783,459.657299,7476.080014
1110.234054,962.267725,-536.266849,9030.512492
1110.234384,1406.391290,229.828649,9252.574275
1110.234713,148.041188,2681.334243,8512.368333
1110.235043,-444.123565,2604.724693,8734.430116
1110.235373,-1036.288319,689.485948,9696.697840
1110.235702,-1554.432478,536.266849,10436.903782
1110.236032,-1924.535449,612.876398,10584.944971
1110.236362,-1480.411884,1378.971896,8734.430116
1110.236691,-518.144159,0.000000,8290.306550
1110.237021,1184.329507,-1072.533697,8808.450710
1110.237350,1628.453072,-1225.752797,10436.903782
1110.237680,1184.329507,0.000000,11843.295072
1110.238010,-1258.350101,4213.525239,11843.295072
1110.238339,-3108.864956,5056.230287,11991.336260
1110.238669,-2368.659014,2451.505594,13249.686362
1110.238998,-1258.350101,1532.190996,13323.706956
1110.239328,-1036.288319,919.314598,11843.295072
1110.239658,-592.164754,689.485948,8290.306550
1110.239987,-296.082377,-612.876398,7105.977043
1110.240317,666.185348,-1378.971896,8068.244768
1110.240646,370.102971,0.000000,10510.924376
1110.240976,-740.205942,1991.848295,10658.965565
1110.241306,-1480.411884,4749.792088,9400.615463
1110.241635,-2072.576638,4366.744339,8586.388927
1110.241965,-1702.473667,2528.115143,8512.368333
1110.242295,-518.144159,1532.190996,8290.306550
1110.242624,-370.102971,383.047749,7772.162391
1110.242954,-518.144159,1072.533697,6809.894666
1110.243283,-2294.638420,1455.581446,6661.853478
1110.243613,-1924.535449,-995.924147,7624.121203
1110.243943,-1480.411884,-1455.581446,8364.327145
1110.244272,-2072.576638,306.438199,9844.739029
1110.244602,-2220.617826,1838.629195,8512.368333
1110.244931,-1998.556043,1532.190996,9252.574275
1110.245261,-1184.329507,229.828649,9474.636058
1110.245591,-962.267725,-306.438199,9770.718434
1110.245920,-296.082377,-766.095498,10436.903782
1110.246250,-370.102971,459.657299,9622.677246
1110.246579,-74.020594,1455.581446,9400.615463
1110.246909,370.102971,-842.705048,9992.780217
1110.247239,1332.370696,-1149.143247,11029.068536
1110.247568,1110.308913,-306.438199,11991.336260
1110.247898,74.020594,1762.019645,10955.047942
1110.248227,-666.185348,2451.505594,11103.089130
1110.248557,-814.226536,1072.533697,11103.089130
1110.248887,-148.041188,459.657299,11621.233289
1110.249216,-370.102971,-919.314598,11621.233289
1110.249546,-1258.350101,1532.190996,9622.677246
1110.249876,-1998.556043,1685.410096,8068.244768
1110.250205,-1332.370696,153.219100,9326.594869
1110.250535,-1184.329507,0.000000,9844.739029
1110.250864,-1628.453072,689.485948,11029.068536
1110.251194,-2294.638420,3064.381992,10436.903782
1110.251524,-3404.947333,3753.867940,8142.265362
1110.251853,-3034.844362,1455.581446,8290.306550
1110.252183,-1480.411884,306.438199,8882.471304
1110.252512,-1332.370696,229.828649,9622.677246
1110.252842,-1628.453072,2681.334243,8216.285956
1110.253172,-1924.535449,2834.553343,6661.853478
1110.253501,0.000000,383.047749,6809.894666
1110.253831,740.205942,229.828649,7698.141797
1110.254160,0.000000,1072.533697,9178.553681
1110.254490,-444.123565,2374.896044,8882.471304
1110.254820,-1110.308913,3753.867940,8364.327145
1110.255149,-1332.370696,2068.457845,8734.430116
1110.255479,-370.102971,995.924147,9030.512492
1110.255808,-222.061783,-995.924147,9474.636058
1110.256138,296.082377,612.876398,8808.450710
1110.256468,444.123565,2451.505594,8290.306550
1110.256797,518.144159,306.438199,8512.368333
1110.257127,1036.288319,0.000000,9622.677246
1110.257457,74.020594,-383.047749,11399.171507
1110.257786,-740.205942,2221.676944,12509.480420
1110.258116,-2220.617826,4749.792088,11843.295072
1110.258445,-1998.556043,2681.334243,11325.150913
1110.258775,-666.185348,153.219100,10807.006753
1110.259105,-370.102971,-76.609550,11399.171507
1110.259434,-592.164754,1915.238745,10436.903782
1110.259764,-1332.370696,3600.648841,8512.368333
1110.260093,-666.185348,1225.752797,7994.224174
1110.260423,74.020594,-383.047749,8660.409521
1110.260753,-962.267725,153.219100,10881.027347
1110.261082,-2368.659014,1838.629195,11177.109724
1110.261412,-3997.112087,2528.115143,9400.615463
1110.261741,-4145.153275,842.705048,9252.574275
1110.262071,-2960.823768,0.000000,10214.842000
1110.262401,-2146.597232,0.000000,11843.295072
1110.262730,-2072.576638,1608.800546,10288.862594
1110.263060,-1850.514855,3217.601092,6735.874072
1110.263390,-814.226536,842.705048,5625.565159
1110.263719,1554.432478,153.219100,7105.977043
1110.264049,1702.473667,1532.190996,9104.533087
1110.264378,0.000000,2604.724693,9548.656652
1110.264708,-1480.411884,3600.648841,7698.141797
1110.265038,-2146.597232,1149.143247,7402.059420
1110.265367,-1036.288319,-995.924147,8512.368333
1110.265697,-148.041188,-1455.581446,9696.697840
1110.266026,0.000000,-612.876398,9030.512492
1110.266356,-518.144159,1915.238745,7698.141797
1110.266686,-444.123565,919.314598,7698.141797
1110.267015,962.267725,-689.485948,8216.285956
1110.267345,1554.432478,-1072.533697,10214.842000
1110.267674,518.144159,0.000000,11251.130318
1110.268004,-1628.453072,3370.820191,10658.965565
1110.268334,-2664.741391,1532.190996,10955.047942
1110.268663,-2072.576638,-1225.752797,12213.398043
1110.268993,-1628.453072,-1378.971896,12805.562797
1110.269322,-2072.576638,-766.095498,12805.562797
1110.269652,-1850.514855,383.047749,10807.006753
1110.269982,-1850.514855,0.000000,9844.739029
1110.270311,0.000000,-383.047749,10214.842000
1110.270641,814.226536,-153.219100,11473.192101
1110.270971,0.000000,1455.581446,11325.150913
1110.271300,-1036.288319,4136.915689,10214.842000
1110.271630,-2072.576638,3370.820191,9992.780217
1110.271959,-1628.453072,1149.143247,9474.636058
1110.272289,-1184.329507,0.000000,9030.512492
1110.272619,-296.082377,-612.876398,9252.574275
1110.272948,-888.247130,1762.019645,7698.141797
1110.273278,-1998.556043,2528.115143,7254.018232
1110.273607,-1332.370696,689.485948,7328.038826
1110.273937,-592.164754,-306.438199,8142.265362
1110.274267,-666.185348,1302.362347,9178.553681
1110.274596,-2516.700203,4290.134789,9252.574275
1110.274926,-3478.967927,3907.087040,8290.306550
1110.275255,-3034.844362,766.095498,7254.018232
1110.275585,-1480.411884,-612.876398,8142.265362
1110.275915,-1184.329507,0.000000,9326.594869
1110.276244,-2146.597232,2834.553343,8808.450710
1110.276574,-2146.597232,2911.162892,7328.038826
1110.276903,-296.082377,766.095498,7402.059420
1110.277233,1258.350101,-306.438199,8586.388927
1110.277563,1332.370696,536.266849,10955.047942
1110.277892,592.164754,3064.381992,11103.089130
1110.278222,-1480.411884,3907.087040,10436.903782
1110.278552,-1850.514855,1915.238745,10732.986159
1110.278881,-444.123565,76.609550,11251.130318
1110.279211,370.102971,-612.876398,11843.295072
1110.279540,1258.350101,1225.752797,10510.924376
1110.279870,740.205942,3447.429741,9622.677246
1110.280200,1406.391290,2451.505594,8660.409521
1110.280529,2072.576638,1378.971896,8882.471304
1110.280859,2072.576638,1532.190996,10362.883188
1110.281188,222.061783,3983.696590,10066.800811
1110.281518,-2220.617826,5132.839837,8956.491898
1110.281848,-3034.844362,2374.896044,9252.574275
1110.282177,-2886.803174,-383.047749,9696.697840
1110.282507,-3552.988522,-2374.896044,10658.965565
1110.282836,-3775.050304,-306.438199,10658.965565
1110.283166,-3849.070898,229.828649,8586.388927
1110.283496,-3552.988522,-1149.143247,8882.471304
1110.283825,-2590.720797,-612.876398,9400.615463
1110.284155,-2516.700203,766.095498,10881.027347
1110.284485,-2368.659014,2681.334243,10584.944971
1110.284814,-2738.761985,4903.011187,8956.491898
1110.285144,-1850.514855,2834.553343,7846.182985
1110.285473,-296.082377,-689.485948,7994.224174
1110.285803,296.082377,-3217.601092,8808.450710
1110.286133,-148.041188,-1149.143247,8586.388927
1110.286462,-1184.329507,766.095498,7772.162391
1110.286792,-296.082377,-229.828649,7994.224174
1110.287121,666.185348,-383.047749,9474.636058
1110.287451,1702.473667,-459.657299,11325.150913
1110.287781,962.267725,229.828649,10732.986159
1110.288110,-666.185348,1915.238745,9030.512492
1110.288440,-814.226536,919.314598,9252.574275
1110.288769,-740.205942,0.000000,10066.800811
1110.289099,-962.267725,-1225.752797,11103.089130
1110.289429,-888.247130,-995.924147,10732.986159
1110.289758,-1480.411884,612.876398,9030.512492
1110.290088,-2072.576638,383.047749,8882.471304
1110.290417,-518.144159,-536.266849,10066.800811
1110.290747,-296.082377,-919.314598,11695.253884
1110.291077,-1184.329507,919.314598,11843.295072
1110.291406,-3182.885551,3600.648841,11399.171507
1110.291736,-3108.864956,2911.162892,11325.150913
1110.292066,-2368.659014,1455.581446,11325.150913
1110.292395,-1924.535449,153.219100,10881.027347
1110.292725,-814.226536,153.219100,9770.718434
1110.293054,-592.164754,1378.971896,8290.306550
1110.293384,-592.164754,1685.410096,7105.977043
1110.293714,74.020594,1532.190996,7476.080014
1110.294043,444.123565,919.314598,8808.450710
1110.294373,0.000000,2757.943793,9252.574275
1110.294702,-1110.308913,4749.792088,8068.244768
1110.295032,-2146.597232,2911.162892,6809.894666
1110.295362,-1036.288319,1378.971896,6587.832884
1110.295691,-666.185348,-229.828649,7772.162391
1110.296021,-666.185348,0.000000,8734.430116
1110.296350,-2220.617826,1532.190996,7624.121203
1110.296680,-3256.906145,1302.362347,7476.080014
1110.297010,-2368.659014,383.047749,8586.388927
1110.297339,-888.247130,-612.876398,10214.842000
1110.297669,-1258.350101,995.924147,11473.192101
1110.297998,-1850.514855,3140.991542,10436.903782
1110.298328,-2368.659014,2911.162892,9548.656652
1110.298658,-1036.288319,995.924147,9178.553681
1110.298987,-962.267725,-383.047749,10214.842000
1110.299317,0.000000,-612.876398,10881.027347
1110.299647,-518.144159,0.000000,10214.842000
1110.299976,-962.267725,536.266849,9696.697840
1110.300306,-592.164754,229.828649,10288.862594
1110.300635,444.123565,0.000000,11547.212695
1110.300965,592.164754,919.314598,12805.562797
1110.301295,-518.144159,3294.210641,11843.295072
1110.301624,-1258.350101,3370.820191,10436.903782
1110.301954,-296.082377,536.266849,10066.800811
1110.302283,370.102971,459.657299,10584.944971
1110.302613,-148.041188,76.609550,10584.944971
1110.302943,-1480.411884,1225.752797,8734.430116
1110.303272,-2516.700203,536.266849,7772.162391
1110.303602,-2516.700203,-536.266849,8290.306550
1110.303932,-2368.659014,-536.266849,9844.739029
1110.304261,-2220.617826,0.000000,11103.089130
1110.304591,-2886.803174,1608.800546,9622.677246
1110.304920,-3627.009116,2451.505594,7846.182985
1110.305250,-2664.741391,229.828649,8290.306550
1110.305580,-1480.411884,-689.485948,9400.615463
1110.305909,-1628.453072,229.828649,9474.636058
1110.306239,-2590.720797,1991.848295,7402.059420
1110.306569,-2368.659014,1608.800546,5847.626942
1110.306898,0.000000,-919.314598,5551.544565
1110.307228,2442.679609,-1762.019645,8142.265362
1110.307557,2738.761985,153.219100,10140.821405
1110.307887,888.247130,1991.848295,8438.347739
1110.308217,-518.144159,1915.238745,7920.203579
1110.308546,-296.082377,0.000000,10214.842000
1110.308876,-740.205942,1608.800546,11547.212695
1110.309205,-1110.308913,1608.800546,11695.253884
1110.309535,-666.185348,536.266849,9696.697840
1110.309865,-962.267725,-995.924147,8364.327145
1110.310194,-962.267725,-2221.676944,9696.697840
1110.310524,-814.226536,-1532.190996,11695.253884
1110.310854,-1850.514855,-612.876398,11769.274478
1110.311183,-2516.700203,842.705048,10881.027347
1110.311513,-2960.823768,1991.848295,11547.212695
1110.311842,-2294.638420,1455.581446,12953.603985
1110.312172,-1850.514855,1608.800546,12731.542202
1110.312502,-1258.350101,1072.533697,11621.233289
1110.312831,-296.082377,1532.190996,10288.862594
1110.313161,-296.082377,2068.457845,9030.512492
1110.313491,-592.164754,383.047749,9474.636058
1110.313820,-518.144159,306.438199,9474.636058
1110.314150,-1332.370696,1378.971896,9918.759623
1110.314479,-2146.597232,3524.039291,9770.718434
1110.314809,-2368.659014,4136.915689,8364.327145
1110.315139,-1628.453072,1072.533697,7328.038826
1110.315468,0.000000,-383.047749,6661.853478
1110.315798,222.061783,-459.657299,6513.812290
1110.316128,-444.123565,1608.800546,7105.977043
1110.316457,-2220.617826,2987.772442,6513.812290
1110.316787,-2738.761985,1915.238745,6143.709319
1110.317116,-1110.308913,1072.533697,7846.182985
1110.317446,-370.102971,1072.533697,9918.759623
1110.317776,-962.267725,2068.457845,9696.697840
1110.318105,-1628.453072,1608.800546,8808.450710
1110.318435,-2368.659014,76.609550,8364.327145
1110.318764,-1998.556043,383.047749,10140.821405
1110.319094,-1480.411884,459.657299,11325.150913
1110.319424,-1036.288319,995.924147,11399.171507
1110.319753,-1554.432478,1991.848295,9474.636058
1110.320083,-1332.370696,919.314598,8660.409521
1110.320413,1332.370696,-1302.362347,9326.594869
1110.320742,2294.638420,-1685.410096,11103.089130
1110.321072,740.205942,1149.143247,12287.418637
1110.321401,-1628.453072,3983.696590,11917.315666
1110.321731,-2368.659014,2604.724693,11325.150913
1110.322061,-740.205942,306.438199,10732.986159
1110.322390,888.247130,-766.095498,11473.192101
1110.322720,592.164754,0.000000,11103.089130
1110.323050,-814.226536,1225.752797,9030.512492
1110.323379,-814.226536,919.314598,8734.430116
1110.323709,-444.123565,306.438199,9770.718434
1110.324038,-1554.432478,229.828649,10807.006753
1110.324368,-2812.782580,919.314598,10807.006753
1110.324698,-3404.947333,1378.971896,9622.677246
1110.325027,-2812.782580,919.314598,9252.574275
1110.325357,-2294.638420,1225.752797,8956.491898
1110.325687,-1406.391290,766.095498,8438.347739
1110.326016,-740.205942,-229.828649,8586.388927
1110.326346,-1702.473667,1302.362347,8068.244768
1110.326675,-2368.659014,2604.724693,7698.141797
1110.327005,-1406.391290,1378.971896,6513.812290
1110.327335,-962.267725,-1608.800546,7328.038826
1110.327664,-740.205942,-1225.752797,9030.512492
1110.327994,-1554.432478,1991.848295,9918.759623
1110.328323,-2442.679609,2374.896044,9178.553681
1110.328653,-2220.617826,306.438199,7328.038826
1110.328983,-1184.329507,-612.876398,7772.162391
1110.329312,148.041188,-1302.362347,9696.697840
1110.329642,518.144159,1072.533697,10140.821405
1110.329972,0.000000,2145.067394,8882.471304
1110.330301,592.164754,1991.848295,7624.121203
1110.330631,1110.308913,-76.609550,8882.471304
1110.330960,1332.370696,-689.485948,12139.377449
1110.331290,-296.082377,1149.143247,12731.542202
1110.331620,-2886.803174,1762.019645,11177.109724
1110.331949,-2812.782580,-689.485948,10288.862594
1110.332279,-1554.432478,-2834.553343,11251.130318
1110.332609,-888.247130,-2834.553343,13027.624579
1110.332938,-2072.576638,-153.219100,11917.315666
1110.333268,-2590.720797,1072.533697,10140.821405
1110.333597,-1850.514855,536.266849,9400.615463
1110.333927,-592.164754,689.485948,10584.944971
1110.334257,-296.082377,612.876398,12213.398043
1110.334586,-592.164754,2145.067394,11103.089130
1110.334916,-1554.432478,3064.381992,8956.491898
1110.335245,-1258.350101,2451.505594,7846.182985
1110.335575,-666.185348,-153.219100,6883.915261
1110.335905,222.061783,-3677.258390,6883.915261
1110.336234,518.144159,-3830.477490,6809.894666
1110.336564,-1554.432478,-995.924147,5847.626942
1110.336894,-1628.453072,-842.705048,5847.626942
1110.337223,-296.082377,-3600.648841,7105.977043
1110.337553,444.123565,-3830.477490,9326.594869
1110.337882,-1110.308913,-1991.848295,10881.027347
1110.338212,-2812.782580,1302.362347,12139.377449
1110.338542,-3108.864956,2681.334243,11621.233289
1110.338871,-2960.823768,306.438199,9622.677246
1110.339201,-962.267725,-3830.477490,8882.471304
1110.339531,444.123565,-4749.792088,8956.491898
1110.339860,592.164754,-2911.162892,9548.656652
1110.340190,-814.226536,-689.485948,8290.306550
1110.340519,-1258.350101,-2757.943793,6735.874072
1110.340849,-148.041188,-6971.469032,7846.182985
1110.341179,888.247130,-6128.763984,11325.150913
1110.341508,-222.061783,-3294.210641,14211.954086
1110.341838,-2590.720797,-306.438199,14508.036463
1110.342168,-4145.153275,459.657299,12953.603985
1110.342497,-3182.885551,-1991.848295,12509.480420
1110.342827,-370.102971,-2834.553343,12361.439231
1110.343156,2072.576638,-3600.648841,11621.233289
1110.343486,1406.391290,-1762.019645,9326.594869
1110.343816,74.020594,-1991.848295,6365.771101
1110.344145,-740.205942,-3983.696590,5921.647536
1110.344475,444.123565,-4290.134789,7994.224174
1110.344804,0.000000,-3217.601092,9844.739029
1110.345134,-740.205942,-1532.190996,11399.171507
1110.345464,-2738.761985,-153.219100,11843.295072
1110.345793,-4441.235652,-1455.581446,12509.480420
1110.346123,-5033.400406,-766.095498,12435.459826
1110.346453,-3849.070898,689.485948,10807.006753
1110.346782,-1628.453072,306.438199,8586.388927
1110.347112,518.144159,-1378.971896,6661.853478
1110.347441,370.102971,-3064.381992,4737.318029
1110.347771,-370.102971,-3217.601092,3108.864956
1110.348101,-444.123565,-3140.991542,2886.803174
1110.348430,962.267725,-2834.553343,4737.318029
1110.348760,2072.576638,-1915.238745,7698.141797
1110.349090,1184.329507,-3217.601092,10955.047942
1110.349419,-962.267725,-2987.772442,12509.480420
1110.349749,-3701.029710,-1225.752797,13619.789333
1110.350078,-4367.215058,1149.143247,15396.283594
1110.350408,-4515.256246,3140.991542,15174.221811
1110.350738,-3404.947333,1838.629195,12731.542202
1110.351067,-592.164754,-1838.629195,9030.512492
1110.351397,1702.473667,-4596.572988,5329.482782
1110.351727,2812.782580,-3294.210641,2812.782580
1110.352056,3256.906145,-2681.334243,3478.967927
1110.352386,2368.659014,-4366.744339,6439.791695
1110.352715,0.000000,-2451.505594,9474.636058
1110.353045,-2072.576638,-536.266849,11991.336260
1110.353375,-2442.679609,-1302.362347,13323.706956
1110.353704,-2368.659014,-2757.943793,13915.871710
1110.354034,-3478.967927,-3600.648841,15692.365970
1110.354363,-4515.256246,-2451.505594,16876.695478
1110.354693,-5921.647536,-229.828649,15470.304188
1110.355023,-5625.565159,306.438199,11177.109724
1110.355352,-2516.700203,-1072.533697,7105.977043
1110.355682,1776.494261,-3983.696590,4737.318029
1110.356012,4959.379811,-4903.011187,3849.070898
1110.356341,5699.585753,-3677.258390,3478.967927
1110.356671,4663.297435,-1455.581446,3627.009116
1110.357000,2368.659014,-612.876398,7402.059420
1110.357330,-592.164754,1378.971896,13619.789333
1110.357660,-3552.988522,3753.867940,16506.592507
1110.357989,-4737.318029,2145.067394,15322.262999
1110.358319,-4071.132681,-1302.362347,13767.830521
1110.358649,-2812.782580,-2911.162892,11917.315666
1110.358978,-3034.844362,-3830.477490,10214.842000
1110.359308,-2738.761985,-3753.867940,7179.997637
1110.359637,-1924.535449,-2145.067394,4885.359217
1110.359967,-592.164754,-689.485948,3256.906145
1110.360297,814.226536,-1685.410096,2146.597232
1110.360626,2442.679609,-2374.896044,1776.494261
1110.360956,2960.823768,-3524.039291,2516.700203
1110.361285,2664.741391,-2911.162892,5625.565159
1110.361615,444.123565,-1072.533697,10510.924376
1110.361945,-2516.700203,-153.219100,15026.180623
1110.362274,-5699.585753,0.000000,18357.107362
1110.362604,-7105.977043,995.924147,19689.478057
1110.362934,-6957.935855,1455.581446,17690.922014
1110.363263,-4737.318029,-1072.533697,12731.542202
1110.363593,-1702.473667,-4673.182538,7328.038826
1110.363922,1850.514855,-6741.640382,4589.276840
1110.364252,3701.029710,-6128.763984,3552.988522
1110.364582,4219.173869,-3600.648841,4219.173869
1110.364911,3627.009116,-1991.848295,5625.565159
1110.365241,1480.411884,-1685.410096,7846.182985
1110.365571,-370.102971,-1532.190996,11991.336260
1110.365900,-1036.288319,-612.876398,15396.283594
1110.366230,-2368.659014,-1378.971896,15840.407159
1110.366559,-2960.823768,-1991.848295,14285.974681
1110.366889,-2960.823768,-3677.258390,13027.624579
1110.367219,-2220.617826,-5745.716235,12139.377449
1110.367548,-1554.432478,-4826.401637,10881.027347
1110.367878,-1628.453072,-3524.039291,8660.409521
1110.368208,-962.267725,-1685.410096,6957.935855
1110.368537,0.000000,-2451.505594,6513.812290
1110.368867,592.164754,-3830.477490,7105.977043
1110.369196,-518.144159,-3217.601092,8142.265362
1110.369526,-2664.741391,-1838.629195,8882.471304
1110.369856,-3701.029710,-612.876398,10066.800811
1110.370185,-3182.885551,-1608.800546,11325.150913
1110.370515,-1850.514855,-3370.820191,11325.150913
1110.370844,222.061783,-4443.353888,9474.636058
1110.371174,962.267725,-4749.792088,7920.203579
1110.371504,1628.453072,-3217.601092,7179.997637
1110.371833,1924.535449,-1991.848295,7624.121203
1110.372163,1628.453072,-1455.581446,8364.327145
1110.372493,1036.288319,-612.876398,9696.697840
1110.372822,0.000000,995.924147,10510.924376
1110.373152,-1258.350101,1378.971896,10436.903782
1110.373481,-1924.535449,76.609550,10066.800811
1110.373811,-1998.556043,-1991.848295,9548.656652
1110.374141,-1776.494261,-2451.505594,9400.615463
1110.374470,-1998.556043,-2834.553343,9548.656652
1110.374800,-1850.514855,-2528.115143,8512.368333
1110.375130,-1924.535449,-2911.162892,7624.121203
1110.375459,-1776.494261,-3677.258390,8586.388927
1110.375789,-1998.556043,-2604.724693,9844.739029
1110.376118,-2738.761985,-1378.971896,9770.718434
1110.376448,-1924.535449,-766.095498,10584.944971
1110.376778,-1702.473667,-383.047749,11473.192101
1110.377107,-1480.411884,0.000000,12805.562797
1110.377437,-814.226536,383.047749,13545.768739
1110.377766,-1184.329507,1455.581446,12361.439231
1110.378096,-370.102971,2681.334243,10510.924376
1110.378426,444.123565,1302.362347,8142.265362
1110.378755,2294.638420,-2221.676944,5995.668130
1110.379085,3775.050304,-4826.401637,4737.318029
1110.379415,3330.926739,-4903.011187,5329.482782
1110.379744,1036.288319,-2987.772442,7254.018232
1110.380074,-1850.514855,-1608.800546,9696.697840
1110.380403,-3256.906145,-1915.238745,12139.377449
1110.380733,-3849.070898,-1072.533697,13693.809927
1110.381063,-3404.947333,-229.828649,13989.892304
1110.381392,-2664.741391,-383.047749,12731.542202
1110.381722,-2590.720797,-1149.143247,10362.883188
1110.382052,-2368.659014,-1378.971896,9178.553681
1110.382381,-1554.432478,-1072.533697,8068.244768
1110.382711,-296.082377,-919.314598,7476.080014
1110.383040,148.041188,-1149.143247,6513.812290
1110.383370,-148.041188,-2911.162892,4811.338623
1110.383700,-370.102971,-4979.620737,5107.421000
1110.384029,-740.205942,-6128.763984,6957.935855
1110.384359,-1036.288319,-5209.449386,9622.677246
1110.384689,-1628.453072,-4060.306139,11843.295072
1110.385018,-1850.514855,-2834.553343,13027.624579
1110.385348,-1924.535449,-2528.115143,13693.809927
1110.385677,-1850.514855,-1915.238745,13841.851115
1110.386007,-888.247130,-1685.410096,12509.480420
1110.386337,222.061783,-1915.238745,10955.047942
1110.386666,740.205942,-1532.190996,9326.594869
1110.386996,296.082377,-2451.505594,8660.409521
1110.387325,-296.082377,-3753.867940,8290.306550
1110.387655,-1332.370696,-4366.744339,7328.038826
1110.387985,-1998.556043,-4519.963438,7105.977043
1110.388314,-2368.659014,-4290.134789,7846.182985
1110.388644,-1554.432478,-4290.134789,9030.512492
1110.388974,-740.205942,-4903.011187,9622.677246
1110.389303,-296.082377,-5822.325785,9696.697840
1110.389633,-666.185348,-4979.620737,10584.944971
1110.389962,-1850.514855,-2987.772442,12139.377449
1110.390292,-2516.700203,-1149.143247,12953.603985
1110.390622,-2738.761985,-1991.848295,12953.603985
1110.390951,-2738.761985,-2221.676944,11917.315666
1110.391281,-2220.617826,-2451.505594,10658.965565
1110.391611,-1258.350101,-2834.553343,9622.677246
1110.391940,-444.123565,-2451.505594,8142.265362
1110.392270,-296.082377,-1685.410096,7476.080014
1110.392599,370.102971,-229.828649,7698.141797
1110.392929,444.123565,76.609550,8438.347739
1110.393259,370.102971,689.485948,8660.409521
1110.393588,444.123565,459.657299,8660.409521
1110.393918,-518.144159,-1072.533697,9252.574275
1110.394248,-2146.597232,-1225.752797,10288.862594
1110.394577,-4293.194464,-1072.533697,11325.150913
1110.394907,-5107.421000,-536.266849,12065.356855
1110.395236,-5699.585753,-689.485948,11621.233289
1110.395566,-5477.523971,-612.876398,10658.965565
1110.395896,-5181.441594,0.000000,9252.574275
1110.396225,-4293.194464,229.828649,8068.244768
1110.396555,-2516.700203,1072.533697,7179.997637
1110.396884,-1406.391290,1608.800546,6809.894666
1110.397214,-740.205942,1685.410096,6587.832884
1110.397544,-518.144159,1608.800546,7031.956449
1110.397873,-1406.391290,1532.190996,8216.285956
1110.398203,-2146.597232,1225.752797,9548.656652
1110.398533,-3627.009116,1149.143247,10955.047942
1110.398862,-5477.523971,689.485948,11251.130318
1110.399192,-6883.915261,0.000000,12065.356855
1110.399521,-7254.018232,-383.047749,11473.192101
1110.399851,-6587.832884,-153.219100,9918.759623
1110.400181,-4737.318029,-612.876398,7846.182985
1110.400510,-2516.700203,-612.876398,6217.729913
1110.400840,-1406.391290,-459.657299,6587.832884
1110.401169,-888.247130,229.828649,7105.977043
1110.401499,-1406.391290,995.924147,8216.285956
1110.401828,-2664.741391,1762.019645,9326.594869
1110.402158,-4515.256246,1838.629195,10955.047942
1110.402488,-5773.606348,1608.800546,12731.542202
1110.402817,-6291.750507,383.047749,13545.768739
1110.403147,-6809.894666,-153.219100,13397.727550
1110.403476,-6365.771101,-459.657299,12287.418637
1110.403806,-5403.503377,-612.876398,11251.130318
1110.404135,-3997.112087,-536.266849,10066.800811
1110.404465,-2812.782580,-919.314598,8512.368333
1110.404795,-2590.720797,-995.924147,7105.977043
1110.405124,-2886.803174,-689.485948,6735.874072
1110.405454,-3108.864956,-689.485948,7920.203579
1110.405783,-3849.070898,-995.924147,9104.533087
1110.406113,-4737.318029,-1915.238745,9104.533087
1110.406443,-5699.585753,-1762.019645,9622.677246
1110.406772,-6291.750507,-1838.629195,10510.924376
1110.407102,-6217.729913,-1149.143247,11399.171507
1110.407431,-5403.503377,0.000000,11547.212695
1110.407761,-3627.009116,842.705048,10732.986159
1110.408090,-2960.823768,2911.162892,9474.636058
1110.408420,-1628.453072,3370.820191,8808.450710
1110.408750,-296.082377,3294.210641,7920.203579
1110.409079,-222.061783,2681.334243,7550.100608
1110.409409,-1184.329507,1685.410096,7698.141797
1110.409738,-2442.679609,306.438199,8438.347739
1110.410068,-4885.359217,-536.266849,9474.636058
1110.410397,-6883.915261,-1378.971896,10584.944971
1110.410727,-8512.368333,-1991.848295,11251.130318
1110.411057,-8586.388927,-2221.676944,11103.089130
1110.411386,-7179.997637,-612.876398,12065.356855
1110.411716,-5403.503377,1532.190996,11325.150913
1110.412045,-3478.967927,2987.772442,9844.739029
1110.412375,-1110.308913,3294.210641,7994.224174
1110.412704,1036.288319,3907.087040,6809.894666
1110.413034,1776.494261,4443.353888,6291.750507
1110.413364,592.164754,3830.477490,6587.832884
1110.413693,-1184.329507,2451.505594,7772.162391
1110.414023,-3997.112087,1378.971896,8956.491898
1110.414352,-6661.853478,612.876398,10140.821405
1110.414682,-7846.182985,0.000000,11177.109724
1110.415011,-7698.141797,-1225.752797,11029.068536
1110.415341,-6661.853478,-229.828649,11029.068536
1110.415671,-4737.318029,1072.533697,10807.006753
1110.416000,-3330.926739,2528.115143,10140.821405
1110.416330,-1998.556043,3830.477490,9474.636058
1110.416659,-1554.432478,4903.011187,8364.327145
1110.416989,-1554.432478,4290.134789,8586.388927
1110.417319,-2368.659014,3447.429741,8660.409521
1110.417648,-3923.091493,1762.019645,8290.306550
1110.417978,-5329.482782,-1072.533697,8364.327145
1110.418307,-6439.791695,-2834.553343,8660.409521
1110.418637,-7254.018232,-2834.553343,10288.862594
1110.418966,-7328.038826,-2221.676944,11621.233289
1110.419296,-7031.956449,-1149.143247,11473.192101
1110.419626,-5329.482782,1149.143247,10732.986159
1110.419955,-2886.803174,3370.820191,10288.862594
1110.420285,0.000000,4903.011187,10288.862594
1110.420614,2220.617826,5286.058936,9474.636058
1110.420944,2442.679609,5056.230287,8512.368333
1110.421273,1110.308913,4060.306139,8586.388927
1110.421603,-1628.453072,2374.896044,8956.491898
1110.421933,-4737.318029,-153.219100,9400.615463
1110.422262,-7772.162391,-2374.896044,9400.615463
1110.422592,-9474.636058,-4060.306139,9622.677246
1110.422921,-10066.800811,-4749.792088,10066.800811
1110.423251,-9178.553681,-4443.353888,9696.697840
1110.423580,-7254.018232,-3140.991542,8438.347739
1110.423910,-4959.379811,-1302.362347,7476.080014
1110.424240,-1924.535449,995.924147,7328.038826
1110.424569,740.205942,4136.915689,8512.368333
1110.424899,2738.761985,5898.935335,9696.697840
1110.425228,2220.617826,6205.373534,9178.553681
1110.425558,-444.123565,4903.011187,8660.409521
1110.425887,-3701.029710,2528.115143,10140.821405
1110.426217,-6957.935855,383.047749,12287.418637
1110.426547,-9992.780217,-536.266849,13175.665768
1110.426876,-11177.109724,-2528.115143,11991.336260
1110.427206,-10881.027347,-3753.867940,9992.780217
1110.427535,-7698.141797,-4443.353888,9030.512492
1110.427865,-2738.761985,-2528.115143,9178.553681
1110.428195,2072.576638,383.047749,8586.388927
1110.428524,4293.194464,4596.572988,7254.018232
1110.428854,4219.173869,7201.297681,6957.935855
1110.429183,3256.906145,7584.345430,8956.491898
1110.429513,370.102971,7890.783629,11029.068536
1110.429842,-3256.906145,6818.249932,12213.398043
1110.430172,-7994.224174,3140.991542,11547.212695
1110.430502,-11473.192101,-766.095498,10658.965565
