#time,accel_x,accel_y,accel_z
1011.431839,-1184.329507,995.924147,9622.677246
1011.432169,-1184.329507,766.095498,9548.656652
1011.432498,-962.267725,1225.752797,9474.636058
1011.432828,-1036.288319,689.485948,9548.656652
1011.433157,-1184.329507,1072.533697,9548.656652
1011.433487,-1184.329507,842.705048,9548.656652
1011.433817,-1110.308913,1072.533697,9474.636058
1011.434146,-1110.308913,1608.800546,9844.739029
1011.434476,-444.123565,842.705048,9770.718434
1011.434805,-888.247130,995.924147,9622.677246
1011.435135,-1036.288319,919.314598,9474.636058
1011.435464,-1036.288319,919.314598,9474.636058
1011.435794,-888.247130,1378.971896,9770.718434
1011.436124,-666.185348,919.314598,9326.594869
1011.436453,-888.247130,919.314598,9548.656652
1011.436783,-1036.288319,766.095498,9474.636058
1011.437112,-962.267725,1072.533697,9400.615463
1011.437442,-1036.288319,689.485948,9474.636058
1011.437772,-1110.308913,536.266849,9326.594869
1011.438101,-1258.350101,1072.533697,9474.636058
1011.438431,-1184.329507,766.095498,9622.677246
1011.438760,-888.247130,842.705048,9622.677246
1011.439090,-1110.308913,1072.533697,9474.636058
1011.439419,-962.267725,689.485948,9474.636058
1011.439749,-888.247130,766.095498,9474.636058
1011.440079,-888.247130,919.314598,9696.697840
1011.440408,-1036.288319,919.314598,9622.677246
1011.440738,-1184.329507,995.924147,9548.656652
1011.441067,-888.247130,1149.143247,9548.656652
1011.441397,-888.247130,766.095498,9474.636058
1011.441726,-1184.329507,766.095498,9622.677246
1011.442056,-1184.329507,919.314598,9474.636058
1011.442386,-962.267725,919.314598,9622.677246
1011.442715,-1110.308913,689.485948,9622.677246
1011.443045,-1184.329507,1378.971896,9474.636058
1011.443374,-1036.288319,995.924147,9622.677246
1011.443704,-962.267725,919.314598,9548.656652
1011.444034,-888.247130,919.314598,9696.697840
1011.444363,-962.267725,766.095498,9474.636058
1011.444693,-1332.370696,1455.581446,9326.594869
1011.445022,-1184.329507,995.924147,9548.656652
1011.445352,-1184.329507,1072.533697,9474.636058
1011.445681,-962.267725,995.924147,9474.636058
1011.446011,-1036.288319,1149.143247,9474.636058
1011.446341,-1332.370696,842.705048,9548.656652
1011.446670,-962.267725,1149.143247,9474.636058
1011.447000,-962.267725,919.314598,9474.636058
1011.447329,-1036.288319,919.314598,9400.615463
1011.447659,-1184.329507,919.314598,9326.594869
1011.447989,-1036.288319,995.924147,9178.553681
1011.448318,-814.226536,919.314598,9696.697840
1011.448648,-1184.329507,995.924147,9474.636058
1011.448977,-1036.288319,919.314598,9696.697840
1011.449307,-962.267725,919.314598,9548.656652
1011.449636,-1184.329507,919.314598,9548.656652
1011.449966,-1406.391290,995.924147,9104.533087
1011.450296,-1110.308913,1378.971896,9474.636058
1011.450625,-1036.288319,612.876398,9770.718434
1011.450955,-814.226536,766.095498,9474.636058
1011.451284,-962.267725,1072.533697,9548.656652
1011.451614,-962.267725,1072.533697,9474.636058
1011.451944,-1184.329507,306.438199,9474.636058
1011.452273,-962.267725,842.705048,9400.615463
1011.452603,-370.102971,842.705048,9178.553681
1011.452932,296.082377,612.876398,9104.533087
1011.453262,1036.288319,689.485948,9104.533087
1011.453591,1036.288319,689.485948,9104.533087
1011.453921,740.205942,766.095498,9400.615463
1011.454251,0.000000,1072.533697,10288.862594
1011.454580,-592.164754,1149.143247,10362.883188
1011.454910,-814.226536,1149.143247,10436.903782
1011.455239,-222.061783,229.828649,10214.842000
1011.455569,74.020594,-306.438199,9770.718434
1011.455899,666.185348,0.000000,9400.615463
1011.456228,1628.453072,76.609550,9178.553681
1011.456558,2368.659014,612.876398,8808.450710
1011.456887,3256.906145,766.095498,8290.306550
1011.457217,3108.864956,1685.410096,8956.491898
1011.457546,3552.988522,2068.457845,9474.636058
1011.457876,3478.967927,1838.629195,9770.718434
1011.458206,2590.720797,1072.533697,10140.821405
1011.458535,1924.535449,766.095498,10214.842000
1011.458865,1480.411884,995.924147,10658.965565
1011.459194,1554.432478,153.219100,10881.027347
1011.459524,1628.453072,0.000000,10362.883188
1011.459853,2146.597232,153.219100,9548.656652
1011.460183,3034.844362,-536.266849,9252.574275
1011.460513,4441.235652,-76.609550,8882.471304
1011.460842,4663.297435,1072.533697,8956.491898
1011.461172,4441.235652,2451.505594,9696.697840
1011.461501,3256.906145,3064.381992,10140.821405
1011.461831,1924.535449,3064.381992,10584.944971
1011.462161,222.061783,2911.162892,10807.006753
1011.462490,-1628.453072,2068.457845,10140.821405
1011.462820,-2146.597232,1149.143247,9474.636058
1011.463149,-1110.308913,-536.266849,8142.265362
1011.463479,296.082377,-1532.190996,6957.935855
1011.463808,1924.535449,-1455.581446,6513.812290
1011.464138,3701.029710,-536.266849,6513.812290
1011.464468,4071.132681,842.705048,7402.059420
1011.464797,3701.029710,2987.772442,9474.636058
1011.465127,2590.720797,4213.525239,11029.068536
1011.465456,1702.473667,4749.792088,12361.439231
1011.465786,444.123565,3524.039291,12657.521608
1011.466116,-296.082377,1685.410096,12731.542202
1011.466445,-1406.391290,0.000000,12139.377449
1011.466775,-1554.432478,-1302.362347,11103.089130
1011.467104,-592.164754,-2374.896044,9696.697840
1011.467434,1184.329507,-2604.724693,8216.285956
1011.467763,2442.679609,-1838.629195,7550.100608
1011.468093,4145.153275,-612.876398,6957.935855
1011.468423,4589.276840,995.924147,6661.853478
1011.468752,4663.297435,2681.334243,7476.080014
1011.469082,4145.153275,3830.477490,8734.430116
1011.469411,3256.906145,3830.477490,10214.842000
1011.469741,2072.576638,3753.867940,11177.109724
1011.470071,1110.308913,2528.115143,11473.192101
1011.470400,370.102971,766.095498,11473.192101
1011.470730,-370.102971,-766.095498,11103.089130
1011.471059,-666.185348,-1915.238745,10436.903782
1011.471389,-666.185348,-1915.238745,10510.924376
1011.471718,-296.082377,-1378.971896,10288.862594
1011.472048,592.164754,-612.876398,9696.697840
1011.472378,1628.453072,459.657299,9178.553681
1011.472707,2812.782580,995.924147,8290.306550
1011.473037,3849.070898,995.924147,8068.244768
1011.473366,4885.359217,1378.971896,8290.306550
1011.473696,5033.400406,1302.362347,8142.265362
1011.474026,4441.235652,1072.533697,8882.471304
1011.474355,3552.988522,1532.190996,9252.574275
1011.474685,2590.720797,1455.581446,10214.842000
1011.475014,1332.370696,1608.800546,10584.944971
1011.475344,962.267725,1608.800546,10881.027347
1011.475673,1036.288319,1455.581446,10436.903782
1011.476003,1184.329507,1149.143247,9696.697840
1011.476333,1776.494261,995.924147,8660.409521
1011.476662,2072.576638,689.485948,7994.224174
1011.476992,2664.741391,612.876398,8142.265362
1011.477321,2368.659014,919.314598,8364.327145
1011.477651,1850.514855,1302.362347,8956.491898
1011.477980,1110.308913,1149.143247,9400.615463
1011.478310,74.020594,919.314598,10066.800811
1011.478640,-888.247130,383.047749,10807.006753
1011.478969,-1258.350101,229.828649,11695.253884
1011.479299,-1184.329507,0.000000,11843.295072
1011.479628,-814.226536,0.000000,11621.233289
1011.479958,-666.185348,995.924147,10362.883188
1011.480288,888.247130,153.219100,9030.512492
1011.480617,2960.823768,229.828649,8364.327145
1011.480947,5255.462188,1762.019645,7920.203579
1011.481276,7476.080014,2911.162892,7698.141797
1011.481606,8808.450710,2911.162892,7772.162391
1011.481935,8438.347739,3447.429741,8660.409521
1011.482265,6735.874072,4749.792088,9622.677246
1011.482595,4441.235652,5056.230287,10955.047942
1011.482924,1776.494261,3600.648841,12361.439231
1011.483254,-1406.391290,1991.848295,13545.768739
1011.483583,-4737.318029,-229.828649,13101.645173
1011.483913,-7328.038826,-1532.190996,12065.356855
1011.484243,-7624.121203,-2528.115143,10510.924376
1011.484572,-5847.626942,-2604.724693,7550.100608
1011.484902,-1628.453072,-3370.820191,4293.194464
1011.485231,3701.029710,-4060.306139,1924.535449
1011.485561,8660.409521,-2681.334243,1998.556043
1011.485890,10214.842000,1225.752797,4441.235652
1011.486220,9326.594869,6128.763984,7179.997637
1011.486550,7550.100608,8427.050478,10510.924376
1011.486879,5329.482782,9576.193725,13323.706956
1011.487209,1480.411884,8273.831378,15692.365970
1011.487538,-2146.597232,4213.525239,16580.613101
1011.487868,-4589.276840,0.000000,15914.427753
1011.488198,-5699.585753,-2451.505594,14063.912898
1011.488527,-4145.153275,-4596.572988,11103.089130
1011.488857,-592.164754,-7048.078582,8438.347739
1011.489186,3627.009116,-7201.297681,4959.379811
1011.489516,7624.121203,-3830.477490,2368.659014
1011.489845,10658.965565,-1532.190996,3108.864956
1011.490175,11769.274478,2451.505594,6513.812290
1011.490505,8290.306550,6894.859482,10140.821405
1011.490834,2886.803174,9116.536426,12509.480420
1011.491164,-1850.514855,8427.050478,14211.954086
1011.491493,-3997.112087,4903.011187,15174.221811
1011.491823,-4367.215058,842.705048,13693.809927
1011.492153,-3923.091493,-3830.477490,9992.780217
1011.492482,-2738.761985,-6435.202183,6587.832884
1011.492812,222.061783,-7507.735880,4663.297435
1011.493141,2220.617826,-6741.640382,6069.688724
1011.493471,1702.473667,-1762.019645,7476.080014
1011.493800,370.102971,2911.162892,8512.368333
1011.494130,0.000000,4979.620737,10066.800811
1011.494460,1258.350101,7431.126331,11769.274478
1011.494789,1628.453072,6205.373534,12435.459826
1011.495119,1184.329507,2451.505594,11769.274478
1011.495448,-148.041188,-766.095498,10658.965565
1011.495778,-1332.370696,-1685.410096,11251.130318
1011.496108,-2960.823768,-2451.505594,11177.109724
1011.496437,-4293.194464,-3064.381992,9474.636058
1011.496767,-3997.112087,-3524.039291,6883.915261
1011.497096,-1184.329507,-3753.867940,5625.565159
1011.497426,3108.864956,-1991.848295,7254.018232
1011.497755,5551.544565,1532.190996,8956.491898
1011.498085,4959.379811,4903.011187,9104.533087
1011.498415,2812.782580,6281.983084,9104.533087
1011.498744,888.247130,6511.811733,11251.130318
1011.499074,-1036.288319,5975.544884,13323.706956
1011.499403,-3775.050304,3907.087040,14211.954086
1011.499733,-6217.729913,1685.410096,12879.583391
1011.500062,-7328.038826,-1149.143247,11029.068536
1011.500392,-6735.874072,-3524.039291,8882.471304
1011.500722,-4219.173869,-5132.839837,6365.771101
1011.501051,-1332.370696,-5669.106685,5033.400406
1011.501381,148.041188,-2757.943793,6217.729913
1011.501710,592.164754,1608.800546,8068.244768
1011.502040,444.123565,4979.620737,9252.574275
1011.502369,962.267725,5669.106685,8882.471304
1011.502699,2220.617826,5898.935335,9030.512492
1011.503028,3034.844362,5056.230287,10362.883188
1011.503358,3404.947333,4136.915689,11621.233289
1011.503687,3034.844362,2681.334243,11029.068536
1011.504017,1480.411884,1455.581446,9770.718434
1011.504346,-962.267725,459.657299,9326.594869
1011.504676,-2960.823768,995.924147,10140.821405
1011.505006,-3552.988522,1838.629195,10214.842000
1011.505335,-3182.885551,1532.190996,9178.553681
1011.505665,-2812.782580,919.314598,8216.285956
1011.505994,-1850.514855,1072.533697,6809.894666
1011.506324,-222.061783,0.000000,6365.771101
1011.506653,444.123565,0.000000,7105.977043
1011.506983,-592.164754,459.657299,8660.409521
1011.507312,-2368.659014,1915.238745,9770.718434
1011.507642,-3256.906145,1762.019645,10066.800811
1011.507971,-3034.844362,1149.143247,9696.697840
1011.508301,-2146.597232,536.266849,10214.842000
1011.508630,518.144159,-229.828649,10066.800811
1011.508960,2812.782580,-536.266849,9696.697840
1011.509289,3404.947333,153.219100,9918.759623
1011.509619,2738.761985,1378.971896,9992.780217
1011.509949,814.226536,3294.210641,10955.047942
1011.510278,-888.247130,3830.477490,11177.109724
1011.510608,-1554.432478,2374.896044,11103.089130
1011.510937,-1850.514855,919.314598,11103.089130
1011.511267,-1406.391290,0.000000,10214.842000
1011.511596,-370.102971,-1762.019645,9548.656652
1011.511926,-1628.453072,-3294.210641,8734.430116
1011.512255,-4589.276840,-3140.991542,8068.244768
1011.512585,-6365.771101,-2145.067394,8808.450710
1011.512914,-4959.379811,-1685.410096,11029.068536
1011.513244,-2738.761985,76.609550,11917.315666
1011.513573,-2368.659014,1608.800546,9252.574275
1011.513903,-518.144159,76.609550,6661.853478
1011.514232,2516.700203,-1072.533697,6957.935855
1011.514562,4071.132681,995.924147,9622.677246
1011.514891,1776.494261,3294.210641,11621.233289
1011.515221,-2146.597232,4826.401637,13249.686362
1011.515551,-5033.400406,4213.525239,11991.336260
1011.515880,-4663.297435,1455.581446,11695.253884
1011.516210,-3256.906145,-1762.019645,11029.068536
1011.516539,-1776.494261,-1455.581446,9474.636058
1011.516869,-444.123565,-1915.238745,7920.203579
1011.517198,-222.061783,-1915.238745,7105.977043
1011.517528,-1406.391290,-306.438199,6957.935855
1011.517857,-2072.576638,1072.533697,7846.182985
1011.518187,-1776.494261,2451.505594,7846.182985
1011.518516,-296.082377,3370.820191,7476.080014
1011.518846,1480.411884,3600.648841,8438.347739
1011.519175,2886.803174,2145.067394,8808.450710
1011.519505,2738.761985,1685.410096,8808.450710
1011.519834,1184.329507,2068.457845,9696.697840
1011.520164,-666.185348,3140.991542,11103.089130
1011.520494,-2368.659014,4060.306139,12213.398043
1011.520823,-3627.009116,3600.648841,11695.253884
1011.521153,-3404.947333,1685.410096,10214.842000
1011.521482,-2516.700203,459.657299,8734.430116
1011.521812,-1036.288319,-153.219100,8142.265362
1011.522141,740.205942,-153.219100,7476.080014
1011.522471,1110.308913,459.657299,7476.080014
1011.522800,0.000000,1608.800546,7772.162391
1011.523130,-888.247130,1991.848295,8808.450710
1011.523459,-444.123565,1991.848295,9252.574275
1011.523789,1036.288319,2604.724693,9252.574275
1011.524118,1924.535449,1608.800546,9770.718434
1011.524448,2220.617826,1378.971896,9918.759623
1011.524777,2664.741391,1378.971896,9696.697840
1011.525107,2886.803174,1455.581446,9918.759623
1011.525436,2368.659014,1762.019645,11103.089130
1011.525766,148.041188,2451.505594,11769.274478
1011.526096,-1554.432478,2757.943793,11695.253884
1011.526425,-2368.659014,1838.629195,10807.006753
1011.526755,-2294.638420,919.314598,10288.862594
1011.527084,-2368.659014,-153.219100,9474.636058
1011.527414,-2442.679609,-919.314598,7698.141797
1011.527743,-2516.700203,-2298.286494,7994.224174
1011.528073,-3256.906145,-2145.067394,8142.265362
1011.528402,-4589.276840,-1072.533697,8216.285956
1011.528732,-5033.400406,-1532.190996,8512.368333
1011.529061,-3997.112087,-1072.533697,9992.780217
1011.529391,-3404.947333,0.000000,10066.800811
1011.529720,-2072.576638,1225.752797,9474.636058
1011.530050,740.205942,383.047749,8142.265362
1011.530379,2960.823768,-306.438199,8512.368333
1011.530709,3404.947333,536.266849,9622.677246
1011.531039,1184.329507,1378.971896,11695.253884
1011.531368,-1258.350101,3140.991542,12953.603985
1011.531698,-2664.741391,3907.087040,12287.418637
1011.532027,-2960.823768,1455.581446,11843.295072
1011.532357,-2664.741391,-1762.019645,11029.068536
1011.532686,-1554.432478,-2451.505594,9844.739029
1011.533016,-1406.391290,-2298.286494,8808.450710
1011.533345,-1998.556043,-1532.190996,8290.306550
1011.533675,-3330.926739,-842.705048,7698.141797
1011.534004,-3923.091493,-689.485948,7846.182985
1011.534334,-3034.844362,-459.657299,8068.244768
1011.534663,-1332.370696,1455.581446,8290.306550
1011.534993,1332.370696,2604.724693,8364.327145
1011.535322,2886.803174,1455.581446,7550.100608
1011.535652,2886.803174,1072.533697,8364.327145
1011.535981,518.144159,2757.943793,9696.697840
1011.536311,-2146.597232,4136.915689,11695.253884
1011.536641,-4219.173869,4213.525239,12805.562797
1011.536970,-4885.359217,3983.696590,12139.377449
1011.537300,-3997.112087,1532.190996,10584.944971
1011.537629,-1924.535449,-1762.019645,8512.368333
1011.537959,592.164754,-2681.334243,7179.997637
1011.538288,2146.597232,-1685.410096,6661.853478
1011.538618,1998.556043,0.000000,7698.141797
1011.538947,1184.329507,1532.190996,9252.574275
1011.539277,0.000000,3600.648841,10066.800811
1011.539606,370.102971,4903.011187,8808.450710
1011.539936,1924.535449,3983.696590,8512.368333
1011.540265,3701.029710,1915.238745,8586.388927
1011.540595,4441.235652,766.095498,8956.491898
1011.540924,3997.112087,1378.971896,9622.677246
1011.541254,2294.638420,2604.724693,10510.924376
1011.541583,-592.164754,3140.991542,11103.089130
1011.541913,-3256.906145,2987.772442,11843.295072
1011.542243,-3627.009116,2145.067394,11843.295072
1011.542572,-2886.803174,1149.143247,11029.068536
1011.542902,-2146.597232,995.924147,10288.862594
1011.543231,-2664.741391,612.876398,8142.265362
1011.543561,-3034.844362,-536.266849,7328.038826
1011.543890,-3256.906145,-1608.800546,7994.224174
1011.544220,-3775.050304,-1149.143247,8882.471304
1011.544549,-4589.276840,-153.219100,9104.533087
1011.544879,-4811.338623,0.000000,8956.491898
1011.545208,-3478.967927,-306.438199,8734.430116
1011.545538,-1776.494261,-536.266849,8438.347739
1011.545867,592.164754,-383.047749,8512.368333
1011.546197,2590.720797,536.266849,8956.491898
1011.546526,2590.720797,1838.629195,10214.842000
1011.546856,1628.453072,2528.115143,11769.274478
1011.547186,-888.247130,3447.429741,12435.459826
1011.547515,-2368.659014,3524.039291,12435.459826
1011.547845,-1998.556043,1838.629195,12361.439231
1011.548174,-2368.659014,0.000000,11473.192101
1011.548504,-2886.803174,-842.705048,9696.697840
1011.548833,-2738.761985,-2681.334243,8438.347739
1011.549163,-2516.700203,-3447.429741,7994.224174
1011.549492,-3552.988522,-1762.019645,8438.347739
1011.549822,-4737.318029,-153.219100,8216.285956
1011.550151,-4293.194464,229.828649,7179.997637
1011.550481,-2442.679609,229.828649,7476.080014
1011.550810,-1036.288319,842.705048,7624.121203
1011.551140,74.020594,766.095498,7402.059420
1011.551469,1628.453072,995.924147,8512.368333
1011.551799,2146.597232,1991.848295,9252.574275
1011.552128,814.226536,2374.896044,11103.089130
1011.552458,-1110.308913,2757.943793,12731.542202
1011.552788,-2590.720797,3524.039291,12361.439231
1011.553117,-2368.659014,3140.991542,11695.253884
1011.553447,-1258.350101,2374.896044,10881.027347
1011.553776,0.000000,766.095498,9252.574275
1011.554106,1702.473667,-536.266849,7846.182985
1011.554435,1850.514855,-1302.362347,6957.935855
1011.554765,74.020594,76.609550,7550.100608
1011.555094,-1036.288319,1915.238745,9104.533087
1011.555424,-1258.350101,1608.800546,9548.656652
1011.555753,-1036.288319,2145.067394,9178.553681
1011.556083,-296.082377,1838.629195,8290.306550
1011.556412,1332.370696,153.219100,8512.368333
1011.556742,2812.782580,76.609550,8512.368333
1011.557071,3034.844362,2145.067394,9104.533087
1011.557401,1480.411884,2681.334243,10807.006753
1011.557731,-1110.308913,3677.258390,12139.377449
1011.558060,-3330.926739,4290.134789,11917.315666
1011.558390,-3923.091493,2757.943793,11251.130318
1011.558719,-3404.947333,1225.752797,10807.006753
1011.559049,-2590.720797,1072.533697,10214.842000
1011.559378,-1850.514855,0.000000,8364.327145
1011.559708,-1702.473667,-1991.848295,7105.977043
1011.560037,-2442.679609,-1991.848295,7328.038826
1011.560367,-3701.029710,0.000000,8438.347739
1011.560696,-3552.988522,0.000000,8956.491898
1011.561026,-3182.885551,689.485948,9548.656652
1011.561355,-1702.473667,919.314598,8956.491898
1011.561685,518.144159,-612.876398,8586.388927
1011.562014,1850.514855,-1149.143247,8512.368333
1011.562344,2442.679609,1225.752797,9326.594869
1011.562673,2368.659014,2604.724693,10436.903782
1011.563003,518.144159,2681.334243,12065.356855
1011.563333,-1406.391290,3217.601092,12287.418637
1011.563662,-2516.700203,2681.334243,11325.150913
1011.563992,-2368.659014,842.705048,10732.986159
1011.564321,-2220.617826,-1225.752797,10881.027347
1011.564651,-1776.494261,-919.314598,10510.924376
1011.564980,-2368.659014,-1838.629195,9474.636058
1011.565310,-3552.988522,-1762.019645,8734.430116
1011.565639,-3997.112087,-229.828649,8586.388927
1011.565969,-3256.906145,76.609550,8438.347739
1011.566298,-2442.679609,-383.047749,7698.141797
1011.566628,-2368.659014,0.000000,7105.977043
1011.566957,-1998.556043,153.219100,7031.956449
1011.567287,-666.185348,0.000000,7920.203579
1011.567616,592.164754,-306.438199,9326.594869
1011.567946,0.000000,1838.629195,10214.842000
1011.568276,-1036.288319,1991.848295,11473.192101
1011.568605,-1332.370696,1991.848295,12065.356855
1011.568935,-740.205942,2681.334243,11621.233289
1011.569264,444.123565,2451.505594,10214.842000
1011.569594,222.061783,1225.752797,9548.656652
1011.569923,1036.288319,1608.800546,9992.780217
1011.570253,1924.535449,2221.676944,9696.697840
1011.570582,1184.329507,1608.800546,8586.388927
1011.570912,-444.123565,1378.971896,7179.997637
1011.571241,-1554.432478,1378.971896,7772.162391
1011.571571,-1258.350101,689.485948,8734.430116
1011.571900,-888.247130,536.266849,9474.636058
1011.572230,-1184.329507,1532.190996,8660.409521
1011.572559,-888.247130,1608.800546,7624.121203
1011.572889,518.144159,1149.143247,7476.080014
1011.573218,1480.411884,1149.143247,10066.800811
1011.573548,592.164754,2757.943793,11843.295072
1011.573878,-1924.535449,4749.792088,11769.274478
1011.574207,-3775.050304,4903.011187,11251.130318
1011.574537,-3552.988522,3217.601092,10955.047942
1011.574866,-2812.782580,1072.533697,11103.089130
1011.575196,-1702.473667,229.828649,10214.842000
1011.575525,-1184.329507,-689.485948,8660.409521
1011.575855,-1332.370696,-536.266849,8068.244768
1011.576184,-2072.576638,-306.438199,7550.100608
1011.576514,-2368.659014,153.219100,8290.306550
1011.576843,-1924.535449,0.000000,8882.471304
1011.577173,-1998.556043,1225.752797,8882.471304
1011.577502,-1406.391290,1685.410096,8956.491898
1011.577832,888.247130,229.828649,8660.409521
1011.578161,2368.659014,459.657299,8734.430116
1011.578491,2442.679609,1149.143247,9104.533087
1011.578820,666.185348,1991.848295,10066.800811
1011.579150,-1036.288319,2374.896044,11029.068536
1011.579480,-2590.720797,2221.676944,11547.212695
1011.579809,-3627.009116,2068.457845,11177.109724
1011.580139,-4219.173869,0.000000,11103.089130
1011.580468,-2960.823768,-766.095498,10140.821405
1011.580798,-2146.597232,-1838.629195,9844.739029
1011.581127,-2590.720797,-1608.800546,8956.491898
1011.581457,-3552.988522,-1149.143247,9104.533087
1011.581786,-4737.318029,-1072.533697,9030.512492
1011.582116,-5107.421000,0.000000,9030.512492
1011.582445,-3849.070898,76.609550,8882.471304
1011.582775,-1776.494261,-536.266849,8586.388927
1011.583104,0.000000,-995.924147,8068.244768
1011.583434,1258.350101,-842.705048,7624.121203
1011.583763,2590.720797,0.000000,8660.409521
1011.584093,1702.473667,1762.019645,10881.027347
1011.584423,0.000000,3600.648841,12435.459826
1011.584752,-1924.535449,4596.572988,13027.624579
1011.585082,-2146.597232,3140.991542,11843.295072
1011.585411,-962.267725,2451.505594,10584.944971
1011.585741,0.000000,1072.533697,9770.718434
1011.586070,740.205942,-306.438199,8734.430116
1011.586400,444.123565,-536.266849,8068.244768
1011.586729,-444.123565,612.876398,7846.182985
1011.587059,-2664.741391,2068.457845,8068.244768
1011.587388,-2886.803174,1838.629195,8364.327145
1011.587718,-2146.597232,1532.190996,8660.409521
1011.588047,-1258.350101,1991.848295,8216.285956
1011.588377,-148.041188,1072.533697,7846.182985
1011.588706,1480.411884,1302.362347,7772.162391
1011.589036,1480.411884,1838.629195,8364.327145
1011.589365,444.123565,2834.553343,10066.800811
1011.589695,-1184.329507,4290.134789,11547.212695
1011.590025,-2294.638420,4749.792088,11917.315666
1011.590354,-1702.473667,4213.525239,10881.027347
1011.590684,-1480.411884,1915.238745,10362.883188
1011.591013,-1924.535449,842.705048,10362.883188
1011.591343,-1036.288319,1149.143247,9992.780217
1011.591672,-518.144159,306.438199,9400.615463
1011.592002,-740.205942,306.438199,9030.512492
1011.592331,-1776.494261,459.657299,8512.368333
1011.592661,-1850.514855,0.000000,8290.306550
1011.592990,-1258.350101,-153.219100,8142.265362
1011.593320,-296.082377,0.000000,8142.265362
1011.593649,888.247130,766.095498,8438.347739
1011.593979,1924.535449,919.314598,8660.409521
1011.594308,1776.494261,536.266849,9474.636058
1011.594638,1110.308913,1685.410096,10362.883188
1011.594968,-518.144159,2528.115143,11695.253884
1011.595297,-2146.597232,2604.724693,11843.295072
1011.595627,-3182.885551,2068.457845,11621.233289
1011.595956,-4293.194464,919.314598,10881.027347
1011.596286,-3478.967927,-689.485948,10807.006753
1011.596615,-2072.576638,-995.924147,9548.656652
1011.596945,-1480.411884,-1685.410096,8290.306550
1011.597274,-2072.576638,-2298.286494,8216.285956
1011.597604,-4737.318029,-1762.019645,8734.430116
1011.597933,-6439.791695,-612.876398,9326.594869
1011.598263,-5995.668130,0.000000,8956.491898
1011.598592,-3923.091493,-766.095498,8808.450710
1011.598922,-1184.329507,-1608.800546,8660.409521
1011.599251,1036.288319,-2834.553343,9104.533087
1011.599581,2664.741391,-2298.286494,8660.409521
1011.599910,3701.029710,459.657299,9696.697840
1011.600240,2812.782580,2068.457845,11325.150913
1011.600569,1406.391290,3600.648841,12879.583391
1011.600899,222.061783,4749.792088,13249.686362
1011.601228,296.082377,4060.306139,12213.398043
1011.601558,962.267725,2298.286494,10584.944971
1011.601887,1184.329507,995.924147,9326.594869
1011.602217,1258.350101,0.000000,8660.409521
1011.602546,-222.061783,-1455.581446,8216.285956
1011.602875,-2516.700203,-153.219100,8142.265362
1011.603205,-4145.153275,459.657299,7994.224174
1011.603534,-4293.194464,0.000000,8142.265362
1011.603864,-3256.906145,383.047749,8660.409521
1011.604193,-2072.576638,1455.581446,8586.388927
1011.604523,-296.082377,1302.362347,7254.018232
1011.604852,1850.514855,1685.410096,6883.915261
1011.605182,1850.514855,2298.286494,8290.306550
1011.605511,740.205942,3830.477490,10510.924376
1011.605840,-1184.329507,4979.620737,12065.356855
1011.606170,-2368.659014,4903.011187,11177.109724
1011.606499,-2294.638420,4136.915689,10658.965565
1011.606829,-1998.556043,1762.019645,10510.924376
1011.607158,-814.226536,612.876398,10584.944971
1011.607488,148.041188,0.000000,9770.718434
1011.607817,74.020594,153.219100,8290.306550
1011.608147,-1036.288319,842.705048,7698.141797
1011.608476,-1850.514855,689.485948,8956.491898
1011.608805,-2146.597232,1149.143247,9326.594869
1011.609135,-1406.391290,1378.971896,9400.615463
1011.609464,-666.185348,1532.190996,8216.285956
1011.609794,592.164754,1072.533697,7328.038826
1011.610123,1258.350101,0.000000,8068.244768
1011.610453,1406.391290,0.000000,9696.697840
1011.610782,-518.144159,1762.019645,10955.047942
1011.611112,-2886.803174,3064.381992,11843.295072
1011.611441,-4145.153275,2528.115143,11547.212695
1011.611770,-3923.091493,1455.581446,11695.253884
1011.612100,-3997.112087,459.657299,10732.986159
1011.612429,-3330.926739,-919.314598,9844.739029
1011.612759,-1850.514855,-1685.410096,8142.265362
1011.613088,-962.267725,-1302.362347,7402.059420
1011.613418,-1628.453072,-2298.286494,8438.347739
1011.613747,-2812.782580,-1302.362347,9918.759623
1011.614077,-3997.112087,153.219100,9178.553681
1011.614406,-2960.823768,0.000000,8512.368333
1011.614735,-1628.453072,76.609550,8882.471304
1011.615065,518.144159,-383.047749,9178.553681
1011.615394,2368.659014,-1072.533697,9918.759623
1011.615724,2886.803174,-459.657299,9474.636058
1011.616053,1998.556043,919.314598,10362.883188
1011.616383,-222.061783,2757.943793,10881.027347
1011.616712,-1924.535449,2145.067394,11621.233289
1011.617042,-1480.411884,1455.581446,11399.171507
1011.617371,-740.205942,1302.362347,11547.212695
1011.617700,-370.102971,306.438199,10510.924376
1011.618030,-148.041188,0.000000,8808.450710
1011.618359,0.000000,-842.705048,7994.224174
1011.618689,-592.164754,-1225.752797,8882.471304
1011.619018,-2442.679609,612.876398,9104.533087
1011.619348,-3182.885551,1532.190996,9252.574275
1011.619677,-2812.782580,1532.190996,8808.450710
1011.620007,-1554.432478,1072.533697,8290.306550
1011.620336,-222.061783,459.657299,7698.141797
1011.620666,1628.453072,536.266849,7328.038826
1011.620995,3182.885551,1072.533697,8290.306550
1011.621324,2368.659014,3370.820191,9770.718434
1011.621654,0.000000,4290.134789,11325.150913
1011.621983,-2146.597232,4749.792088,11399.171507
1011.622313,-2294.638420,4673.182538,11621.233289
1011.622642,-1628.453072,2834.553343,11621.233289
1011.622972,-888.247130,689.485948,11325.150913
1011.623301,-518.144159,-306.438199,10214.842000
1011.623631,0.000000,-612.876398,8512.368333
1011.623960,0.000000,-995.924147,8142.265362
1011.624289,-1258.350101,995.924147,8142.265362
1011.624619,-1480.411884,2528.115143,8216.285956
1011.624948,-814.226536,2451.505594,7105.977043
1011.625278,296.082377,1302.362347,7031.956449
1011.625607,962.267725,2145.067394,7476.080014
1011.625937,1036.288319,2451.505594,8364.327145
1011.626266,666.185348,1991.848295,9030.512492
1011.626596,-518.144159,1991.848295,10436.903782
1011.626925,-2664.741391,2834.553343,11991.336260
1011.627254,-4071.132681,2987.772442,11843.295072
1011.627584,-4219.173869,1225.752797,10807.006753
1011.627913,-3701.029710,0.000000,10510.924376
1011.628243,-3627.009116,-306.438199,10288.862594
1011.628572,-3552.988522,-1378.971896,9178.553681
1011.628902,-3404.947333,-2068.457845,7698.141797
1011.629231,-3552.988522,-1302.362347,8068.244768
1011.629561,-3552.988522,-689.485948,9474.636058
1011.629890,-3404.947333,0.000000,10066.800811
1011.630219,-2812.782580,0.000000,9548.656652
1011.630549,-1184.329507,-459.657299,8068.244768
1011.630878,888.247130,-1532.190996,7772.162391
1011.631208,2664.741391,-1455.581446,8068.244768
1011.631537,3849.070898,-306.438199,9992.780217
1011.631867,3182.885551,1685.410096,11843.295072
1011.632196,814.226536,3217.601092,13323.706956
1011.632526,-1480.411884,3524.039291,13175.665768
1011.632855,-2812.782580,2681.334243,12435.459826
1011.633184,-2368.659014,1532.190996,11769.274478
1011.633514,-1554.432478,-1149.143247,11177.109724
1011.633843,-1184.329507,-1762.019645,9474.636058
1011.634173,-1036.288319,-2068.457845,7105.977043
1011.634502,-1184.329507,-3753.867940,7402.059420
1011.634832,-2146.597232,-2145.067394,8882.471304
1011.635161,-3256.906145,842.705048,9770.718434
1011.635491,-3034.844362,1532.190996,9326.594869
1011.635820,-1702.473667,1378.971896,8364.327145
1011.636149,370.102971,2145.067394,7476.080014
1011.636479,2220.617826,1149.143247,7698.141797
1011.636808,3552.988522,1072.533697,8364.327145
1011.637138,3182.885551,2681.334243,9326.594869
1011.637467,1258.350101,4213.525239,10658.965565
1011.637797,-370.102971,4519.963438,11399.171507
1011.638126,-1258.350101,3677.258390,10807.006753
1011.638456,-888.247130,2374.896044,10362.883188
1011.638785,0.000000,383.047749,10436.903782
1011.639114,518.144159,612.876398,9992.780217
1011.639444,592.164754,1455.581446,8956.491898
1011.639773,222.061783,842.705048,8290.306550
1011.640103,-444.123565,459.657299,8438.347739
1011.640432,-1554.432478,1991.848295,8660.409521
1011.640762,-1776.494261,2145.067394,8290.306550
1011.641091,-1110.308913,1608.800546,7994.224174
1011.641421,-592.164754,1455.581446,7698.141797
1011.641750,-222.061783,689.485948,8068.244768
1011.642080,296.082377,689.485948,8512.368333
1011.642409,444.123565,1455.581446,9696.697840
1011.642738,-666.185348,2145.067394,11695.253884
1011.643068,-2442.679609,2528.115143,12657.521608
1011.643397,-4441.235652,3370.820191,11769.274478
1011.643727,-4219.173869,1991.848295,10955.047942
1011.644056,-3627.009116,0.000000,10362.883188
1011.644386,-2738.761985,-766.095498,10288.862594
1011.644715,-1554.432478,-689.485948,9474.636058
1011.645045,-1628.453072,-1532.190996,8142.265362
1011.645374,-1776.494261,-1532.190996,8142.265362
1011.645703,-2960.823768,-995.924147,8364.327145
1011.646033,-2886.803174,-383.047749,8512.368333
1011.646362,-1850.514855,-229.828649,9548.656652
1011.646692,-518.144159,0.000000,9178.553681
1011.647021,444.123565,995.924147,9252.574275
1011.647351,1406.391290,1072.533697,8216.285956
1011.647680,2368.659014,0.000000,8808.450710
1011.648010,1628.453072,1149.143247,10658.965565
1011.648339,-444.123565,1378.971896,12065.356855
1011.648668,-2664.741391,2757.943793,12731.542202
1011.648998,-4293.194464,2604.724693,11991.336260
1011.649327,-4737.318029,995.924147,11473.192101
1011.649657,-3701.029710,-1149.143247,10362.883188
1011.649986,-1998.556043,-1838.629195,8586.388927
1011.650316,-666.185348,-2528.115143,7328.038826
1011.650645,-1110.308913,-1991.848295,7772.162391
1011.650975,-2664.741391,-153.219100,7772.162391
1011.651304,-3330.926739,612.876398,7920.203579
1011.651633,-1998.556043,229.828649,8216.285956
1011.651963,74.020594,1608.800546,8956.491898
1011.652292,1480.411884,2298.286494,9178.553681
1011.652622,2738.761985,1685.410096,8956.491898
1011.652951,3256.906145,2374.896044,8734.430116
1011.653281,2664.741391,2757.943793,9104.533087
1011.653610,1850.514855,2374.896044,11621.233289
1011.653940,0.000000,3217.601092,13471.748144
1011.654269,-1702.473667,4443.353888,12879.583391
1011.654598,-1998.556043,2528.115143,11251.130318
1011.654928,-962.267725,536.266849,9696.697840
1011.655257,962.267725,612.876398,8882.471304
1011.655587,1998.556043,0.000000,7179.997637
1011.655916,1184.329507,76.609550,6957.935855
1011.656246,0.000000,2374.896044,7105.977043
1011.656575,-1554.432478,2681.334243,7179.997637
1011.656905,-1776.494261,1991.848295,7476.080014
1011.657234,-1480.411884,2221.676944,8364.327145
1011.657563,-444.123565,1762.019645,9992.780217
1011.657893,0.000000,1762.019645,10214.842000
1011.658222,0.000000,1991.848295,9622.677246
1011.658552,222.061783,1915.238745,9992.780217
1011.658881,-666.185348,153.219100,11695.253884
1011.659211,-2812.782580,2298.286494,12361.439231
1011.659540,-4293.194464,3753.867940,11621.233289
1011.659870,-4145.153275,1302.362347,9844.739029
1011.660199,-3256.906145,-383.047749,10066.800811
1011.660528,-1702.473667,-766.095498,9474.636058
1011.660858,0.000000,-1378.971896,8660.409521
1011.661187,0.000000,-2145.067394,7476.080014
1011.661517,-888.247130,-995.924147,7254.018232
1011.661846,-1628.453072,0.000000,7550.100608
1011.662176,-1702.473667,-383.047749,8438.347739
1011.662505,-740.205942,76.609550,9770.718434
1011.662835,0.000000,1072.533697,11103.089130
1011.663164,222.061783,1532.190996,11103.089130
1011.663493,444.123565,919.314598,9992.780217
1011.663823,518.144159,306.438199,10288.862594
1011.664152,0.000000,459.657299,10881.027347
1011.664482,-2220.617826,689.485948,11325.150913
1011.664811,-3627.009116,995.924147,11695.253884
1011.665141,-4441.235652,689.485948,11251.130318
1011.665470,-4367.215058,-229.828649,10288.862594
1011.665800,-3701.029710,-689.485948,9104.533087
1011.666129,-1554.432478,-1302.362347,8660.409521
1011.666459,-814.226536,-2145.067394,7476.080014
1011.666788,-1924.535449,-1608.800546,7698.141797
1011.667117,-2664.741391,229.828649,8364.327145
1011.667447,-1998.556043,1455.581446,8882.471304
1011.667776,-962.267725,459.657299,8660.409521
1011.668106,-222.061783,1302.362347,9326.594869
1011.668435,518.144159,1991.848295,9844.739029
1011.668765,2368.659014,1225.752797,9992.780217
1011.669094,3404.947333,1915.238745,10436.903782
1011.669424,1998.556043,2834.553343,10658.965565
1011.669753,296.082377,2757.943793,10658.965565
1011.670082,-962.267725,2374.896044,11399.171507
1011.670412,-1110.308913,2604.724693,11769.274478
1011.670741,-888.247130,2681.334243,11029.068536
1011.671071,-148.041188,1838.629195,9548.656652
1011.671400,888.247130,1072.533697,7402.059420
1011.671730,1628.453072,-153.219100,6143.709319
1011.672059,1110.308913,-689.485948,6365.771101
1011.672389,-296.082377,2068.457845,7328.038826
1011.672718,-1406.391290,3524.039291,8364.327145
1011.673047,-1332.370696,3217.601092,8216.285956
1011.673377,-814.226536,2451.505594,8438.347739
1011.673706,0.000000,1838.629195,8956.491898
1011.674036,1036.288319,1762.019645,9400.615463
1011.674365,1036.288319,1991.848295,9992.780217
1011.674695,148.041188,3064.381992,10881.027347
1011.675024,-1480.411884,2145.067394,11695.253884
1011.675354,-3330.926739,1915.238745,11917.315666
1011.675683,-3997.112087,2068.457845,10955.047942
1011.676012,-3552.988522,842.705048,10584.944971
1011.676342,-1924.535449,0.000000,9992.780217
1011.676671,-666.185348,612.876398,8438.347739
1011.677001,0.000000,-1302.362347,7179.997637
1011.677330,-518.144159,-2221.676944,6735.874072
1011.677660,-2294.638420,-459.657299,7624.121203
1011.677989,-2664.741391,919.314598,8956.491898
1011.678319,-2516.700203,229.828649,10140.821405
1011.678648,-2146.597232,0.000000,10584.944971
1011.678977,-1702.473667,229.828649,10658.965565
1011.679307,-370.102971,-459.657299,10140.821405
1011.679636,740.205942,-229.828649,10436.903782
1011.679966,296.082377,1302.362347,10584.944971
1011.680295,-1110.308913,1455.581446,10955.047942
1011.680625,-2960.823768,1991.848295,11103.089130
1011.680954,-3997.112087,1455.581446,10881.027347
1011.681284,-4441.235652,0.000000,10732.986159
1011.681613,-4219.173869,-459.657299,10584.944971
1011.681942,-3034.844362,-1762.019645,9474.636058
1011.682272,-2146.597232,-1991.848295,8364.327145
1011.682601,-2368.659014,-2834.553343,7402.059420
1011.682931,-2960.823768,-2681.334243,7994.224174
1011.683260,-3034.844362,-612.876398,8734.430116
1011.683590,-2590.720797,306.438199,9400.615463
1011.683919,-1184.329507,1455.581446,9474.636058
1011.684249,74.020594,1455.581446,9474.636058
1011.684578,1258.350101,1225.752797,9622.677246
1011.684907,2368.659014,1532.190996,9400.615463
1011.685237,1850.514855,1838.629195,9474.636058
1011.685566,1406.391290,2298.286494,10510.924376
1011.685896,-296.082377,1455.581446,12731.542202
1011.686225,-1702.473667,2681.334243,12657.521608
1011.686555,-2812.782580,2987.772442,10658.965565
1011.686884,-1036.288319,1072.533697,9178.553681
1011.687214,1480.411884,229.828649,7994.224174
1011.687543,2368.659014,459.657299,6439.791695
1011.687873,2294.638420,0.000000,6143.709319
1011.688202,814.226536,383.047749,6735.874072
1011.688531,-1184.329507,3064.381992,8142.265362
1011.688861,-1702.473667,4136.915689,8734.430116
1011.689190,-1406.391290,3370.820191,9474.636058
1011.689520,-1110.308913,3447.429741,8586.388927
1011.689849,74.020594,2221.676944,7698.141797
1011.690179,1110.308913,76.609550,7624.121203
1011.690508,148.041188,459.657299,9178.553681
1011.690838,-2146.597232,1762.019645,11843.295072
1011.691167,-3997.112087,3140.991542,13027.624579
1011.691496,-4441.235652,4060.306139,12509.480420
1011.691826,-3404.947333,2298.286494,11251.130318
1011.692155,-1924.535449,-766.095498,10066.800811
1011.692485,74.020594,-766.095498,9030.512492
1011.692814,962.267725,-536.266849,8142.265362
1011.693144,1036.288319,-153.219100,7772.162391
1011.693473,-370.102971,383.047749,7920.203579
1011.693803,-2220.617826,766.095498,7772.162391
1011.694132,-2294.638420,0.000000,8068.244768
1011.694461,-962.267725,153.219100,9030.512492
1011.694791,518.144159,229.828649,10510.924376
1011.695120,518.144159,229.828649,10732.986159
1011.695450,-518.144159,459.657299,9918.759623
1011.695779,-814.226536,612.876398,10436.903782
1011.696109,-740.205942,766.095498,11843.295072
1011.696438,-2368.659014,2068.457845,13101.645173
1011.696768,-4071.132681,2221.676944,12583.501014
1011.697097,-5033.400406,229.828649,11325.150913
1011.697426,-5107.421000,-1378.971896,10288.862594
1011.697756,-3552.988522,-2834.553343,9918.759623
1011.698085,-1776.494261,-2757.943793,9030.512492
1011.698415,-1480.411884,-2068.457845,7402.059420
1011.698744,-1850.514855,-1762.019645,6957.935855
1011.699074,-2442.679609,-995.924147,6661.853478
1011.699403,-1258.350101,689.485948,7179.997637
1011.699733,0.000000,0.000000,9030.512492
1011.700062,740.205942,1378.971896,11029.068536
1011.700391,74.020594,3447.429741,10510.924376
1011.700721,666.185348,2451.505594,9252.574275
1011.701050,2368.659014,842.705048,9104.533087
1011.701380,1628.453072,1532.190996,9992.780217
1011.701709,-296.082377,1608.800546,11843.295072
1011.702039,-1776.494261,1378.971896,13249.686362
1011.702368,-3034.844362,2681.334243,13101.645173
1011.702698,-3775.050304,2757.943793,10510.924376
1011.703027,-2590.720797,0.000000,8586.388927
1011.703357,-444.123565,-612.876398,7550.100608
1011.703686,1776.494261,-229.828649,6809.894666
1011.704016,1924.535449,459.657299,6439.791695
1011.704345,444.123565,2451.505594,5551.544565
1011.704675,-814.226536,3677.258390,6513.812290
1011.705004,-1258.350101,2451.505594,7550.100608
1011.705334,-740.205942,2451.505594,9400.615463
1011.705663,0.000000,4596.572988,9992.780217
1011.705993,814.226536,3217.601092,9696.697840
1011.706322,1924.535449,1608.800546,9030.512492
1011.706652,518.144159,1685.410096,9918.759623
1011.706981,-888.247130,1991.848295,12435.459826
1011.707311,-2886.803174,3064.381992,13175.665768
1011.707640,-4589.276840,5056.230287,12805.562797
1011.707970,-4219.173869,3830.477490,11103.089130
1011.708299,-2738.761985,766.095498,10066.800811
1011.708629,-1036.288319,-995.924147,7254.018232
1011.708958,222.061783,-1838.629195,6069.688724
1011.709288,0.000000,-842.705048,6513.812290
1011.709617,-2146.597232,842.705048,7698.141797
1011.709947,-3478.967927,1838.629195,7994.224174
1011.710276,-3627.009116,995.924147,7994.224174
1011.710606,-2072.576638,153.219100,9104.533087
1011.710935,0.000000,0.000000,10658.965565
1011.711265,962.267725,995.924147,10436.903782
1011.711594,962.267725,689.485948,9696.697840
1011.711924,592.164754,459.657299,10288.862594
1011.712253,-1332.370696,1455.581446,11769.274478
1011.712583,-3330.926739,2451.505594,12509.480420
1011.712912,-4293.194464,1991.848295,12731.542202
1011.713242,-3997.112087,766.095498,11621.233289
1011.713571,-2368.659014,-766.095498,10510.924376
1011.713901,-1184.329507,-3447.429741,8808.450710
1011.714230,-592.164754,-3907.087040,7179.997637
1011.714560,-962.267725,-2911.162892,7105.977043
1011.714889,-2072.576638,-1608.800546,8068.244768
1011.715219,-2812.782580,-383.047749,8586.388927
1011.715548,-2590.720797,1455.581446,8734.430116
1011.715878,-1036.288319,76.609550,8586.388927
1011.716207,370.102971,-766.095498,9400.615463
1011.716537,888.247130,459.657299,10362.883188
1011.716866,1036.288319,612.876398,10807.006753
1011.717196,666.185348,1302.362347,11547.212695
1011.717525,-1480.411884,2068.457845,11843.295072
1011.717855,-2590.720797,2145.067394,12065.356855
1011.718184,-2664.741391,1302.362347,11399.171507
1011.718514,-1850.514855,919.314598,10436.903782
1011.718843,-518.144159,-383.047749,9696.697840
1011.719173,222.061783,-383.047749,8364.327145
1011.719502,592.164754,536.266849,7550.100608
1011.719832,1036.288319,306.438199,7254.018232
1011.720161,592.164754,459.657299,8142.265362
1011.720491,-148.041188,2757.943793,8364.327145
1011.720821,-1110.308913,3983.696590,7920.203579
1011.721150,-1184.329507,3370.820191,6883.915261
1011.721480,-740.205942,3064.381992,6883.915261
1011.721809,0.000000,1455.581446,7846.182985
1011.722139,444.123565,1072.533697,9770.718434
1011.722468,-740.205942,2451.505594,10362.883188
1011.722798,-2146.597232,3140.991542,12287.418637
1011.723127,-3627.009116,2757.943793,12879.583391
1011.723457,-4441.235652,2911.162892,12361.439231
1011.723786,-4441.235652,2681.334243,11029.068536
1011.724116,-2960.823768,1149.143247,10214.842000
1011.724445,-1702.473667,2068.457845,9326.594869
1011.724775,0.000000,1915.238745,7698.141797
1011.725104,740.205942,-229.828649,6143.709319
1011.725434,0.000000,-229.828649,5773.606348
1011.725763,-1702.473667,1915.238745,6587.832884
1011.726093,-2294.638420,2451.505594,8068.244768
1011.726422,-1924.535449,2068.457845,9474.636058
1011.726752,-1776.494261,2068.457845,10510.924376
1011.727081,-1406.391290,1608.800546,10362.883188
1011.727411,-740.205942,459.657299,9326.594869
1011.727740,222.061783,612.876398,10066.800811
1011.728070,-370.102971,1378.971896,11177.109724
1011.728399,-1998.556043,1378.971896,12139.377449
1011.728729,-3034.844362,766.095498,12435.459826
1011.729058,-3404.947333,536.266849,12065.356855
1011.729388,-3701.029710,459.657299,11621.233289
1011.729717,-2960.823768,-383.047749,10436.903782
1011.730047,-1036.288319,-1149.143247,8586.388927
1011.730376,296.082377,-2374.896044,7402.059420
1011.730706,1036.288319,-2987.772442,7550.100608
1011.731035,-666.185348,-1302.362347,7254.018232
1011.731365,-1406.391290,229.828649,7624.121203
1011.731694,-1258.350101,536.266849,8512.368333
1011.732024,74.020594,459.657299,10288.862594
1011.732353,814.226536,612.876398,10881.027347
1011.732683,1480.411884,612.876398,9992.780217
1011.733012,1850.514855,-612.876398,9548.656652
1011.733342,888.247130,76.609550,11547.212695
1011.733671,-888.247130,306.438199,13175.665768
1011.734001,-2590.720797,1455.581446,13175.665768
1011.734330,-3330.926739,1838.629195,11251.130318
1011.734660,-2294.638420,383.047749,9918.759623
1011.734989,74.020594,-1532.190996,9030.512492
1011.735319,2368.659014,-1302.362347,7772.162391
1011.735648,2812.782580,0.000000,6513.812290
1011.735978,2072.576638,383.047749,6217.729913
1011.736307,740.205942,1991.848295,7402.059420
1011.736637,-1184.329507,3064.381992,8882.471304
1011.736966,-1924.535449,2604.724693,9326.594869
1011.737296,-1850.514855,2068.457845,9696.697840
1011.737625,-1332.370696,2145.067394,10140.821405
1011.737955,74.020594,2298.286494,9400.615463
1011.738284,444.123565,0.000000,8660.409521
1011.738614,0.000000,153.219100,9474.636058
1011.738943,-1406.391290,2451.505594,11251.130318
1011.739273,-3034.844362,4290.134789,11991.336260
1011.739602,-3627.009116,5056.230287,11473.192101
1011.739932,-3256.906145,3677.258390,9770.718434
1011.740261,-2294.638420,1838.629195,9030.512492
1011.740591,-814.226536,612.876398,8438.347739
1011.740920,0.000000,842.705048,7624.121203
1011.741250,-592.164754,995.924147,7031.956449
1011.741579,-2146.597232,1149.143247,7772.162391
1011.741909,-3256.906145,2145.067394,9030.512492
1011.742238,-3256.906145,2528.115143,8586.388927
1011.742568,-1924.535449,1455.581446,8586.388927
1011.742897,-222.061783,1532.190996,9474.636058
1011.743227,814.226536,2221.676944,9474.636058
1011.743556,518.144159,1685.410096,9030.512492
1011.743886,74.020594,1762.019645,9030.512492
1011.744215,-1406.391290,1685.410096,10658.965565
1011.744545,-3330.926739,1991.848295,11991.336260
1011.744874,-4367.215058,3447.429741,12065.356855
1011.745204,-3849.070898,1302.362347,11103.089130
1011.745533,-2886.803174,-1072.533697,9992.780217
1011.745863,-1480.411884,-1762.019645,8882.471304
1011.746192,-740.205942,-1762.019645,7550.100608
1011.746522,-370.102971,-2068.457845,7624.121203
1011.746851,-1258.350101,-766.095498,8438.347739
1011.747181,-2368.659014,2145.067394,9326.594869
1011.747510,-2368.659014,1378.971896,9030.512492
1011.747840,-1480.411884,0.000000,8956.491898
1011.748169,-148.041188,-306.438199,9622.677246
1011.748499,1406.391290,-766.095498,11251.130318
1011.748828,2146.597232,-919.314598,10881.027347
1011.749158,1184.329507,229.828649,10362.883188
1011.749487,296.082377,459.657299,10658.965565
1011.749817,-814.226536,-306.438199,11473.192101
1011.750146,-1480.411884,689.485948,11695.253884
1011.750476,-1776.494261,1608.800546,11399.171507
1011.750805,-1036.288319,689.485948,10807.006753
1011.751135,-370.102971,-153.219100,9548.656652
1011.751464,814.226536,-612.876398,8512.368333
1011.751794,1628.453072,-1608.800546,8438.347739
1011.752123,1110.308913,-919.314598,8364.327145
1011.752453,-814.226536,1991.848295,8734.430116
1011.752782,-2072.576638,3064.381992,7402.059420
1011.753112,-1850.514855,1915.238745,7105.977043
1011.753441,-1110.308913,383.047749,8290.306550
1011.753771,0.000000,1838.629195,9326.594869
1011.754100,0.000000,1149.143247,9252.574275
1011.754430,148.041188,995.924147,9844.739029
1011.754759,-814.226536,2068.457845,10807.006753
1011.755089,-1776.494261,2528.115143,12065.356855
1011.755418,-1850.514855,2451.505594,11547.212695
1011.755748,-2442.679609,1838.629195,11029.068536
1011.756077,-2220.617826,2987.772442,10732.986159
1011.756407,-962.267725,2681.334243,9844.739029
1011.756736,666.185348,306.438199,8142.265362
1011.757066,1332.370696,612.876398,6365.771101
1011.757395,592.164754,766.095498,6069.688724
1011.757725,-740.205942,1838.629195,7846.182985
1011.758054,-2220.617826,3140.991542,8438.347739
1011.758384,-2664.741391,3294.210641,8586.388927
1011.758714,-1998.556043,2451.505594,8438.347739
1011.759043,-740.205942,1302.362347,9326.594869
1011.759373,0.000000,1149.143247,9548.656652
1011.759702,-222.061783,1378.971896,9474.636058
1011.760032,-1184.329507,1455.581446,10510.924376
1011.760361,-2590.720797,2068.457845,12731.542202
1011.760691,-4737.318029,2681.334243,12731.542202
1011.761020,-5551.544565,2451.505594,11103.089130
1011.761350,-4589.276840,766.095498,9844.739029
1011.761679,-2590.720797,-1302.362347,9326.594869
1011.762009,-814.226536,-1225.752797,7772.162391
1011.762338,-148.041188,-2757.943793,6735.874072
1011.762668,-518.144159,-2145.067394,6883.915261
1011.762997,-1850.514855,229.828649,7698.141797
1011.763327,-2146.597232,1302.362347,9252.574275
1011.763656,-1036.288319,1149.143247,10140.821405
1011.763986,74.020594,995.924147,10436.903782
1011.764315,1480.411884,919.314598,10214.842000
1011.764645,2294.638420,229.828649,9770.718434
1011.764974,2738.761985,-459.657299,9992.780217
1011.765304,2072.576638,-459.657299,11843.295072
1011.765633,-222.061783,153.219100,13471.748144
1011.765963,-2368.659014,2068.457845,13397.727550
1011.766292,-3627.009116,1991.848295,11621.233289
1011.766622,-2590.720797,-229.828649,10584.944971
1011.766951,-1036.288319,-1225.752797,9770.718434
1011.767281,666.185348,-1685.410096,8068.244768
1011.767610,1628.453072,-2221.676944,6217.729913
1011.767940,1332.370696,-1225.752797,6735.874072
1011.768269,-962.267725,383.047749,8068.244768
1011.768599,-2442.679609,2298.286494,9474.636058
1011.768928,-2294.638420,2451.505594,9918.759623
1011.769258,-1036.288319,2068.457845,8734.430116
1011.769587,518.144159,1378.971896,8660.409521
1011.769917,1776.494261,689.485948,8660.409521
1011.770246,2368.659014,153.219100,8734.430116
1011.770576,1628.453072,306.438199,9548.656652
1011.770905,0.000000,2604.724693,11769.274478
1011.771235,-1776.494261,5132.839837,12435.459826
1011.771564,-2516.700203,3983.696590,11621.233289
1011.771894,-2220.617826,1685.410096,10881.027347
1011.772223,-1332.370696,1225.752797,9992.780217
1011.772553,0.000000,1302.362347,8734.430116
1011.772882,740.205942,383.047749,6957.935855
1011.773212,-148.041188,459.657299,5477.523971
1011.773541,-1776.494261,536.266849,6883.915261
1011.773871,-2886.803174,1378.971896,8808.450710
1011.774200,-3108.864956,2604.724693,9474.636058
1011.774530,-2812.782580,4213.525239,9252.574275
1011.774859,-2146.597232,2528.115143,8808.450710
1011.775189,-444.123565,1378.971896,9178.553681
1011.775518,222.061783,766.095498,9326.594869
1011.775848,74.020594,1455.581446,10214.842000
1011.776177,-1554.432478,2528.115143,12065.356855
1011.776507,-3775.050304,3370.820191,13027.624579
1011.776836,-5107.421000,4136.915689,11843.295072
1011.777166,-4515.256246,1685.410096,10436.903782
1011.777495,-2294.638420,-995.924147,9696.697840
1011.777825,-592.164754,-1149.143247,8660.409521
1011.778154,-74.020594,-842.705048,7105.977043
1011.778484,148.041188,-1225.752797,6735.874072
1011.778813,-1554.432478,-536.266849,7254.018232
1011.779143,-2812.782580,919.314598,8956.491898
1011.779472,-2960.823768,1762.019645,9696.697840
1011.779802,-1776.494261,842.705048,9918.759623
1011.780131,-222.061783,1072.533697,10362.883188
1011.780461,888.247130,383.047749,10140.821405
1011.780790,1850.514855,-306.438199,9400.615463
1011.781120,1628.453072,0.000000,8734.430116
1011.781449,888.247130,-306.438199,10584.944971
1011.781779,-888.247130,1532.190996,12583.501014
1011.782108,-2960.823768,2528.115143,12287.418637
1011.782438,-3404.947333,1225.752797,10955.047942
1011.782767,-2368.659014,-842.705048,9992.780217
1011.783097,-666.185348,-1685.410096,9474.636058
1011.783426,1776.494261,-2145.067394,8956.491898
1011.783756,2442.679609,-2298.286494,8142.265362
1011.784085,1110.308913,-612.876398,7179.997637
1011.784415,-1554.432478,1915.238745,7179.997637
1011.784744,-2072.576638,2451.505594,7476.080014
1011.785074,-1406.391290,1991.848295,8142.265362
1011.785403,148.041188,1302.362347,9844.739029
1011.785733,296.082377,995.924147,10584.944971
1011.786062,370.102971,1532.190996,10214.842000
1011.786392,148.041188,229.828649,9992.780217
1011.786721,0.000000,-229.828649,11177.109724
1011.787051,-1406.391290,612.876398,11991.336260
1011.787380,-2368.659014,1991.848295,11843.295072
1011.787710,-2294.638420,2068.457845,10658.965565
1011.788039,-1110.308913,2145.067394,10066.800811
1011.788369,370.102971,1685.410096,8956.491898
1011.788698,2220.617826,0.000000,7179.997637
1011.789028,2368.659014,-153.219100,5995.668130
1011.789357,888.247130,1149.143247,6809.894666
1011.789687,-518.144159,2681.334243,8956.491898
1011.790016,-2590.720797,3677.258390,9622.677246
1011.790346,-4219.173869,3370.820191,9104.533087
1011.790675,-3701.029710,1762.019645,8438.347739
1011.791005,-1702.473667,459.657299,10066.800811
1011.791334,-592.164754,689.485948,10436.903782
1011.791664,-1184.329507,1378.971896,9622.677246
1011.791993,-2294.638420,1378.971896,9474.636058
1011.792323,-3256.906145,1762.019645,10436.903782
1011.792652,-3552.988522,3294.210641,11695.253884
1011.792982,-4515.256246,3370.820191,10807.006753
1011.793311,-4145.153275,1838.629195,9992.780217
1011.793641,-2886.803174,842.705048,9326.594869
1011.793970,-962.267725,1072.533697,7550.100608
1011.794300,888.247130,-1378.971896,6291.750507
1011.794629,1332.370696,-2145.067394,6735.874072
1011.794959,0.000000,-842.705048,8438.347739
1011.795288,-1924.535449,1378.971896,9844.739029
1011.795618,-2294.638420,2681.334243,10510.924376
1011.795948,-1258.350101,1915.238745,10510.924376
1011.796277,148.041188,1302.362347,10658.965565
1011.796607,1406.391290,76.609550,10510.924376
1011.796936,2072.576638,-383.047749,9992.780217
1011.797266,1776.494261,0.000000,9992.780217
1011.797595,0.000000,306.438199,11029.068536
1011.797925,-2220.617826,1762.019645,11917.315666
1011.798254,-3256.906145,2298.286494,11769.274478
1011.798584,-2516.700203,459.657299,10214.842000
1011.798913,-1036.288319,-995.924147,8808.450710
1011.799243,444.123565,-1532.190996,7920.203579
1011.799572,888.247130,-1838.629195,7550.100608
1011.799902,370.102971,-1225.752797,7920.203579
1011.800231,-1258.350101,153.219100,8956.491898
1011.800561,-2146.597232,1455.581446,9326.594869
1011.800890,-2442.679609,1378.971896,9252.574275
1011.801220,-814.226536,842.705048,8956.491898
1011.801549,296.082377,306.438199,10140.821405
1011.801879,1184.329507,536.266849,10140.821405
1011.802208,2072.576638,1149.143247,9474.636058
1011.802538,1628.453072,919.314598,9252.574275
1011.802867,518.144159,1378.971896,10288.862594
1011.803197,-1554.432478,2604.724693,11621.233289
1011.803526,-2072.576638,3447.429741,11399.171507
1011.803856,-1776.494261,2451.505594,10066.800811
1011.804185,-1110.308913,1225.752797,9474.636058
1011.804515,0.000000,766.095498,8586.388927
1011.804844,518.144159,-383.047749,7772.162391
1011.805173,148.041188,-842.705048,7550.100608
1011.805503,-1258.350101,1378.971896,8142.265362
1011.805832,-2664.741391,2757.943793,8660.409521
1011.806162,-2590.720797,2374.896044,8882.471304
1011.806491,-2072.576638,1762.019645,8660.409521
1011.806821,-1480.411884,1302.362347,9104.533087
1011.807150,-1036.288319,1302.362347,9622.677246
1011.807480,-888.247130,1378.971896,9622.677246
1011.807809,-1332.370696,1915.238745,9918.759623
1011.808139,-1628.453072,2528.115143,11177.109724
1011.808468,-2294.638420,2451.505594,11177.109724
1011.808798,-3034.844362,2374.896044,10658.965565
1011.809127,-3404.947333,1455.581446,10214.842000
1011.809456,-3108.864956,383.047749,10510.924376
1011.809786,-2442.679609,1378.971896,10214.842000
1011.810115,-1702.473667,229.828649,9252.574275
1011.810445,-1554.432478,-1225.752797,7920.203579
1011.810774,-1628.453072,-1915.238745,8512.368333
1011.811104,-2220.617826,0.000000,9252.574275
1011.811433,-1776.494261,536.266849,8882.471304
1011.811763,-1184.329507,689.485948,7994.224174
1011.812092,296.082377,536.266849,8364.327145
1011.812422,1480.411884,153.219100,8956.491898
1011.812751,2368.659014,536.266849,9326.594869
1011.813080,2368.659014,1378.971896,10066.800811
1011.813410,1184.329507,1991.848295,10881.027347
1011.813739,-962.267725,2528.115143,12139.377449
1011.814069,-2516.700203,1149.143247,13027.624579
1011.814398,-2886.803174,-229.828649,12953.603985
1011.814728,-2590.720797,-536.266849,11769.274478
1011.815057,-2146.597232,-689.485948,10066.800811
1011.815387,-1258.350101,-1532.190996,7179.997637
1011.815716,-148.041188,-2451.505594,5625.565159
1011.816046,0.000000,-2451.505594,6365.771101
1011.816375,-962.267725,-689.485948,7994.224174
1011.816705,-2368.659014,2528.115143,8882.471304
1011.817034,-2442.679609,2987.772442,9844.739029
1011.817363,-1480.411884,1991.848295,9992.780217
1011.817693,592.164754,1149.143247,9548.656652
1011.818022,2516.700203,-306.438199,8734.430116
1011.818352,3256.906145,-1225.752797,9252.574275
1011.818681,1850.514855,1302.362347,11177.109724
1011.819011,-444.123565,3217.601092,13545.768739
1011.819340,-2516.700203,3677.258390,12879.583391
1011.819670,-2664.741391,3140.991542,10510.924376
1011.819999,-1258.350101,2068.457845,9326.594869
1011.820329,1110.308913,383.047749,9548.656652
1011.820658,2072.576638,-306.438199,8068.244768
1011.820988,1036.288319,536.266849,6587.832884
1011.821317,-814.226536,995.924147,6365.771101
1011.821646,-2220.617826,1838.629195,8142.265362
1011.821976,-2664.741391,2987.772442,9474.636058
1011.822305,-3182.885551,2145.067394,9178.553681
1011.822635,-2886.803174,1378.971896,8586.388927
1011.822964,-1776.494261,995.924147,9178.553681
1011.823294,-296.082377,1149.143247,9696.697840
1011.823623,148.041188,1072.533697,9622.677246
1011.823953,-1258.350101,1838.629195,10214.842000
1011.824282,-2664.741391,3064.381992,11473.192101
1011.824612,-3849.070898,4136.915689,11843.295072
1011.824941,-3775.050304,3753.867940,11029.068536
1011.825270,-3256.906145,1915.238745,9992.780217
1011.825600,-2220.617826,459.657299,9548.656652
1011.825929,-518.144159,0.000000,8364.327145
1011.826259,-222.061783,-1072.533697,7476.080014
1011.826588,-740.205942,-1378.971896,7105.977043
1011.826918,-2072.576638,0.000000,8290.306550
1011.827247,-3108.864956,1225.752797,9030.512492
1011.827577,-2812.782580,1685.410096,9326.594869
1011.827906,-1332.370696,995.924147,9252.574275
1011.828236,0.000000,-153.219100,8734.430116
1011.828565,962.267725,-612.876398,8956.491898
1011.828895,1554.432478,76.609550,9474.636058
1011.829224,1258.350101,1149.143247,11103.089130
1011.829553,-666.185348,1072.533697,11917.315666
1011.829883,-3034.844362,2145.067394,12583.501014
1011.830212,-4071.132681,1991.848295,12139.377449
1011.830542,-3478.967927,0.000000,11621.233289
1011.830871,-2220.617826,-1838.629195,10288.862594
1011.831201,-518.144159,-1302.362347,9104.533087
1011.831530,370.102971,-2068.457845,7698.141797
1011.831860,370.102971,-2221.676944,7179.997637
1011.832189,-444.123565,-1532.190996,8068.244768
1011.832519,-1554.432478,76.609550,9474.636058
1011.832848,-2146.597232,2374.896044,10066.800811
1011.833178,-1850.514855,2451.505594,9474.636058
1011.833507,148.041188,995.924147,9622.677246
1011.833836,2072.576638,-153.219100,8956.491898
1011.834166,2664.741391,-229.828649,8364.327145
1011.834495,2442.679609,383.047749,9326.594869
1011.834825,1110.308913,1455.581446,11473.192101
1011.835154,-1110.308913,3677.258390,12731.542202
1011.835484,-2590.720797,4136.915689,11843.295072
1011.835813,-2516.700203,2681.334243,10658.965565
1011.836143,-1036.288319,1072.533697,9770.718434
1011.836472,740.205942,612.876398,8586.388927
1011.836802,1406.391290,306.438199,7846.182985
1011.837131,740.205942,-153.219100,6809.894666
1011.837460,-1332.370696,536.266849,7031.956449
1011.837790,-2738.761985,2221.676944,7994.224174
1011.838119,-3701.029710,2911.162892,8808.450710
1011.838449,-2664.741391,3140.991542,8808.450710
1011.838778,-1184.329507,2451.505594,8216.285956
1011.839108,962.267725,1149.143247,7994.224174
1011.839437,2072.576638,689.485948,8438.347739
1011.839767,1184.329507,1762.019645,9474.636058
1011.840096,-740.205942,3064.381992,11769.274478
1011.840426,-3108.864956,4749.792088,13027.624579
1011.840755,-3997.112087,5209.449386,12583.501014
1011.841085,-3478.967927,2987.772442,10658.965565
1011.841414,-2220.617826,-229.828649,9696.697840
1011.841743,-1702.473667,-689.485948,9474.636058
1011.842073,-1110.308913,459.657299,8882.471304
1011.842402,-666.185348,76.609550,7920.203579
1011.842732,-1628.453072,0.000000,7772.162391
1011.843061,-2886.803174,612.876398,7624.121203
1011.843391,-3404.947333,1378.971896,7476.080014
1011.843720,-2146.597232,-383.047749,8290.306550
1011.844050,-1036.288319,766.095498,9622.677246
1011.844379,-888.247130,919.314598,9548.656652
1011.844709,-444.123565,-689.485948,9326.594869
1011.845038,296.082377,-1072.533697,10066.800811
1011.845368,370.102971,0.000000,11695.253884
1011.845697,-1406.391290,1838.629195,12509.480420
1011.846026,-3182.885551,3294.210641,11473.192101
1011.846356,-3997.112087,2451.505594,9622.677246
1011.846685,-2738.761985,153.219100,9622.677246
1011.847015,-1480.411884,-1838.629195,10214.842000
1011.847344,-1258.350101,-1225.752797,9474.636058
1011.847674,-1332.370696,-1838.629195,8216.285956
1011.848003,-1480.411884,-2068.457845,8586.388927
1011.848333,-2072.576638,-459.657299,9474.636058
1011.848662,-2220.617826,-306.438199,8660.409521
1011.848992,-1480.411884,-766.095498,8512.368333
1011.849321,0.000000,536.266849,9326.594869
1011.849651,1406.391290,1378.971896,10584.944971
1011.849980,2738.761985,919.314598,10214.842000
1011.850309,2738.761985,536.266849,8660.409521
1011.850639,2072.576638,1225.752797,9252.574275
1011.850968,888.247130,2298.286494,11177.109724
1011.851298,-296.082377,2681.334243,12065.356855
1011.851627,-1406.391290,2604.724693,11917.315666
1011.851957,-2072.576638,1378.971896,11177.109724
1011.852286,-1924.535449,1149.143247,9992.780217
1011.852616,-444.123565,76.609550,8364.327145
1011.852945,370.102971,-995.924147,7772.162391
1011.853275,74.020594,-536.266849,7846.182985
1011.853604,-1776.494261,995.924147,8512.368333
1011.853933,-2368.659014,2221.676944,8586.388927
1011.854263,-2368.659014,3217.601092,8216.285956
1011.854592,-1184.329507,2451.505594,7772.162391
1011.854922,0.000000,1378.971896,7994.224174
1011.855251,1554.432478,1225.752797,7920.203579
1011.855581,2812.782580,1991.848295,8956.491898
1011.855910,2072.576638,2757.943793,9178.553681
1011.856240,0.000000,3217.601092,10362.883188
1011.856569,-2442.679609,3600.648841,11695.253884
1011.856899,-3330.926739,3907.087040,11695.253884
1011.857228,-2960.823768,2451.505594,11177.109724
1011.857558,-2146.597232,1072.533697,11103.089130
1011.857887,-1332.370696,383.047749,10066.800811
1011.858216,-1184.329507,-612.876398,8290.306550
1011.858546,-1776.494261,-1762.019645,7328.038826
1011.858875,-2960.823768,-536.266849,8068.244768
1011.859205,-3478.967927,1455.581446,8734.430116
1011.859534,-3627.009116,1685.410096,8660.409521
1011.859864,-2664.741391,383.047749,7920.203579
1011.860193,-1406.391290,-153.219100,8216.285956
1011.860523,0.000000,-229.828649,8882.471304
1011.860852,444.123565,919.314598,8808.450710
1011.861182,-148.041188,1072.533697,9844.739029
1011.861511,-1924.535449,1302.362347,11399.171507
1011.861841,-3775.050304,1302.362347,12953.603985
1011.862170,-4663.297435,1378.971896,12435.459826
1011.862499,-3849.070898,383.047749,11399.171507
1011.862829,-2368.659014,-1532.190996,10584.944971
1011.863158,-888.247130,-1991.848295,10288.862594
1011.863488,0.000000,-1762.019645,9178.553681
1011.863817,0.000000,-1685.410096,7994.224174
1011.864147,-666.185348,-995.924147,7846.182985
1011.864476,-1258.350101,1225.752797,8586.388927
1011.864806,-1184.329507,1302.362347,8734.430116
1011.865135,0.000000,0.000000,8438.347739
1011.865465,592.164754,-229.828649,8808.450710
1011.865794,888.247130,0.000000,9178.553681
1011.866123,1110.308913,536.266849,10140.821405
1011.866453,740.205942,306.438199,11029.068536
1011.866782,0.000000,383.047749,12139.377449
1011.867112,-2220.617826,1762.019645,12213.398043
1011.867441,-3330.926739,2298.286494,11621.233289
1011.867771,-2738.761985,1685.410096,10362.883188
1011.868100,-1554.432478,766.095498,10140.821405
1011.868430,0.000000,919.314598,9326.594869
1011.868759,888.247130,919.314598,8068.244768
1011.869089,1036.288319,153.219100,6735.874072
1011.869418,74.020594,229.828649,6957.935855
1011.869748,0.000000,1608.800546,8216.285956
1011.870077,-518.144159,2451.505594,8586.388927
1011.870406,-740.205942,2528.115143,8512.368333
1011.870736,-370.102971,1762.019645,8882.471304
1011.871065,592.164754,1608.800546,9252.574275
1011.871395,1554.432478,1915.238745,9548.656652
1011.871724,1776.494261,2221.676944,10066.800811
1011.872054,888.247130,2528.115143,10881.027347
1011.872383,-1110.308913,3217.601092,11843.295072
1011.872713,-2960.823768,4519.963438,11399.171507
1011.873042,-3256.906145,3524.039291,9770.718434
1011.873372,-2516.700203,1685.410096,10140.821405
1011.873701,-1628.453072,1608.800546,9844.739029
1011.874031,-1184.329507,995.924147,8586.388927
1011.874360,-1184.329507,-766.095498,6809.894666
1011.874689,-2294.638420,-1685.410096,6587.832884
1011.875019,-3627.009116,612.876398,8660.409521
1011.875348,-3775.050304,1532.190996,9474.636058
1011.875678,-2738.761985,1149.143247,9326.594869
1011.876007,-1628.453072,1149.143247,8660.409521
1011.876337,-592.164754,1072.533697,8586.388927
1011.876666,296.082377,612.876398,8216.285956
1011.876996,74.020594,1762.019645,8068.244768
1011.877325,-222.061783,2145.067394,9474.636058
1011.877655,-1628.453072,1225.752797,11695.253884
1011.877984,-3997.112087,1991.848295,12139.377449
1011.878314,-5033.400406,842.705048,11621.233289
1011.878643,-4589.276840,-1225.752797,11399.171507
1011.878972,-3330.926739,-1608.800546,11399.171507
1011.879302,-1480.411884,-1378.971896,10288.862594
1011.879631,0.000000,-2834.553343,8438.347739
1011.879961,0.000000,-2911.162892,7698.141797
1011.880290,-1110.308913,-383.047749,8290.306550
1011.880620,-1702.473667,1072.533697,9326.594869
1011.880949,-814.226536,1225.752797,9400.615463
1011.881279,-444.123565,1608.800546,9252.574275
1011.881608,296.082377,383.047749,9326.594869
1011.881938,1036.288319,-306.438199,9474.636058
1011.882267,1110.308913,-1225.752797,9622.677246
1011.882596,74.020594,-459.657299,10807.006753
1011.882926,-1480.411884,536.266849,12361.439231
1011.883255,-2516.700203,1991.848295,13101.645173
1011.883585,-2738.761985,1838.629195,11769.274478
1011.883914,-2368.659014,0.000000,10214.842000
1011.884244,-1036.288319,-153.219100,9400.615463
1011.884573,592.164754,76.609550,8956.491898
1011.884903,1554.432478,-229.828649,8290.306550
1011.885232,962.267725,689.485948,7328.038826
1011.885562,-1110.308913,1225.752797,7476.080014
1011.885891,-1480.411884,1455.581446,8216.285956
1011.886221,-1184.329507,1608.800546,8216.285956
1011.886550,-222.061783,2374.896044,8660.409521
1011.886879,1554.432478,1608.800546,8512.368333
1011.887209,2516.700203,1915.238745,8660.409521
1011.887538,2442.679609,2068.457845,8142.265362
1011.887868,1554.432478,1915.238745,9252.574275
1011.888197,370.102971,3140.991542,11473.192101
1011.888527,-1332.370696,4903.011187,12731.542202
1011.888856,-2886.803174,4826.401637,11695.253884
1011.889186,-2960.823768,2145.067394,10140.821405
1011.889515,-1924.535449,153.219100,9474.636058
1011.889845,-222.061783,-383.047749,9252.574275
1011.890174,148.041188,-459.657299,8068.244768
1011.890504,0.000000,-306.438199,7179.997637
1011.890833,-1702.473667,919.314598,7920.203579
1011.891162,-2738.761985,2374.896044,8808.450710
1011.891492,-2886.803174,2987.772442,8216.285956
1011.891821,-1554.432478,1915.238745,8512.368333
1011.892151,-444.123565,1072.533697,9252.574275
1011.892480,-518.144159,1225.752797,9770.718434
1011.892810,-444.123565,1072.533697,9104.533087
1011.893139,-518.144159,0.000000,9178.553681
1011.893469,-1850.514855,229.828649,10955.047942
1011.893798,-3627.009116,1685.410096,11991.336260
1011.894128,-4737.318029,2145.067394,11473.192101
1011.894457,-3775.050304,76.609550,10658.965565
1011.894786,-2812.782580,-1225.752797,10584.944971
1011.895116,-2072.576638,-689.485948,9992.780217
1011.895445,-1258.350101,-689.485948,8660.409521
1011.895775,-444.123565,-1532.190996,7402.059420
1011.896104,-444.123565,-1072.533697,8142.265362
1011.896434,-1776.494261,459.657299,8882.471304
1011.896763,-2294.638420,995.924147,9104.533087
1011.897093,-1998.556043,383.047749,9252.574275
1011.897422,-1406.391290,-689.485948,9252.574275
1011.897752,296.082377,-306.438199,9844.739029
1011.898081,1184.329507,-306.438199,10140.821405
1011.898411,1480.411884,0.000000,9844.739029
1011.898740,222.061783,-383.047749,10955.047942
1011.899069,-1702.473667,1225.752797,12583.501014
1011.899399,-2886.803174,3600.648841,12435.459826
1011.899728,-3108.864956,1532.190996,11695.253884
1011.900058,-2368.659014,459.657299,10955.047942
1011.900387,-1332.370696,76.609550,9252.574275
1011.900717,518.144159,-1225.752797,7105.977043
1011.901046,2220.617826,-2604.724693,6809.894666
1011.901376,1332.370696,0.000000,7105.977043
1011.901705,-666.185348,1915.238745,8142.265362
1011.902035,-1332.370696,1991.848295,9178.553681
1011.902364,-962.267725,2681.334243,9474.636058
1011.902694,-148.041188,3600.648841,9104.533087
1011.903023,1554.432478,2145.067394,9030.512492
1011.903352,2886.803174,1225.752797,8364.327145
1011.903682,3256.906145,1149.143247,8142.265362
1011.904011,2072.576638,1149.143247,9696.697840
1011.904341,-296.082377,2528.115143,12065.356855
1011.904670,-2738.761985,4903.011187,12583.501014
1011.905000,-3997.112087,4290.134789,11325.150913
1011.905329,-2664.741391,2068.457845,10140.821405
1011.905659,-814.226536,229.828649,9474.636058
1011.905988,814.226536,-229.828649,7846.182985
1011.906318,888.247130,-1378.971896,6513.812290
1011.906647,-518.144159,0.000000,7328.038826
1011.906977,-2368.659014,1838.629195,8808.450710
1011.907306,-3256.906145,3447.429741,9326.594869
1011.907635,-2738.761985,2911.162892,8956.491898
1011.907965,-1258.350101,1149.143247,8660.409521
1011.908294,-296.082377,1838.629195,8734.430116
1011.908624,518.144159,1915.238745,8660.409521
1011.908953,296.082377,1149.143247,8216.285956
1011.909283,-962.267725,1149.143247,9844.739029
1011.909612,-3182.885551,2221.676944,11991.336260
1011.909942,-4737.318029,2528.115143,12805.562797
1011.910271,-5477.523971,1915.238745,12139.377449
1011.910601,-4589.276840,459.657299,10881.027347
1011.910930,-2368.659014,-1302.362347,9696.697840
1011.911260,-740.205942,-2834.553343,8068.244768
1011.911589,-444.123565,-2068.457845,6957.935855
1011.911919,-1184.329507,-1455.581446,7476.080014
1011.912248,-1924.535449,536.266849,8956.491898
1011.912577,-2590.720797,1915.238745,9474.636058
1011.912907,-2146.597232,1455.581446,8882.471304
1011.913236,0.000000,612.876398,8882.471304
1011.913566,1406.391290,-1225.752797,8586.388927
1011.913895,1702.473667,-459.657299,9992.780217
1011.914225,1332.370696,536.266849,10362.883188
1011.914554,296.082377,536.266849,11029.068536
1011.914884,-1554.432478,1225.752797,12213.398043
1011.915213,-2886.803174,919.314598,12509.480420
1011.915543,-3478.967927,1378.971896,11843.295072
1011.915872,-2738.761985,-383.047749,11177.109724
1011.916202,-1554.432478,-1378.971896,10362.883188
1011.916531,-592.164754,0.000000,8956.491898
1011.916860,1110.308913,-1532.190996,7476.080014
1011.917190,740.205942,-2451.505594,7105.977043
1011.917519,-740.205942,153.219100,7846.182985
1011.917849,-1776.494261,2451.505594,8808.450710
1011.918178,-740.205942,2145.067394,8882.471304
1011.918508,1036.288319,2068.457845,8808.450710
1011.918837,1702.473667,1685.410096,8660.409521
1011.919167,1702.473667,1072.533697,8882.471304
1011.919496,2146.597232,995.924147,8882.471304
1011.919826,2146.597232,2451.505594,9992.780217
1011.920155,1258.350101,2834.553343,11843.295072
1011.920485,-1036.288319,3294.210641,12213.398043
1011.920814,-2146.597232,3294.210641,10955.047942
1011.921143,-2368.659014,1378.971896,9770.718434
1011.921473,-1332.370696,1225.752797,9770.718434
1011.921802,148.041188,1991.848295,10066.800811
1011.922132,1258.350101,1608.800546,8882.471304
1011.922461,74.020594,536.266849,6661.853478
1011.922791,-888.247130,229.828649,6365.771101
1011.923120,-1850.514855,1378.971896,7328.038826
1011.923450,-1554.432478,2298.286494,8216.285956
1011.923779,-1184.329507,2298.286494,8586.388927
1011.924109,-222.061783,1915.238745,9030.512492
1011.924438,0.000000,1915.238745,9474.636058
1011.924768,666.185348,1378.971896,9178.553681
1011.925097,370.102971,919.314598,10362.883188
1011.925427,-962.267725,1915.238745,12139.377449
1011.925756,-3108.864956,3600.648841,13323.706956
1011.926085,-4219.173869,3140.991542,12361.439231
1011.926415,-4515.256246,1378.971896,10362.883188
1011.926744,-3182.885551,153.219100,9548.656652
1011.927074,-1554.432478,-1149.143247,8660.409521
1011.927403,74.020594,-1378.971896,7402.059420
1011.927733,0.000000,-1915.238745,6143.709319
1011.928062,-962.267725,-1455.581446,6957.935855
1011.928392,-2516.700203,0.000000,8438.347739
1011.928721,-3997.112087,689.485948,9030.512492
1011.929051,-2812.782580,153.219100,9474.636058
1011.929380,-1110.308913,76.609550,10658.965565
1011.929710,74.020594,536.266849,10955.047942
1011.930039,444.123565,0.000000,10066.800811
1011.930368,296.082377,-842.705048,9622.677246
1011.930698,-444.123565,-229.828649,11029.068536
1011.931027,-1776.494261,842.705048,13027.624579
1011.931357,-3330.926739,2451.505594,12805.562797
1011.931686,-4441.235652,2221.676944,10732.986159
1011.932016,-2738.761985,-995.924147,9696.697840
1011.932345,-740.205942,-1991.848295,9548.656652
1011.932675,740.205942,-689.485948,8512.368333
1011.933004,888.247130,-1455.581446,7254.018232
1011.933334,-444.123565,-1608.800546,7698.141797
1011.933663,-2220.617826,1072.533697,9178.553681
1011.933993,-2960.823768,2604.724693,9770.718434
1011.934322,-1554.432478,1225.752797,9474.636058
1011.934652,148.041188,1225.752797,9178.553681
1011.934981,666.185348,1685.410096,9770.718434
1011.935310,1702.473667,842.705048,9918.759623
1011.935640,1776.494261,689.485948,9252.574275
1011.935969,1258.350101,1762.019645,10140.821405
1011.936299,0.000000,3830.477490,11695.253884
1011.936628,-814.226536,3677.258390,11103.089130
1011.936958,-1036.288319,2374.896044,9622.677246
1011.937287,0.000000,1532.190996,9252.574275
1011.937617,296.082377,1225.752797,9326.594869
1011.937946,1184.329507,2451.505594,8512.368333
1011.938276,1036.288319,1915.238745,7031.956449
1011.938605,888.247130,383.047749,6513.812290
1011.938935,-296.082377,842.705048,7698.141797
1011.939264,-1850.514855,1608.800546,8734.430116
1011.939593,-2368.659014,2604.724693,9178.553681
1011.939923,-1924.535449,2068.457845,9474.636058
1011.940252,-1406.391290,1225.752797,10362.883188
1011.940582,148.041188,1149.143247,10436.903782
1011.940911,370.102971,842.705048,9474.636058
1011.941241,370.102971,1378.971896,9178.553681
1011.941570,-888.247130,3140.991542,9844.739029
1011.941900,-2072.576638,4213.525239,10436.903782
1011.942229,-2960.823768,2834.553343,10362.883188
1011.942559,-3404.947333,919.314598,10510.924376
1011.942888,-3330.926739,1149.143247,10658.965565
1011.943218,-2368.659014,689.485948,10140.821405
1011.943547,-1554.432478,-1378.971896,8512.368333
1011.943876,-1258.350101,-2834.553343,7624.121203
1011.944206,-2294.638420,-2987.772442,8216.285956
1011.944535,-3404.947333,-995.924147,9696.697840
1011.944865,-3627.009116,1302.362347,9770.718434
1011.945194,-3552.988522,1532.190996,9844.739029
1011.945524,-1184.329507,306.438199,9770.718434
1011.945853,444.123565,0.000000,9548.656652
1011.946183,1924.535449,229.828649,8808.450710
1011.946512,2146.597232,153.219100,9252.574275
1011.946842,0.000000,842.705048,10436.903782
1011.947171,-2590.720797,2145.067394,12213.398043
1011.947501,-4589.276840,2221.676944,11843.295072
1011.947830,-3997.112087,0.000000,11473.192101
1011.948160,-3182.885551,-919.314598,11029.068536
1011.948489,-1998.556043,-1378.971896,9548.656652
1011.948818,-666.185348,-2451.505594,7624.121203
1011.949148,0.000000,-3140.991542,7105.977043
1011.949477,-518.144159,-1608.800546,7846.182985
1011.949807,-2072.576638,1225.752797,8808.450710
1011.950136,-2368.659014,2451.505594,8882.471304
1011.950466,-1628.453072,1685.410096,9326.594869
1011.950795,-666.185348,1378.971896,9622.677246
1011.951125,444.123565,1608.800546,9992.780217
1011.951454,1628.453072,612.876398,9252.574275
1011.951784,1184.329507,612.876398,9030.512492
1011.952113,-148.041188,1608.800546,10214.842000
1011.952443,-2368.659014,2221.676944,11991.336260
1011.952772,-3627.009116,3907.087040,11843.295072
1011.953101,-3701.029710,2757.943793,10658.965565
1011.953431,-2442.679609,2221.676944,9696.697840
1011.953760,-962.267725,1455.581446,8734.430116
1011.954090,-148.041188,153.219100,7402.059420
1011.954419,-222.061783,0.000000,6291.750507
1011.954749,-1480.411884,1225.752797,7105.977043
1011.955078,-2812.782580,2757.943793,9326.594869
1011.955408,-4737.318029,3447.429741,10288.862594
1011.955737,-5181.441594,3064.381992,9474.636058
1011.956067,-5033.400406,1608.800546,8660.409521
1011.956396,-3256.906145,766.095498,9548.656652
1011.956726,-1776.494261,995.924147,9474.636058
1011.957055,-1628.453072,1378.971896,8734.430116
1011.957385,-1480.411884,1378.971896,9252.574275
1011.957714,-2072.576638,2374.896044,10436.903782
1011.958043,-4071.132681,3677.258390,11843.295072
1011.958373,-6661.853478,3600.648841,11177.109724
1011.958702,-7402.059420,2451.505594,10658.965565
1011.959032,-6957.935855,1302.362347,10510.924376
1011.959361,-6069.688724,229.828649,10288.862594
1011.959691,-5181.441594,-1302.362347,7994.224174
1011.960020,-4293.194464,-2681.334243,5699.585753
1011.960350,-2960.823768,-2757.943793,5773.606348
1011.960679,-2220.617826,-1149.143247,7920.203579
1011.961009,-3034.844362,1225.752797,10066.800811
1011.961338,-4589.276840,2451.505594,10066.800811
1011.961668,-6217.729913,2987.772442,9992.780217
1011.961997,-6143.709319,2987.772442,11547.212695
1011.962326,-5107.421000,2604.724693,11917.315666
1011.962656,-4071.132681,995.924147,9844.739029
1011.962985,-3627.009116,-1225.752797,7254.018232
1011.963315,-2368.659014,-2221.676944,7846.182985
1011.963644,-1924.535449,-1685.410096,9918.759623
1011.963974,-2516.700203,-1149.143247,11769.274478
1011.964303,-5181.441594,0.000000,11843.295072
1011.964633,-7698.141797,2068.457845,11251.130318
1011.964962,-8586.388927,2298.286494,10732.986159
1011.965292,-6587.832884,229.828649,11029.068536
1011.965621,-5107.421000,-842.705048,10066.800811
1011.965951,-3775.050304,-1378.971896,8142.265362
1011.966280,-2220.617826,-2068.457845,6365.771101
1011.966609,-888.247130,-1762.019645,6365.771101
1011.966939,888.247130,-689.485948,7254.018232
1011.967268,1406.391290,0.000000,8438.347739
1011.967598,74.020594,1378.971896,9400.615463
1011.967927,-1998.556043,4443.353888,10955.047942
1011.968257,-4589.276840,4596.572988,12805.562797
1011.968586,-7105.977043,3983.696590,13397.727550
1011.968916,-8586.388927,2911.162892,12731.542202
1011.969245,-8216.285956,919.314598,10955.047942
1011.969575,-5773.606348,-1225.752797,9030.512492
1011.969904,-3108.864956,-2604.724693,7105.977043
1011.970234,-1702.473667,-2604.724693,5995.668130
1011.970563,-888.247130,-995.924147,5921.647536
1011.970893,-444.123565,1991.848295,6957.935855
1011.971222,-592.164754,4290.134789,8586.388927
1011.971551,-1998.556043,5439.278036,10584.944971
1011.971881,-3701.029710,4596.572988,11917.315666
1011.972210,-6513.812290,3447.429741,12213.398043
1011.972540,-8512.368333,2911.162892,12213.398043
1011.972869,-8290.306550,1532.190996,11547.212695
1011.973199,-6809.894666,0.000000,9400.615463
1011.973528,-4737.318029,-1685.410096,6513.812290
1011.973858,-1776.494261,-2681.334243,5403.503377
1011.974187,1036.288319,-995.924147,5403.503377
1011.974517,2738.761985,2451.505594,6513.812290
1011.974846,3256.906145,5362.668486,7328.038826
1011.975176,1850.514855,7507.735880,9178.553681
1011.975505,-666.185348,7584.345430,11325.150913
1011.975834,-3330.926739,6435.202183,13101.645173
1011.976164,-6587.832884,4290.134789,13397.727550
1011.976493,-10140.821405,1378.971896,12953.603985
1011.976823,-12509.480420,-3140.991542,13397.727550
1011.977152,-13471.748144,-5286.058936,12583.501014
1011.977482,-12509.480420,-5286.058936,9400.615463
1011.977811,-9030.512492,-6128.763984,5477.523971
1011.978141,-3775.050304,-5362.668486,3330.926739
1011.978470,222.061783,-2451.505594,3627.009116
1011.978800,2960.823768,919.314598,5847.626942
1011.979129,3478.967927,4749.792088,7994.224174
1011.979459,1776.494261,8810.098227,9474.636058
1011.979788,-592.164754,9882.631924,11325.150913
1011.980118,-2368.659014,6435.202183,13249.686362
1011.980447,-4737.318029,2757.943793,13693.809927
1011.980776,-7920.203579,-383.047749,11991.336260
1011.981106,-9770.718434,-4519.963438,11251.130318
1011.981435,-10140.821405,-6358.592633,11325.150913
1011.981765,-9770.718434,-5515.887586,11177.109724
1011.982094,-8512.368333,-5515.887586,8808.450710
1011.982424,-5107.421000,-3370.820191,6809.894666
1011.982753,-1110.308913,-1149.143247,6069.688724
1011.983083,1628.453072,1378.971896,7254.018232
1011.983412,2294.638420,3677.258390,8512.368333
1011.983742,444.123565,4519.963438,9770.718434
1011.984071,-2368.659014,5056.230287,11769.274478
1011.984401,-4885.359217,3524.039291,13471.748144
1011.984730,-7105.977043,2068.457845,13175.665768
1011.985059,-8290.306550,-1149.143247,11473.192101
1011.985389,-7105.977043,-4136.915689,8364.327145
1011.985718,-4959.379811,-5209.449386,7254.018232
1011.986048,-2368.659014,-3600.648841,7328.038826
1011.986377,-1332.370696,-689.485948,7179.997637
1011.986707,-518.144159,1838.629195,7254.018232
1011.987036,-592.164754,5209.449386,8290.306550
1011.987366,296.082377,8120.612279,10066.800811
1011.987695,-666.185348,8656.879127,11029.068536
1011.988025,-1998.556043,6665.030833,11547.212695
1011.988354,-4145.153275,3753.867940,12139.377449
1011.988684,-5995.668130,1225.752797,11917.315666
1011.989013,-7698.141797,459.657299,11325.150913
1011.989342,-8956.491898,-1532.190996,9400.615463
1011.989672,-8142.265362,-2068.457845,7698.141797
1011.990001,-5477.523971,-1072.533697,7179.997637
1011.990331,-2442.679609,612.876398,6809.894666
1011.990660,-296.082377,2068.457845,6365.771101
1011.990990,444.123565,4290.134789,6439.791695
1011.991319,-518.144159,6588.421283,7994.224174
1011.991649,-1036.288319,7507.735880,9770.718434
1011.991978,-1998.556043,7201.297681,11177.109724
1011.992308,-3034.844362,5669.106685,11769.274478
1011.992637,-2886.803174,3524.039291,10732.986159
1011.992967,-2960.823768,1149.143247,10066.800811
1011.993296,-2738.761985,-459.657299,9252.574275
1011.993626,-2960.823768,0.000000,8734.430116
1011.993955,-2442.679609,1302.362347,8512.368333
1011.994284,-2368.659014,3140.991542,8586.388927
1011.994614,-2368.659014,4136.915689,9548.656652
1011.994943,-2294.638420,4903.011187,9918.759623
1011.995273,-1554.432478,5515.887586,10066.800811
1011.995602,-1406.391290,4903.011187,9918.759623
1011.995932,-1702.473667,4673.182538,10066.800811
1011.996261,-1850.514855,3064.381992,10288.862594
1011.996591,-1924.535449,2374.896044,9770.718434
1011.996920,-1850.514855,2145.067394,9548.656652
1011.997250,-1776.494261,1608.800546,9696.697840
1011.997579,-1554.432478,2681.334243,10140.821405
1011.997909,-962.267725,4213.525239,11251.130318
1011.998238,-2220.617826,5745.716235,11103.089130
1011.998567,-3404.947333,6281.983084,10732.986159
1011.998897,-3627.009116,5822.325785,9918.759623
1011.999226,-2664.741391,5975.544884,9030.512492
1011.999556,-2072.576638,3830.477490,7476.080014
1011.999885,-888.247130,2298.286494,6513.812290
1012.000215,0.000000,689.485948,5699.585753
1012.000544,-296.082377,153.219100,5773.606348
1012.000874,-1036.288319,1149.143247,7105.977043
1012.001203,-1776.494261,2681.334243,8586.388927
1012.001533,-2442.679609,4519.963438,9918.759623
1012.001862,-2516.700203,5132.839837,10807.006753
1012.002192,-1850.514855,5592.497135,11251.130318
1012.002521,-1110.308913,5745.716235,11251.130318
1012.002851,0.000000,4903.011187,10584.944971
1012.003180,222.061783,4519.963438,10658.965565
1012.003509,-222.061783,4136.915689,10214.842000
1012.003839,-740.205942,3677.258390,9400.615463
1012.004168,-814.226536,2987.772442,8734.430116
1012.004498,0.000000,2834.553343,8882.471304
1012.004827,444.123565,2528.115143,8660.409521
1012.005156,74.020594,2451.505594,9474.636058
1012.005486,-1332.370696,3140.991542,10214.842000
1012.005815,-2664.741391,4136.915689,10807.006753
1012.006145,-3330.926739,4826.401637,11177.109724
1012.006475,-2664.741391,5439.278036,11399.171507
1012.006804,-1480.411884,4596.572988,11547.212695
1012.007134,-1110.308913,4519.963438,10436.903782
1012.007463,-888.247130,4903.011187,9622.677246
1012.007793,0.000000,5286.058936,9548.656652
1012.008122,666.185348,6435.202183,9178.553681
1012.008452,1036.288319,6128.763984,8068.244768
1012.008781,962.267725,4673.182538,6735.874072
1012.009111,666.185348,3140.991542,6291.750507
1012.009440,296.082377,2068.457845,6957.935855
1012.009770,-962.267725,2068.457845,7994.224174
1012.010099,-2738.761985,3140.991542,8734.430116
1012.010429,-3552.988522,3064.381992,9992.780217
1012.010758,-3627.009116,3600.648841,10807.006753
1012.011088,-2812.782580,4519.963438,11251.130318
1012.011417,-2146.597232,5592.497135,10955.047942
1012.011747,-1258.350101,5669.106685,9622.677246
1012.012076,-296.082377,6435.202183,9326.594869
1012.012406,370.102971,6358.592633,9474.636058
1012.012735,0.000000,5898.935335,8882.471304
1012.013065,-1110.308913,5669.106685,7698.141797
1012.013394,-1554.432478,4596.572988,6365.771101
1012.013724,-1776.494261,1685.410096,5847.626942
1012.014053,-1184.329507,-459.657299,6809.894666
1012.014383,-1480.411884,-689.485948,7624.121203
1012.014712,-1924.535449,-612.876398,8882.471304
1012.015042,-2294.638420,919.314598,10510.924376
1012.015371,-1850.514855,3677.258390,11917.315666
1012.015701,-888.247130,4903.011187,13249.686362
1012.016030,0.000000,5822.325785,13545.768739
1012.016360,148.041188,6281.983084,13249.686362
1012.016689,296.082377,6435.202183,11843.295072
1012.017019,740.205942,5515.887586,11399.171507
1012.017348,74.020594,4136.915689,9918.759623
1012.017678,-370.102971,2528.115143,9104.533087
1012.018007,-1332.370696,1838.629195,8512.368333
1012.018337,-2146.597232,1838.629195,8216.285956
1012.018667,-1702.473667,1915.238745,7550.100608
1012.018996,-1258.350101,459.657299,7476.080014
1012.019326,-444.123565,1378.971896,8068.244768
1012.019655,0.000000,2068.457845,9474.636058
1012.019985,0.000000,3524.039291,10584.944971
1012.020314,-740.205942,5439.278036,11325.150913
1012.020644,-1184.329507,6894.859482,11843.295072
1012.020973,-1998.556043,7354.516781,12065.356855
1012.021303,-1628.453072,6741.640382,12509.480420
1012.021632,-1702.473667,6128.763984,11843.295072
1012.021962,-2812.782580,5822.325785,9770.718434
1012.022291,-2960.823768,5132.839837,6809.894666
1012.022621,-1480.411884,3830.477490,3627.009116
1012.022950,1406.391290,1915.238745,3108.864956
1012.023280,3701.029710,1685.410096,3775.050304
1012.023609,3182.885551,2911.162892,4885.359217
1012.023939,666.185348,3600.648841,6513.812290
1012.024268,-2072.576638,5822.325785,9104.533087
1012.024598,-4071.132681,6818.249932,12287.418637
1012.024927,-4737.318029,6818.249932,15026.180623
1012.025257,-5255.462188,6665.030833,15618.345376
1012.025586,-5551.544565,5822.325785,13693.809927
1012.025916,-4441.235652,4136.915689,10955.047942
1012.026245,-2516.700203,1915.238745,9030.512492
1012.026575,444.123565,1991.848295,7328.038826
1012.026904,2960.823768,2298.286494,5699.585753
1012.027234,4589.276840,3370.820191,4589.276840
1012.027563,5625.565159,4213.525239,5033.400406
1012.027893,4145.153275,4290.134789,6957.935855
1012.028222,740.205942,5439.278036,9918.759623
1012.028552,-2886.803174,7354.516781,12657.521608
1012.028881,-4885.359217,6894.859482,14434.015869
1012.029211,-4737.318029,4136.915689,13915.871710
1012.029540,-4293.194464,919.314598,12139.377449
1012.029870,-3182.885551,-2757.943793,9326.594869
1012.030200,-2220.617826,-2987.772442,6957.935855
1012.030529,-962.267725,-1072.533697,6957.935855
1012.030859,0.000000,1455.581446,7994.224174
1012.031188,74.020594,2528.115143,8660.409521
1012.031518,-370.102971,3370.820191,8142.265362
1012.031847,0.000000,3830.477490,8068.244768
1012.032177,592.164754,2604.724693,9252.574275
1012.032506,296.082377,2298.286494,11029.068536
1012.032836,-962.267725,1685.410096,12657.521608
1012.033165,-2812.782580,1915.238745,13471.748144
1012.033495,-3404.947333,2451.505594,12879.583391
1012.033824,-3034.844362,995.924147,11695.253884
1012.034154,-1924.535449,-229.828649,9770.718434
1012.034483,-1036.288319,-536.266849,6513.812290
1012.034813,592.164754,-2145.067394,4811.338623
1012.035142,2294.638420,-3370.820191,4811.338623
1012.035472,2220.617826,-2221.676944,6217.729913
1012.035801,592.164754,536.266849,8290.306550
1012.036131,-1184.329507,1762.019645,10955.047942
1012.036460,-2368.659014,2911.162892,13545.768739
1012.036790,-3182.885551,4136.915689,14656.077652
1012.037119,-3404.947333,3370.820191,13693.809927
1012.037449,-2590.720797,1532.190996,10807.006753
1012.037778,-1258.350101,-1378.971896,8882.471304
1012.038108,148.041188,-2451.505594,8142.265362
1012.038437,814.226536,-766.095498,7920.203579
1012.038767,-148.041188,1838.629195,8216.285956
1012.039096,-814.226536,3064.381992,8882.471304
1012.039426,-1332.370696,2987.772442,9178.553681
1012.039755,-1628.453072,2528.115143,9030.512492
1012.040085,-962.267725,1991.848295,7846.182985
1012.040414,-296.082377,306.438199,8660.409521
1012.040744,148.041188,-306.438199,9474.636058
1012.041073,-148.041188,153.219100,11399.171507
1012.041403,-1258.350101,1915.238745,12583.501014
1012.041733,-1850.514855,4366.744339,12583.501014
1012.042062,-2220.617826,4979.620737,12287.418637
1012.042392,-1480.411884,4519.963438,10510.924376
1012.042721,-296.082377,3140.991542,7920.203579
1012.043051,592.164754,1149.143247,5995.668130
1012.043380,888.247130,842.705048,5477.523971
1012.043710,-148.041188,2221.676944,6513.812290
1012.044039,-1628.453072,3370.820191,7105.977043
1012.044369,-2146.597232,3064.381992,8734.430116
1012.044698,-2516.700203,2834.553343,10066.800811
1012.045028,-2812.782580,3370.820191,9400.615463
1012.045357,-2220.617826,2221.676944,7624.121203
1012.045687,-666.185348,-842.705048,6883.915261
1012.046016,370.102971,-1991.848295,7920.203579
1012.046346,148.041188,76.609550,9696.697840
1012.046675,-370.102971,2757.943793,10288.862594
1012.047005,-1776.494261,3140.991542,10732.986159
1012.047334,-1850.514855,2451.505594,11029.068536
1012.047664,-1406.391290,2298.286494,11177.109724
1012.047993,-740.205942,306.438199,10214.842000
1012.048323,592.164754,-766.095498,9400.615463
1012.048652,518.144159,-1915.238745,9474.636058
1012.048982,222.061783,-306.438199,10584.944971
1012.049311,-888.247130,536.266849,11621.233289
1012.049641,-1258.350101,1608.800546,12287.418637
1012.049970,-1628.453072,2221.676944,11695.253884
1012.050300,-1480.411884,1762.019645,10288.862594
1012.050629,-1036.288319,-536.266849,8808.450710
1012.050959,0.000000,-3447.429741,7550.100608
1012.051288,-148.041188,-5286.058936,7031.956449
1012.051618,-962.267725,-3983.696590,7772.162391
1012.051947,-1406.391290,-1915.238745,9770.718434
1012.052277,-1628.453072,-766.095498,11325.150913
1012.052606,-2368.659014,1149.143247,12953.603985
1012.052936,-2664.741391,2528.115143,12583.501014
1012.053266,-1924.535449,1991.848295,10584.944971
1012.053595,0.000000,0.000000,9178.553681
1012.053925,888.247130,-383.047749,9030.512492
1012.054254,1036.288319,-383.047749,9474.636058
1012.054584,0.000000,76.609550,9030.512492
1012.054913,-296.082377,383.047749,9104.533087
1012.055243,-1110.308913,76.609550,9548.656652
1012.055572,-1850.514855,1302.362347,9400.615463
1012.055902,-1480.411884,1225.752797,8512.368333
1012.056231,-370.102971,-995.924147,7402.059420
1012.056561,814.226536,-2374.896044,7476.080014
1012.056890,888.247130,-842.705048,9474.636058
1012.057220,-148.041188,2145.067394,11103.089130
1012.057549,-1924.535449,4213.525239,11695.253884
1012.057879,-2590.720797,5515.887586,12065.356855
1012.058208,-2220.617826,5286.058936,11695.253884
1012.058538,-1776.494261,3677.258390,9918.759623
1012.058867,-1110.308913,2068.457845,7402.059420
1012.059197,148.041188,-459.657299,6957.935855
1012.059526,74.020594,-383.047749,7328.038826
1012.059856,-1184.329507,2298.286494,8364.327145
1012.060185,-2368.659014,2987.772442,9400.615463
1012.060515,-2960.823768,3447.429741,10288.862594
1012.060844,-3627.009116,4596.572988,10584.944971
1012.061174,-2146.597232,4443.353888,9548.656652
1012.061503,-888.247130,1838.629195,7624.121203
1012.061833,370.102971,-612.876398,6957.935855
1012.062162,1258.350101,-536.266849,7994.224174
1012.062492,444.123565,1455.581446,8956.491898
1012.062821,-296.082377,2834.553343,9474.636058
1012.063151,-888.247130,3830.477490,10436.903782
1012.063480,-1554.432478,4366.744339,11103.089130
1012.063810,-1110.308913,3830.477490,10436.903782
1012.064139,74.020594,995.924147,9104.533087
1012.064469,1036.288319,153.219100,7920.203579
1012.064798,962.267725,-383.047749,7846.182985
1012.065128,0.000000,0.000000,9326.594869
1012.065458,-1480.411884,1532.190996,10584.944971
1012.065787,-2738.761985,2757.943793,10584.944971
1012.066117,-2590.720797,2681.334243,10362.883188
1012.066446,-2590.720797,612.876398,8956.491898
1012.066776,-1480.411884,-2374.896044,7476.080014
1012.067105,0.000000,-4673.182538,6883.915261
1012.067435,-444.123565,-4903.011187,7550.100608
1012.067764,-888.247130,-2374.896044,9400.615463
1012.068094,-1184.329507,-842.705048,11325.150913
1012.068423,-1850.514855,766.095498,13397.727550
1012.068753,-2294.638420,2221.676944,14285.974681
1012.069082,-2146.597232,2068.457845,12805.562797
1012.069412,-444.123565,-306.438199,10362.883188
1012.069741,814.226536,-1915.238745,9400.615463
1012.070071,1628.453072,-2911.162892,9474.636058
1012.070400,888.247130,-2604.724693,10288.862594
1012.070730,-222.061783,-1149.143247,10288.862594
1012.071059,-1628.453072,0.000000,10436.903782
1012.071389,-2294.638420,306.438199,10436.903782
1012.071718,-2220.617826,153.219100,10140.821405
1012.072048,-666.185348,-919.314598,8290.306550
1012.072377,592.164754,-3907.087040,6809.894666
1012.072707,1406.391290,-4060.306139,7402.059420
1012.073036,444.123565,-1838.629195,9474.636058
1012.073366,-962.267725,306.438199,11029.068536
1012.073695,-2590.720797,2911.162892,11991.336260
1012.074025,-3182.885551,4903.011187,12509.480420
1012.074354,-2516.700203,3983.696590,11325.150913
1012.074684,-1702.473667,2068.457845,8364.327145
1012.075013,148.041188,-1149.143247,7031.956449
1012.075343,666.185348,-2528.115143,6587.832884
1012.075672,74.020594,-459.657299,7402.059420
1012.076002,-1406.391290,2604.724693,8882.471304
1012.076331,-2368.659014,3294.210641,9548.656652
1012.076661,-2590.720797,3983.696590,9992.780217
1012.076991,-2442.679609,4443.353888,9178.553681
1012.077320,-666.185348,2757.943793,7328.038826
1012.077650,1036.288319,76.609550,6143.709319
1012.077979,1850.514855,-995.924147,6735.874072
1012.078309,1110.308913,0.000000,8142.265362
1012.078638,-296.082377,2068.457845,10066.800811
1012.078968,-1776.494261,4290.134789,11843.295072
1012.079297,-2516.700203,5515.887586,12731.542202
1012.079627,-2738.761985,5439.278036,11843.295072
1012.079956,-1776.494261,3907.087040,9474.636058
1012.080286,148.041188,842.705048,7328.038826
1012.080615,1406.391290,-1225.752797,7179.997637
1012.080945,518.144159,536.266849,8438.347739
1012.081274,-1480.411884,2757.943793,9326.594869
1012.081604,-2516.700203,2604.724693,10584.944971
1012.081933,-3404.947333,2987.772442,10732.986159
1012.082263,-3923.091493,3140.991542,10436.903782
1012.082592,-2886.803174,1302.362347,9178.553681
1012.082922,-814.226536,-2145.067394,7328.038826
1012.083251,222.061783,-4213.525239,7105.977043
1012.083581,148.041188,-3370.820191,8216.285956
1012.083910,-444.123565,-689.485948,10288.862594
1012.084240,-888.247130,1225.752797,11547.212695
1012.084569,-888.247130,2604.724693,12953.603985
1012.084899,-1110.308913,3830.477490,12805.562797
1012.085228,-148.041188,2911.162892,10807.006753
1012.085558,592.164754,-153.219100,8660.409521
1012.085887,1776.494261,-2374.896044,8068.244768
1012.086217,1776.494261,-2681.334243,8808.450710
1012.086546,370.102971,-1838.629195,9770.718434
1012.086876,-1480.411884,-689.485948,10732.986159
1012.087205,-2738.761985,612.876398,11251.130318
1012.087535,-3701.029710,1532.190996,11103.089130
1012.087864,-2664.741391,153.219100,8586.388927
1012.088194,-370.102971,-2604.724693,6661.853478
1012.088524,1702.473667,-5056.230287,6661.853478
1012.088853,1554.432478,-2528.115143,7328.038826
1012.089183,-296.082377,-153.219100,9178.553681
1012.089512,-1776.494261,1915.238745,10807.006753
1012.089842,-2960.823768,2834.553343,12213.398043
1012.090171,-3182.885551,3677.258390,12731.542202
1012.090501,-2886.803174,2604.724693,11103.089130
1012.090830,-740.205942,0.000000,8438.347739
1012.091160,518.144159,-2834.553343,7179.997637
1012.091489,148.041188,-2757.943793,7550.100608
1012.091819,-962.267725,-689.485948,9326.594869
1012.092148,-1776.494261,2298.286494,11547.212695
1012.092478,-2590.720797,4519.963438,11769.274478
1012.092807,-3034.844362,5669.106685,11325.150913
1012.093137,-2146.597232,3370.820191,9474.636058
1012.093466,0.000000,-995.924147,7105.977043
1012.093796,1850.514855,-2757.943793,6735.874072
1012.094125,1776.494261,-1685.410096,7624.121203
1012.094455,0.000000,842.705048,9622.677246
1012.094784,-1850.514855,2528.115143,10881.027347
1012.095114,-2664.741391,3830.477490,12583.501014
1012.095443,-3182.885551,5362.668486,13175.665768
1012.095773,-3034.844362,5209.449386,11029.068536
1012.096102,-666.185348,2681.334243,7772.162391
1012.096432,1036.288319,-612.876398,6069.688724
1012.096761,1554.432478,-1762.019645,6513.812290
1012.097091,518.144159,1072.533697,8808.450710
1012.097420,-1628.453072,3524.039291,9844.739029
1012.097750,-3478.967927,4136.915689,10066.800811
1012.098079,-4293.194464,4290.134789,10362.883188
1012.098409,-3478.967927,1838.629195,9178.553681
1012.098738,-1628.453072,-995.924147,7402.059420
1012.099068,-296.082377,-2757.943793,5995.668130
1012.099397,592.164754,-2451.505594,6217.729913
1012.099727,444.123565,-1149.143247,8364.327145
1012.100057,-296.082377,919.314598,10732.986159
1012.100386,-1554.432478,3064.381992,12213.398043
1012.100716,-1998.556043,4519.963438,12583.501014
1012.101045,-1480.411884,3600.648841,11547.212695
1012.101375,0.000000,153.219100,9326.594869
1012.101704,1406.391290,-2374.896044,8734.430116
1012.102034,1628.453072,-2604.724693,9252.574275
1012.102363,296.082377,-383.047749,10214.842000
1012.102693,-888.247130,612.876398,11177.109724
1012.103022,-1702.473667,1685.410096,11769.274478
1012.103352,-2368.659014,1608.800546,11547.212695
1012.103681,-2368.659014,1225.752797,10066.800811
1012.104011,-1110.308913,-383.047749,7624.121203
1012.104340,814.226536,-2757.943793,6883.915261
1012.104670,1184.329507,-3064.381992,8068.244768
1012.104999,0.000000,-1685.410096,10214.842000
1012.105329,-2368.659014,689.485948,11325.150913
1012.105658,-3330.926739,2298.286494,12361.439231
1012.105988,-3478.967927,3753.867940,13027.624579
1012.106317,-3256.906145,3370.820191,11991.336260
1012.106647,-2072.576638,766.095498,9326.594869
1012.106976,0.000000,-1608.800546,7698.141797
1012.107306,1110.308913,-1991.848295,7105.977043
1012.107636,296.082377,459.657299,8364.327145
1012.107965,-814.226536,2911.162892,9474.636058
1012.108295,-1332.370696,3370.820191,10066.800811
1012.108624,-1776.494261,3447.429741,9918.759623
1012.108954,-1702.473667,3600.648841,8956.491898
1012.109284,-814.226536,1915.238745,7328.038826
1012.109613,592.164754,-459.657299,6809.894666
1012.109943,1258.350101,-1072.533697,7476.080014
1012.110272,222.061783,306.438199,8512.368333
1012.110602,-962.267725,2298.286494,9696.697840
1012.110932,-1776.494261,3600.648841,10436.903782
1012.111261,-2516.700203,4826.401637,11325.150913
1012.111591,-2738.761985,5132.839837,10658.965565
1012.111920,-2294.638420,3140.991542,8808.450710
1012.112250,-962.267725,766.095498,6661.853478
1012.112580,0.000000,-536.266849,7179.997637
1012.112909,0.000000,0.000000,9178.553681
1012.113239,-1480.411884,1762.019645,9918.759623
1012.113568,-2664.741391,3217.601092,9474.636058
1012.113898,-2960.823768,2911.162892,11029.068536
1012.114228,-3182.885551,3294.210641,11843.295072
1012.114557,-2442.679609,2451.505594,10658.965565
1012.114887,-1036.288319,-689.485948,8068.244768
1012.115216,444.123565,-3524.039291,6957.935855
1012.115546,1036.288319,-2528.115143,9030.512492
1012.115876,222.061783,0.000000,11177.109724
1012.116205,-740.205942,1608.800546,11917.315666
1012.116535,-1628.453072,2757.943793,12287.418637
1012.116864,-1850.514855,2757.943793,12435.459826
1012.117194,-888.247130,1838.629195,11547.212695
1012.117524,-148.041188,306.438199,9622.677246
1012.117853,518.144159,-1225.752797,8660.409521
1012.118183,592.164754,-1838.629195,8512.368333
1012.118512,-222.061783,-766.095498,9030.512492
1012.118842,-1110.308913,0.000000,9474.636058
1012.119172,-1924.535449,229.828649,10362.883188
1012.119501,-2664.741391,1455.581446,10140.821405
1012.119831,-2516.700203,1149.143247,8586.388927
1012.120160,-814.226536,-1532.190996,7105.977043
1012.120490,1480.411884,-3140.991542,7105.977043
1012.120820,1406.391290,-2221.676944,8438.347739
1012.121149,-222.061783,306.438199,10066.800811
1012.121479,-1702.473667,2374.896044,10881.027347
1012.121808,-2220.617826,3524.039291,11917.315666
1012.122138,-2738.761985,3907.087040,12435.459826
1012.122468,-2664.741391,3677.258390,10955.047942
1012.122797,-1332.370696,1378.971896,8438.347739
1012.123127,518.144159,-2068.457845,6957.935855
1012.123457,518.144159,-2298.286494,7476.080014
1012.123786,-888.247130,842.705048,8882.471304
1012.124116,-2072.576638,2145.067394,9844.739029
1012.124445,-2294.638420,3064.381992,10140.821405
1012.124775,-2442.679609,3907.087040,10140.821405
1012.125105,-2072.576638,3753.867940,8882.471304
1012.125434,-518.144159,1149.143247,7698.141797
1012.125764,1184.329507,-1225.752797,7254.018232
1012.126093,888.247130,-306.438199,8512.368333
1012.126423,-444.123565,1762.019645,9770.718434
1012.126753,-1776.494261,3064.381992,11473.192101
1012.127082,-2590.720797,4366.744339,12583.501014
1012.127412,-2960.823768,5362.668486,12583.501014
1012.127741,-2738.761985,5056.230287,11177.109724
1012.128071,-1332.370696,2451.505594,8808.450710
1012.128401,0.000000,0.000000,7031.956449
1012.128730,-148.041188,-919.314598,6883.915261
1012.129060,-1184.329507,612.876398,7920.203579
1012.129389,-2220.617826,2145.067394,8808.450710
1012.129719,-2812.782580,3294.210641,9992.780217
1012.130049,-3478.967927,3217.601092,9918.759623
1012.130378,-3108.864956,2145.067394,9474.636058
1012.130708,-962.267725,306.438199,8586.388927
1012.131037,592.164754,-1838.629195,7105.977043
1012.131367,888.247130,-1608.800546,7328.038826
1012.131697,592.164754,-153.219100,9252.574275
1012.132026,0.000000,1302.362347,10955.047942
1012.132356,-666.185348,3140.991542,11843.295072
1012.132685,-1036.288319,4136.915689,12139.377449
1012.133015,-888.247130,3447.429741,10658.965565
1012.133345,-740.205942,995.924147,8882.471304
1012.133674,74.020594,-1455.581446,7550.100608
1012.134004,962.267725,-3064.381992,7846.182985
1012.134333,0.000000,-2221.676944,8364.327145
1012.134663,-1924.535449,0.000000,9622.677246
1012.134993,-2812.782580,766.095498,11103.089130
1012.135322,-3627.009116,1225.752797,11325.150913
1012.135652,-3552.988522,1302.362347,9918.759623
1012.135981,-1776.494261,-536.266849,8290.306550
1012.136311,518.144159,-2451.505594,7698.141797
1012.136641,1628.453072,-3447.429741,8660.409521
1012.136970,296.082377,-1991.848295,10066.800811
1012.137300,-1258.350101,306.438199,11325.150913
1012.137629,-2368.659014,2145.067394,12879.583391
1012.137959,-3034.844362,3983.696590,13619.789333
1012.138289,-2516.700203,3600.648841,13027.624579
1012.138618,-1554.432478,1608.800546,10510.924376
1012.138948,74.020594,-689.485948,7994.224174
1012.139278,1258.350101,-1915.238745,7476.080014
1012.139607,814.226536,-842.705048,8512.368333
1012.139937,-518.144159,1915.238745,9622.677246
1012.140266,-2146.597232,3370.820191,10066.800811
1012.140596,-2738.761985,3677.258390,9918.759623
1012.140926,-2590.720797,3064.381992,9104.533087
1012.141255,-1924.535449,1225.752797,7328.038826
1012.141585,-592.164754,-1149.143247,5995.668130
1012.141914,518.144159,-1991.848295,6957.935855
1012.142244,0.000000,153.219100,8512.368333
1012.142574,-1332.370696,2681.334243,9992.780217
1012.142903,-2072.576638,3524.039291,10881.027347
1012.143233,-2516.700203,5592.497135,11695.253884
1012.143562,-1998.556043,6128.763984,11621.233289
1012.143892,-1554.432478,5132.839837,9400.615463
1012.144222,74.020594,1685.410096,6365.771101
1012.144551,1406.391290,-1532.190996,5551.544565
1012.144881,1406.391290,-383.047749,7476.080014
1012.145210,-296.082377,2757.943793,9326.594869
1012.145540,-2368.659014,3677.258390,9622.677246
1012.145870,-3552.988522,2987.772442,9548.656652
1012.146199,-3182.885551,2298.286494,10658.965565
1012.146529,-2072.576638,1302.362347,9622.677246
1012.146858,-740.205942,306.438199,8068.244768
1012.147188,888.247130,-1378.971896,7254.018232
1012.147518,740.205942,-1149.143247,8364.327145
1012.147847,0.000000,229.828649,10732.986159
1012.148177,-1110.308913,2451.505594,12435.459826
1012.148506,-2294.638420,3447.429741,13101.645173
1012.148836,-2368.659014,4290.134789,12213.398043
1012.149166,-2072.576638,2451.505594,10658.965565
1012.149495,-370.102971,-1225.752797,9104.533087
1012.149825,740.205942,-3217.601092,8882.471304
1012.150154,74.020594,-1991.848295,8956.491898
1012.150484,-1332.370696,-383.047749,9474.636058
1012.150814,-2368.659014,76.609550,10510.924376
1012.151143,-2738.761985,995.924147,11547.212695
1012.151473,-2886.803174,1838.629195,10732.986159
1012.151802,-2146.597232,153.219100,9030.512492
1012.152132,-370.102971,-2145.067394,6809.894666
1012.152462,888.247130,-3677.258390,6513.812290
1012.152791,740.205942,-3983.696590,8142.265362
1012.153121,-370.102971,-1608.800546,10436.903782
1012.153450,-1924.535449,995.924147,11473.192101
1012.153780,-2516.700203,2757.943793,12361.439231
1012.154110,-2664.741391,3524.039291,11991.336260
1012.154439,-2220.617826,2068.457845,10955.047942
1012.154769,-296.082377,-229.828649,8734.430116
1012.155099,740.205942,-1838.629195,7328.038826
1012.155428,888.247130,-2221.676944,7328.038826
1012.155758,0.000000,-153.219100,9178.553681
1012.156087,-1406.391290,995.924147,10288.862594
1012.156417,-2368.659014,1762.019645,10732.986159
1012.156747,-3034.844362,3370.820191,10807.006753
1012.157076,-2590.720797,2987.772442,9770.718434
1012.157406,-962.267725,1072.533697,7179.997637
1012.157735,592.164754,-2757.943793,6587.832884
1012.158065,1110.308913,-2757.943793,7994.224174
1012.158395,0.000000,306.438199,9622.677246
1012.158724,-1702.473667,2834.553343,11251.130318
1012.159054,-2294.638420,4979.620737,11843.295072
1012.159383,-2368.659014,5822.325785,12139.377449
1012.159713,-1776.494261,4673.182538,10732.986159
1012.160043,-148.041188,2834.553343,8438.347739
1012.160372,1406.391290,1072.533697,6809.894666
1012.160702,1332.370696,689.485948,6439.791695
1012.161031,0.000000,1378.971896,7476.080014
1012.161361,-1406.391290,2604.724693,9326.594869
1012.161691,-3034.844362,3447.429741,10140.821405
1012.162020,-4145.153275,4060.306139,10658.965565
1012.162350,-4071.132681,2681.334243,9548.656652
1012.162679,-2368.659014,0.000000,7476.080014
1012.163009,-148.041188,-2757.943793,6883.915261
1012.163339,518.144159,-2451.505594,7698.141797
1012.163668,-370.102971,-153.219100,9400.615463
1012.163998,-1406.391290,2145.067394,10955.047942
1012.164327,-2072.576638,2757.943793,12139.377449
1012.164657,-1628.453072,3983.696590,13323.706956
1012.164987,-1702.473667,3907.087040,12509.480420
1012.165316,-888.247130,1915.238745,9918.759623
1012.165646,814.226536,-1608.800546,7772.162391
1012.165975,1776.494261,-3140.991542,7624.121203
1012.166305,1184.329507,-2068.457845,9474.636058
1012.166635,-888.247130,0.000000,10584.944971
1012.166964,-2146.597232,995.924147,10955.047942
1012.167294,-2442.679609,1532.190996,11399.171507
1012.167623,-2516.700203,1149.143247,10066.800811
1012.167953,-1184.329507,-1225.752797,8142.265362
1012.168283,296.082377,-4673.182538,6291.750507
1012.168612,962.267725,-5669.106685,7031.956449
1012.168942,-222.061783,-3140.991542,8660.409521
1012.169272,-1850.514855,-459.657299,10955.047942
1012.169601,-2738.761985,842.705048,12139.377449
1012.169931,-3330.926739,1302.362347,12731.542202
1012.170260,-3256.906145,2451.505594,12435.459826
1012.170590,-1554.432478,1225.752797,10436.903782
1012.170920,296.082377,-1302.362347,7920.203579
1012.171249,1332.370696,-3370.820191,7402.059420
1012.171579,1110.308913,-1532.190996,8512.368333
1012.171908,-222.061783,842.705048,10066.800811
1012.172238,-1776.494261,2834.553343,10732.986159
1012.172568,-2516.700203,2221.676944,10362.883188
1012.172897,-2442.679609,1149.143247,10214.842000
1012.173227,-1480.411884,536.266849,8882.471304
1012.173556,0.000000,-1455.581446,7179.997637
1012.173886,740.205942,-3064.381992,6735.874072
1012.174216,370.102971,-1991.848295,8068.244768
1012.174545,-888.247130,995.924147,10658.965565
1012.174875,-2146.597232,3600.648841,11769.274478
1012.175204,-2368.659014,4826.401637,12509.480420
1012.175534,-2368.659014,5592.497135,11843.295072
1012.175864,-1850.514855,4596.572988,10140.821405
1012.176193,0.000000,2298.286494,8216.285956
1012.176523,1480.411884,306.438199,7550.100608
1012.176852,1480.411884,76.609550,7402.059420
1012.177182,-222.061783,2374.896044,8882.471304
1012.177512,-1776.494261,3753.867940,9918.759623
1012.177841,-2738.761985,4136.915689,10732.986159
1012.178171,-3182.885551,4136.915689,9918.759623
1012.178500,-2516.700203,3140.991542,7920.203579
1012.178830,-592.164754,383.047749,6513.812290
1012.179160,962.267725,-1838.629195,6735.874072
1012.179489,592.164754,-919.314598,7698.141797
1012.179819,-740.205942,1455.581446,8660.409521
1012.180148,-1480.411884,2987.772442,9844.739029
1012.180478,-1554.432478,3907.087040,11621.233289
1012.180808,-1850.514855,4979.620737,12287.418637
1012.181137,-2072.576638,3830.477490,10732.986159
1012.181467,-444.123565,1532.190996,8512.368333
1012.181796,1036.288319,-842.705048,7031.956449
1012.182126,1184.329507,-1608.800546,7772.162391
1012.182456,-296.082377,0.000000,9696.697840
1012.182785,-1554.432478,2374.896044,10807.006753
1012.183115,-2738.761985,2451.505594,10881.027347
1012.183444,-3034.844362,1685.410096,9992.780217
1012.183774,-2368.659014,0.000000,8956.491898
1012.184104,-518.144159,-2604.724693,8068.244768
1012.184433,666.185348,-3983.696590,7624.121203
1012.184763,592.164754,-3907.087040,7846.182985
1012.185093,-592.164754,-2298.286494,9326.594869
1012.185422,-1702.473667,-306.438199,11399.171507
1012.185752,-1924.535449,1149.143247,13249.686362
1012.186081,-2664.741391,2681.334243,13545.768739
1012.186411,-1776.494261,1455.581446,12213.398043
1012.186741,-296.082377,-612.876398,10066.800811
1012.187070,1258.350101,-1302.362347,8882.471304
1012.187400,1332.370696,-2528.115143,8734.430116
1012.187729,814.226536,-1532.190996,9992.780217
1012.188059,-592.164754,536.266849,10807.006753
1012.188389,-1924.535449,1915.238745,11473.192101
1012.188718,-2664.741391,1608.800546,11029.068536
1012.189048,-2516.700203,689.485948,8956.491898
1012.189377,-1258.350101,-919.314598,7550.100608
1012.189707,1110.308913,-2374.896044,7105.977043
1012.190037,1036.288319,-2528.115143,7031.956449
1012.190366,-444.123565,-1149.143247,8142.265362
1012.190696,-1998.556043,-153.219100,9326.594869
1012.191025,-2886.803174,2911.162892,11103.089130
1012.191355,-2664.741391,4903.011187,11991.336260
1012.191685,-2368.659014,4903.011187,10881.027347
1012.192014,-1184.329507,2374.896044,8734.430116
1012.192344,592.164754,-229.828649,6883.915261
1012.192673,1258.350101,-1149.143247,7772.162391
1012.193003,370.102971,1149.143247,9178.553681
1012.193333,-1184.329507,3907.087040,9474.636058
1012.193662,-2368.659014,4443.353888,9770.718434
1012.193992,-2072.576638,4443.353888,9918.759623
1012.194321,-2072.576638,2987.772442,9474.636058
1012.194651,-1036.288319,2298.286494,7772.162391
1012.194981,518.144159,0.000000,6661.853478
1012.195310,1110.308913,-1302.362347,7328.038826
1012.195640,222.061783,-153.219100,8956.491898
1012.195969,-1036.288319,1532.190996,10362.883188
1012.196299,-2516.700203,3830.477490,11769.274478
1012.196629,-2812.782580,4979.620737,12287.418637
1012.196958,-2590.720797,4596.572988,11843.295072
1012.197288,-962.267725,2451.505594,10066.800811
1012.197617,518.144159,0.000000,7994.224174
1012.197947,1332.370696,-536.266849,7698.141797
1012.198277,666.185348,383.047749,8660.409521
1012.198606,-666.185348,1838.629195,10140.821405
1012.198936,-1998.556043,2374.896044,10807.006753
1012.199265,-2516.700203,2374.896044,10807.006753
1012.199595,-2516.700203,1608.800546,10214.842000
1012.199925,-1480.411884,76.609550,8586.388927
1012.200254,222.061783,-2451.505594,7031.956449
1012.200584,1332.370696,-4213.525239,7031.956449
1012.200914,740.205942,-3217.601092,8290.306550
1012.201243,-740.205942,459.657299,9992.780217
1012.201573,-1998.556043,1915.238745,11695.253884
1012.201902,-2072.576638,3294.210641,12731.542202
1012.202232,-2072.576638,3370.820191,11769.274478
1012.202562,-1110.308913,1685.410096,9992.780217
1012.202891,814.226536,-995.924147,8364.327145
1012.203221,1554.432478,-3064.381992,7994.224174
1012.203550,222.061783,-1915.238745,9030.512492
1012.203880,-1850.514855,306.438199,10066.800811
1012.204210,-2960.823768,1149.143247,10732.986159
1012.204539,-2960.823768,1915.238745,11399.171507
1012.204869,-2738.761985,1762.019645,10436.903782
1012.205198,-1924.535449,306.438199,8734.430116
1012.205528,148.041188,-1685.410096,7476.080014
1012.205858,1258.350101,-2604.724693,7624.121203
1012.206187,888.247130,-995.924147,8882.471304
1012.206517,-592.164754,1225.752797,10140.821405
1012.206847,-1628.453072,2451.505594,11769.274478
1012.207176,-2220.617826,4366.744339,12583.501014
1012.207506,-2220.617826,4979.620737,12213.398043
1012.207836,-1258.350101,3140.991542,9918.759623
1012.208165,370.102971,383.047749,7328.038826
1012.208495,1924.535449,-689.485948,7031.956449
1012.208825,1184.329507,766.095498,7772.162391
1012.209154,-444.123565,2834.553343,8512.368333
1012.209484,-1480.411884,3677.258390,9326.594869
1012.209814,-2072.576638,4136.915689,10140.821405
1012.210143,-3034.844362,4749.792088,10066.800811
1012.210473,-2368.659014,3217.601092,8956.491898
1012.210803,-666.185348,536.266849,6957.935855
1012.211133,370.102971,-1991.848295,6365.771101
1012.211462,148.041188,-1378.971896,8438.347739
1012.211792,-1184.329507,1302.362347,10881.027347
1012.212122,-2220.617826,3983.696590,11991.336260
1012.212451,-3034.844362,4979.620737,11695.253884
1012.212781,-2960.823768,4826.401637,11177.109724
1012.213111,-1480.411884,2987.772442,10584.944971
1012.213440,592.164754,2145.067394,9474.636058
1012.213770,1554.432478,153.219100,7328.038826
1012.214100,962.267725,-612.876398,6809.894666
1012.214429,222.061783,229.828649,8956.491898
1012.214759,-1036.288319,1838.629195,10807.006753
1012.215089,-2220.617826,2451.505594,11399.171507
1012.215418,-2960.823768,3064.381992,10362.883188
1012.215748,-2146.597232,1225.752797,8882.471304
1012.216078,-518.144159,-1455.581446,7476.080014
1012.216407,814.226536,-3983.696590,6957.935855
1012.216737,962.267725,-3600.648841,8290.306550
1012.217067,-518.144159,-306.438199,9104.533087
1012.217396,-1406.391290,1762.019645,10362.883188
1012.217726,-2368.659014,1762.019645,11991.336260
1012.218056,-2442.679609,1762.019645,12731.542202
1012.218386,-2072.576638,2451.505594,11621.233289
1012.218715,-666.185348,536.266849,8882.471304
1012.219045,888.247130,-2145.067394,7920.203579
1012.219375,1036.288319,-3217.601092,8956.491898
1012.219704,-148.041188,-1225.752797,10436.903782
1012.220034,-1036.288319,1149.143247,11695.253884
1012.220364,-1554.432478,2145.067394,11399.171507
1012.220693,-2220.617826,2221.676944,10584.944971
1012.221023,-2146.597232,612.876398,8808.450710
1012.221353,-444.123565,-1915.238745,7550.100608
1012.221682,1480.411884,-3753.867940,7624.121203
1012.222012,1258.350101,-2374.896044,8734.430116
1012.222342,-888.247130,612.876398,9252.574275
1012.222671,-2072.576638,1072.533697,10807.006753
1012.223001,-2368.659014,1838.629195,12287.418637
1012.223331,-2886.803174,4060.306139,12953.603985
1012.223660,-2368.659014,4826.401637,11695.253884
1012.223990,-1332.370696,3140.991542,8882.471304
1012.224320,592.164754,-153.219100,6809.894666
1012.224650,888.247130,-1225.752797,7550.100608
1012.224979,0.000000,1225.752797,8882.471304
1012.225309,-1406.391290,3753.867940,9474.636058
1012.225639,-2146.597232,4519.963438,9400.615463
1012.225968,-2442.679609,4443.353888,9474.636058
1012.226298,-2368.659014,2911.162892,9178.553681
1012.226628,-1184.329507,1378.971896,7846.182985
1012.226957,222.061783,-383.047749,6439.791695
1012.227287,962.267725,-766.095498,6883.915261
1012.227617,370.102971,383.047749,9104.533087
1012.227946,-962.267725,2374.896044,10658.965565
1012.228276,-1998.556043,3983.696590,11473.192101
1012.228606,-2368.659014,5745.716235,11917.315666
1012.228935,-1998.556043,5975.544884,11029.068536
1012.229265,-296.082377,3753.867940,9104.533087
1012.229595,1110.308913,229.828649,7179.997637
1012.229924,1480.411884,-1072.533697,7031.956449
1012.230254,296.082377,995.924147,8364.327145
1012.230584,-1406.391290,3217.601092,9918.759623
1012.230913,-2590.720797,2834.553343,10362.883188
1012.231243,-3034.844362,1762.019645,9992.780217
1012.231573,-2738.761985,1532.190996,10214.842000
1012.231903,-1702.473667,153.219100,8512.368333
1012.232232,0.000000,-2374.896044,7105.977043
1012.232562,888.247130,-3753.867940,7624.121203
1012.232892,740.205942,-2757.943793,9400.615463
1012.233221,-592.164754,0.000000,11325.150913
1012.233551,-1554.432478,2221.676944,12657.521608
1012.233881,-1998.556043,3907.087040,12953.603985
1012.234210,-2072.576638,3370.820191,12657.521608
1012.234540,-1184.329507,1532.190996,10955.047942
1012.234870,740.205942,-1225.752797,8660.409521
1012.235199,1776.494261,-3600.648841,7920.203579
1012.235529,1036.288319,-2604.724693,9252.574275
1012.235859,-1110.308913,383.047749,10510.924376
1012.236188,-2368.659014,995.924147,10732.986159
1012.236518,-2886.803174,1225.752797,10288.862594
1012.236848,-2738.761985,153.219100,9918.759623
1012.237177,-1998.556043,-383.047749,8216.285956
1012.237507,-370.102971,-2374.896044,6883.915261
1012.237837,814.226536,-3830.477490,6957.935855
1012.238167,518.144159,-2681.334243,8216.285956
1012.238496,-1036.288319,-153.219100,9474.636058
1012.238826,-2220.617826,2068.457845,11547.212695
1012.239156,-2886.803174,3370.820191,13101.645173
1012.239485,-2812.782580,4290.134789,12731.542202
1012.239815,-1702.473667,3370.820191,10510.924376
1012.240145,0.000000,153.219100,7846.182985
1012.240474,1110.308913,-1991.848295,7105.977043
1012.240804,296.082377,-766.095498,8290.306550
1012.241134,-592.164754,1991.848295,9770.718434
1012.241463,-1554.432478,3370.820191,9696.697840
1012.241793,-2072.576638,3677.258390,10362.883188
1012.242123,-2368.659014,3447.429741,9696.697840
1012.242452,-1480.411884,2145.067394,8808.450710
1012.242782,0.000000,-612.876398,7105.977043
1012.243112,1332.370696,-1532.190996,6587.832884
1012.243441,1258.350101,-766.095498,7920.203579
1012.243771,-444.123565,1532.190996,9770.718434
1012.244101,-1628.453072,3753.867940,11473.192101
1012.244430,-2294.638420,5362.668486,12361.439231
1012.244760,-2368.659014,5975.544884,11917.315666
1012.245090,-1998.556043,4366.744339,10066.800811
1012.245420,-444.123565,1915.238745,8364.327145
1012.245749,814.226536,-459.657299,7550.100608
1012.246079,296.082377,-383.047749,7846.182985
1012.246409,-1036.288319,1762.019645,9104.533087
1012.246738,-2516.700203,3140.991542,10362.883188
1012.247068,-3404.947333,3217.601092,10584.944971
