#time,accel_x,accel_y,accel_z
1005.057441,-1036.288319,995.924147,9474.636058
1005.057771,-962.267725,919.314598,9474.636058
1005.058100,-1110.308913,919.314598,9474.636058
1005.058430,-962.267725,842.705048,9474.636058
1005.058759,-740.205942,919.314598,9104.533087
1005.059089,-666.185348,1225.752797,9474.636058
1005.059418,-1110.308913,842.705048,9474.636058
1005.059748,-1110.308913,842.705048,9474.636058
1005.060077,-962.267725,842.705048,9474.636058
1005.060407,-1036.288319,536.266849,9474.636058
1005.060737,-740.205942,1072.533697,9548.656652
1005.061066,-962.267725,1072.533697,9474.636058
1005.061396,-888.247130,995.924147,9696.697840
1005.061725,-1110.308913,842.705048,9474.636058
1005.062055,-1110.308913,1072.533697,9548.656652
1005.062384,-888.247130,1378.971896,9326.594869
1005.062714,-962.267725,842.705048,9622.677246
1005.063043,-1036.288319,842.705048,9474.636058
1005.063373,-962.267725,766.095498,9622.677246
1005.063703,-962.267725,919.314598,9622.677246
1005.064032,-962.267725,1455.581446,9844.739029
1005.064362,-1036.288319,1072.533697,9474.636058
1005.064691,-962.267725,842.705048,9770.718434
1005.065021,-962.267725,919.314598,9622.677246
1005.065350,-1184.329507,995.924147,9474.636058
1005.065680,-962.267725,1149.143247,9844.739029
1005.066009,-888.247130,995.924147,9252.574275
1005.066339,-962.267725,995.924147,9548.656652
1005.066668,-888.247130,919.314598,9696.697840
1005.066998,-1110.308913,919.314598,9548.656652
1005.067328,-888.247130,1149.143247,9696.697840
1005.067657,-814.226536,1072.533697,9548.656652
1005.067987,-1258.350101,1149.143247,9400.615463
1005.068316,-962.267725,689.485948,9622.677246
1005.068646,-962.267725,1072.533697,9474.636058
1005.068975,-1110.308913,689.485948,9474.636058
1005.069305,-962.267725,766.095498,9104.533087
1005.069634,-962.267725,995.924147,9622.677246
1005.069964,-962.267725,995.924147,9548.656652
1005.070294,-1184.329507,842.705048,9474.636058
1005.070623,-888.247130,919.314598,9474.636058
1005.070953,-1258.350101,689.485948,9030.512492
1005.071282,-1110.308913,1149.143247,9474.636058
1005.071612,-962.267725,919.314598,9622.677246
1005.071941,-888.247130,1072.533697,9400.615463
1005.072271,-1036.288319,995.924147,9474.636058
1005.072600,-962.267725,1149.143247,9326.594869
1005.072930,-1184.329507,1378.971896,9696.697840
1005.073260,-1110.308913,1149.143247,9178.553681
1005.073589,-888.247130,842.705048,9548.656652
1005.073919,-962.267725,689.485948,9548.656652
1005.074248,-962.267725,689.485948,9622.677246
1005.074578,-814.226536,1072.533697,9622.677246
1005.074907,-888.247130,536.266849,9548.656652
1005.075237,-1184.329507,766.095498,9474.636058
1005.075566,-962.267725,1072.533697,9696.697840
1005.075896,-962.267725,842.705048,9622.677246
1005.076226,-814.226536,995.924147,9622.677246
1005.076555,-740.205942,995.924147,9770.718434
1005.076885,-1036.288319,919.314598,9622.677246
1005.077214,-888.247130,842.705048,9770.718434
1005.077544,-1110.308913,766.095498,9474.636058
1005.077873,-814.226536,995.924147,9622.677246
1005.078203,-888.247130,1149.143247,9252.574275
1005.078532,-888.247130,842.705048,9548.656652
1005.078862,-1184.329507,842.705048,9622.677246
1005.079192,-1110.308913,995.924147,9474.636058
1005.079521,-814.226536,995.924147,9548.656652
1005.079851,-740.205942,1302.362347,9548.656652
1005.080180,-962.267725,919.314598,9474.636058
1005.080510,-888.247130,995.924147,9474.636058
1005.080839,-666.185348,1149.143247,9030.512492
1005.081169,296.082377,919.314598,9178.553681
1005.081498,888.247130,383.047749,9326.594869
1005.081828,666.185348,612.876398,8808.450710
1005.082157,592.164754,612.876398,9104.533087
1005.082487,74.020594,689.485948,9844.739029
1005.082817,-296.082377,766.095498,10214.842000
1005.083146,-740.205942,1072.533697,10362.883188
1005.083476,-666.185348,459.657299,10362.883188
1005.083805,-222.061783,0.000000,9844.739029
1005.084135,444.123565,-153.219100,9400.615463
1005.084464,1258.350101,0.000000,9178.553681
1005.084794,2294.638420,229.828649,8882.471304
1005.085123,2960.823768,1302.362347,8660.409521
1005.085453,3478.967927,1072.533697,9030.512492
1005.085783,3552.988522,1838.629195,9252.574275
1005.086112,3478.967927,1991.848295,9548.656652
1005.086442,3034.844362,1072.533697,10066.800811
1005.086771,2812.782580,1455.581446,10658.965565
1005.087101,1554.432478,919.314598,10584.944971
1005.087430,1332.370696,306.438199,10955.047942
1005.087760,1480.411884,0.000000,10732.986159
1005.088089,1776.494261,-306.438199,10214.842000
1005.088419,2516.700203,-766.095498,9474.636058
1005.088749,3627.009116,229.828649,9030.512492
1005.089078,3997.112087,766.095498,9178.553681
1005.089408,4145.153275,1915.238745,9400.615463
1005.089737,3701.029710,2451.505594,9474.636058
1005.090067,2590.720797,2834.553343,9992.780217
1005.090396,1332.370696,3140.991542,10066.800811
1005.090726,-740.205942,2451.505594,9696.697840
1005.091055,-1850.514855,1532.190996,9252.574275
1005.091385,-1184.329507,76.609550,8364.327145
1005.091715,222.061783,-842.705048,7402.059420
1005.092044,1850.514855,-919.314598,6587.832884
1005.092374,3182.885551,-383.047749,6587.832884
1005.092703,3701.029710,76.609550,7179.997637
1005.093033,3404.947333,2145.067394,8660.409521
1005.093362,2368.659014,3983.696590,10584.944971
1005.093692,1258.350101,4060.306139,11991.336260
1005.094021,296.082377,3064.381992,12213.398043
1005.094351,-814.226536,1915.238745,12065.356855
1005.094681,-1480.411884,76.609550,11621.233289
1005.095010,-1184.329507,-1762.019645,10658.965565
1005.095340,-592.164754,-2757.943793,9770.718434
1005.095669,222.061783,-2604.724693,8808.450710
1005.095999,1480.411884,-1838.629195,8290.306550
1005.096328,3256.906145,-919.314598,8068.244768
1005.096658,4293.194464,842.705048,7550.100608
1005.096987,4589.276840,2298.286494,8142.265362
1005.097317,4441.235652,3140.991542,8364.327145
1005.097646,3923.091493,3524.039291,9622.677246
1005.097976,3330.926739,3294.210641,10584.944971
1005.098306,2664.741391,2911.162892,11177.109724
1005.098635,1332.370696,1149.143247,11547.212695
1005.098965,370.102971,229.828649,11177.109724
1005.099294,-444.123565,-766.095498,10288.862594
1005.099624,-592.164754,-1378.971896,10584.944971
1005.099953,-444.123565,-995.924147,10510.924376
1005.100283,0.000000,-612.876398,10066.800811
1005.100612,444.123565,0.000000,9548.656652
1005.100942,1702.473667,536.266849,8512.368333
1005.101272,2516.700203,153.219100,8068.244768
1005.101601,3627.009116,842.705048,8364.327145
1005.101931,4145.153275,459.657299,8142.265362
1005.102260,4293.194464,689.485948,8364.327145
1005.102590,4293.194464,842.705048,8956.491898
1005.102919,3108.864956,1072.533697,9252.574275
1005.103249,2368.659014,1608.800546,10066.800811
1005.103578,1924.535449,1762.019645,10732.986159
1005.103908,1554.432478,1532.190996,10807.006753
1005.104238,1702.473667,1991.848295,10658.965565
1005.104567,2146.597232,2068.457845,9696.697840
1005.104897,2146.597232,1685.410096,8808.450710
1005.105226,2886.803174,842.705048,8068.244768
1005.105556,3034.844362,383.047749,7698.141797
1005.105885,2590.720797,919.314598,8142.265362
1005.106215,1628.453072,1302.362347,8586.388927
1005.106544,370.102971,612.876398,9474.636058
1005.106874,-1332.370696,536.266849,9696.697840
1005.107204,-1628.453072,766.095498,10881.027347
1005.107533,-1406.391290,-383.047749,11473.192101
1005.107863,-1480.411884,-153.219100,11843.295072
1005.108192,-1924.535449,459.657299,10881.027347
1005.108522,-962.267725,0.000000,9992.780217
1005.108851,1184.329507,0.000000,9178.553681
1005.109181,3701.029710,919.314598,8364.327145
1005.109510,6217.729913,2528.115143,7994.224174
1005.109840,8586.388927,2604.724693,7698.141797
1005.110170,8882.471304,2834.553343,8216.285956
1005.110499,7920.203579,4060.306139,9326.594869
1005.110829,5995.668130,4903.011187,10584.944971
1005.111158,3404.947333,4290.134789,12139.377449
1005.111488,0.000000,3370.820191,13175.665768
1005.111817,-3404.947333,1378.971896,13545.768739
1005.112147,-6069.688724,-919.314598,12509.480420
1005.112476,-7031.956449,-2987.772442,11029.068536
1005.112806,-6587.832884,-3370.820191,8660.409521
1005.113135,-3404.947333,-2681.334243,5477.523971
1005.113465,1924.535449,-3830.477490,2812.782580
1005.113795,7550.100608,-3447.429741,2294.638420
1005.114124,10066.800811,0.000000,3775.050304
1005.114454,9622.677246,4366.744339,5921.647536
1005.114783,7698.141797,8350.440928,9178.553681
1005.115113,5847.626942,9652.803275,11695.253884
1005.115442,2220.617826,9652.803275,14508.036463
1005.115772,-1850.514855,5362.668486,16062.468941
1005.116101,-4737.318029,459.657299,16432.571912
1005.116431,-6143.709319,-1762.019645,15100.201217
1005.116761,-6439.791695,-4443.353888,12139.377449
1005.117090,-3478.967927,-6665.030833,9622.677246
1005.117420,814.226536,-7048.078582,6883.915261
1005.117749,5255.462188,-4749.792088,3923.091493
1005.118079,9474.636058,-2834.553343,3108.864956
1005.118408,11695.253884,919.314598,5107.421000
1005.118738,9770.718434,5286.058936,8660.409521
1005.119067,4737.318029,8044.002729,11399.171507
1005.119397,0.000000,9269.755526,13323.706956
1005.119727,-2294.638420,7584.345430,14211.954086
1005.120056,-1850.514855,2068.457845,13397.727550
1005.120386,-2294.638420,-2528.115143,11029.068536
1005.120715,-3108.864956,-5286.058936,7624.121203
1005.121045,-1628.453072,-6818.249932,5329.482782
1005.121374,888.247130,-6511.811733,6735.874072
1005.121704,1332.370696,-2374.896044,8734.430116
1005.122033,0.000000,1762.019645,9178.553681
1005.122363,-1702.473667,2987.772442,9178.553681
1005.122693,-888.247130,5132.839837,10066.800811
1005.123022,296.082377,5286.058936,12435.459826
1005.123352,444.123565,2834.553343,13397.727550
1005.123681,-592.164754,306.438199,11917.315666
1005.124011,-2220.617826,-1685.410096,10214.842000
1005.124340,-2368.659014,-2681.334243,9918.759623
1005.124670,-2664.741391,-3140.991542,9030.512492
1005.124999,-2294.638420,-3447.429741,7031.956449
1005.125329,-1332.370696,-2834.553343,5255.462188
1005.125659,814.226536,-1225.752797,6587.832884
1005.125988,3108.864956,1378.971896,8438.347739
1005.126318,3701.029710,4826.401637,7846.182985
1005.126647,2664.741391,5362.668486,7254.018232
1005.126977,2664.741391,4979.620737,9622.677246
1005.127306,1406.391290,3294.210641,13397.727550
1005.127636,-1924.535449,3140.991542,15618.345376
1005.127965,-6957.935855,3294.210641,14434.015869
1005.128295,-9918.759623,1608.800546,12139.377449
1005.128625,-8660.409521,-1532.190996,11251.130318
1005.128954,-5033.400406,-4596.572988,9326.594869
1005.129284,-1776.494261,-5286.058936,7105.977043
1005.129613,370.102971,-3753.867940,4811.338623
1005.129943,1776.494261,-1072.533697,5551.544565
1005.130273,1776.494261,2757.943793,8068.244768
1005.130602,1258.350101,5975.544884,9178.553681
1005.130932,1702.473667,5132.839837,8438.347739
1005.131261,2220.617826,5592.497135,10140.821405
1005.131591,2146.597232,5745.716235,10955.047942
1005.131921,2294.638420,3983.696590,10658.965565
1005.132250,1924.535449,306.438199,9326.594869
1005.132580,444.123565,0.000000,8660.409521
1005.132910,-1998.556043,842.705048,9844.739029
1005.133239,-3182.885551,2221.676944,11843.295072
1005.133569,-3256.906145,2681.334243,11547.212695
1005.133898,-3478.967927,2911.162892,9030.512492
1005.134228,-2220.617826,1532.190996,7179.997637
1005.134558,74.020594,1149.143247,7105.977043
1005.134887,1850.514855,1455.581446,7179.997637
1005.135217,1480.411884,1991.848295,7624.121203
1005.135546,-814.226536,1915.238745,8586.388927
1005.135876,-3330.926739,1915.238745,9622.677246
1005.136206,-4663.297435,1838.629195,9548.656652
1005.136535,-4811.338623,0.000000,9400.615463
1005.136865,-3034.844362,-1149.143247,10066.800811
1005.137195,-222.061783,-1608.800546,10214.842000
1005.137524,1998.556043,-689.485948,9178.553681
1005.137854,2516.700203,0.000000,7846.182985
1005.138183,3256.906145,689.485948,8438.347739
1005.138513,2738.761985,2681.334243,11029.068536
1005.138843,1036.288319,4749.792088,12583.501014
1005.139172,-814.226536,5056.230287,12509.480420
1005.139502,-888.247130,3370.820191,11991.336260
1005.139832,-1776.494261,689.485948,10807.006753
1005.140161,-2442.679609,-1838.629195,9400.615463
1005.140491,-2812.782580,-4596.572988,8512.368333
1005.140820,-2812.782580,-5132.839837,8734.430116
1005.141150,-3478.967927,-4136.915689,9474.636058
1005.141480,-4737.318029,-2451.505594,10436.903782
1005.141809,-4737.318029,-612.876398,9918.759623
1005.142139,-3034.844362,-612.876398,8882.471304
1005.142468,-222.061783,689.485948,8438.347739
1005.142798,1628.453072,1991.848295,8290.306550
1005.143128,3552.988522,2681.334243,8216.285956
1005.143457,3182.885551,2604.724693,9030.512492
1005.143787,1184.329507,1608.800546,10732.986159
1005.144117,-2220.617826,1838.629195,12879.583391
1005.144446,-5329.482782,2681.334243,13693.809927
1005.144776,-6661.853478,1915.238745,12805.562797
1005.145105,-6069.688724,-842.705048,11473.192101
1005.145435,-4145.153275,-2298.286494,9770.718434
1005.145765,-1110.308913,-3217.601092,7846.182985
1005.146094,740.205942,-3064.381992,6513.812290
1005.146424,1850.514855,-1225.752797,6661.853478
1005.146753,814.226536,2374.896044,7624.121203
1005.147083,0.000000,4443.353888,8882.471304
1005.147413,-740.205942,4290.134789,9104.533087
1005.147742,-592.164754,4596.572988,9178.553681
1005.148072,0.000000,3447.429741,8660.409521
1005.148402,1702.473667,1838.629195,8586.388927
1005.148731,1332.370696,689.485948,8586.388927
1005.149061,296.082377,1225.752797,8808.450710
1005.149390,-1332.370696,1378.971896,10066.800811
1005.149720,-2738.761985,2298.286494,12065.356855
1005.150050,-4293.194464,5132.839837,11769.274478
1005.150379,-3478.967927,3983.696590,10510.924376
1005.150709,-1628.453072,2451.505594,9400.615463
1005.151039,0.000000,1608.800546,7920.203579
1005.151368,1184.329507,612.876398,6883.915261
1005.151698,2294.638420,76.609550,7476.080014
1005.152027,1480.411884,766.095498,8956.491898
1005.152357,0.000000,2374.896044,9770.718434
1005.152687,-1258.350101,2451.505594,9474.636058
1005.153016,-592.164754,842.705048,8882.471304
1005.153346,962.267725,766.095498,8660.409521
1005.153675,2516.700203,1072.533697,9474.636058
1005.154005,3552.988522,2068.457845,10140.821405
1005.154335,3108.864956,3524.039291,9696.697840
1005.154664,2368.659014,2757.943793,9770.718434
1005.154994,962.267725,2451.505594,11177.109724
1005.155324,-1184.329507,2604.724693,11769.274478
1005.155653,-2812.782580,2145.067394,11473.192101
1005.155983,-3849.070898,842.705048,10584.944971
1005.156312,-3552.988522,-1225.752797,10362.883188
1005.156642,-3034.844362,-2451.505594,9474.636058
1005.156972,-2738.761985,-2987.772442,7846.182985
1005.157301,-3182.885551,-2604.724693,7031.956449
1005.157631,-3627.009116,-1685.410096,7698.141797
1005.157961,-3997.112087,-1302.362347,9030.512492
1005.158290,-3997.112087,-766.095498,9696.697840
1005.158620,-3849.070898,-383.047749,10214.842000
1005.158949,-2590.720797,766.095498,9770.718434
1005.159279,-592.164754,1072.533697,9326.594869
1005.159609,2220.617826,-536.266849,8882.471304
1005.159938,4071.132681,-612.876398,9252.574275
1005.160268,3108.864956,-536.266849,10214.842000
1005.160597,296.082377,1532.190996,13397.727550
1005.160927,-2368.659014,3447.429741,14137.933492
1005.161257,-4145.153275,3370.820191,13323.706956
1005.161586,-4145.153275,459.657299,12287.418637
1005.161916,-3330.926739,-1685.410096,10955.047942
1005.162246,-2368.659014,-1838.629195,8734.430116
1005.162575,-1036.288319,-2681.334243,7624.121203
1005.162905,-1110.308913,-2221.676944,7105.977043
1005.163234,-2368.659014,-229.828649,7105.977043
1005.163564,-3034.844362,229.828649,7550.100608
1005.163894,-2738.761985,1455.581446,7476.080014
1005.164223,-2072.576638,3370.820191,6661.853478
1005.164553,-962.267725,2145.067394,7328.038826
1005.164882,296.082377,689.485948,9104.533087
1005.165212,888.247130,1991.848295,9844.739029
1005.165542,888.247130,2834.553343,10140.821405
1005.165871,592.164754,2681.334243,11547.212695
1005.166201,-1480.411884,3753.867940,12139.377449
1005.166531,-2590.720797,3983.696590,11843.295072
1005.166860,-2516.700203,2757.943793,10436.903782
1005.167190,-1332.370696,2145.067394,9474.636058
1005.167519,888.247130,1991.848295,8882.471304
1005.167849,1776.494261,306.438199,8142.265362
1005.168179,1628.453072,-229.828649,7402.059420
1005.168508,1110.308913,1072.533697,7105.977043
1005.168838,1036.288319,1608.800546,7698.141797
1005.169168,370.102971,2298.286494,8142.265362
1005.169497,222.061783,2834.553343,8586.388927
1005.169827,592.164754,1685.410096,9178.553681
1005.170156,1110.308913,1532.190996,9770.718434
1005.170486,1258.350101,3370.820191,9992.780217
1005.170816,1332.370696,3370.820191,9696.697840
1005.171145,1554.432478,2681.334243,10140.821405
1005.171475,1036.288319,2528.115143,11917.315666
1005.171804,-814.226536,3370.820191,12139.377449
1005.172134,-2590.720797,2911.162892,10584.944971
1005.172464,-3997.112087,995.924147,9030.512492
1005.172793,-4219.173869,0.000000,9030.512492
1005.173123,-3478.967927,-1762.019645,9918.759623
1005.173453,-2664.741391,-1762.019645,9474.636058
1005.173782,-2516.700203,-2221.676944,7846.182985
1005.174112,-2368.659014,-2451.505594,7031.956449
1005.174441,-2442.679609,-1455.581446,7772.162391
1005.174771,-2442.679609,-1225.752797,9400.615463
1005.175101,-1998.556043,76.609550,10584.944971
1005.175430,-1554.432478,2221.676944,10362.883188
1005.175760,-1110.308913,2681.334243,9178.553681
1005.176090,740.205942,1225.752797,8216.285956
1005.176419,3034.844362,0.000000,8660.409521
1005.176749,3034.844362,-229.828649,9622.677246
1005.177078,1110.308913,612.876398,11843.295072
1005.177408,-2738.761985,2145.067394,13101.645173
1005.177738,-5995.668130,2451.505594,12879.583391
1005.178067,-7179.997637,306.438199,12879.583391
1005.178397,-6661.853478,-1915.238745,12583.501014
1005.178726,-4811.338623,-1915.238745,10881.027347
1005.179056,-3034.844362,-2528.115143,8142.265362
1005.179386,-1554.432478,-3217.601092,6439.791695
1005.179715,-1184.329507,-2834.553343,5921.647536
1005.180045,-2146.597232,-995.924147,7624.121203
1005.180375,-2442.679609,459.657299,7994.224174
1005.180704,-2368.659014,3064.381992,7994.224174
1005.181034,-1110.308913,2911.162892,8734.430116
1005.181363,1184.329507,1378.971896,9844.739029
1005.181693,2294.638420,1302.362347,9696.697840
1005.182023,1776.494261,1455.581446,10066.800811
1005.182352,1480.411884,2451.505594,11547.212695
1005.182682,-148.041188,4213.525239,13619.789333
1005.183011,-1924.535449,5132.839837,12805.562797
1005.183341,-2886.803174,3370.820191,10436.903782
1005.183671,-1554.432478,1685.410096,8660.409521
1005.184000,666.185348,1225.752797,7698.141797
1005.184330,1998.556043,0.000000,7254.018232
1005.184660,1406.391290,-229.828649,6735.874072
1005.184989,148.041188,995.924147,6957.935855
1005.185319,-148.041188,1149.143247,7624.121203
1005.185648,-1184.329507,2298.286494,8290.306550
1005.185978,-1258.350101,2528.115143,8512.368333
1005.186308,-740.205942,2298.286494,8438.347739
1005.186637,296.082377,842.705048,8956.491898
1005.186967,1850.514855,1762.019645,9844.739029
1005.187297,1406.391290,3370.820191,9400.615463
1005.187626,1258.350101,2528.115143,10066.800811
1005.187956,888.247130,2757.943793,11547.212695
1005.188285,0.000000,3140.991542,12361.439231
1005.188615,-1702.473667,4060.306139,11695.253884
1005.188945,-3034.844362,2451.505594,10288.862594
1005.189274,-3997.112087,766.095498,9326.594869
1005.189604,-4145.153275,-383.047749,8956.491898
1005.189933,-3627.009116,-2068.457845,8512.368333
1005.190263,-2368.659014,-2757.943793,7846.182985
1005.190593,-1850.514855,-2757.943793,7402.059420
1005.190922,-2368.659014,-2221.676944,8364.327145
1005.191252,-2368.659014,-1532.190996,9030.512492
1005.191582,-2220.617826,-766.095498,9252.574275
1005.191911,-1110.308913,459.657299,10288.862594
1005.192241,0.000000,1915.238745,11473.192101
1005.192570,222.061783,3217.601092,11103.089130
1005.192900,1406.391290,2374.896044,9252.574275
1005.193230,2368.659014,229.828649,8808.450710
1005.193559,1628.453072,-612.876398,10362.883188
1005.193889,-814.226536,383.047749,12065.356855
1005.194219,-4071.132681,1378.971896,13101.645173
1005.194548,-6365.771101,689.485948,12879.583391
1005.194878,-6957.935855,0.000000,12065.356855
1005.195207,-5921.647536,-1915.238745,9992.780217
1005.195537,-2738.761985,-3447.429741,7994.224174
1005.195867,-518.144159,-3983.696590,7402.059420
1005.196196,-148.041188,-1838.629195,7254.018232
1005.196526,-1998.556043,76.609550,6735.874072
1005.196855,-3404.947333,536.266849,7328.038826
1005.197185,-2812.782580,2451.505594,8364.327145
1005.197515,-1628.453072,2451.505594,10214.842000
1005.197844,222.061783,2298.286494,10658.965565
1005.198174,1628.453072,1532.190996,9548.656652
1005.198504,2220.617826,536.266849,8438.347739
1005.198833,2442.679609,612.876398,9474.636058
1005.199163,1702.473667,2681.334243,11843.295072
1005.199492,-370.102971,4596.572988,12731.542202
1005.199822,-2442.679609,5209.449386,11547.212695
1005.200152,-2812.782580,3753.867940,9622.677246
1005.200481,-1184.329507,2298.286494,8734.430116
1005.200811,888.247130,229.828649,7846.182985
1005.201140,1776.494261,-766.095498,7105.977043
1005.201470,740.205942,459.657299,6735.874072
1005.201800,-666.185348,766.095498,7328.038826
1005.202129,-2072.576638,1072.533697,8660.409521
1005.202459,-2368.659014,2221.676944,8882.471304
1005.202789,-2146.597232,2834.553343,8660.409521
1005.203118,0.000000,1991.848295,9474.636058
1005.203448,1554.432478,1991.848295,9992.780217
1005.203777,1998.556043,2834.553343,9326.594869
1005.204107,1924.535449,2911.162892,9178.553681
1005.204437,1480.411884,2681.334243,10732.986159
1005.204766,0.000000,4673.182538,12435.459826
1005.205096,-1998.556043,4749.792088,12139.377449
1005.205426,-2812.782580,2681.334243,11029.068536
1005.205755,-2590.720797,919.314598,10658.965565
1005.206085,-1924.535449,-306.438199,9696.697840
1005.206414,-1628.453072,0.000000,8068.244768
1005.206744,-1184.329507,-1762.019645,6661.853478
1005.207074,-888.247130,-2451.505594,6365.771101
1005.207403,-1110.308913,-1915.238745,8438.347739
1005.207733,-2294.638420,459.657299,10214.842000
1005.208062,-3552.988522,1302.362347,10140.821405
1005.208392,-3478.967927,1072.533697,9326.594869
1005.208722,-2516.700203,306.438199,9474.636058
1005.209051,-888.247130,-766.095498,10436.903782
1005.209381,444.123565,-536.266849,10658.965565
1005.209711,1036.288319,1072.533697,8512.368333
1005.210040,518.144159,919.314598,8660.409521
1005.210370,-814.226536,153.219100,9770.718434
1005.210699,-2886.803174,995.924147,10955.047942
1005.211029,-3627.009116,1149.143247,11251.130318
1005.211359,-4293.194464,229.828649,11103.089130
1005.211688,-4071.132681,612.876398,10807.006753
1005.212018,-4145.153275,0.000000,9770.718434
1005.212347,-2812.782580,-3600.648841,8290.306550
1005.212677,-1998.556043,-4519.963438,8216.285956
1005.213007,-2516.700203,-1532.190996,9104.533087
1005.213336,-3552.988522,153.219100,9918.759623
1005.213666,-4293.194464,-153.219100,9622.677246
1005.213996,-3923.091493,153.219100,9844.739029
1005.214325,-2294.638420,612.876398,10362.883188
1005.214655,-222.061783,995.924147,10436.903782
1005.214984,1850.514855,995.924147,9992.780217
1005.215314,2738.761985,1378.971896,9474.636058
1005.215644,2368.659014,1762.019645,10214.842000
1005.215973,1036.288319,3064.381992,10955.047942
1005.216303,-962.267725,3600.648841,10510.924376
1005.216633,-1702.473667,3907.087040,9918.759623
1005.216962,-888.247130,3217.601092,9770.718434
1005.217292,148.041188,1455.581446,9622.677246
1005.217621,666.185348,536.266849,8364.327145
1005.217951,444.123565,1072.533697,7031.956449
1005.218281,-222.061783,1532.190996,6883.915261
1005.218610,-1258.350101,2068.457845,7920.203579
1005.218940,-2812.782580,2451.505594,8734.430116
1005.219269,-3404.947333,1991.848295,8142.265362
1005.219599,-2220.617826,1608.800546,8882.471304
1005.219929,-148.041188,1762.019645,9474.636058
1005.220258,1406.391290,2374.896044,9400.615463
1005.220588,2072.576638,1915.238745,8438.347739
1005.220918,1554.432478,2757.943793,8808.450710
1005.221247,962.267725,3983.696590,9622.677246
1005.221577,-444.123565,4673.182538,10658.965565
1005.221906,-1554.432478,3907.087040,11103.089130
1005.222236,-2072.576638,2528.115143,10955.047942
1005.222566,-1776.494261,1072.533697,11029.068536
1005.222895,-1332.370696,306.438199,10066.800811
1005.223225,-518.144159,-842.705048,8512.368333
1005.223555,370.102971,-1762.019645,7550.100608
1005.223884,518.144159,-1838.629195,7772.162391
1005.224214,-444.123565,-306.438199,9400.615463
1005.224543,-1406.391290,919.314598,9918.759623
1005.224873,-2072.576638,1225.752797,9770.718434
1005.225203,-1554.432478,1225.752797,9918.759623
1005.225532,-962.267725,153.219100,10436.903782
1005.225862,74.020594,76.609550,10807.006753
1005.226191,0.000000,612.876398,10362.883188
1005.226521,-1110.308913,689.485948,10066.800811
1005.226851,-2368.659014,229.828649,10658.965565
1005.227180,-3404.947333,0.000000,10807.006753
1005.227510,-4885.359217,0.000000,9992.780217
1005.227840,-4515.256246,-766.095498,9770.718434
1005.228169,-3701.029710,-1072.533697,9844.739029
1005.228499,-2368.659014,-689.485948,9622.677246
1005.228828,-1850.514855,-1685.410096,8438.347739
1005.229158,-1554.432478,-1991.848295,8512.368333
1005.229488,-1628.453072,-1378.971896,9474.636058
1005.229817,-2738.761985,0.000000,10362.883188
1005.230147,-3627.009116,612.876398,10510.924376
1005.230477,-3256.906145,459.657299,10584.944971
1005.230806,-1628.453072,0.000000,10658.965565
1005.231136,0.000000,-919.314598,10140.821405
1005.231465,1554.432478,-229.828649,9104.533087
1005.231795,2590.720797,0.000000,8808.450710
1005.232125,2960.823768,1608.800546,9622.677246
1005.232454,1554.432478,2221.676944,10510.924376
1005.232784,-592.164754,3600.648841,10362.883188
1005.233114,-1850.514855,3140.991542,9844.739029
1005.233443,-1554.432478,2298.286494,10362.883188
1005.233773,-1184.329507,2374.896044,10140.821405
1005.234102,-518.144159,1685.410096,9326.594869
1005.234432,222.061783,229.828649,7105.977043
1005.234762,-444.123565,-842.705048,6365.771101
1005.235091,-888.247130,459.657299,7550.100608
1005.235421,-1480.411884,1455.581446,8956.491898
1005.235751,-2220.617826,2068.457845,9696.697840
1005.236080,-2442.679609,3294.210641,9326.594869
1005.236410,-1184.329507,3370.820191,9474.636058
1005.236739,1110.308913,2145.067394,9178.553681
1005.237069,2442.679609,2451.505594,8660.409521
1005.237399,2960.823768,2528.115143,8808.450710
1005.237728,2294.638420,2911.162892,9770.718434
1005.238058,888.247130,3447.429741,10658.965565
1005.238388,-1184.329507,4366.744339,10807.006753
1005.238717,-2368.659014,3140.991542,10214.842000
1005.239047,-2146.597232,1608.800546,10732.986159
1005.239376,-1110.308913,1455.581446,10955.047942
1005.239706,-814.226536,842.705048,9326.594869
1005.240036,-444.123565,-842.705048,7698.141797
1005.240365,-740.205942,-919.314598,7550.100608
1005.240695,-1332.370696,0.000000,8142.265362
1005.241025,-1998.556043,383.047749,9104.533087
1005.241354,-2590.720797,1072.533697,8956.491898
1005.241684,-2664.741391,1455.581446,9548.656652
1005.242014,-1924.535449,1149.143247,10140.821405
1005.242343,-1184.329507,1072.533697,9844.739029
1005.242673,-296.082377,1762.019645,8956.491898
1005.243002,148.041188,1072.533697,7772.162391
1005.243332,-592.164754,383.047749,9326.594869
1005.243662,-2220.617826,459.657299,10510.924376
1005.243991,-4219.173869,612.876398,11251.130318
1005.244321,-5403.503377,-612.876398,11695.253884
1005.244651,-5329.482782,-459.657299,11695.253884
1005.244980,-3627.009116,-842.705048,10140.821405
1005.245310,-1776.494261,-2451.505594,8512.368333
1005.245639,-370.102971,-3370.820191,7920.203579
1005.245969,0.000000,-2987.772442,8660.409521
1005.246299,-888.247130,-612.876398,10732.986159
1005.246628,-2516.700203,1378.971896,10955.047942
1005.246958,-3701.029710,2068.457845,10140.821405
1005.247288,-1850.514855,229.828649,9918.759623
1005.247617,740.205942,-842.705048,10214.842000
1005.247947,2516.700203,-229.828649,9474.636058
1005.248276,3330.926739,-842.705048,8290.306550
1005.248606,2590.720797,-153.219100,9030.512492
1005.248936,444.123565,2145.067394,10288.862594
1005.249265,-1184.329507,2221.676944,11177.109724
1005.249595,-2664.741391,2221.676944,11029.068536
1005.249925,-3108.864956,2834.553343,10584.944971
1005.250254,-1776.494261,1762.019645,10436.903782
1005.250584,-666.185348,306.438199,9622.677246
1005.250913,0.000000,0.000000,8142.265362
1005.251243,-148.041188,-842.705048,7105.977043
1005.251573,-592.164754,-1302.362347,7624.121203
1005.251902,-1332.370696,842.705048,8956.491898
1005.252232,-1850.514855,2681.334243,9252.574275
1005.252562,-1258.350101,2221.676944,9326.594869
1005.252891,148.041188,2451.505594,9178.553681
1005.253221,1702.473667,3217.601092,8438.347739
1005.253550,3330.926739,2451.505594,7550.100608
1005.253880,3108.864956,2374.896044,7402.059420
1005.254210,2220.617826,3064.381992,9770.718434
1005.254539,148.041188,4596.572988,11843.295072
1005.254869,-2220.617826,4519.963438,11843.295072
1005.255199,-3108.864956,3370.820191,10214.842000
1005.255528,-2368.659014,1685.410096,9770.718434
1005.255858,-814.226536,0.000000,10362.883188
1005.256187,962.267725,229.828649,9400.615463
1005.256517,962.267725,306.438199,7994.224174
1005.256847,444.123565,536.266849,7328.038826
1005.257176,-148.041188,1532.190996,8216.285956
1005.257506,-1184.329507,2451.505594,9474.636058
1005.257836,-2072.576638,2528.115143,9918.759623
1005.258165,-2516.700203,2528.115143,9548.656652
1005.258495,-1924.535449,1685.410096,9548.656652
1005.258824,-962.267725,306.438199,9548.656652
1005.259154,-814.226536,-995.924147,8438.347739
1005.259484,-888.247130,-919.314598,8882.471304
1005.259813,-1332.370696,0.000000,10584.944971
1005.260143,-2664.741391,1225.752797,11473.192101
1005.260473,-4293.194464,1838.629195,10732.986159
1005.260802,-4515.256246,1072.533697,9992.780217
1005.261132,-3775.050304,0.000000,9918.759623
1005.261461,-2738.761985,-306.438199,10066.800811
1005.261791,-1406.391290,0.000000,9474.636058
1005.262121,-888.247130,-995.924147,7476.080014
1005.262450,-1184.329507,-2068.457845,7328.038826
1005.262780,-1924.535449,-1838.629195,9474.636058
1005.263110,-3034.844362,-229.828649,10732.986159
1005.263439,-3923.091493,919.314598,10362.883188
1005.263769,-2886.803174,383.047749,10658.965565
1005.264099,-814.226536,-766.095498,10584.944971
1005.264428,814.226536,-766.095498,10066.800811
1005.264758,1776.494261,-1378.971896,9326.594869
1005.265087,1924.535449,-229.828649,9622.677246
1005.265417,296.082377,1532.190996,10140.821405
1005.265747,-1184.329507,2145.067394,10955.047942
1005.266076,-2368.659014,2145.067394,10732.986159
1005.266406,-2516.700203,1072.533697,10510.924376
1005.266736,-2072.576638,536.266849,9992.780217
1005.267065,-1332.370696,0.000000,9326.594869
1005.267395,-296.082377,-919.314598,7846.182985
1005.267724,444.123565,-1838.629195,7698.141797
1005.268054,370.102971,-919.314598,8734.430116
1005.268384,-222.061783,1532.190996,9844.739029
1005.268713,-1480.411884,2681.334243,9474.636058
1005.269043,-1998.556043,2528.115143,9252.574275
1005.269373,-444.123565,2451.505594,9622.677246
1005.269702,962.267725,2145.067394,9844.739029
1005.270032,2442.679609,2298.286494,8586.388927
1005.270361,2886.803174,2451.505594,7254.018232
1005.270691,2738.761985,1685.410096,8068.244768
1005.271021,1628.453072,2451.505594,9622.677246
1005.271350,74.020594,3983.696590,10881.027347
1005.271680,-1554.432478,3677.258390,10510.924376
1005.272010,-1850.514855,3064.381992,10214.842000
1005.272339,-1628.453072,2451.505594,10140.821405
1005.272669,148.041188,1608.800546,8882.471304
1005.272998,444.123565,-229.828649,7476.080014
1005.273328,740.205942,-229.828649,7328.038826
1005.273658,-222.061783,1378.971896,9178.553681
1005.273987,-2072.576638,1915.238745,10510.924376
1005.274317,-3701.029710,2604.724693,9770.718434
1005.274647,-3330.926739,1915.238745,8882.471304
1005.274976,-1480.411884,536.266849,9548.656652
1005.275306,222.061783,919.314598,9770.718434
1005.275635,962.267725,1149.143247,8956.491898
1005.275965,888.247130,383.047749,8660.409521
1005.276295,0.000000,842.705048,9400.615463
1005.276624,-1702.473667,2451.505594,10658.965565
1005.276954,-3108.864956,2374.896044,11325.150913
1005.277284,-3775.050304,1149.143247,10807.006753
1005.277613,-3627.009116,842.705048,9992.780217
1005.277943,-2664.741391,-689.485948,9918.759623
1005.278272,-1776.494261,-2145.067394,9326.594869
1005.278602,-1702.473667,-1991.848295,8660.409521
1005.278932,-2368.659014,-1378.971896,9030.512492
1005.279261,-2590.720797,-1149.143247,10362.883188
1005.279591,-3552.988522,229.828649,10584.944971
1005.279921,-3701.029710,-153.219100,8734.430116
1005.280250,-2368.659014,-1455.581446,9474.636058
1005.280580,-666.185348,-1302.362347,10510.924376
1005.280909,222.061783,536.266849,10584.944971
1005.281239,592.164754,536.266849,9104.533087
1005.281569,1110.308913,-76.609550,8586.388927
1005.281898,740.205942,383.047749,9474.636058
1005.282228,-518.144159,1378.971896,10807.006753
1005.282558,-1776.494261,1455.581446,10881.027347
1005.282887,-2664.741391,1455.581446,11251.130318
1005.283217,-3478.967927,1149.143247,11103.089130
1005.283546,-2960.823768,459.657299,9844.739029
1005.283876,-1258.350101,-766.095498,8512.368333
1005.284206,888.247130,-1762.019645,7698.141797
1005.284535,1480.411884,-1532.190996,8364.327145
1005.284865,0.000000,229.828649,9622.677246
1005.285195,-2368.659014,2145.067394,9474.636058
1005.285524,-3701.029710,3447.429741,8512.368333
1005.285854,-2738.761985,2298.286494,9030.512492
1005.286184,-962.267725,919.314598,9770.718434
1005.286513,740.205942,1532.190996,9622.677246
1005.286843,2146.597232,1072.533697,7698.141797
1005.287172,2960.823768,995.924147,7402.059420
1005.287502,2368.659014,1838.629195,8734.430116
1005.287832,1110.308913,3140.991542,10214.842000
1005.288161,0.000000,3677.258390,10881.027347
1005.288491,-370.102971,4366.744339,11177.109724
1005.288821,-444.123565,4673.182538,11177.109724
1005.289150,814.226536,3907.087040,10436.903782
1005.289480,1258.350101,1225.752797,8068.244768
1005.289809,1406.391290,-383.047749,7105.977043
1005.290139,814.226536,-229.828649,7772.162391
1005.290469,-962.267725,1225.752797,9104.533087
1005.290798,-2960.823768,1838.629195,9252.574275
1005.291128,-3997.112087,2068.457845,8882.471304
1005.291458,-2738.761985,1455.581446,9400.615463
1005.291787,-444.123565,919.314598,9992.780217
1005.292117,518.144159,1532.190996,9030.512492
1005.292446,1332.370696,2221.676944,8586.388927
1005.292776,592.164754,1455.581446,8956.491898
1005.293106,-888.247130,2145.067394,10584.944971
1005.293435,-2738.761985,3217.601092,11029.068536
1005.293765,-3404.947333,2145.067394,10510.924376
1005.294095,-3701.029710,919.314598,10881.027347
1005.294424,-3478.967927,0.000000,10955.047942
1005.294754,-2516.700203,-766.095498,9844.739029
1005.295083,-1258.350101,-2451.505594,7920.203579
1005.295413,-1036.288319,-2757.943793,7624.121203
1005.295743,-2516.700203,-1225.752797,8364.327145
1005.296072,-2960.823768,-383.047749,10066.800811
1005.296402,-3256.906145,76.609550,10362.883188
1005.296732,-2590.720797,689.485948,10140.821405
1005.297061,-1628.453072,0.000000,9548.656652
1005.297391,-222.061783,-1149.143247,9252.574275
1005.297720,962.267725,-919.314598,9474.636058
1005.298050,1036.288319,-842.705048,9400.615463
1005.298380,740.205942,0.000000,10362.883188
1005.298709,-1110.308913,1991.848295,11029.068536
1005.299039,-2442.679609,1915.238745,10881.027347
1005.299369,-2960.823768,842.705048,10510.924376
1005.299698,-3256.906145,-153.219100,10732.986159
1005.300028,-2812.782580,0.000000,10732.986159
1005.300357,-1776.494261,-919.314598,9992.780217
1005.300687,-1332.370696,-1302.362347,9030.512492
1005.301017,-1776.494261,-229.828649,8068.244768
1005.301346,-2294.638420,-536.266849,7624.121203
1005.301676,-2146.597232,-383.047749,8142.265362
1005.302006,-1850.514855,306.438199,9104.533087
1005.302335,-1628.453072,1072.533697,10510.924376
1005.302665,-962.267725,2068.457845,10881.027347
1005.302994,74.020594,2221.676944,9252.574275
1005.303324,1480.411884,766.095498,8290.306550
1005.303654,2590.720797,995.924147,9030.512492
1005.303983,2664.741391,2298.286494,11177.109724
1005.304313,1110.308913,3983.696590,11621.233289
1005.304643,-518.144159,4673.182538,10288.862594
1005.304972,-1184.329507,3830.477490,9474.636058
1005.305302,0.000000,2451.505594,9252.574275
1005.305631,1480.411884,1455.581446,8882.471304
1005.305961,2516.700203,1455.581446,7402.059420
1005.306291,3108.864956,1685.410096,6957.935855
1005.306620,1184.329507,1762.019645,7105.977043
1005.306950,-962.267725,2834.553343,8142.265362
1005.307280,-2072.576638,3370.820191,8660.409521
1005.307609,-2220.617826,2528.115143,9104.533087
1005.307939,-1628.453072,2757.943793,9622.677246
1005.308268,-1924.535449,1991.848295,9844.739029
1005.308598,-1258.350101,1149.143247,9326.594869
1005.308928,-962.267725,689.485948,7920.203579
1005.309257,0.000000,919.314598,9178.553681
1005.309587,148.041188,1378.971896,11399.171507
1005.309917,-1332.370696,1762.019645,11251.130318
1005.310246,-3701.029710,2451.505594,9918.759623
1005.310576,-3701.029710,1149.143247,9622.677246
1005.310906,-2146.597232,689.485948,10881.027347
1005.311235,-962.267725,1072.533697,10362.883188
1005.311565,-222.061783,-459.657299,9918.759623
1005.311894,-666.185348,-1762.019645,8438.347739
1005.312224,-1628.453072,-1149.143247,8512.368333
1005.312554,-2146.597232,-536.266849,9696.697840
1005.312883,-2886.803174,-383.047749,9696.697840
1005.313213,-3034.844362,0.000000,9474.636058
1005.313543,-2368.659014,-306.438199,10066.800811
1005.313872,-1184.329507,-459.657299,10807.006753
1005.314202,-444.123565,-153.219100,10140.821405
1005.314531,-370.102971,-383.047749,9252.574275
1005.314861,-666.185348,306.438199,9992.780217
1005.315191,-1406.391290,995.924147,10807.006753
1005.315520,-2368.659014,1072.533697,10955.047942
1005.315850,-2516.700203,612.876398,10658.965565
1005.316180,-3034.844362,306.438199,10214.842000
1005.316509,-3627.009116,-383.047749,10288.862594
1005.316839,-2886.803174,-1149.143247,9400.615463
1005.317168,-2738.761985,-1225.752797,8068.244768
1005.317498,-3108.864956,-1608.800546,7476.080014
1005.317828,-3108.864956,-2145.067394,8364.327145
1005.318157,-3256.906145,-995.924147,9030.512492
1005.318487,-3034.844362,76.609550,9030.512492
1005.318817,-2442.679609,-842.705048,9104.533087
1005.319146,-666.185348,-153.219100,9770.718434
1005.319476,1702.473667,459.657299,10658.965565
1005.319805,3256.906145,1608.800546,10362.883188
1005.320135,4071.132681,2221.676944,9770.718434
1005.320465,3552.988522,3983.696590,10584.944971
1005.320794,2442.679609,3294.210641,11325.150913
1005.321124,1258.350101,3370.820191,10807.006753
1005.321454,370.102971,3600.648841,10510.924376
1005.321783,296.082377,2987.772442,9622.677246
1005.322113,0.000000,1378.971896,8364.327145
1005.322442,444.123565,383.047749,7550.100608
1005.322772,592.164754,229.828649,6809.894666
1005.323102,222.061783,1225.752797,7624.121203
1005.323431,-1110.308913,2681.334243,8882.471304
1005.323761,-2368.659014,3983.696590,9474.636058
1005.324091,-4145.153275,3140.991542,8660.409521
1005.324420,-3849.070898,2834.553343,9104.533087
1005.324750,-2146.597232,2068.457845,9844.739029
1005.325079,-296.082377,1991.848295,9548.656652
1005.325409,444.123565,2451.505594,7994.224174
1005.325739,1258.350101,612.876398,7476.080014
1005.326068,888.247130,766.095498,9474.636058
1005.326398,-444.123565,3064.381992,11029.068536
1005.326728,-1850.514855,4443.353888,11251.130318
1005.327057,-1702.473667,3983.696590,11325.150913
1005.327387,-1184.329507,1915.238745,10955.047942
1005.327716,-1036.288319,1225.752797,9622.677246
1005.328046,-370.102971,-306.438199,8660.409521
1005.328376,-148.041188,-1838.629195,7772.162391
1005.328705,-1110.308913,-612.876398,8364.327145
1005.329035,-2442.679609,-612.876398,9770.718434
1005.329365,-3478.967927,-1149.143247,9696.697840
1005.329694,-4441.235652,229.828649,9030.512492
1005.330024,-3849.070898,0.000000,9104.533087
1005.330353,-1554.432478,-536.266849,9844.739029
1005.330683,0.000000,-842.705048,10288.862594
1005.331012,518.144159,0.000000,10436.903782
1005.331342,-518.144159,153.219100,10584.944971
1005.331671,-1924.535449,842.705048,11325.150913
1005.332001,-3330.926739,1838.629195,11103.089130
1005.332330,-3034.844362,153.219100,10881.027347
1005.332660,-2812.782580,-995.924147,11177.109724
1005.332990,-3034.844362,-995.924147,10584.944971
1005.333319,-2072.576638,-1608.800546,9622.677246
1005.333649,-1036.288319,-2451.505594,8142.265362
1005.333978,-1184.329507,-1991.848295,7698.141797
1005.334308,-962.267725,-689.485948,8364.327145
1005.334637,-1184.329507,-383.047749,9400.615463
1005.334967,-2220.617826,536.266849,9844.739029
1005.335296,-2590.720797,1685.410096,9400.615463
1005.335626,-1702.473667,153.219100,9548.656652
1005.335955,222.061783,-229.828649,9992.780217
1005.336285,1628.453072,229.828649,10140.821405
1005.336614,1998.556043,995.924147,9474.636058
1005.336944,1924.535449,1455.581446,9770.718434
1005.337273,518.144159,1991.848295,10881.027347
1005.337603,-888.247130,3447.429741,11029.068536
1005.337932,-1628.453072,3677.258390,10436.903782
1005.338262,-1258.350101,2834.553343,10362.883188
1005.338592,-666.185348,2757.943793,9474.636058
1005.338921,0.000000,1532.190996,7846.182985
1005.339251,888.247130,229.828649,6439.791695
1005.339580,1406.391290,229.828649,6069.688724
1005.339910,518.144159,1685.410096,7698.141797
1005.340239,-1258.350101,3370.820191,8956.491898
1005.340569,-2886.803174,3830.477490,9178.553681
1005.340898,-3034.844362,3983.696590,9030.512492
1005.341228,-1776.494261,3217.601092,8734.430116
1005.341557,148.041188,2145.067394,9104.533087
1005.341887,1480.411884,2145.067394,8882.471304
1005.342216,1406.391290,1915.238745,8734.430116
1005.342546,222.061783,2068.457845,9918.759623
1005.342875,-1332.370696,2681.334243,11399.171507
1005.343205,-2590.720797,5286.058936,11103.089130
1005.343534,-2960.823768,4290.134789,10288.862594
1005.343864,-2368.659014,1532.190996,10066.800811
1005.344194,-962.267725,612.876398,9918.759623
1005.344523,-296.082377,-153.219100,9400.615463
1005.344853,-518.144159,-383.047749,8216.285956
1005.345182,-1628.453072,1225.752797,8290.306550
1005.345512,-2738.761985,689.485948,9030.512492
1005.345841,-3330.926739,153.219100,9548.656652
1005.346171,-3034.844362,0.000000,9178.553681
1005.346500,-2664.741391,689.485948,9178.553681
1005.346830,-2072.576638,76.609550,9474.636058
1005.347159,-592.164754,-383.047749,9548.656652
1005.347489,0.000000,-383.047749,9548.656652
1005.347818,74.020594,153.219100,10214.842000
1005.348148,-222.061783,536.266849,11399.171507
1005.348477,-1924.535449,1378.971896,11621.233289
1005.348807,-4293.194464,1762.019645,10510.924376
1005.349136,-4959.379811,536.266849,9770.718434
1005.349466,-4145.153275,-1838.629195,9770.718434
1005.349796,-2590.720797,-2451.505594,9918.759623
1005.350125,-2146.597232,-2757.943793,8660.409521
1005.350455,-1480.411884,-3064.381992,8216.285956
1005.350784,-1628.453072,-2911.162892,8660.409521
1005.351114,-2146.597232,-1302.362347,9400.615463
1005.351443,-1998.556043,-383.047749,9474.636058
1005.351773,-1110.308913,-306.438199,9326.594869
1005.352102,-666.185348,995.924147,10436.903782
1005.352432,1110.308913,1378.971896,11399.171507
1005.352761,2368.659014,1225.752797,10288.862594
1005.353091,2664.741391,689.485948,8882.471304
1005.353420,2368.659014,153.219100,9252.574275
1005.353750,1332.370696,842.705048,11251.130318
1005.354079,-666.185348,2221.676944,12435.459826
1005.354409,-2738.761985,3140.991542,11547.212695
1005.354738,-3256.906145,1991.848295,10362.883188
1005.355068,-2664.741391,1072.533697,9178.553681
1005.355398,-592.164754,612.876398,8808.450710
1005.355727,1184.329507,0.000000,7550.100608
1005.356057,888.247130,76.609550,7031.956449
1005.356386,-296.082377,1378.971896,7624.121203
1005.356716,-1554.432478,2834.553343,8808.450710
1005.357045,-2516.700203,4060.306139,9104.533087
1005.357375,-2590.720797,3370.820191,9104.533087
1005.357704,-1702.473667,3370.820191,9252.574275
1005.358034,370.102971,2834.553343,8882.471304
1005.358363,1998.556043,1991.848295,8216.285956
1005.358693,2072.576638,1762.019645,7328.038826
1005.359022,1628.453072,2604.724693,8808.450710
1005.359352,74.020594,3907.087040,11177.109724
1005.359681,-2368.659014,5439.278036,11917.315666
1005.360011,-3923.091493,5592.497135,10881.027347
1005.360340,-3478.967927,3064.381992,10288.862594
1005.360670,-2072.576638,1378.971896,9918.759623
1005.361000,-1480.411884,459.657299,8586.388927
1005.361329,-1702.473667,-766.095498,7698.141797
1005.361659,-1850.514855,-842.705048,7179.997637
1005.361988,-2886.803174,153.219100,7772.162391
1005.362318,-3330.926739,536.266849,8808.450710
1005.362647,-3701.029710,919.314598,8808.450710
1005.362977,-3108.864956,1225.752797,9622.677246
1005.363306,-1776.494261,1378.971896,9844.739029
1005.363636,-518.144159,1149.143247,9548.656652
1005.363965,148.041188,1302.362347,9178.553681
1005.364295,740.205942,689.485948,9178.553681
1005.364624,-74.020594,76.609550,10807.006753
1005.364954,-1850.514855,1225.752797,11473.192101
1005.365283,-3849.070898,1225.752797,11177.109724
1005.365613,-3775.050304,-306.438199,11029.068536
1005.365942,-2516.700203,-766.095498,10807.006753
1005.366272,-1776.494261,-2145.067394,10436.903782
1005.366602,-888.247130,-2757.943793,9548.656652
1005.366931,-296.082377,-2834.553343,8364.327145
1005.367261,-148.041188,-2528.115143,9400.615463
1005.367590,-1036.288319,-1455.581446,10658.965565
1005.367920,-2738.761985,383.047749,10510.924376
1005.368249,-2294.638420,689.485948,9474.636058
1005.368579,-666.185348,-842.705048,9104.533087
1005.368908,1332.370696,-1149.143247,9696.697840
1005.369238,2368.659014,-766.095498,8808.450710
1005.369567,2590.720797,-1072.533697,7994.224174
1005.369897,2442.679609,0.000000,8438.347739
1005.370226,1406.391290,1378.971896,11621.233289
1005.370556,-740.205942,2451.505594,13323.706956
1005.370885,-2812.782580,3217.601092,12213.398043
1005.371215,-3404.947333,2298.286494,10658.965565
1005.371544,-1702.473667,919.314598,10510.924376
1005.371874,222.061783,-383.047749,9474.636058
1005.372204,1406.391290,-995.924147,7402.059420
1005.372533,1480.411884,-1455.581446,5921.647536
1005.372863,888.247130,-919.314598,6809.894666
1005.373192,-370.102971,2145.067394,8882.471304
1005.373522,-1924.535449,3753.867940,9104.533087
1005.373851,-1998.556043,3447.429741,8808.450710
1005.374181,-962.267725,2987.772442,8808.450710
1005.374510,518.144159,3370.820191,9178.553681
1005.374840,2220.617826,2374.896044,9178.553681
1005.375169,1924.535449,1991.848295,8882.471304
1005.375499,0.000000,2757.943793,9548.656652
1005.375828,-1406.391290,3753.867940,11473.192101
1005.376158,-2664.741391,4749.792088,11769.274478
1005.376487,-3404.947333,3983.696590,10807.006753
1005.376817,-3108.864956,2987.772442,10510.924376
1005.377146,-2368.659014,2221.676944,10288.862594
1005.377476,-1258.350101,1762.019645,9548.656652
1005.377806,-962.267725,459.657299,7476.080014
1005.378135,-888.247130,689.485948,6439.791695
1005.378465,-1258.350101,1685.410096,7476.080014
1005.378794,-1702.473667,1302.362347,8956.491898
1005.379124,-2516.700203,2145.067394,8660.409521
1005.379453,-3330.926739,2834.553343,8586.388927
1005.379783,-2146.597232,1608.800546,9400.615463
1005.380112,0.000000,1072.533697,9992.780217
1005.380442,370.102971,842.705048,8512.368333
1005.380771,1406.391290,-383.047749,9178.553681
1005.381101,444.123565,0.000000,10362.883188
1005.381430,-2590.720797,2681.334243,11177.109724
1005.381760,-5107.421000,1991.848295,10807.006753
1005.382089,-5847.626942,0.000000,10584.944971
1005.382419,-4885.359217,-306.438199,11399.171507
1005.382748,-3330.926739,-1378.971896,11103.089130
1005.383078,-2368.659014,-2528.115143,8956.491898
1005.383408,-1480.411884,-3064.381992,6883.915261
1005.383737,-222.061783,-3370.820191,6661.853478
1005.384067,148.041188,-2757.943793,9104.533087
1005.384396,-592.164754,76.609550,10288.862594
1005.384726,-1480.411884,1685.410096,10214.842000
1005.385055,-814.226536,612.876398,10510.924376
1005.385385,370.102971,383.047749,10658.965565
1005.385714,1924.535449,-383.047749,10584.944971
1005.386044,2812.782580,-1532.190996,9622.677246
1005.386373,2664.741391,-1762.019645,9770.718434
1005.386703,1184.329507,-612.876398,11843.295072
1005.387032,-1406.391290,842.705048,13027.624579
1005.387362,-3478.967927,1532.190996,11547.212695
1005.387691,-2738.761985,766.095498,10955.047942
1005.388021,-1702.473667,229.828649,10658.965565
1005.388350,-222.061783,383.047749,9992.780217
1005.388680,962.267725,-383.047749,7994.224174
1005.389010,1184.329507,-995.924147,6365.771101
1005.389339,518.144159,76.609550,7698.141797
1005.389669,-814.226536,2068.457845,9474.636058
1005.389998,-2368.659014,2451.505594,9844.739029
1005.390328,-2664.741391,2834.553343,8734.430116
1005.390657,-1850.514855,2221.676944,8734.430116
1005.390987,444.123565,1991.848295,8808.450710
1005.391316,1998.556043,1302.362347,8364.327145
1005.391646,1998.556043,1608.800546,7254.018232
1005.391975,1628.453072,2451.505594,8586.388927
1005.392305,962.267725,4366.744339,10140.821405
1005.392634,-518.144159,5056.230287,11991.336260
1005.392964,-2368.659014,4903.011187,10881.027347
1005.393293,-2886.803174,3600.648841,10066.800811
1005.393623,-2368.659014,1915.238745,9622.677246
1005.393952,-1184.329507,1455.581446,8660.409521
1005.394282,0.000000,306.438199,7846.182985
1005.394612,0.000000,-383.047749,7179.997637
1005.394941,-1628.453072,919.314598,7550.100608
1005.395271,-2368.659014,2604.724693,8364.327145
1005.395600,-2738.761985,2757.943793,8068.244768
1005.395930,-2294.638420,2528.115143,7624.121203
1005.396259,-1258.350101,2298.286494,9400.615463
1005.396589,-296.082377,2451.505594,10288.862594
1005.396918,-222.061783,2068.457845,9696.697840
1005.397248,-444.123565,1532.190996,8956.491898
1005.397577,-1036.288319,383.047749,10140.821405
1005.397907,-2368.659014,689.485948,11917.315666
1005.398236,-4071.132681,1302.362347,13323.706956
1005.398566,-5181.441594,995.924147,11547.212695
1005.398895,-5033.400406,0.000000,10288.862594
1005.399225,-3404.947333,-1532.190996,9400.615463
1005.399554,-1480.411884,-1915.238745,8512.368333
1005.399884,518.144159,-2681.334243,7328.038826
1005.400214,1110.308913,-2451.505594,7328.038826
1005.400543,740.205942,-459.657299,8808.450710
1005.400873,-740.205942,995.924147,9844.739029
1005.401202,-1702.473667,1608.800546,10066.800811
1005.401532,-2294.638420,536.266849,9992.780217
1005.401861,-666.185348,229.828649,11029.068536
1005.402191,962.267725,-153.219100,10955.047942
1005.402520,1406.391290,-1149.143247,9844.739029
1005.402850,1406.391290,-1685.410096,9178.553681
1005.403179,444.123565,-919.314598,10584.944971
1005.403509,-1184.329507,459.657299,11917.315666
1005.403838,-2960.823768,1608.800546,12213.398043
1005.404168,-3478.967927,1532.190996,11547.212695
1005.404497,-3108.864956,1225.752797,9844.739029
1005.404827,-1406.391290,-766.095498,8808.450710
1005.405156,592.164754,-2145.067394,7476.080014
1005.405486,1776.494261,-2451.505594,6883.915261
1005.405816,962.267725,-1149.143247,7550.100608
1005.406145,-962.267725,1302.362347,9252.574275
1005.406475,-1554.432478,3294.210641,10288.862594
1005.406804,-1258.350101,3370.820191,9178.553681
1005.407134,0.000000,2451.505594,8512.368333
1005.407463,1258.350101,1302.362347,9178.553681
1005.407793,2294.638420,1838.629195,9844.739029
1005.408122,2812.782580,2298.286494,8808.450710
1005.408452,1702.473667,2834.553343,8586.388927
1005.408781,74.020594,3370.820191,10436.903782
1005.409111,-1702.473667,3370.820191,11917.315666
1005.409440,-2886.803174,3447.429741,11843.295072
1005.409770,-3034.844362,2451.505594,10955.047942
1005.410099,-2516.700203,2604.724693,9696.697840
1005.410429,-1406.391290,1532.190996,8364.327145
1005.410758,-370.102971,383.047749,6365.771101
1005.411088,148.041188,0.000000,5033.400406
1005.411418,740.205942,1149.143247,5699.585753
1005.411747,296.082377,3447.429741,8734.430116
1005.412077,-1406.391290,3600.648841,9326.594869
1005.412406,-3182.885551,3830.477490,9178.553681
1005.412736,-3256.906145,2451.505594,9622.677246
1005.413065,-1332.370696,1302.362347,11473.192101
1005.413395,0.000000,2298.286494,11325.150913
1005.413724,74.020594,1608.800546,10066.800811
1005.414054,-148.041188,842.705048,9400.615463
1005.414383,-1776.494261,1685.410096,9844.739029
1005.414713,-3330.926739,2757.943793,9474.636058
1005.415042,-3923.091493,1532.190996,9178.553681
1005.415372,-3330.926739,-689.485948,10362.883188
1005.415701,-3627.009116,459.657299,10140.821405
1005.416031,-3108.864956,-153.219100,9326.594869
1005.416360,-1850.514855,-2604.724693,8068.244768
1005.416690,-666.185348,-2528.115143,7772.162391
1005.417020,-518.144159,-2374.896044,8882.471304
1005.417349,-1406.391290,-1225.752797,10436.903782
1005.417679,-2368.659014,459.657299,10436.903782
1005.418008,-2368.659014,1225.752797,10362.883188
1005.418338,-1110.308913,459.657299,10732.986159
1005.418667,74.020594,76.609550,10140.821405
1005.418997,2442.679609,459.657299,9696.697840
1005.419326,3404.947333,-306.438199,8956.491898
1005.419656,2294.638420,-536.266849,10881.027347
1005.419985,-296.082377,1608.800546,12361.439231
1005.420315,-3256.906145,2451.505594,11843.295072
1005.420644,-3701.029710,0.000000,10881.027347
1005.420974,-3404.947333,-766.095498,10807.006753
1005.421303,-2368.659014,-1149.143247,10807.006753
1005.421633,-1258.350101,-2298.286494,9326.594869
1005.421962,-814.226536,-3064.381992,7328.038826
1005.422292,0.000000,-995.924147,7254.018232
1005.422622,0.000000,459.657299,8438.347739
1005.422951,-444.123565,1455.581446,9178.553681
1005.423281,-1258.350101,2451.505594,8882.471304
1005.423610,-1406.391290,2911.162892,8364.327145
1005.423940,592.164754,2757.943793,9030.512492
1005.424269,2368.659014,2298.286494,8882.471304
1005.424599,2590.720797,1762.019645,8734.430116
1005.424928,2368.659014,1532.190996,8734.430116
1005.425258,1184.329507,1991.848295,10658.965565
1005.425587,-148.041188,3524.039291,11769.274478
1005.425917,-2516.700203,3524.039291,11547.212695
1005.426246,-3627.009116,2681.334243,10881.027347
1005.426576,-3034.844362,2068.457845,10510.924376
1005.426905,-1554.432478,1915.238745,10066.800811
1005.427235,74.020594,919.314598,7846.182985
1005.427564,814.226536,459.657299,4663.297435
1005.427894,814.226536,76.609550,5033.400406
1005.428224,0.000000,1532.190996,7105.977043
1005.428553,-1332.370696,3217.601092,9474.636058
1005.428883,-2664.741391,4366.744339,9252.574275
1005.429212,-3034.844362,4290.134789,8734.430116
1005.429542,-2442.679609,2681.334243,9844.739029
1005.429871,-888.247130,1685.410096,11325.150913
1005.430201,-444.123565,1608.800546,10658.965565
1005.430530,-740.205942,1149.143247,10214.842000
1005.430860,-1850.514855,2221.676944,11177.109724
1005.431189,-3404.947333,2068.457845,11399.171507
1005.431519,-4219.173869,1608.800546,10510.924376
1005.431848,-3627.009116,-153.219100,9474.636058
1005.432178,-2590.720797,0.000000,9474.636058
1005.432508,-1406.391290,536.266849,9326.594869
1005.432837,-592.164754,-536.266849,7846.182985
1005.433167,0.000000,-1685.410096,7179.997637
1005.433497,-370.102971,-995.924147,7402.059420
1005.433826,-1332.370696,-229.828649,9252.574275
1005.434156,-1776.494261,383.047749,10214.842000
1005.434485,-2664.741391,1072.533697,9770.718434
1005.434815,-1924.535449,76.609550,10881.027347
1005.435145,-666.185348,-153.219100,10955.047942
1005.435474,74.020594,-459.657299,10510.924376
1005.435804,1036.288319,0.000000,9992.780217
1005.436134,1184.329507,-153.219100,9992.780217
1005.436463,296.082377,0.000000,10955.047942
1005.436793,-1628.453072,1378.971896,11029.068536
1005.437123,-2442.679609,153.219100,10436.903782
1005.437452,-2886.803174,-536.266849,10584.944971
1005.437782,-2146.597232,0.000000,10584.944971
1005.438111,-2072.576638,-1225.752797,9474.636058
1005.438441,-962.267725,-1378.971896,7698.141797
1005.438771,518.144159,-1838.629195,6661.853478
1005.439100,1702.473667,-1762.019645,7550.100608
1005.439430,888.247130,0.000000,8512.368333
1005.439760,296.082377,766.095498,8956.491898
1005.440089,-1036.288319,2528.115143,9326.594869
1005.440419,-962.267725,2911.162892,10436.903782
1005.440749,444.123565,3064.381992,11399.171507
1005.441078,1628.453072,2298.286494,10510.924376
1005.441408,1924.535449,1072.533697,9474.636058
1005.441737,1036.288319,689.485948,10436.903782
1005.442067,-666.185348,1915.238745,11843.295072
1005.442397,-2516.700203,3064.381992,11473.192101
1005.442726,-3701.029710,2604.724693,9622.677246
1005.443056,-2960.823768,2298.286494,8660.409521
1005.443386,-740.205942,1302.362347,7254.018232
1005.443715,1480.411884,383.047749,6809.894666
1005.444045,2146.597232,689.485948,5921.647536
1005.444375,1184.329507,1532.190996,6291.750507
1005.444704,-370.102971,1991.848295,8512.368333
1005.445034,-2146.597232,3140.991542,9770.718434
1005.445363,-3034.844362,3753.867940,10510.924376
1005.445693,-2738.761985,2834.553343,10362.883188
1005.446023,-1924.535449,1991.848295,9918.759623
1005.446352,-962.267725,2298.286494,9400.615463
1005.446682,-296.082377,1838.629195,7772.162391
1005.447012,0.000000,842.705048,8364.327145
1005.447341,-1554.432478,1608.800546,10584.944971
1005.447671,-3775.050304,3677.258390,11769.274478
1005.448001,-5033.400406,3140.991542,10732.986159
1005.448330,-4441.235652,1302.362347,10140.821405
1005.448660,-2812.782580,0.000000,9992.780217
1005.448989,-2146.597232,-306.438199,9548.656652
1005.449319,-962.267725,-1762.019645,8068.244768
1005.449649,-222.061783,-1838.629195,7179.997637
1005.449978,-296.082377,-842.705048,7698.141797
1005.450308,-740.205942,-689.485948,9030.512492
1005.450638,-1628.453072,0.000000,9548.656652
1005.450967,-1850.514855,1149.143247,9178.553681
1005.451297,-1110.308913,1072.533697,9992.780217
1005.451627,0.000000,383.047749,11029.068536
1005.451956,0.000000,229.828649,10955.047942
1005.452286,0.000000,153.219100,9918.759623
1005.452615,296.082377,-306.438199,9992.780217
1005.452945,148.041188,153.219100,11177.109724
1005.453275,-1480.411884,689.485948,11843.295072
1005.453604,-3108.864956,-153.219100,10955.047942
1005.453934,-3849.070898,-1072.533697,10955.047942
1005.454264,-3552.988522,-766.095498,11325.150913
1005.454593,-2220.617826,-383.047749,10066.800811
1005.454923,-1036.288319,-1685.410096,7550.100608
1005.455253,370.102971,-3140.991542,6439.791695
1005.455582,1036.288319,-1838.629195,7476.080014
1005.455912,148.041188,383.047749,8586.388927
1005.456242,-962.267725,1915.238745,9030.512492
1005.456571,-1184.329507,2604.724693,9178.553681
1005.456901,-888.247130,2374.896044,10362.883188
1005.457230,370.102971,2298.286494,10955.047942
1005.457560,1554.432478,2145.067394,9918.759623
1005.457890,2368.659014,1838.629195,8956.491898
1005.458219,2072.576638,1149.143247,9474.636058
1005.458549,148.041188,1762.019645,11473.192101
1005.458879,-1554.432478,2911.162892,12583.501014
1005.459208,-3256.906145,2757.943793,11251.130318
1005.459538,-3552.988522,2145.067394,9622.677246
1005.459868,-2442.679609,1532.190996,8734.430116
1005.460197,-814.226536,229.828649,7846.182985
1005.460527,1258.350101,-842.705048,6143.709319
1005.460856,1998.556043,306.438199,5033.400406
1005.461186,962.267725,1685.410096,6587.832884
1005.461516,-592.164754,2681.334243,8290.306550
1005.461845,-2664.741391,3677.258390,9104.533087
1005.462175,-3182.885551,4213.525239,9696.697840
1005.462505,-2368.659014,3907.087040,10288.862594
1005.462834,-814.226536,3524.039291,10732.986159
1005.463164,296.082377,1762.019645,9622.677246
1005.463494,74.020594,229.828649,9252.574275
1005.463823,-888.247130,383.047749,10881.027347
1005.464153,-2812.782580,2681.334243,12435.459826
1005.464482,-4663.297435,3447.429741,11399.171507
1005.464812,-5329.482782,2528.115143,10140.821405
1005.465142,-3849.070898,689.485948,9548.656652
1005.465471,-1628.453072,-689.485948,8660.409521
1005.465801,-444.123565,-1532.190996,6809.894666
1005.466131,518.144159,-612.876398,5847.626942
1005.466460,296.082377,-689.485948,6513.812290
1005.466790,-666.185348,-612.876398,9178.553681
1005.467120,-2516.700203,689.485948,10732.986159
1005.467449,-4219.173869,2298.286494,10362.883188
1005.467779,-3256.906145,1685.410096,10584.944971
1005.468108,-1628.453072,-229.828649,11325.150913
1005.468438,-592.164754,153.219100,11325.150913
1005.468768,0.000000,-1072.533697,10140.821405
1005.469097,148.041188,-1608.800546,9104.533087
1005.469427,-74.020594,0.000000,10214.842000
1005.469757,-1480.411884,995.924147,11325.150913
1005.470086,-2664.741391,536.266849,11547.212695
1005.470416,-3034.844362,0.000000,10288.862594
1005.470746,-2368.659014,-306.438199,9844.739029
1005.471075,-962.267725,-1225.752797,9622.677246
1005.471405,370.102971,-2145.067394,8216.285956
1005.471734,592.164754,-2374.896044,7476.080014
1005.472064,518.144159,-1838.629195,7920.203579
1005.472394,-148.041188,-229.828649,9252.574275
1005.472723,-1258.350101,1302.362347,10214.842000
1005.473053,-2146.597232,1915.238745,9844.739029
1005.473383,-1406.391290,1685.410096,10288.862594
1005.473712,-222.061783,1378.971896,10584.944971
1005.474042,1258.350101,1149.143247,10140.821405
1005.474372,2146.597232,842.705048,9326.594869
1005.474701,1702.473667,842.705048,9474.636058
1005.475031,444.123565,1532.190996,11029.068536
1005.475360,-1406.391290,2681.334243,11325.150913
1005.475690,-2368.659014,2298.286494,10436.903782
1005.476020,-2368.659014,1532.190996,10066.800811
1005.476349,-2294.638420,1991.848295,9400.615463
1005.476679,-1036.288319,1378.971896,8586.388927
1005.477009,1184.329507,0.000000,7254.018232
1005.477338,2072.576638,306.438199,6069.688724
1005.477668,1406.391290,1532.190996,6809.894666
1005.477998,296.082377,2528.115143,8068.244768
1005.478327,-1850.514855,3907.087040,8364.327145
1005.478657,-3256.906145,4749.792088,8660.409521
1005.478986,-2886.803174,2987.772442,9400.615463
1005.479316,-1628.453072,2068.457845,10510.924376
1005.479646,-296.082377,1915.238745,10140.821405
1005.479975,370.102971,842.705048,9770.718434
1005.480305,148.041188,842.705048,9992.780217
1005.480635,-814.226536,2221.676944,11325.150913
1005.480964,-2590.720797,3524.039291,10807.006753
1005.481294,-3775.050304,3447.429741,10436.903782
1005.481624,-3404.947333,2911.162892,9918.759623
1005.481953,-2294.638420,2451.505594,10066.800811
1005.482283,-518.144159,842.705048,8216.285956
1005.482613,74.020594,-1225.752797,6217.729913
1005.482942,0.000000,-1532.190996,5625.565159
1005.483272,-962.267725,-1072.533697,7698.141797
1005.483601,-2368.659014,0.000000,9548.656652
1005.483931,-4219.173869,1838.629195,10362.883188
1005.484261,-4885.359217,2145.067394,10362.883188
1005.484590,-3404.947333,536.266849,10807.006753
1005.484920,-1332.370696,-229.828649,10955.047942
1005.485250,0.000000,-383.047749,9770.718434
1005.485579,888.247130,-383.047749,9326.594869
1005.485909,592.164754,-612.876398,10658.965565
1005.486239,-962.267725,1072.533697,12065.356855
1005.486568,-3108.864956,1532.190996,11917.315666
1005.486898,-3701.029710,0.000000,11177.109724
1005.487227,-3256.906145,-536.266849,10732.986159
1005.487557,-2294.638420,-1302.362347,10288.862594
1005.487887,-296.082377,-1991.848295,8808.450710
1005.488216,1332.370696,-2757.943793,6809.894666
1005.488546,1480.411884,-2681.334243,6365.771101
1005.488876,296.082377,-995.924147,7698.141797
1005.489205,-740.205942,1149.143247,9696.697840
1005.489535,-1702.473667,2068.457845,10362.883188
1005.489865,-1850.514855,2068.457845,11325.150913
1005.490194,-1480.411884,1608.800546,11991.336260
1005.490524,-296.082377,1302.362347,11399.171507
1005.490853,666.185348,0.000000,9918.759623
1005.491183,1258.350101,-306.438199,9400.615463
1005.491513,666.185348,459.657299,10510.924376
1005.491842,-888.247130,1225.752797,11473.192101
1005.492172,-2368.659014,3370.820191,10732.986159
1005.492502,-2442.679609,2681.334243,9548.656652
1005.492831,-1258.350101,1685.410096,8512.368333
1005.493161,222.061783,995.924147,7772.162391
1005.493491,1998.556043,383.047749,7105.977043
1005.493820,2072.576638,689.485948,6439.791695
1005.494150,1110.308913,1072.533697,7105.977043
1005.494479,-444.123565,2451.505594,8586.388927
1005.494809,-1628.453072,3294.210641,9474.636058
1005.495139,-2368.659014,3064.381992,9030.512492
1005.495468,-1554.432478,2528.115143,9474.636058
1005.495798,-222.061783,1991.848295,10140.821405
1005.496128,740.205942,2068.457845,9770.718434
1005.496457,814.226536,1915.238745,8660.409521
1005.496787,518.144159,2145.067394,9548.656652
1005.497117,-148.041188,3140.991542,11473.192101
1005.497446,-1924.535449,3600.648841,11399.171507
1005.497776,-3034.844362,3064.381992,9770.718434
1005.498105,-3108.864956,1225.752797,9104.533087
1005.498435,-2590.720797,536.266849,9622.677246
1005.498765,-1924.535449,229.828649,9622.677246
1005.499094,-1554.432478,-383.047749,8216.285956
1005.499424,-1258.350101,-383.047749,6883.915261
1005.499754,-1184.329507,-536.266849,7772.162391
1005.500083,-2072.576638,0.000000,9030.512492
1005.500413,-2886.803174,919.314598,9548.656652
1005.500743,-3108.864956,1762.019645,9770.718434
1005.501072,-2812.782580,2068.457845,11103.089130
1005.501402,-1998.556043,1915.238745,11473.192101
1005.501731,-1332.370696,612.876398,10510.924376
1005.502061,-666.185348,459.657299,8956.491898
1005.502391,0.000000,-383.047749,9252.574275
1005.502720,-370.102971,0.000000,10881.027347
1005.503050,-1702.473667,76.609550,11473.192101
1005.503380,-3627.009116,-306.438199,10362.883188
1005.503709,-3923.091493,-766.095498,10362.883188
1005.504039,-3182.885551,-612.876398,10140.821405
1005.504369,-1258.350101,-306.438199,9622.677246
1005.504698,814.226536,-1915.238745,8142.265362
1005.505028,1554.432478,-2221.676944,7328.038826
1005.505357,888.247130,-1455.581446,8068.244768
1005.505687,-592.164754,-383.047749,9400.615463
1005.506017,-2146.597232,1532.190996,10066.800811
1005.506346,-2960.823768,2604.724693,10658.965565
1005.506676,-1850.514855,1378.971896,11325.150913
1005.507006,-592.164754,612.876398,11103.089130
1005.507335,888.247130,-306.438199,9696.697840
1005.507665,1554.432478,-1378.971896,9104.533087
1005.507995,814.226536,-459.657299,10214.842000
1005.508324,-592.164754,1225.752797,11621.233289
1005.508654,-2146.597232,2145.067394,11547.212695
1005.508984,-2294.638420,1991.848295,10362.883188
1005.509313,-1258.350101,1685.410096,10140.821405
1005.509643,148.041188,2374.896044,9326.594869
1005.509972,1184.329507,1762.019645,7031.956449
1005.510302,1776.494261,1225.752797,4737.318029
1005.510632,1776.494261,76.609550,5625.565159
1005.510961,444.123565,995.924147,8808.450710
1005.511291,-2072.576638,2911.162892,10732.986159
1005.511621,-4145.153275,4136.915689,10214.842000
1005.511950,-3552.988522,2681.334243,10288.862594
1005.512280,-1554.432478,1685.410096,10732.986159
1005.512610,888.247130,1302.362347,10510.924376
1005.512939,1850.514855,842.705048,9104.533087
1005.513269,1850.514855,1991.848295,8660.409521
1005.513598,814.226536,3064.381992,9992.780217
1005.513928,-370.102971,4443.353888,10584.944971
1005.514258,-1554.432478,3447.429741,9844.739029
1005.514587,-2220.617826,2757.943793,9622.677246
1005.514917,-1702.473667,2834.553343,9400.615463
1005.515247,-666.185348,1532.190996,8216.285956
1005.515576,-296.082377,-306.438199,7550.100608
1005.515906,-888.247130,-919.314598,7105.977043
1005.516236,-1850.514855,76.609550,8068.244768
1005.516565,-2368.659014,842.705048,9844.739029
1005.516895,-3256.906145,2068.457845,10288.862594
1005.517224,-4441.235652,1378.971896,9622.677246
1005.517554,-4589.276840,995.924147,9770.718434
1005.517884,-2886.803174,842.705048,10955.047942
1005.518213,-1184.329507,995.924147,10584.944971
1005.518543,-222.061783,842.705048,8882.471304
1005.518873,148.041188,-153.219100,8290.306550
1005.519202,-814.226536,-536.266849,9918.759623
1005.519532,-1628.453072,612.876398,11325.150913
1005.519862,-2738.761985,1378.971896,10732.986159
1005.520191,-2812.782580,536.266849,10288.862594
1005.520521,-1850.514855,-612.876398,10436.903782
1005.520850,-1184.329507,-689.485948,10510.924376
1005.521180,0.000000,-1455.581446,8808.450710
1005.521510,518.144159,-2068.457845,7402.059420
1005.521839,444.123565,-1532.190996,8438.347739
1005.522169,-666.185348,-536.266849,10584.944971
1005.522499,-2368.659014,459.657299,11177.109724
1005.522828,-3256.906145,1072.533697,10807.006753
1005.523158,-2516.700203,689.485948,10214.842000
1005.523488,-962.267725,0.000000,10510.924376
1005.523817,74.020594,0.000000,9918.759623
1005.524147,1184.329507,-612.876398,9474.636058
1005.524476,1258.350101,0.000000,9474.636058
1005.524806,-148.041188,1532.190996,9622.677246
1005.525136,-2072.576638,1915.238745,10140.821405
1005.525465,-2516.700203,1608.800546,10214.842000
1005.525795,-2516.700203,1378.971896,10214.842000
1005.526125,-1406.391290,1762.019645,9770.718434
1005.526454,370.102971,306.438199,8586.388927
1005.526784,1702.473667,-306.438199,7105.977043
1005.527114,2072.576638,-995.924147,6661.853478
1005.527443,962.267725,459.657299,7698.141797
1005.527773,0.000000,2221.676944,9252.574275
1005.528102,-1332.370696,3983.696590,9696.697840
1005.528432,-1480.411884,3907.087040,9992.780217
1005.528762,-814.226536,3217.601092,10362.883188
1005.529091,740.205942,2451.505594,9696.697840
1005.529421,1850.514855,1608.800546,8290.306550
1005.529751,1776.494261,919.314598,7624.121203
1005.530080,1036.288319,2298.286494,9548.656652
1005.530410,-518.144159,3370.820191,11325.150913
1005.530740,-2812.782580,3677.258390,10881.027347
1005.531069,-3849.070898,2834.553343,9474.636058
1005.531399,-3182.885551,1225.752797,9992.780217
1005.531728,-1702.473667,1225.752797,10584.944971
1005.532058,-518.144159,919.314598,8882.471304
1005.532387,0.000000,-229.828649,7105.977043
1005.532717,444.123565,-1532.190996,7402.059420
1005.533046,-740.205942,842.705048,9104.533087
1005.533376,-2368.659014,2374.896044,9622.677246
1005.533705,-3182.885551,2757.943793,10288.862594
1005.534035,-2590.720797,1991.848295,10288.862594
1005.534364,-1480.411884,1762.019645,10140.821405
1005.534694,444.123565,919.314598,9178.553681
1005.535023,814.226536,-766.095498,8586.388927
1005.535353,666.185348,-306.438199,8660.409521
1005.535682,-666.185348,536.266849,10214.842000
1005.536012,-2516.700203,1532.190996,11843.295072
1005.536341,-3775.050304,1838.629195,11177.109724
1005.536671,-4737.318029,689.485948,10288.862594
1005.537001,-3627.009116,-459.657299,9770.718434
1005.537330,-1776.494261,-1072.533697,9326.594869
1005.537660,0.000000,-2221.676944,8068.244768
1005.537989,148.041188,-2145.067394,7328.038826
1005.538319,-592.164754,-919.314598,8438.347739
1005.538648,-2072.576638,459.657299,10066.800811
1005.538978,-3256.906145,1225.752797,10807.006753
1005.539307,-3404.947333,1149.143247,10955.047942
1005.539637,-2516.700203,306.438199,10584.944971
1005.539966,-1332.370696,-766.095498,10732.986159
1005.540296,0.000000,-536.266849,9992.780217
1005.540625,1184.329507,-1072.533697,8512.368333
1005.540955,1998.556043,-1455.581446,9030.512492
1005.541284,1480.411884,229.828649,10140.821405
1005.541614,296.082377,2221.676944,11621.233289
1005.541943,-1554.432478,2911.162892,10732.986159
1005.542273,-2072.576638,2374.896044,9844.739029
1005.542602,-1480.411884,2374.896044,8512.368333
1005.542932,-222.061783,689.485948,8290.306550
1005.543261,888.247130,-1378.971896,8142.265362
1005.543591,888.247130,-1378.971896,7920.203579
1005.543920,-740.205942,153.219100,9252.574275
1005.544250,-2368.659014,459.657299,9992.780217
1005.544580,-3182.885551,1225.752797,10510.924376
1005.544909,-2516.700203,2374.896044,10214.842000
1005.545239,-592.164754,1915.238745,9992.780217
1005.545568,888.247130,2068.457845,9400.615463
1005.545898,2368.659014,2757.943793,8068.244768
1005.546227,3108.864956,2298.286494,7624.121203
1005.546557,3108.864956,1991.848295,9030.512492
1005.546886,1480.411884,3677.258390,10288.862594
1005.547216,-814.226536,4136.915689,10214.842000
1005.547545,-2368.659014,2451.505594,9696.697840
1005.547875,-2664.741391,1762.019645,9992.780217
1005.548204,-2220.617826,919.314598,10732.986159
1005.548534,-666.185348,383.047749,9622.677246
1005.548863,-222.061783,0.000000,7920.203579
1005.549193,0.000000,0.000000,7105.977043
1005.549522,-370.102971,459.657299,8364.327145
1005.549852,-1480.411884,1225.752797,9770.718434
1005.550181,-2960.823768,3064.381992,9844.739029
1005.550511,-3552.988522,3140.991542,9696.697840
1005.550840,-2738.761985,2757.943793,10140.821405
1005.551170,-1258.350101,1685.410096,10214.842000
1005.551500,-518.144159,383.047749,9030.512492
1005.551829,0.000000,0.000000,7846.182985
1005.552159,-592.164754,-459.657299,9400.615463
1005.552488,-2220.617826,919.314598,10807.006753
1005.552818,-4219.173869,1455.581446,10955.047942
1005.553147,-4515.256246,1302.362347,9918.759623
1005.553477,-3034.844362,536.266849,9770.718434
1005.553806,-1554.432478,-459.657299,9770.718434
1005.554136,0.000000,-536.266849,8808.450710
1005.554465,370.102971,-1149.143247,7476.080014
1005.554795,74.020594,-1762.019645,8068.244768
1005.555124,-1036.288319,-459.657299,9844.739029
1005.555454,-2368.659014,536.266849,10881.027347
1005.555783,-3182.885551,306.438199,10584.944971
1005.556113,-3256.906145,-153.219100,10510.924376
1005.556442,-2072.576638,-383.047749,11029.068536
1005.556772,222.061783,-383.047749,10955.047942
1005.557101,888.247130,-229.828649,9548.656652
1005.557431,1702.473667,153.219100,8734.430116
1005.557760,814.226536,536.266849,9770.718434
1005.558090,-666.185348,1302.362347,10658.965565
1005.558420,-2146.597232,2298.286494,10436.903782
1005.558749,-2590.720797,1608.800546,10362.883188
1005.559079,-2294.638420,689.485948,9992.780217
1005.559408,-2072.576638,76.609550,9918.759623
1005.559738,-592.164754,-1149.143247,8956.491898
1005.560067,296.082377,-2068.457845,7550.100608
1005.560397,444.123565,-1532.190996,7476.080014
1005.560726,148.041188,-153.219100,9178.553681
1005.561056,-888.247130,2374.896044,9548.656652
1005.561385,-1554.432478,2911.162892,9474.636058
1005.561715,-962.267725,3294.210641,9474.636058
1005.562044,666.185348,3064.381992,10362.883188
1005.562374,2442.679609,2604.724693,9252.574275
1005.562703,3182.885551,2068.457845,8364.327145
1005.563033,2368.659014,1225.752797,8216.285956
1005.563362,1036.288319,1838.629195,9844.739029
1005.563692,-1406.391290,2757.943793,11177.109724
1005.564021,-3108.864956,2834.553343,10807.006753
1005.564351,-3775.050304,2911.162892,10436.903782
1005.564680,-3034.844362,1762.019645,10584.944971
1005.565010,-1702.473667,1455.581446,9030.512492
1005.565339,0.000000,153.219100,7105.977043
1005.565669,1110.308913,-766.095498,6513.812290
1005.565999,740.205942,536.266849,7624.121203
1005.566328,-370.102971,2451.505594,9326.594869
1005.566658,-2220.617826,3140.991542,9252.574275
1005.566987,-2738.761985,2911.162892,8734.430116
1005.567317,-1998.556043,1685.410096,9474.636058
1005.567646,0.000000,1455.581446,10955.047942
1005.567976,370.102971,612.876398,11029.068536
1005.568305,-148.041188,919.314598,9622.677246
1005.568635,-444.123565,383.047749,10362.883188
1005.568964,-1110.308913,536.266849,11473.192101
1005.569294,-2516.700203,1685.410096,11473.192101
1005.569623,-3330.926739,1149.143247,10288.862594
1005.569953,-3034.844362,229.828649,10214.842000
1005.570282,-2368.659014,229.828649,9548.656652
1005.570612,-1332.370696,-612.876398,8586.388927
1005.570941,0.000000,-1685.410096,7179.997637
1005.571271,0.000000,-1762.019645,6587.832884
1005.571600,-592.164754,-1302.362347,8438.347739
1005.571930,-2220.617826,76.609550,9992.780217
1005.572259,-3627.009116,459.657299,10436.903782
1005.572589,-3701.029710,689.485948,10288.862594
1005.572919,-2738.761985,-229.828649,10807.006753
1005.573248,-962.267725,995.924147,11177.109724
1005.573578,592.164754,459.657299,9474.636058
1005.573907,1924.535449,-689.485948,8290.306550
1005.574237,1480.411884,-536.266849,9474.636058
1005.574566,-444.123565,459.657299,11547.212695
1005.574896,-2368.659014,1149.143247,12213.398043
1005.575225,-4071.132681,1225.752797,11917.315666
1005.575555,-3404.947333,612.876398,11843.295072
1005.575884,-2220.617826,153.219100,10658.965565
1005.576214,-740.205942,-842.705048,8364.327145
1005.576543,1110.308913,-1072.533697,5847.626942
1005.576873,1554.432478,-1762.019645,5033.400406
1005.577202,444.123565,229.828649,7550.100608
1005.577532,-1036.288319,1838.629195,9918.759623
1005.577861,-3256.906145,3447.429741,10732.986159
1005.578191,-4145.153275,3140.991542,10436.903782
1005.578520,-1998.556043,2451.505594,11399.171507
1005.578850,370.102971,1608.800546,11547.212695
1005.579179,1702.473667,842.705048,9178.553681
1005.579509,2146.597232,0.000000,7920.203579
1005.579838,1702.473667,766.095498,9622.677246
1005.580168,-296.082377,3140.991542,11029.068536
1005.580498,-2146.597232,3600.648841,10362.883188
1005.580827,-2294.638420,2911.162892,9844.739029
1005.581157,-1258.350101,3064.381992,8956.491898
1005.581486,888.247130,2451.505594,8512.368333
1005.581816,2590.720797,766.095498,6513.812290
1005.582145,2368.659014,-689.485948,5551.544565
1005.582475,666.185348,536.266849,7254.018232
1005.582804,-1184.329507,1455.581446,9252.574275
1005.583134,-2368.659014,2757.943793,9992.780217
1005.583463,-2960.823768,2604.724693,9474.636058
1005.583793,-2368.659014,995.924147,9918.759623
1005.584122,-1924.535449,1608.800546,10732.986159
1005.584452,-740.205942,2145.067394,10214.842000
1005.584781,370.102971,1532.190996,9104.533087
1005.585111,814.226536,1225.752797,8956.491898
1005.585440,-518.144159,2145.067394,10066.800811
1005.585770,-2442.679609,1378.971896,10732.986159
1005.586099,-3997.112087,1455.581446,9918.759623
1005.586429,-3627.009116,1762.019645,9474.636058
1005.586758,-2368.659014,612.876398,9992.780217
1005.587088,-814.226536,-536.266849,9918.759623
1005.587418,-592.164754,-1685.410096,7994.224174
1005.587747,-592.164754,-2604.724693,7105.977043
1005.588077,-962.267725,-1915.238745,8882.471304
1005.588406,-2294.638420,306.438199,11251.130318
1005.588736,-2738.761985,1915.238745,11991.336260
1005.589065,-3108.864956,842.705048,11177.109724
1005.589395,-2368.659014,153.219100,9844.739029
1005.589724,-888.247130,0.000000,9252.574275
1005.590054,1036.288319,-383.047749,9030.512492
1005.590383,1998.556043,-383.047749,8660.409521
1005.590713,1332.370696,612.876398,9252.574275
1005.591042,-296.082377,1302.362347,10510.924376
1005.591372,-2886.803174,1685.410096,10584.944971
1005.591701,-4589.276840,612.876398,10881.027347
1005.592031,-4441.235652,153.219100,11695.253884
1005.592360,-3627.009116,459.657299,11843.295072
1005.592690,-2590.720797,-612.876398,9770.718434
1005.593019,-1184.329507,-2145.067394,6883.915261
1005.593349,222.061783,-3447.429741,5847.626942
1005.593678,444.123565,-2221.676944,7402.059420
1005.594008,-222.061783,766.095498,9400.615463
1005.594337,-1332.370696,2681.334243,9770.718434
1005.594667,-1258.350101,3370.820191,10510.924376
1005.594997,-592.164754,3217.601092,11103.089130
1005.595326,518.144159,2757.943793,10658.965565
1005.595656,1998.556043,1685.410096,8882.471304
1005.595985,2516.700203,153.219100,8290.306550
1005.596315,2072.576638,1455.581446,9696.697840
1005.596644,-518.144159,2374.896044,11621.233289
1005.596974,-3330.926739,2528.115143,11251.130318
1005.597303,-5329.482782,2528.115143,10436.903782
1005.597633,-5181.441594,2987.772442,9992.780217
1005.597962,-3330.926739,2451.505594,9474.636058
1005.598292,-1850.514855,1302.362347,7476.080014
1005.598621,-296.082377,0.000000,5033.400406
1005.598951,444.123565,-612.876398,5477.523971
1005.599280,-592.164754,1302.362347,7105.977043
1005.599610,-2294.638420,3140.991542,9104.533087
1005.599939,-5107.421000,3524.039291,10140.821405
1005.600269,-6587.832884,3677.258390,10955.047942
1005.600598,-5551.544565,3370.820191,11621.233289
1005.600928,-3034.844362,1838.629195,11177.109724
1005.601257,-1702.473667,383.047749,8956.491898
1005.601587,-1258.350101,-229.828649,7550.100608
1005.601917,-962.267725,536.266849,9252.574275
1005.602246,-1628.453072,1838.629195,11103.089130
1005.602576,-3997.112087,3217.601092,10658.965565
1005.602905,-5773.606348,3064.381992,9992.780217
1005.603235,-6143.709319,1991.848295,10436.903782
1005.603564,-5403.503377,1149.143247,11029.068536
1005.603894,-4811.338623,-766.095498,9918.759623
1005.604223,-4515.256246,-2068.457845,7476.080014
1005.604553,-3997.112087,-2145.067394,6365.771101
1005.604882,-3182.885551,-1685.410096,7994.224174
1005.605212,-3330.926739,-1608.800546,9548.656652
1005.605541,-4959.379811,-306.438199,10066.800811
1005.605871,-6217.729913,1685.410096,9992.780217
1005.606200,-6069.688724,2145.067394,11029.068536
1005.606530,-4219.173869,1838.629195,12139.377449
1005.606859,-2664.741391,1225.752797,10881.027347
1005.607189,-2368.659014,-229.828649,8290.306550
1005.607518,-1850.514855,-995.924147,6735.874072
1005.607848,-666.185348,-306.438199,7920.203579
1005.608177,0.000000,-383.047749,9918.759623
1005.608507,-1554.432478,229.828649,11917.315666
1005.608836,-5477.523971,1455.581446,11325.150913
1005.609166,-8438.347739,2145.067394,10436.903782
1005.609496,-8808.450710,995.924147,10732.986159
1005.609825,-7624.121203,-919.314598,10658.965565
1005.610155,-5921.647536,-1455.581446,9548.656652
1005.610484,-4737.318029,-3217.601092,7994.224174
1005.610814,-3701.029710,-3064.381992,6957.935855
1005.611143,-1998.556043,-1838.629195,7550.100608
1005.611473,-296.082377,-459.657299,8660.409521
1005.611802,370.102971,1378.971896,9474.636058
1005.612132,-814.226536,2757.943793,10510.924376
1005.612461,-2368.659014,3907.087040,11769.274478
1005.612791,-4293.194464,4596.572988,12805.562797
1005.613120,-6217.729913,4443.353888,12583.501014
1005.613450,-6883.915261,3983.696590,10732.986159
1005.613779,-5329.482782,1225.752797,9030.512492
1005.614109,-2664.741391,-1608.800546,7624.121203
1005.614438,-1110.308913,-2068.457845,6365.771101
1005.614768,-592.164754,-536.266849,5477.523971
1005.615097,370.102971,1455.581446,5625.565159
1005.615427,1406.391290,3064.381992,8068.244768
1005.615756,-148.041188,5975.544884,9770.718434
1005.616086,-3627.009116,6665.030833,11029.068536
1005.616416,-6883.915261,4673.182538,11325.150913
1005.616745,-10066.800811,2451.505594,13471.748144
1005.617075,-12583.501014,1378.971896,14804.118840
1005.617404,-13545.768739,842.705048,13693.809927
1005.617734,-11991.336260,-1225.752797,9252.574275
1005.618063,-7105.977043,-3677.258390,5329.482782
1005.618393,-1110.308913,-3983.696590,3478.967927
1005.618722,4515.256246,-2681.334243,3849.070898
1005.619052,6291.750507,1225.752797,4367.215058
1005.619381,5551.544565,6741.640382,6291.750507
1005.619711,2664.741391,10572.117872,8956.491898
1005.620040,222.061783,9882.631924,12435.459826
1005.620370,-2738.761985,7201.297681,14285.974681
1005.620699,-5847.626942,5132.839837,13619.789333
1005.621029,-8438.347739,-306.438199,13767.830521
1005.621358,-10436.903782,-4519.963438,14359.995275
1005.621688,-12731.542202,-5745.716235,12657.521608
1005.622017,-13027.624579,-6358.592633,8882.471304
1005.622347,-9622.677246,-6665.030833,5255.462188
1005.622676,-4293.194464,-4749.792088,3701.029710
1005.623006,740.205942,-2221.676944,4959.379811
1005.623335,2590.720797,1072.533697,6365.771101
1005.623665,2294.638420,5056.230287,7698.141797
1005.623995,814.226536,9116.536426,9474.636058
1005.624324,-1036.288319,8810.098227,11843.295072
1005.624654,-4071.132681,6205.373534,12731.542202
1005.624983,-7105.977043,1685.410096,12361.439231
1005.625313,-9030.512492,-2681.334243,10658.965565
1005.625642,-9696.697840,-5362.668486,10436.903782
1005.625972,-8956.491898,-6894.859482,10955.047942
1005.626301,-7698.141797,-6511.811733,10436.903782
1005.626631,-5921.647536,-4903.011187,8660.409521
1005.626960,-3034.844362,-3140.991542,7328.038826
1005.627290,0.000000,76.609550,8068.244768
1005.627619,2072.576638,3677.258390,9400.615463
1005.627949,1998.556043,6205.373534,10732.986159
1005.628278,-222.061783,6358.592633,11251.130318
1005.628608,-2442.679609,5132.839837,12361.439231
1005.628937,-4367.215058,2834.553343,13027.624579
1005.629267,-6439.791695,536.266849,11843.295072
1005.629596,-7624.121203,-2604.724693,9252.574275
1005.629926,-7179.997637,-4903.011187,7328.038826
1005.630255,-4811.338623,-5975.544884,6957.935855
1005.630585,-3478.967927,-3370.820191,7105.977043
1005.630915,-2516.700203,-229.828649,6809.894666
1005.631244,-2220.617826,2221.676944,7179.997637
1005.631574,-2294.638420,5669.106685,8660.409521
1005.631903,-1998.556043,8044.002729,10658.965565
1005.632233,-2368.659014,7431.126331,11843.295072
1005.632562,-3997.112087,5515.887586,12139.377449
1005.632892,-4959.379811,4136.915689,12213.398043
1005.633221,-5995.668130,1991.848295,11399.171507
1005.633551,-6439.791695,0.000000,10436.903782
1005.633881,-6513.812290,-1378.971896,8364.327145
1005.634210,-5403.503377,-1378.971896,7254.018232
1005.634540,-3182.885551,536.266849,6735.874072
1005.634869,-296.082377,2451.505594,6587.832884
1005.635199,962.267725,3447.429741,7179.997637
1005.635529,666.185348,5362.668486,7476.080014
1005.635858,-370.102971,6358.592633,8512.368333
1005.636188,-1406.391290,6894.859482,10288.862594
1005.636517,-2294.638420,6052.154434,11103.089130
1005.636847,-3478.967927,4366.744339,10807.006753
1005.637177,-3478.967927,2298.286494,9622.677246
1005.637506,-2886.803174,-229.828649,8956.491898
1005.637836,-2146.597232,-536.266849,8808.450710
1005.638166,-1850.514855,766.095498,8586.388927
1005.638495,-2220.617826,2145.067394,8734.430116
1005.638825,-2590.720797,4213.525239,9770.718434
1005.639154,-2960.823768,5745.716235,11029.068536
1005.639484,-2442.679609,5975.544884,11251.130318
1005.639814,-2146.597232,6128.763984,10584.944971
1005.640143,-1776.494261,4519.963438,10140.821405
1005.640473,-1776.494261,2451.505594,9770.718434
1005.640803,-1702.473667,1455.581446,9918.759623
1005.641132,-1702.473667,1378.971896,9622.677246
1005.641462,-2146.597232,1915.238745,9030.512492
1005.641791,-2072.576638,2451.505594,9400.615463
1005.642121,-1036.288319,3370.820191,10288.862594
1005.642451,-740.205942,4903.011187,11103.089130
1005.642780,-1702.473667,6281.983084,10807.006753
1005.643110,-2368.659014,6435.202183,10288.862594
1005.643439,-2886.803174,5669.106685,9474.636058
1005.643769,-2960.823768,5209.449386,8808.450710
1005.644099,-2146.597232,3217.601092,7105.977043
1005.644428,-1036.288319,1302.362347,5921.647536
1005.644758,-296.082377,0.000000,5551.544565
1005.645088,-296.082377,459.657299,6661.853478
1005.645417,-1480.411884,1302.362347,8142.265362
1005.645747,-2368.659014,3830.477490,9474.636058
1005.646076,-2886.803174,5286.058936,10510.924376
1005.646406,-2738.761985,5822.325785,11325.150913
1005.646736,-2146.597232,6205.373534,11325.150913
1005.647065,-1184.329507,5745.716235,10955.047942
1005.647395,-592.164754,4290.134789,10214.842000
1005.647725,-370.102971,3677.258390,9992.780217
1005.648054,-444.123565,3753.867940,9696.697840
1005.648384,-740.205942,3140.991542,9030.512492
1005.648713,0.000000,2528.115143,8068.244768
1005.649043,592.164754,2911.162892,8364.327145
1005.649373,1184.329507,3140.991542,9104.533087
1005.649702,666.185348,2681.334243,9770.718434
1005.650032,-740.205942,3677.258390,10732.986159
1005.650361,-2368.659014,5439.278036,11251.130318
1005.650691,-2294.638420,5362.668486,11399.171507
1005.651021,-1998.556043,5056.230287,11695.253884
1005.651350,-1258.350101,4366.744339,10955.047942
1005.651680,-666.185348,3983.696590,9918.759623
1005.652010,0.000000,4673.182538,9252.574275
1005.652339,370.102971,6511.811733,9474.636058
1005.652669,296.082377,6281.983084,9030.512492
1005.652998,370.102971,5286.058936,7550.100608
1005.653328,370.102971,4060.306139,6513.812290
1005.653658,148.041188,2604.724693,6291.750507
1005.653987,0.000000,1991.848295,7624.121203
1005.654317,-1702.473667,2451.505594,8438.347739
1005.654647,-3552.988522,2757.943793,9474.636058
1005.654976,-4441.235652,3217.601092,10214.842000
1005.655306,-3627.009116,3370.820191,11103.089130
1005.655635,-2294.638420,4443.353888,11251.130318
1005.655965,-1406.391290,5056.230287,10732.986159
1005.656295,-1036.288319,6894.859482,9548.656652
1005.656624,222.061783,7201.297681,9178.553681
1005.656954,888.247130,6281.983084,8956.491898
1005.657283,592.164754,6205.373534,8142.265362
1005.657613,-296.082377,5056.230287,7105.977043
1005.657943,-1110.308913,3447.429741,6587.832884
1005.658272,-1480.411884,1608.800546,6587.832884
1005.658602,-1776.494261,229.828649,6957.935855
1005.658932,-1776.494261,-306.438199,7624.121203
1005.659261,-2368.659014,-459.657299,9030.512492
1005.659591,-1850.514855,995.924147,10881.027347
1005.659920,-1850.514855,3217.601092,12361.439231
1005.660250,-1110.308913,5286.058936,13101.645173
1005.660580,-518.144159,5822.325785,12805.562797
1005.660909,222.061783,5592.497135,12879.583391
1005.661239,222.061783,5975.544884,11843.295072
1005.661569,0.000000,5592.497135,11029.068536
1005.661898,-370.102971,4290.134789,9622.677246
1005.662228,-888.247130,2604.724693,8512.368333
1005.662557,-1036.288319,1225.752797,8142.265362
1005.662887,-1850.514855,2145.067394,8068.244768
1005.663217,-2072.576638,1225.752797,8142.265362
1005.663546,-1332.370696,1378.971896,7772.162391
1005.663876,-592.164754,1762.019645,8290.306550
1005.664205,148.041188,2068.457845,9474.636058
1005.664535,370.102971,3600.648841,10510.924376
1005.664865,-814.226536,5209.449386,11473.192101
1005.665194,-1776.494261,6971.469032,11621.233289
1005.665524,-1776.494261,7354.516781,12065.356855
1005.665854,-1480.411884,6358.592633,11917.315666
1005.666183,-1480.411884,6052.154434,11177.109724
1005.666513,-2368.659014,5745.716235,8956.491898
1005.666842,-2220.617826,4903.011187,5773.606348
1005.667172,0.000000,3140.991542,4145.153275
1005.667502,2146.597232,2145.067394,3997.112087
1005.667831,3330.926739,1762.019645,5033.400406
1005.668161,2146.597232,2451.505594,5847.626942
1005.668491,-518.144159,4060.306139,7920.203579
1005.668820,-3256.906145,5515.887586,10214.842000
1005.669150,-4811.338623,5745.716235,12953.603985
1005.669479,-5033.400406,5209.449386,14656.077652
1005.669809,-5255.462188,5439.278036,14285.974681
1005.670139,-5699.585753,4290.134789,12435.459826
1005.670468,-4219.173869,3140.991542,10436.903782
1005.670798,-2072.576638,2068.457845,7920.203579
1005.671127,1332.370696,1532.190996,5699.585753
1005.671457,4737.318029,1532.190996,4737.318029
1005.671787,6069.688724,3370.820191,4737.318029
1005.672116,4959.379811,4213.525239,6069.688724
1005.672446,2146.597232,4673.182538,8586.388927
1005.672776,-1554.432478,6128.763984,11991.336260
1005.673105,-4737.318029,8350.440928,14211.954086
1005.673435,-5107.421000,6358.592633,15248.242405
1005.673764,-4737.318029,2451.505594,13249.686362
1005.674094,-2886.803174,-1455.581446,10214.842000
1005.674424,-1406.391290,-3064.381992,7105.977043
1005.674753,-592.164754,-2681.334243,5551.544565
1005.675083,222.061783,-1072.533697,6661.853478
1005.675413,74.020594,2068.457845,8808.450710
1005.675742,-370.102971,3447.429741,9326.594869
1005.676072,-962.267725,3677.258390,9104.533087
1005.676401,-1036.288319,2298.286494,9474.636058
1005.676731,-1036.288319,995.924147,9770.718434
1005.677061,-1258.350101,919.314598,11991.336260
1005.677390,-1850.514855,1072.533697,13471.748144
1005.677720,-2812.782580,842.705048,12805.562797
1005.678049,-2516.700203,1225.752797,11843.295072
1005.678379,-1480.411884,459.657299,10510.924376
1005.678709,-518.144159,383.047749,8808.450710
1005.679038,370.102971,306.438199,6661.853478
1005.679368,1258.350101,-766.095498,4885.359217
1005.679698,2664.741391,-2145.067394,4811.338623
1005.680027,2590.720797,-1762.019645,7105.977043
1005.680357,814.226536,-229.828649,9770.718434
1005.680686,-2072.576638,842.705048,11769.274478
1005.681016,-4441.235652,1685.410096,13545.768739
1005.681346,-4811.338623,2987.772442,15174.221811
1005.681675,-4663.297435,2757.943793,14730.098246
1005.682005,-4145.153275,1149.143247,11621.233289
1005.682335,-2220.617826,-383.047749,7476.080014
1005.682664,888.247130,-2298.286494,5625.565159
1005.682994,2886.803174,-1685.410096,6217.729913
1005.683323,2812.782580,1455.581446,7476.080014
1005.683653,1850.514855,3294.210641,8438.347739
1005.683983,296.082377,4290.134789,9992.780217
1005.684312,-1184.329507,4749.792088,10955.047942
1005.684642,-2368.659014,3983.696590,10732.986159
1005.684971,-1850.514855,1149.143247,10362.883188
1005.685301,-1184.329507,-995.924147,10362.883188
1005.685631,-1036.288319,-842.705048,10658.965565
1005.685960,-1628.453072,766.095498,10510.924376
1005.686290,-2220.617826,2068.457845,9548.656652
1005.686620,-1924.535449,2528.115143,8882.471304
1005.686949,-1702.473667,3524.039291,8660.409521
1005.687279,-1110.308913,4290.134789,7698.141797
1005.687608,-148.041188,3217.601092,5625.565159
1005.687938,296.082377,1455.581446,5255.462188
1005.688268,0.000000,842.705048,6513.812290
1005.688597,-1258.350101,1915.238745,9030.512492
1005.688927,-1998.556043,2757.943793,11029.068536
1005.689257,-3256.906145,3677.258390,11473.192101
1005.689586,-3478.967927,3677.258390,11547.212695
1005.689916,-2738.761985,1915.238745,10362.883188
1005.690245,-1258.350101,0.000000,8956.491898
1005.690575,518.144159,-1149.143247,7846.182985
1005.690905,1184.329507,-689.485948,7328.038826
1005.691234,1184.329507,842.705048,7994.224174
1005.691564,592.164754,2068.457845,8660.409521
1005.691893,518.144159,2145.067394,9992.780217
1005.692223,296.082377,2834.553343,11621.233289
1005.692553,-666.185348,3370.820191,12287.418637
1005.692882,-1850.514855,2451.505594,11399.171507
1005.693212,-2368.659014,612.876398,9622.677246
1005.693542,-1702.473667,-1762.019645,9326.594869
1005.693871,-962.267725,-2681.334243,10140.821405
1005.694201,-1332.370696,-1225.752797,10658.965565
1005.694530,-1850.514855,459.657299,10140.821405
1005.694860,-2368.659014,842.705048,9400.615463
1005.695190,-2146.597232,0.000000,9474.636058
1005.695519,-1184.329507,0.000000,9030.512492
1005.695849,-888.247130,-766.095498,7254.018232
1005.696179,444.123565,-2068.457845,7031.956449
1005.696508,1184.329507,-2145.067394,8438.347739
1005.696838,740.205942,-1149.143247,10362.883188
1005.697167,0.000000,0.000000,11843.295072
1005.697497,-1702.473667,1762.019645,12509.480420
1005.697827,-2146.597232,2451.505594,12583.501014
1005.698156,-1998.556043,2221.676944,12065.356855
1005.698486,-1554.432478,0.000000,9844.739029
1005.698815,-296.082377,-1378.971896,7994.224174
1005.699145,444.123565,-2528.115143,7476.080014
1005.699475,592.164754,-1838.629195,7328.038826
1005.699804,-370.102971,459.657299,8438.347739
1005.700134,-888.247130,612.876398,9326.594869
1005.700464,-1628.453072,1149.143247,10214.842000
1005.700793,-2146.597232,1915.238745,10362.883188
1005.701123,-2294.638420,1838.629195,9696.697840
1005.701452,-888.247130,0.000000,9252.574275
1005.701782,-518.144159,-919.314598,9400.615463
1005.702112,-518.144159,153.219100,10584.944971
1005.702441,-740.205942,1532.190996,11473.192101
1005.702771,-1628.453072,2757.943793,10510.924376
1005.703101,-1850.514855,4060.306139,10140.821405
1005.703430,-1110.308913,3294.210641,10140.821405
1005.703760,-1036.288319,3064.381992,10140.821405
1005.704089,-740.205942,3064.381992,8512.368333
1005.704419,-370.102971,1762.019645,7476.080014
1005.704749,0.000000,842.705048,7846.182985
1005.705078,-740.205942,2068.457845,8882.471304
1005.705408,-1924.535449,3140.991542,9178.553681
1005.705737,-2294.638420,2681.334243,8808.450710
1005.706067,-1850.514855,2987.772442,9252.574275
1005.706397,-1924.535449,2987.772442,9474.636058
1005.706726,-1110.308913,1149.143247,8068.244768
1005.707056,-518.144159,306.438199,7328.038826
1005.707386,0.000000,306.438199,7254.018232
1005.707715,370.102971,1378.971896,8068.244768
1005.708045,222.061783,2221.676944,8808.450710
1005.708374,0.000000,3600.648841,9252.574275
1005.708704,148.041188,3907.087040,11103.089130
1005.709034,-1036.288319,4366.744339,11177.109724
1005.709363,-2146.597232,3677.258390,9474.636058
1005.709693,-1998.556043,689.485948,8660.409521
1005.710023,-1480.411884,-766.095498,9178.553681
1005.710352,-888.247130,-842.705048,9918.759623
1005.710682,-1850.514855,-612.876398,9326.594869
1005.711011,-2220.617826,-1149.143247,8512.368333
1005.711341,-2368.659014,-842.705048,9326.594869
1005.711671,-1998.556043,612.876398,11399.171507
1005.712000,-1702.473667,919.314598,11547.212695
1005.712330,-1406.391290,-383.047749,9030.512492
1005.712659,0.000000,-2221.676944,7772.162391
1005.712989,888.247130,-3217.601092,8882.471304
1005.713319,1332.370696,-2145.067394,11547.212695
1005.713648,592.164754,383.047749,12361.439231
1005.713978,-518.144159,1149.143247,11843.295072
1005.714308,-1258.350101,1915.238745,12731.542202
1005.714637,-1184.329507,1762.019645,13101.645173
1005.714967,-1332.370696,0.000000,10955.047942
1005.715296,-592.164754,-1608.800546,8660.409521
1005.715626,370.102971,-3217.601092,7994.224174
1005.715956,222.061783,-2987.772442,8290.306550
1005.716285,-1184.329507,-1685.410096,8364.327145
1005.716615,-1998.556043,-1149.143247,8734.430116
1005.716945,-2368.659014,0.000000,9474.636058
1005.717274,-2294.638420,1838.629195,9770.718434
1005.717604,-1850.514855,1838.629195,9622.677246
1005.717933,-1332.370696,0.000000,7105.977043
1005.718263,-296.082377,-2374.896044,6661.853478
1005.718593,370.102971,-2221.676944,8364.327145
1005.718922,-296.082377,76.609550,9844.739029
1005.719252,-1628.453072,2528.115143,10584.944971
1005.719581,-2220.617826,3140.991542,10658.965565
1005.719911,-1776.494261,2911.162892,11103.089130
1005.720241,-1110.308913,2604.724693,10955.047942
1005.720570,-518.144159,2374.896044,8808.450710
1005.720900,74.020594,383.047749,7476.080014
1005.721230,148.041188,-383.047749,7698.141797
1005.721559,-296.082377,1302.362347,8882.471304
1005.721889,-962.267725,2298.286494,9474.636058
1005.722218,-1406.391290,2451.505594,9548.656652
1005.722548,-1628.453072,4366.744339,10362.883188
1005.722878,-2146.597232,4136.915689,9992.780217
1005.723207,-1628.453072,1915.238745,8290.306550
1005.723537,-592.164754,-689.485948,7254.018232
1005.723867,-296.082377,-995.924147,7550.100608
1005.724196,-592.164754,612.876398,9252.574275
1005.724526,-962.267725,1838.629195,10510.924376
1005.724855,-1258.350101,3140.991542,11251.130318
1005.725185,-1702.473667,3983.696590,11769.274478
1005.725515,-1628.453072,4443.353888,12065.356855
1005.725844,-1554.432478,4290.134789,11029.068536
1005.726174,-962.267725,3064.381992,8512.368333
1005.726503,-148.041188,306.438199,7254.018232
1005.726833,148.041188,-766.095498,7698.141797
1005.727163,-296.082377,153.219100,8808.450710
1005.727492,-1702.473667,1378.971896,8512.368333
1005.727822,-2294.638420,1378.971896,8808.450710
1005.728152,-2220.617826,1149.143247,9326.594869
1005.728481,-1924.535449,612.876398,9474.636058
1005.728811,-1702.473667,-383.047749,7920.203579
1005.729140,-962.267725,-1991.848295,7402.059420
1005.729470,74.020594,-2374.896044,8512.368333
1005.729800,0.000000,-995.924147,9992.780217
1005.730129,-888.247130,459.657299,10436.903782
1005.730459,-888.247130,1149.143247,10881.027347
1005.730789,-222.061783,1532.190996,11769.274478
1005.731118,0.000000,1838.629195,11843.295072
1005.731448,-518.144159,459.657299,10436.903782
1005.731777,-370.102971,-1302.362347,8512.368333
1005.732107,0.000000,-2528.115143,8290.306550
1005.732437,0.000000,-2681.334243,9844.739029
1005.732766,-592.164754,-1455.581446,10658.965565
1005.733096,-1850.514855,-306.438199,10510.924376
1005.733425,-2368.659014,0.000000,10510.924376
1005.733755,-2072.576638,0.000000,10732.986159
1005.734085,-1184.329507,0.000000,10066.800811
1005.734414,-518.144159,-1532.190996,8734.430116
1005.734744,-296.082377,-2298.286494,7846.182985
1005.735073,-814.226536,-1838.629195,9326.594869
1005.735403,-962.267725,-459.657299,11547.212695
1005.735733,-1702.473667,919.314598,11991.336260
1005.736062,-1998.556043,1302.362347,11843.295072
1005.736392,-2442.679609,2298.286494,12139.377449
1005.736721,-2146.597232,2834.553343,11991.336260
1005.737051,-1480.411884,1991.848295,9696.697840
1005.737380,-444.123565,536.266849,7994.224174
1005.737710,296.082377,-229.828649,7920.203579
1005.738040,370.102971,306.438199,7920.203579
1005.738369,-814.226536,2145.067394,8438.347739
1005.738699,-1110.308913,2834.553343,8142.265362
1005.739028,-1332.370696,3064.381992,7920.203579
1005.739358,-1480.411884,3064.381992,8438.347739
1005.739688,-888.247130,2451.505594,8364.327145
1005.740017,-666.185348,1378.971896,6957.935855
1005.740347,-296.082377,229.828649,7031.956449
1005.740676,-666.185348,459.657299,7994.224174
1005.741006,-1110.308913,1378.971896,9844.739029
1005.741336,-1554.432478,2987.772442,10436.903782
1005.741665,-1480.411884,4749.792088,10584.944971
1005.741995,-1998.556043,4290.134789,10807.006753
1005.742324,-1702.473667,3907.087040,10362.883188
1005.742654,-1036.288319,2834.553343,9030.512492
1005.742984,-666.185348,1532.190996,7846.182985
1005.743313,-296.082377,306.438199,8216.285956
1005.743643,74.020594,995.924147,8808.450710
1005.743972,-1258.350101,1915.238745,9400.615463
1005.744302,-2072.576638,1532.190996,9474.636058
1005.744632,-1480.411884,1225.752797,10214.842000
1005.744961,-1184.329507,995.924147,10584.944971
1005.745291,-1110.308913,766.095498,9326.594869
1005.745620,-1258.350101,-1532.190996,8216.285956
1005.745950,-666.185348,-2298.286494,8660.409521
1005.746279,-370.102971,-1149.143247,10214.842000
1005.746609,-222.061783,536.266849,11251.130318
1005.746939,370.102971,995.924147,11177.109724
1005.747268,296.082377,1378.971896,11399.171507
1005.747598,-444.123565,995.924147,11917.315666
1005.747927,-1332.370696,1378.971896,11547.212695
1005.748257,-1554.432478,536.266849,10214.842000
1005.748587,-1184.329507,-153.219100,9918.759623
1005.748916,-888.247130,-1532.190996,9992.780217
1005.749246,-1332.370696,-1608.800546,9992.780217
1005.749575,-2072.576638,-1685.410096,9252.574275
1005.749905,-1924.535449,-1149.143247,8808.450710
1005.750235,-1406.391290,-306.438199,9178.553681
1005.750564,-1332.370696,919.314598,9400.615463
1005.750894,-1036.288319,306.438199,7994.224174
1005.751223,-296.082377,-1455.581446,6883.915261
1005.751553,296.082377,-2145.067394,7328.038826
1005.751883,222.061783,-229.828649,9252.574275
1005.752212,0.000000,1455.581446,10658.965565
1005.752542,-666.185348,1608.800546,11177.109724
1005.752871,-1480.411884,2221.676944,11621.233289
1005.753201,-1776.494261,2757.943793,11843.295072
1005.753531,-1628.453072,2451.505594,10732.986159
1005.753860,-1332.370696,766.095498,9104.533087
1005.754190,-888.247130,689.485948,8364.327145
1005.754519,-444.123565,612.876398,8734.430116
1005.754849,-666.185348,1762.019645,8882.471304
1005.755179,-740.205942,2528.115143,8142.265362
1005.755508,-1036.288319,2681.334243,7624.121203
1005.755838,-888.247130,4443.353888,9178.553681
1005.756167,-1406.391290,3447.429741,8882.471304
1005.756497,-1554.432478,1685.410096,7476.080014
1005.756826,-814.226536,-153.219100,6957.935855
1005.757156,-296.082377,-995.924147,8216.285956
1005.757486,-666.185348,1378.971896,9844.739029
1005.757815,-1184.329507,2451.505594,10658.965565
1005.758145,-1332.370696,3370.820191,10807.006753
1005.758474,-1702.473667,4443.353888,11991.336260
1005.758804,-1702.473667,4673.182538,12805.562797
1005.759134,-1554.432478,4596.572988,11621.233289
1005.759463,-814.226536,2145.067394,9252.574275
1005.759793,-370.102971,612.876398,8290.306550
1005.760122,-370.102971,306.438199,8586.388927
1005.760452,-1184.329507,995.924147,9474.636058
1005.760782,-1702.473667,1991.848295,9326.594869
1005.761111,-2220.617826,1302.362347,9400.615463
1005.761441,-2072.576638,2145.067394,9696.697840
1005.761770,-1998.556043,1302.362347,9104.533087
1005.762100,-1628.453072,-689.485948,7328.038826
1005.762430,-1110.308913,-1838.629195,6957.935855
1005.762759,-666.185348,-1378.971896,8660.409521
1005.763089,0.000000,459.657299,10140.821405
1005.763418,-370.102971,1685.410096,10288.862594
1005.763748,-148.041188,1532.190996,10214.842000
1005.764078,-370.102971,919.314598,10955.047942
1005.764407,-148.041188,1608.800546,11621.233289
1005.764737,-1184.329507,2068.457845,10214.842000
1005.765066,-1258.350101,76.609550,9178.553681
1005.765396,-888.247130,-1608.800546,9252.574275
1005.765725,-296.082377,-1532.190996,10436.903782
1005.766055,-1184.329507,-306.438199,10214.842000
1005.766385,-1850.514855,306.438199,9400.615463
1005.766714,-1924.535449,0.000000,9104.533087
1005.767044,-1406.391290,153.219100,9844.739029
1005.767373,-962.267725,0.000000,9030.512492
1005.767703,-666.185348,-1532.190996,7402.059420
1005.768033,0.000000,-2528.115143,7402.059420
1005.768362,74.020594,-2374.896044,9104.533087
1005.768692,-222.061783,919.314598,11547.212695
1005.769021,-1036.288319,2374.896044,11621.233289
1005.769351,-1258.350101,1991.848295,11843.295072
1005.769681,-740.205942,1991.848295,12361.439231
1005.770010,-1480.411884,2834.553343,11843.295072
1005.770340,-1406.391290,1915.238745,10510.924376
1005.770669,-814.226536,383.047749,8808.450710
1005.770999,-222.061783,0.000000,8808.450710
1005.771329,-444.123565,1685.410096,9400.615463
1005.771658,-1776.494261,2374.896044,9474.636058
1005.771988,-1776.494261,3447.429741,9104.533087
1005.772317,-1702.473667,3830.477490,9474.636058
1005.772647,-1776.494261,3524.039291,8586.388927
1005.772977,-1850.514855,2298.286494,6809.894666
1005.773306,-814.226536,0.000000,6291.750507
1005.773636,0.000000,-306.438199,7402.059420
1005.773965,-592.164754,1762.019645,9178.553681
1005.774295,-1480.411884,3064.381992,9770.718434
1005.774625,-1850.514855,3907.087040,9844.739029
1005.774954,-1850.514855,4290.134789,10584.944971
1005.775284,-1332.370696,4826.401637,11103.089130
1005.775613,-962.267725,4136.915689,9770.718434
1005.775943,-740.205942,2374.896044,7772.162391
1005.776272,-370.102971,1608.800546,7254.018232
1005.776602,-370.102971,1225.752797,8512.368333
1005.776932,-1332.370696,1762.019645,9104.533087
1005.777261,-1998.556043,2757.943793,9252.574275
1005.777591,-2368.659014,2604.724693,9178.553681
1005.777920,-1850.514855,1685.410096,9548.656652
1005.778250,-1850.514855,536.266849,8882.471304
1005.778580,-1184.329507,-842.705048,7772.162391
1005.778909,-1036.288319,-1149.143247,8438.347739
1005.779239,-740.205942,-842.705048,9252.574275
1005.779568,-370.102971,306.438199,10214.842000
1005.779898,-148.041188,383.047749,10436.903782
1005.780228,0.000000,1225.752797,10584.944971
1005.780557,0.000000,2298.286494,11991.336260
1005.780887,0.000000,1991.848295,12139.377449
1005.781216,-666.185348,1225.752797,10510.924376
1005.781546,-962.267725,-612.876398,9178.553681
1005.781876,74.020594,-2221.676944,9696.697840
1005.782205,-444.123565,-1685.410096,10732.986159
1005.782535,-1776.494261,-919.314598,10658.965565
1005.782864,-2368.659014,-306.438199,10066.800811
1005.783194,-2220.617826,-612.876398,10140.821405
1005.783524,-1998.556043,0.000000,10807.006753
1005.783853,-1480.411884,76.609550,9474.636058
1005.784183,-962.267725,-1302.362347,7698.141797
1005.784512,-592.164754,-2681.334243,7105.977043
1005.784842,-370.102971,-2528.115143,8808.450710
1005.785172,-740.205942,-459.657299,10510.924376
1005.785501,-1406.391290,995.924147,10955.047942
1005.785831,-1850.514855,1608.800546,10584.944971
1005.786160,-1332.370696,2221.676944,11399.171507
1005.786490,-962.267725,1378.971896,11029.068536
1005.786819,-740.205942,766.095498,9696.697840
1005.787149,-148.041188,76.609550,8364.327145
1005.787479,0.000000,153.219100,8512.368333
1005.787808,-370.102971,919.314598,9326.594869
1005.788138,-592.164754,1991.848295,9548.656652
1005.788467,-1184.329507,2145.067394,9474.636058
1005.788797,-1702.473667,2911.162892,9326.594869
1005.789127,-1258.350101,2757.943793,9918.759623
1005.789456,-1036.288319,1991.848295,8364.327145
1005.789786,-1184.329507,153.219100,7402.059420
1005.790115,-666.185348,-612.876398,7476.080014
1005.790445,-962.267725,536.266849,8882.471304
1005.790775,-1110.308913,2681.334243,9844.739029
1005.791104,-2368.659014,4060.306139,9770.718434
1005.791434,-2146.597232,4213.525239,10955.047942
1005.791763,-1628.453072,4366.744339,11473.192101
1005.792093,-1184.329507,4290.134789,9770.718434
1005.792423,0.000000,2681.334243,7846.182985
1005.792752,666.185348,306.438199,7105.977043
1005.793082,444.123565,229.828649,8068.244768
1005.793411,-518.144159,2451.505594,9400.615463
1005.793741,-1554.432478,2834.553343,9474.636058
1005.794071,-1480.411884,2757.943793,9770.718434
1005.794400,-1776.494261,3064.381992,10510.924376
1005.794730,-1332.370696,2528.115143,9992.780217
1005.795059,-814.226536,766.095498,8438.347739
1005.795389,0.000000,-459.657299,7254.018232
1005.795718,0.000000,-689.485948,7994.224174
1005.796048,-888.247130,76.609550,9400.615463
1005.796378,-1924.535449,1225.752797,10732.986159
1005.796707,-2442.679609,1838.629195,11103.089130
1005.797037,-2368.659014,2834.553343,11103.089130
1005.797366,-2146.597232,1991.848295,10955.047942
1005.797696,-1628.453072,0.000000,9400.615463
1005.798026,-740.205942,-766.095498,8142.265362
1005.798355,-222.061783,-2528.115143,8586.388927
1005.798685,-148.041188,-1608.800546,9770.718434
1005.799014,-1258.350101,229.828649,10658.965565
1005.799344,-2146.597232,1072.533697,10584.944971
1005.799674,-1332.370696,1072.533697,10732.986159
1005.800003,-1184.329507,0.000000,10510.924376
1005.800333,-444.123565,-153.219100,10066.800811
1005.800662,-296.082377,-842.705048,8438.347739
1005.800992,0.000000,-2528.115143,7328.038826
1005.801322,222.061783,-3370.820191,8216.285956
1005.801651,-666.185348,-2681.334243,9622.677246
1005.801981,-962.267725,76.609550,11325.150913
1005.802310,-1332.370696,2145.067394,12139.377449
1005.802640,-1850.514855,2451.505594,11769.274478
1005.802970,-1406.391290,995.924147,10955.047942
1005.803299,-666.185348,-536.266849,9548.656652
1005.803629,-296.082377,-842.705048,8808.450710
1005.803958,-370.102971,-1149.143247,8882.471304
1005.804288,-962.267725,0.000000,9548.656652
1005.804618,-1702.473667,612.876398,9918.759623
1005.804947,-1998.556043,1455.581446,10066.800811
1005.805277,-1998.556043,1915.238745,10288.862594
1005.805606,-1554.432478,2451.505594,10510.924376
1005.805936,-1406.391290,1838.629195,8586.388927
1005.806265,-962.267725,766.095498,6957.935855
1005.806595,0.000000,-919.314598,6957.935855
1005.806925,296.082377,76.609550,8882.471304
1005.807254,-1036.288319,2451.505594,9992.780217
1005.807584,-2072.576638,3753.867940,10066.800811
1005.807913,-1998.556043,4136.915689,10510.924376
1005.808243,-1554.432478,4136.915689,10066.800811
1005.808573,-740.205942,2987.772442,9178.553681
1005.808902,-148.041188,1991.848295,7402.059420
1005.809232,444.123565,919.314598,6661.853478
1005.809561,740.205942,1072.533697,7476.080014
1005.809891,-222.061783,2374.896044,9178.553681
1005.810221,-1110.308913,3524.039291,9622.677246
1005.810550,-1924.535449,3524.039291,9770.718434
1005.810880,-2072.576638,3217.601092,9844.739029
1005.811209,-1702.473667,2068.457845,9770.718434
1005.811539,-1702.473667,612.876398,8438.347739
1005.811869,-814.226536,-1149.143247,7254.018232
1005.812198,-666.185348,-1455.581446,8364.327145
1005.812528,-1110.308913,-153.219100,10584.944971
1005.812857,-1554.432478,1302.362347,11251.130318
1005.813187,-2072.576638,2068.457845,11251.130318
1005.813517,-1702.473667,1685.410096,11473.192101
1005.813846,-1628.453072,2145.067394,11769.274478
1005.814176,-962.267725,1532.190996,10732.986159
1005.814505,-222.061783,-383.047749,8808.450710
1005.814835,0.000000,-1838.629195,8586.388927
1005.815164,148.041188,-1685.410096,9622.677246
1005.815494,-296.082377,-229.828649,10436.903782
1005.815824,-888.247130,0.000000,9992.780217
1005.816153,-1480.411884,0.000000,9474.636058
1005.816483,-1036.288319,0.000000,10362.883188
1005.816812,-666.185348,-536.266849,9770.718434
1005.817142,-666.185348,-1072.533697,7772.162391
1005.817472,0.000000,-2757.943793,7105.977043
1005.817801,0.000000,-3370.820191,8438.347739
1005.818131,-888.247130,-1685.410096,10362.883188
1005.818460,-1924.535449,383.047749,11325.150913
1005.818790,-2368.659014,1149.143247,10658.965565
1005.819120,-2072.576638,689.485948,11177.109724
1005.819449,-1480.411884,766.095498,11621.233289
1005.819779,-1332.370696,229.828649,10288.862594
1005.820108,-1258.350101,-995.924147,8364.327145
1005.820438,-740.205942,-1685.410096,8068.244768
1005.820768,-222.061783,-689.485948,9474.636058
1005.821097,-962.267725,689.485948,10658.965565
1005.821427,-1702.473667,1685.410096,10214.842000
1005.821756,-1776.494261,1532.190996,9696.697840
1005.822086,-1110.308913,1532.190996,9770.718434
1005.822416,-222.061783,842.705048,9474.636058
1005.822745,0.000000,0.000000,7994.224174
1005.823075,148.041188,-1225.752797,7920.203579
1005.823404,0.000000,0.000000,9178.553681
1005.823734,-888.247130,2145.067394,10584.944971
1005.824064,-1036.288319,3064.381992,10732.986159
1005.824393,-1776.494261,3294.210641,10732.986159
1005.824723,-1184.329507,3447.429741,11177.109724
1005.825052,-1332.370696,4443.353888,11103.089130
1005.825382,-1258.350101,3983.696590,9548.656652
1005.825711,-888.247130,1915.238745,7624.121203
1005.826041,-666.185348,842.705048,7179.997637
1005.826371,-888.247130,1378.971896,8660.409521
1005.826700,-1258.350101,2987.772442,8956.491898
1005.827030,-1924.535449,2834.553343,7994.224174
1005.827359,-1702.473667,2374.896044,8290.306550
1005.827689,-1258.350101,2757.943793,9326.594869
1005.828019,-1332.370696,2374.896044,8586.388927
1005.828348,-888.247130,1072.533697,7179.997637
1005.828678,0.000000,0.000000,7254.018232
1005.829007,0.000000,383.047749,8438.347739
1005.829337,-370.102971,2221.676944,9918.759623
1005.829667,-740.205942,2451.505594,10436.903782
1005.829996,-1110.308913,2757.943793,11103.089130
1005.830326,-1628.453072,3524.039291,10955.047942
1005.830655,-1850.514855,2604.724693,10510.924376
1005.830985,-1480.411884,536.266849,9030.512492
1005.831315,-370.102971,-1302.362347,8290.306550
1005.831644,-518.144159,-1532.190996,8586.388927
1005.831974,-962.267725,-689.485948,9104.533087
1005.832303,-1776.494261,-306.438199,9474.636058
1005.832633,-1776.494261,383.047749,10214.842000
1005.832963,-814.226536,766.095498,9992.780217
1005.833292,-592.164754,153.219100,10510.924376
1005.833622,-814.226536,-1149.143247,9104.533087
1005.833951,-444.123565,-1991.848295,8586.388927
1005.834281,0.000000,-2834.553343,9104.533087
1005.834611,0.000000,-2374.896044,10140.821405
1005.834940,-444.123565,-383.047749,11991.336260
1005.835270,-1258.350101,919.314598,11917.315666
1005.835599,-1998.556043,1225.752797,12509.480420
1005.835929,-1924.535449,1149.143247,12509.480420
1005.836258,-1776.494261,842.705048,11399.171507
1005.836588,-1184.329507,0.000000,9696.697840
1005.836918,-888.247130,-1378.971896,8586.388927
1005.837247,-148.041188,-2298.286494,8586.388927
1005.837577,-666.185348,-1915.238745,9474.636058
1005.837906,-1480.411884,229.828649,9622.677246
1005.838236,-2072.576638,2068.457845,9844.739029
1005.838566,-1184.329507,1685.410096,9622.677246
1005.838895,-888.247130,1149.143247,9474.636058
1005.839225,-222.061783,689.485948,7846.182985
1005.839554,444.123565,-306.438199,7402.059420
1005.839884,518.144159,-766.095498,8216.285956
1005.840214,444.123565,1072.533697,9474.636058
1005.840543,-962.267725,1991.848295,10288.862594
1005.840873,-1628.453072,2987.772442,10732.986159
1005.841202,-1702.473667,3983.696590,11103.089130
1005.841532,-2072.576638,4136.915689,10584.944971
1005.841862,-1258.350101,3294.210641,8956.491898
1005.842191,-1406.391290,1608.800546,7254.018232
1005.842521,-666.185348,766.095498,7550.100608
1005.842850,-740.205942,1378.971896,8364.327145
1005.843180,-1480.411884,2604.724693,8364.327145
1005.843510,-1628.453072,3294.210641,8216.285956
1005.843839,-1406.391290,2911.162892,9104.533087
1005.844169,-1554.432478,3370.820191,9770.718434
1005.844498,-1332.370696,2834.553343,9400.615463
1005.844828,-370.102971,1149.143247,8068.244768
1005.845158,296.082377,-766.095498,7624.121203
1005.845487,74.020594,612.876398,9030.512492
1005.845817,-370.102971,1608.800546,11177.109724
1005.846146,-962.267725,2604.724693,11547.212695
1005.846476,-1554.432478,3983.696590,11695.253884
1005.846806,-1110.308913,3753.867940,11769.274478
1005.847135,-518.144159,2834.553343,11251.130318
1005.847465,-740.205942,919.314598,9178.553681
1005.847794,-518.144159,0.000000,7846.182985
1005.848124,-148.041188,-842.705048,8290.306550
1005.848454,-962.267725,76.609550,9178.553681
1005.848783,-1776.494261,1149.143247,9622.677246
1005.849113,-2220.617826,766.095498,9178.553681
1005.849442,-2072.576638,0.000000,9622.677246
1005.849772,-1480.411884,306.438199,9844.739029
1005.850101,-962.267725,-383.047749,9252.574275
1005.850431,-666.185348,-1378.971896,7846.182985
1005.850761,222.061783,-2221.676944,7994.224174
1005.851090,222.061783,-1685.410096,9696.697840
1005.851420,-296.082377,76.609550,11103.089130
1005.851749,-1184.329507,1608.800546,11325.150913
1005.852079,-888.247130,1915.238745,11251.130318
1005.852409,-962.267725,1685.410096,11251.130318
1005.852738,-888.247130,919.314598,11029.068536
1005.853068,-962.267725,153.219100,9400.615463
1005.853397,-962.267725,-766.095498,8734.430116
1005.853727,-1406.391290,-1991.848295,8734.430116
1005.854057,-1702.473667,-1072.533697,9030.512492
1005.854386,-1850.514855,0.000000,9844.739029
1005.854716,-1998.556043,76.609550,9992.780217
1005.855045,-1776.494261,1225.752797,10140.821405
1005.855375,-1332.370696,1685.410096,9622.677246
1005.855705,-888.247130,536.266849,8586.388927
1005.856034,444.123565,-536.266849,8438.347739
1005.856364,814.226536,-306.438199,9178.553681
1005.856693,296.082377,919.314598,10362.883188
1005.857023,-518.144159,2374.896044,11251.130318
1005.857353,-888.247130,3447.429741,11695.253884
1005.857682,-740.205942,3753.867940,11843.295072
1005.858012,-740.205942,3983.696590,11251.130318
1005.858341,-666.185348,2681.334243,9548.656652
1005.858671,-444.123565,1685.410096,8216.285956
1005.859001,-518.144159,1149.143247,7476.080014
1005.859330,-1332.370696,1608.800546,7402.059420
1005.859660,-1628.453072,2221.676944,7994.224174
1005.859989,-2368.659014,2451.505594,7846.182985
1005.860319,-2442.679609,2681.334243,8142.265362
1005.860649,-2220.617826,2145.067394,9030.512492
1005.860978,-1998.556043,2145.067394,8808.450710
1005.861308,-1406.391290,1685.410096,7254.018232
1005.861637,-814.226536,995.924147,7179.997637
1005.861967,148.041188,383.047749,8808.450710
1005.862296,296.082377,1991.848295,10881.027347
1005.862626,-740.205942,3677.258390,10955.047942
1005.862956,-1702.473667,4519.963438,10732.986159
1005.863285,-1258.350101,3677.258390,11029.068536
1005.863615,-222.061783,3064.381992,11843.295072
1005.863944,-370.102971,2911.162892,10288.862594
1005.864274,-592.164754,1149.143247,8364.327145
1005.864604,-222.061783,-536.266849,7402.059420
1005.864933,-370.102971,-766.095498,8290.306550
1005.865263,-1480.411884,536.266849,9696.697840
1005.865592,-1924.535449,995.924147,9844.739029
1005.865922,-1850.514855,995.924147,9992.780217
1005.866252,-1406.391290,1378.971896,10066.800811
1005.866581,-1406.391290,689.485948,9252.574275
1005.866911,-888.247130,-1149.143247,8142.265362
1005.867240,0.000000,-2528.115143,7994.224174
1005.867570,-222.061783,-2298.286494,9104.533087
1005.867900,-814.226536,-689.485948,10807.006753
1005.868229,-1258.350101,842.705048,11473.192101
1005.868559,-1480.411884,919.314598,11695.253884
1005.868888,-1480.411884,1378.971896,11843.295072
1005.869218,-1184.329507,1915.238745,11695.253884
1005.869548,-814.226536,689.485948,10140.821405
1005.869877,0.000000,-766.095498,8660.409521
1005.870207,0.000000,-1915.238745,8586.388927
1005.870536,-296.082377,-1762.019645,9400.615463
1005.870866,-740.205942,-383.047749,9992.780217
1005.871196,-1480.411884,612.876398,9918.759623
1005.871525,-2072.576638,1378.971896,9770.718434
1005.871855,-1480.411884,842.705048,9548.656652
1005.872184,-962.267725,-536.266849,8142.265362
1005.872514,74.020594,-2068.457845,7772.162391
1005.872844,0.000000,-1838.629195,8512.368333
1005.873173,-740.205942,-306.438199,9326.594869
1005.873503,-1480.411884,1608.800546,10732.986159
