#time,accel_x,accel_y,accel_z
895.247571,-1258.350101,1455.581446,9252.574275
895.247900,-1184.329507,1149.143247,9252.574275
895.248230,-888.247130,1072.533697,9474.636058
895.248560,-1036.288319,842.705048,9622.677246
895.248889,-962.267725,919.314598,9474.636058
895.249219,-962.267725,766.095498,9474.636058
895.249549,-888.247130,1149.143247,9770.718434
895.249879,-1110.308913,689.485948,9622.677246
895.250208,-1110.308913,919.314598,9474.636058
895.250538,-1036.288319,842.705048,9844.739029
895.250868,-1036.288319,766.095498,9548.656652
895.251197,-1036.288319,612.876398,9326.594869
895.251527,-1480.411884,612.876398,9104.533087
895.251857,-962.267725,919.314598,9474.636058
895.252186,-1110.308913,1225.752797,9474.636058
895.252516,-1110.308913,842.705048,9474.636058
895.252846,-370.102971,1149.143247,9622.677246
895.253176,-962.267725,842.705048,9622.677246
895.253505,-962.267725,1225.752797,9622.677246
895.253835,-1110.308913,919.314598,9548.656652
895.254165,-1036.288319,689.485948,9474.636058
895.254494,-1110.308913,1072.533697,9326.594869
895.254824,-962.267725,536.266849,9252.574275
895.255154,-1110.308913,919.314598,9400.615463
895.255484,-1036.288319,995.924147,9622.677246
895.255813,-814.226536,1072.533697,9770.718434
895.256143,-1110.308913,995.924147,9474.636058
895.256473,-1110.308913,766.095498,9474.636058
895.256802,-1110.308913,919.314598,9474.636058
895.257132,-1110.308913,995.924147,9474.636058
895.257462,-1184.329507,842.705048,9178.553681
895.257792,-888.247130,919.314598,9474.636058
895.258121,-814.226536,1149.143247,9548.656652
895.258451,-740.205942,1532.190996,9326.594869
895.258781,-1036.288319,1149.143247,9474.636058
895.259110,-1036.288319,995.924147,9474.636058
895.259440,-1184.329507,919.314598,9400.615463
895.259770,-1258.350101,1378.971896,9326.594869
895.260100,-1110.308913,1072.533697,9622.677246
895.260429,-1036.288319,919.314598,9474.636058
895.260759,-1258.350101,995.924147,9326.594869
895.261089,-1184.329507,919.314598,9548.656652
895.261418,-962.267725,842.705048,9474.636058
895.261748,-962.267725,1072.533697,9474.636058
895.262078,-1184.329507,842.705048,9474.636058
895.262408,-1036.288319,1072.533697,9622.677246
895.262737,-814.226536,689.485948,9992.780217
895.263067,-1036.288319,919.314598,9770.718434
895.263397,-1036.288319,919.314598,9548.656652
895.263726,-962.267725,919.314598,9770.718434
895.264056,-888.247130,842.705048,9474.636058
895.264386,-1110.308913,995.924147,9696.697840
895.264715,-888.247130,689.485948,9548.656652
895.265045,-1258.350101,689.485948,9178.553681
895.265375,-962.267725,1072.533697,9474.636058
895.265705,-888.247130,1072.533697,9622.677246
895.266034,-962.267725,766.095498,9474.636058
895.266364,-1110.308913,919.314598,9474.636058
895.266694,-962.267725,995.924147,9548.656652
895.267023,-740.205942,536.266849,9252.574275
895.267353,-888.247130,919.314598,9696.697840
895.267683,-1110.308913,842.705048,9400.615463
895.268013,-1110.308913,919.314598,9474.636058
895.268342,-1036.288319,612.876398,9474.636058
895.268672,-814.226536,1455.581446,9400.615463
895.269002,-1036.288319,536.266849,9622.677246
895.269331,-962.267725,919.314598,9548.656652
895.269661,-1036.288319,842.705048,9548.656652
895.269991,-1036.288319,842.705048,9400.615463
895.270321,-1110.308913,1225.752797,9400.615463
895.270650,-1110.308913,1378.971896,9474.636058
895.270980,-962.267725,995.924147,9400.615463
895.271310,-1110.308913,995.924147,9474.636058
895.271639,-1036.288319,842.705048,9474.636058
895.271969,-962.267725,919.314598,9548.656652
895.272299,-1110.308913,766.095498,9622.677246
895.272629,-740.205942,919.314598,9622.677246
895.272958,-888.247130,919.314598,9548.656652
895.273288,-1110.308913,766.095498,9622.677246
895.273618,-1258.350101,689.485948,9548.656652
895.273947,-962.267725,995.924147,9548.656652
895.274277,-814.226536,995.924147,9918.759623
895.274607,-1184.329507,612.876398,9696.697840
895.274936,-888.247130,766.095498,9474.636058
895.275266,-1036.288319,995.924147,9548.656652
895.275596,-962.267725,1455.581446,9400.615463
895.275926,-1332.370696,919.314598,9474.636058
895.276255,-888.247130,995.924147,9474.636058
895.276585,-814.226536,995.924147,9696.697840
895.276915,-888.247130,689.485948,9474.636058
895.277244,-814.226536,766.095498,9474.636058
895.277574,-888.247130,919.314598,9400.615463
895.277904,-814.226536,766.095498,9474.636058
895.278234,-296.082377,689.485948,9104.533087
895.278563,518.144159,459.657299,9178.553681
895.278893,888.247130,612.876398,9030.512492
895.279223,888.247130,536.266849,8586.388927
895.279552,740.205942,766.095498,9400.615463
895.279882,0.000000,919.314598,9992.780217
895.280212,-444.123565,1149.143247,10584.944971
895.280542,-1036.288319,842.705048,10658.965565
895.280871,-740.205942,459.657299,10214.842000
895.281201,0.000000,-76.609550,9252.574275
895.281531,1036.288319,0.000000,9400.615463
895.281860,1924.535449,0.000000,9178.553681
895.282190,2516.700203,306.438199,8586.388927
895.282520,3404.947333,1072.533697,8956.491898
895.282850,3775.050304,1838.629195,9252.574275
895.283179,3775.050304,2145.067394,9548.656652
895.283509,3330.926739,1838.629195,9918.759623
895.283839,2812.782580,1225.752797,10214.842000
895.284168,1998.556043,842.705048,10436.903782
895.284498,1480.411884,383.047749,10510.924376
895.284828,1184.329507,-536.266849,10510.924376
895.285158,1554.432478,-229.828649,10288.862594
895.285487,2220.617826,-383.047749,9548.656652
895.285817,2886.803174,-306.438199,9252.574275
895.286147,3923.091493,612.876398,9326.594869
895.286476,4293.194464,1762.019645,8956.491898
895.286806,4071.132681,2298.286494,9474.636058
895.287136,3330.926739,2757.943793,10140.821405
895.287465,1850.514855,3140.991542,10658.965565
895.287795,74.020594,3217.601092,10436.903782
895.288125,-1776.494261,2145.067394,9252.574275
895.288455,-1480.411884,766.095498,8586.388927
895.288784,-518.144159,-689.485948,7698.141797
895.289114,1184.329507,-1455.581446,7105.977043
895.289444,2368.659014,-1072.533697,6439.791695
895.289773,3404.947333,0.000000,6809.894666
895.290103,4071.132681,1072.533697,8142.265362
895.290433,3108.864956,3370.820191,9474.636058
895.290763,2294.638420,4213.525239,11473.192101
895.291092,1110.308913,4136.915689,12435.459826
895.291422,148.041188,2834.553343,12657.521608
895.291752,-888.247130,1685.410096,11843.295072
895.292081,-1258.350101,-1072.533697,11177.109724
895.292411,-1110.308913,-2221.676944,10362.883188
895.292741,-296.082377,-2604.724693,9104.533087
895.293071,888.247130,-2374.896044,8364.327145
895.293400,2220.617826,-1149.143247,7698.141797
895.293730,3701.029710,-153.219100,7550.100608
895.294060,4145.153275,1302.362347,7698.141797
895.294389,3997.112087,2451.505594,8364.327145
895.294719,3775.050304,3677.258390,9400.615463
895.295049,3330.926739,3524.039291,9918.759623
895.295379,2442.679609,2987.772442,10881.027347
895.295708,1184.329507,2145.067394,11547.212695
895.296038,518.144159,306.438199,11843.295072
895.296368,-740.205942,-995.924147,11103.089130
895.296697,-1850.514855,-1608.800546,10807.006753
895.297027,-2146.597232,-1225.752797,10732.986159
895.297357,-1924.535449,-1225.752797,10584.944971
895.297686,-1480.411884,-306.438199,9622.677246
895.298016,-370.102971,689.485948,8586.388927
895.298346,1184.329507,383.047749,7476.080014
895.298676,2886.803174,76.609550,6883.915261
895.299005,4145.153275,689.485948,7402.059420
895.299335,4441.235652,919.314598,7698.141797
895.299665,3775.050304,1532.190996,8660.409521
895.299994,2368.659014,1762.019645,9696.697840
895.300324,962.267725,1685.410096,10658.965565
895.300654,-222.061783,2221.676944,11991.336260
895.300984,-1554.432478,2068.457845,12435.459826
895.301313,-1776.494261,1378.971896,11473.192101
895.301643,-1702.473667,689.485948,10288.862594
895.301973,-1036.288319,0.000000,9104.533087
895.302302,0.000000,-459.657299,8290.306550
895.302632,-222.061783,-76.609550,7105.977043
895.302962,148.041188,153.219100,7179.997637
895.303292,740.205942,919.314598,7772.162391
895.303621,888.247130,1378.971896,8660.409521
895.303951,74.020594,1838.629195,9030.512492
895.304281,-592.164754,1915.238745,9548.656652
895.304610,-1036.288319,2145.067394,10140.821405
895.304940,-1554.432478,2068.457845,11029.068536
895.305270,-2146.597232,1532.190996,11769.274478
895.305600,-2960.823768,1225.752797,10658.965565
895.305929,-3552.988522,306.438199,10732.986159
895.306259,-3478.967927,153.219100,10214.842000
895.306589,-3108.864956,0.000000,9844.739029
895.306918,-2294.638420,-153.219100,9252.574275
895.307248,-1184.329507,0.000000,9474.636058
895.307578,0.000000,1532.190996,8956.491898
895.307908,1258.350101,1991.848295,8512.368333
895.308237,2368.659014,2145.067394,8068.244768
895.308567,3108.864956,2298.286494,8142.265362
895.308897,3182.885551,2604.724693,8586.388927
895.309226,2368.659014,2528.115143,9548.656652
895.309556,1406.391290,2834.553343,10510.924376
895.309886,-370.102971,2221.676944,10510.924376
895.310215,-2072.576638,1378.971896,10066.800811
895.310545,-2812.782580,229.828649,10362.883188
895.310875,-2812.782580,-306.438199,10288.862594
895.311205,-3849.070898,-1532.190996,10362.883188
895.311534,-4885.359217,-689.485948,9918.759623
895.311864,-5033.400406,306.438199,8882.471304
895.312194,-3849.070898,-153.219100,8142.265362
895.312523,-2220.617826,306.438199,7550.100608
895.312853,-592.164754,536.266849,7476.080014
895.313183,296.082377,1608.800546,7179.997637
895.313513,666.185348,2528.115143,6957.935855
895.313842,1332.370696,2374.896044,7328.038826
895.314172,1554.432478,1838.629195,9400.615463
895.314502,370.102971,1915.238745,10955.047942
895.314831,-1480.411884,2298.286494,12213.398043
895.315161,-2812.782580,1838.629195,12805.562797
895.315491,-3330.926739,1072.533697,12805.562797
895.315821,-3108.864956,0.000000,11621.233289
895.316150,-2146.597232,-1762.019645,9992.780217
895.316480,-740.205942,-2604.724693,9400.615463
895.316810,-518.144159,-1608.800546,9400.615463
895.317139,-740.205942,-153.219100,9474.636058
895.317469,-814.226536,919.314598,9326.594869
895.317799,0.000000,1302.362347,9030.512492
895.318129,666.185348,2068.457845,8734.430116
895.318458,1702.473667,1762.019645,8660.409521
895.318788,2072.576638,1455.581446,8512.368333
895.319118,1998.556043,1991.848295,8586.388927
895.319447,1036.288319,1991.848295,9252.574275
895.319777,518.144159,1685.410096,9844.739029
895.320107,-592.164754,1302.362347,10436.903782
895.320436,-1776.494261,1149.143247,10658.965565
895.320766,-2294.638420,1072.533697,10658.965565
895.321096,-2738.761985,1302.362347,10584.944971
895.321426,-2368.659014,689.485948,9770.718434
895.321755,-2516.700203,229.828649,9104.533087
895.322085,-2886.803174,-612.876398,8734.430116
895.322415,-2812.782580,-306.438199,8512.368333
895.322744,-2368.659014,0.000000,8290.306550
895.323074,-1332.370696,-766.095498,7772.162391
895.323404,-296.082377,0.000000,7402.059420
895.323734,444.123565,229.828649,7846.182985
895.324063,1110.308913,229.828649,8290.306550
895.324393,1628.453072,1378.971896,9030.512492
895.324723,1628.453072,3447.429741,9696.697840
895.325052,888.247130,2911.162892,10436.903782
895.325382,296.082377,2987.772442,11473.192101
895.325712,-1036.288319,2681.334243,11621.233289
895.326041,-2368.659014,1685.410096,11621.233289
895.326371,-2960.823768,229.828649,11177.109724
895.326701,-3404.947333,-229.828649,10881.027347
895.327030,-3849.070898,-1072.533697,9844.739029
895.327360,-3849.070898,-1915.238745,9030.512492
895.327690,-3182.885551,-2068.457845,8068.244768
895.328019,-2590.720797,-995.924147,7920.203579
895.328349,-1406.391290,0.000000,8068.244768
895.328679,-370.102971,536.266849,8438.347739
895.329008,74.020594,1378.971896,9326.594869
895.329338,592.164754,1838.629195,9770.718434
895.329667,1110.308913,2145.067394,10066.800811
895.329997,1110.308913,2834.553343,10732.986159
895.330327,1406.391290,1455.581446,10807.006753
895.330656,370.102971,1455.581446,11251.130318
895.330986,-444.123565,1072.533697,11177.109724
895.331316,-1184.329507,919.314598,10732.986159
895.331645,-1702.473667,1225.752797,10362.883188
895.331975,-1554.432478,919.314598,9992.780217
895.332305,-1998.556043,76.609550,9178.553681
895.332634,-1850.514855,-153.219100,8882.471304
895.332964,-2220.617826,229.828649,8216.285956
895.333293,-1998.556043,383.047749,7476.080014
895.333623,-1036.288319,153.219100,6957.935855
895.333953,-370.102971,0.000000,7105.977043
895.334282,0.000000,0.000000,7846.182985
895.334612,370.102971,1072.533697,8364.327145
895.334942,296.082377,2298.286494,8290.306550
895.335271,592.164754,2451.505594,8512.368333
895.335601,962.267725,2221.676944,9400.615463
895.335931,296.082377,2298.286494,11103.089130
895.336260,-1184.329507,2911.162892,12065.356855
895.336590,-3182.885551,2911.162892,12287.418637
895.336919,-3923.091493,2298.286494,12287.418637
895.337249,-3849.070898,1149.143247,11621.233289
895.337579,-2664.741391,-689.485948,9918.759623
895.337908,-1998.556043,-2068.457845,8882.471304
895.338238,-1332.370696,-1532.190996,8438.347739
895.338568,-1184.329507,-919.314598,7846.182985
895.338897,-666.185348,-383.047749,7920.203579
895.339227,666.185348,689.485948,8660.409521
895.339556,1036.288319,2221.676944,9770.718434
895.339886,1480.411884,3140.991542,9770.718434
895.340216,2368.659014,3294.210641,9400.615463
895.340545,2590.720797,2757.943793,9178.553681
895.340875,2812.782580,1915.238745,10584.944971
895.341205,962.267725,2145.067394,11251.130318
895.341534,-1110.308913,2834.553343,11843.295072
895.341864,-2516.700203,2374.896044,11695.253884
895.342194,-3849.070898,1455.581446,11103.089130
895.342523,-3701.029710,306.438199,9844.739029
895.342853,-3478.967927,-383.047749,9104.533087
895.343182,-3552.988522,-612.876398,8808.450710
895.343512,-4071.132681,-153.219100,7772.162391
895.343842,-3701.029710,153.219100,7476.080014
895.344171,-3182.885551,306.438199,6957.935855
895.344501,-1628.453072,995.924147,6217.729913
895.344831,-296.082377,612.876398,6143.709319
895.345160,888.247130,766.095498,6809.894666
895.345490,1702.473667,1455.581446,7846.182985
895.345820,1258.350101,2374.896044,9326.594869
895.346149,1184.329507,2604.724693,11029.068536
895.346479,-444.123565,3370.820191,12213.398043
895.346808,-1924.535449,3524.039291,13027.624579
895.347138,-2368.659014,2528.115143,12805.562797
895.347468,-2294.638420,919.314598,12657.521608
895.347797,-2146.597232,229.828649,12139.377449
895.348127,-1850.514855,-612.876398,9918.759623
895.348457,-1776.494261,-1072.533697,8882.471304
895.348786,-1924.535449,-995.924147,8364.327145
895.349116,-1850.514855,-612.876398,7920.203579
895.349445,-1258.350101,306.438199,7772.162391
895.349775,-592.164754,306.438199,7698.141797
895.350105,0.000000,1608.800546,7698.141797
895.350434,444.123565,1762.019645,8068.244768
895.350764,666.185348,1149.143247,8586.388927
895.351094,518.144159,1378.971896,9844.739029
895.351423,962.267725,2374.896044,11029.068536
895.351753,-296.082377,2451.505594,11991.336260
895.352083,-1480.411884,1991.848295,12435.459826
895.352412,-2146.597232,1762.019645,11917.315666
895.352742,-2072.576638,1302.362347,11177.109724
895.353071,-1628.453072,1225.752797,10140.821405
895.353401,-1184.329507,0.000000,9400.615463
895.353731,-1110.308913,-536.266849,8512.368333
895.354060,-1924.535449,-306.438199,7994.224174
895.354390,-2072.576638,0.000000,7698.141797
895.354720,-1332.370696,229.828649,7105.977043
895.355049,-148.041188,153.219100,7328.038826
895.355379,666.185348,153.219100,7105.977043
895.355709,888.247130,383.047749,7698.141797
895.356038,1258.350101,1072.533697,8142.265362
895.356368,1628.453072,1455.581446,8808.450710
895.356697,1036.288319,2681.334243,9992.780217
895.357027,148.041188,2681.334243,11325.150913
895.357357,-740.205942,2451.505594,11843.295072
895.357686,-2146.597232,1991.848295,11399.171507
895.358016,-2812.782580,1302.362347,11177.109724
895.358346,-2960.823768,919.314598,10955.047942
895.358675,-3256.906145,153.219100,10658.965565
895.359005,-3330.926739,-689.485948,9770.718434
895.359334,-3330.926739,-1225.752797,9030.512492
895.359664,-2738.761985,-1302.362347,8216.285956
895.359994,-1184.329507,-459.657299,8068.244768
895.360323,-814.226536,-689.485948,7994.224174
895.360653,-222.061783,76.609550,8364.327145
895.360983,444.123565,689.485948,8882.471304
895.361312,888.247130,1225.752797,9474.636058
895.361642,1258.350101,2145.067394,10066.800811
895.361972,888.247130,2528.115143,10510.924376
895.362301,962.267725,1225.752797,11325.150913
895.362631,370.102971,1991.848295,11991.336260
895.362960,-666.185348,1915.238745,11769.274478
895.363290,-1332.370696,1302.362347,11251.130318
895.363620,-1850.514855,612.876398,11029.068536
895.363949,-2368.659014,306.438199,10288.862594
895.364279,-2442.679609,459.657299,9696.697840
895.364609,-2812.782580,306.438199,8734.430116
895.364938,-3330.926739,0.000000,7846.182985
895.365268,-3034.844362,536.266849,7105.977043
895.365598,-1924.535449,76.609550,6661.853478
895.365927,-740.205942,0.000000,6809.894666
895.366257,-370.102971,1302.362347,6439.791695
895.366586,148.041188,1608.800546,6735.874072
895.366916,370.102971,1838.629195,8216.285956
895.367246,740.205942,2681.334243,9696.697840
895.367575,-222.061783,2834.553343,11325.150913
895.367905,-1924.535449,3600.648841,12657.521608
895.368235,-3701.029710,3447.429741,13175.665768
895.368564,-4885.359217,2451.505594,12361.439231
895.368894,-5033.400406,612.876398,11177.109724
895.369224,-3701.029710,-306.438199,9992.780217
895.369553,-2590.720797,-1685.410096,8956.491898
895.369883,-1850.514855,-2298.286494,8734.430116
895.370212,-1406.391290,-1838.629195,8364.327145
895.370542,-740.205942,-383.047749,7698.141797
895.370872,592.164754,229.828649,7698.141797
895.371201,2072.576638,1302.362347,8882.471304
895.371531,3108.864956,2221.676944,9770.718434
895.371861,3404.947333,2911.162892,10066.800811
895.372190,3404.947333,3140.991542,9770.718434
895.372520,2960.823768,2757.943793,10288.862594
895.372849,2146.597232,3140.991542,11029.068536
895.373179,592.164754,2451.505594,11695.253884
895.373509,-740.205942,1991.848295,11399.171507
895.373838,-1998.556043,1455.581446,10510.924376
895.374168,-2590.720797,766.095498,10140.821405
895.374498,-3404.947333,229.828649,9992.780217
895.374827,-3701.029710,0.000000,9400.615463
895.375157,-4441.235652,-459.657299,7994.224174
895.375487,-4737.318029,-306.438199,7402.059420
895.375816,-3997.112087,-229.828649,6661.853478
895.376146,-3330.926739,-842.705048,6883.915261
895.376475,-1850.514855,-1072.533697,7402.059420
895.376805,-962.267725,0.000000,7772.162391
895.377135,74.020594,1302.362347,8142.265362
895.377464,814.226536,2681.334243,8438.347739
895.377794,2072.576638,3140.991542,8586.388927
895.378124,2664.741391,2757.943793,10288.862594
895.378453,2294.638420,2987.772442,11399.171507
895.378783,888.247130,3677.258390,12287.418637
895.379113,-1110.308913,2987.772442,12509.480420
895.379442,-2516.700203,2528.115143,12879.583391
895.379772,-3849.070898,1225.752797,11621.233289
895.380101,-2960.823768,-612.876398,10436.903782
895.380431,-2220.617826,-2145.067394,9178.553681
895.380761,-2294.638420,-2221.676944,7994.224174
895.381090,-2442.679609,-2221.676944,6883.915261
895.381420,-1924.535449,-1302.362347,7402.059420
895.381750,-1332.370696,0.000000,8290.306550
895.382079,-1036.288319,1685.410096,8734.430116
895.382409,-222.061783,2298.286494,9252.574275
895.382738,296.082377,2221.676944,9474.636058
895.383068,1110.308913,2298.286494,9622.677246
895.383398,740.205942,1762.019645,10658.965565
895.383727,0.000000,1915.238745,11547.212695
895.384057,-1184.329507,1991.848295,11843.295072
895.384387,-1850.514855,1685.410096,11621.233289
895.384716,-2146.597232,1072.533697,10807.006753
895.385046,-1850.514855,766.095498,10214.842000
895.385376,-1036.288319,306.438199,9326.594869
895.385705,-1184.329507,-306.438199,8586.388927
895.386035,-1332.370696,0.000000,8216.285956
895.386364,-2294.638420,229.828649,7105.977043
895.386694,-1850.514855,0.000000,6883.915261
895.387024,-962.267725,-536.266849,7105.977043
895.387353,-370.102971,-229.828649,7698.141797
895.387683,148.041188,153.219100,8068.244768
895.388013,888.247130,459.657299,8216.285956
895.388342,740.205942,1685.410096,9178.553681
895.388672,814.226536,2145.067394,9770.718434
895.389002,666.185348,2451.505594,10807.006753
895.389331,0.000000,2604.724693,12139.377449
895.389661,-1998.556043,3064.381992,12139.377449
895.389990,-2960.823768,2374.896044,11843.295072
895.390320,-3552.988522,1378.971896,11621.233289
895.390650,-3627.009116,-153.219100,10510.924376
895.390979,-3108.864956,-1302.362347,9548.656652
895.391309,-2812.782580,-2451.505594,8586.388927
895.391639,-2368.659014,-1915.238745,8216.285956
895.391968,-1850.514855,-1378.971896,7846.182985
895.392298,-888.247130,-383.047749,8142.265362
895.392627,370.102971,766.095498,8956.491898
895.392957,1110.308913,1838.629195,9326.594869
895.393287,1924.535449,2374.896044,9326.594869
895.393616,1998.556043,2451.505594,9696.697840
895.393946,1924.535449,2681.334243,10807.006753
895.394276,1406.391290,2528.115143,11251.130318
895.394605,0.000000,1762.019645,11695.253884
895.394935,-1110.308913,1685.410096,11621.233289
895.395265,-2368.659014,1072.533697,11399.171507
895.395594,-2960.823768,459.657299,10881.027347
895.395924,-3478.967927,383.047749,9770.718434
895.396253,-3182.885551,0.000000,9178.553681
895.396583,-3182.885551,0.000000,8216.285956
895.396913,-3256.906145,-229.828649,7328.038826
895.397242,-3034.844362,76.609550,6883.915261
895.397572,-2738.761985,76.609550,6365.771101
895.397902,-1850.514855,306.438199,6439.791695
895.398231,-1258.350101,919.314598,6809.894666
895.398561,-518.144159,1532.190996,7254.018232
895.398891,148.041188,1149.143247,8290.306550
895.399220,222.061783,1991.848295,9622.677246
895.399550,222.061783,2145.067394,11177.109724
895.399879,-296.082377,2528.115143,12435.459826
895.400209,-1628.453072,2987.772442,13175.665768
895.400539,-2590.720797,3064.381992,12805.562797
895.400868,-2738.761985,1915.238745,12139.377449
895.401198,-2368.659014,612.876398,11103.089130
895.401528,-1406.391290,-229.828649,9844.739029
895.401857,-1110.308913,-1225.752797,8438.347739
895.402187,-1332.370696,-1532.190996,8364.327145
895.402517,-1702.473667,-1225.752797,7846.182985
895.402846,-1554.432478,-459.657299,8068.244768
895.403176,-592.164754,383.047749,8956.491898
895.403505,148.041188,1532.190996,9770.718434
895.403835,888.247130,1991.848295,9400.615463
895.404165,1110.308913,2528.115143,8882.471304
895.404494,1850.514855,2451.505594,9252.574275
895.404824,2072.576638,2374.896044,10214.842000
895.405154,888.247130,2528.115143,11177.109724
895.405483,-592.164754,2374.896044,11325.150913
895.405813,-1628.453072,2374.896044,11177.109724
895.406142,-2368.659014,1608.800546,10510.924376
895.406472,-2442.679609,1149.143247,9992.780217
895.406802,-2220.617826,383.047749,9474.636058
895.407131,-2220.617826,-459.657299,8216.285956
895.407461,-2368.659014,0.000000,7254.018232
895.407791,-2516.700203,-306.438199,6809.894666
895.408120,-1998.556043,-306.438199,7179.997637
895.408450,-1184.329507,-76.609550,7846.182985
895.408780,-814.226536,612.876398,8290.306550
895.409109,0.000000,1225.752797,8142.265362
895.409439,740.205942,1915.238745,7994.224174
895.409768,1406.391290,1838.629195,8882.471304
895.410098,1480.411884,2145.067394,9696.697840
895.410428,962.267725,2757.943793,10881.027347
895.410757,-222.061783,2987.772442,11917.315666
895.411087,-1184.329507,2834.553343,12287.418637
895.411417,-2812.782580,2145.067394,12065.356855
895.411746,-3552.988522,995.924147,11843.295072
895.412076,-3330.926739,-229.828649,11325.150913
895.412406,-2738.761985,-919.314598,9918.759623
895.412735,-3108.864956,-1915.238745,8956.491898
895.413065,-2812.782580,-1762.019645,7772.162391
895.413394,-2368.659014,-1608.800546,7994.224174
895.413724,-1406.391290,-689.485948,8364.327145
895.414054,-962.267725,612.876398,9104.533087
895.414383,-148.041188,1838.629195,9474.636058
895.414713,888.247130,2145.067394,9252.574275
895.415043,1406.391290,1685.410096,9548.656652
895.415372,1924.535449,2374.896044,10436.903782
895.415702,1628.453072,2528.115143,11325.150913
895.416031,74.020594,2528.115143,11547.212695
895.416361,-1258.350101,2604.724693,11843.295072
895.416691,-2072.576638,2145.067394,11251.130318
895.417020,-2072.576638,995.924147,10214.842000
895.417350,-1480.411884,0.000000,9400.615463
895.417680,-1258.350101,-306.438199,8142.265362
895.418009,-1406.391290,-995.924147,7402.059420
895.418339,-2220.617826,-612.876398,7402.059420
895.418669,-2368.659014,76.609550,7328.038826
895.418998,-2220.617826,383.047749,7254.018232
895.419328,-1406.391290,76.609550,7624.121203
895.419657,-1036.288319,229.828649,7550.100608
895.419987,0.000000,0.000000,7994.224174
895.420317,740.205942,229.828649,8364.327145
895.420646,1036.288319,1532.190996,9474.636058
895.420976,1036.288319,1991.848295,11103.089130
895.421306,0.000000,2911.162892,11843.295072
895.421635,-1036.288319,3983.696590,12435.459826
895.421965,-1702.473667,2757.943793,12065.356855
895.422295,-1628.453072,1532.190996,11843.295072
895.422624,-1480.411884,842.705048,11473.192101
895.422954,-1480.411884,-229.828649,10288.862594
895.423283,-1924.535449,-1149.143247,8882.471304
895.423613,-2442.679609,-1762.019645,7772.162391
895.423943,-2072.576638,-1915.238745,8142.265362
895.424272,-1184.329507,-995.924147,8882.471304
895.424602,-740.205942,-153.219100,9252.574275
895.424932,-296.082377,459.657299,9474.636058
895.425261,370.102971,1532.190996,9326.594869
895.425591,740.205942,2145.067394,9326.594869
895.425920,1258.350101,2145.067394,9918.759623
895.426250,1332.370696,2068.457845,10658.965565
895.426580,370.102971,2068.457845,10807.006753
895.426909,-740.205942,2221.676944,10955.047942
895.427239,-1924.535449,1302.362347,10288.862594
895.427569,-2072.576638,536.266849,10584.944971
895.427898,-2146.597232,766.095498,10140.821405
895.428228,-1924.535449,229.828649,9474.636058
895.428557,-2072.576638,0.000000,8734.430116
895.428886,-2368.659014,76.609550,7624.121203
895.429215,-3034.844362,229.828649,7254.018232
895.429545,-2664.741391,1149.143247,7550.100608
895.429874,-2442.679609,612.876398,7328.038826
895.430203,-2072.576638,1225.752797,7179.997637
895.430533,-2368.659014,-306.438199,7105.977043
895.430862,-1850.514855,1072.533697,7476.080014
895.431191,-814.226536,612.876398,8290.306550
895.431520,-370.102971,919.314598,9474.636058
895.431850,-888.247130,1072.533697,10436.903782
895.432179,-1998.556043,1608.800546,11991.336260
895.432508,-2368.659014,1762.019645,12953.603985
895.432838,-2146.597232,2374.896044,13397.727550
895.433167,-1702.473667,1838.629195,12805.562797
895.433496,-814.226536,842.705048,11473.192101
895.433826,148.041188,-612.876398,9844.739029
895.434155,666.185348,-1072.533697,8882.471304
895.434484,0.000000,-919.314598,8290.306550
895.434813,222.061783,-229.828649,8586.388927
895.435143,222.061783,383.047749,9030.512492
895.435472,296.082377,1149.143247,9252.574275
895.435801,444.123565,1838.629195,8956.491898
895.436131,518.144159,1685.410096,8808.450710
895.436460,1554.432478,1608.800546,9326.594869
895.436789,1406.391290,2145.067394,9918.759623
895.437118,0.000000,2374.896044,10362.883188
895.437448,-1110.308913,2145.067394,10140.821405
895.437777,-1998.556043,2068.457845,10288.862594
895.438106,-2516.700203,1608.800546,10288.862594
895.438436,-2516.700203,1302.362347,10362.883188
895.438765,-2516.700203,689.485948,9770.718434
895.439094,-2368.659014,383.047749,9030.512492
895.439423,-2886.803174,-153.219100,8216.285956
895.439753,-3108.864956,76.609550,7772.162391
895.440082,-2516.700203,536.266849,7402.059420
895.440411,-1628.453072,0.000000,7402.059420
895.440741,-592.164754,383.047749,7328.038826
895.441070,370.102971,1302.362347,8068.244768
895.441399,1332.370696,766.095498,7698.141797
895.441729,2220.617826,1072.533697,8142.265362
895.442058,2442.679609,2068.457845,9400.615463
895.442387,2072.576638,2374.896044,10066.800811
895.442716,740.205942,2451.505594,10955.047942
895.443046,-296.082377,2834.553343,11917.315666
895.443375,-1702.473667,2374.896044,12213.398043
895.443704,-2368.659014,1838.629195,12583.501014
895.444034,-2812.782580,842.705048,12361.439231
895.444363,-3330.926739,306.438199,11325.150913
895.444692,-3849.070898,-995.924147,9918.759623
895.445021,-4071.132681,-1378.971896,9030.512492
895.445351,-3478.967927,-1532.190996,8290.306550
895.445680,-2368.659014,-1302.362347,8512.368333
895.446009,-1184.329507,0.000000,8586.388927
895.446339,-814.226536,919.314598,8142.265362
895.446668,0.000000,1225.752797,8142.265362
895.446997,888.247130,1378.971896,8586.388927
895.447326,1776.494261,2145.067394,9252.574275
895.447656,2368.659014,2298.286494,10510.924376
895.447985,1110.308913,2221.676944,10807.006753
895.448314,-296.082377,2221.676944,11399.171507
895.448644,-962.267725,1991.848295,10955.047942
895.448973,-1184.329507,995.924147,10955.047942
895.449302,-1110.308913,612.876398,10436.903782
895.449631,-1184.329507,383.047749,9104.533087
895.449961,-1776.494261,-306.438199,8364.327145
895.450290,-2220.617826,-459.657299,7624.121203
895.450619,-2368.659014,0.000000,7550.100608
895.450949,-1998.556043,229.828649,7179.997637
895.451278,-1850.514855,0.000000,7179.997637
895.451607,-1184.329507,459.657299,7550.100608
895.451937,-814.226536,383.047749,7698.141797
895.452266,-370.102971,536.266849,8068.244768
895.452595,148.041188,919.314598,8956.491898
895.452924,370.102971,1532.190996,10584.944971
895.453254,-296.082377,2298.286494,10881.027347
895.453583,-1332.370696,2374.896044,11843.295072
895.453912,-1776.494261,2298.286494,12139.377449
895.454242,-1924.535449,1685.410096,12435.459826
895.454571,-2220.617826,1455.581446,12139.377449
895.454900,-1850.514855,383.047749,11029.068536
895.455229,-1480.411884,-536.266849,10288.862594
895.455559,-1628.453072,-1149.143247,9474.636058
895.455888,-1406.391290,-766.095498,9178.553681
895.456217,-1110.308913,-459.657299,8808.450710
895.456547,-592.164754,0.000000,8438.347739
895.456876,148.041188,689.485948,9326.594869
895.457205,296.082377,1302.362347,9178.553681
895.457534,814.226536,1532.190996,8808.450710
895.457864,1850.514855,1532.190996,9252.574275
895.458193,2294.638420,1685.410096,9474.636058
895.458522,888.247130,2374.896044,10362.883188
895.458852,-592.164754,2528.115143,10510.924376
895.459181,-1628.453072,2068.457845,10362.883188
895.459510,-2220.617826,1378.971896,10436.903782
895.459840,-2664.741391,766.095498,10362.883188
895.460169,-3108.864956,459.657299,9844.739029
895.460498,-3330.926739,-153.219100,8956.491898
895.460827,-3997.112087,-383.047749,8216.285956
895.461157,-3627.009116,-306.438199,7846.182985
895.461486,-2812.782580,0.000000,7254.018232
895.461815,-1628.453072,76.609550,7179.997637
895.462145,-666.185348,306.438199,6735.874072
895.462474,-296.082377,1378.971896,7105.977043
895.462803,370.102971,1685.410096,7105.977043
895.463132,1480.411884,1455.581446,7698.141797
895.463462,2072.576638,2068.457845,9548.656652
895.463791,1036.288319,2298.286494,10807.006753
895.464120,-370.102971,2221.676944,12287.418637
895.464450,-2368.659014,2374.896044,13323.706956
895.464779,-3256.906145,2068.457845,13397.727550
895.465108,-3552.988522,1608.800546,13101.645173
895.465437,-2516.700203,-459.657299,11991.336260
895.465767,-2146.597232,-1072.533697,10436.903782
895.466096,-1776.494261,-1685.410096,9326.594869
895.466425,-1702.473667,-1455.581446,8660.409521
895.466755,-1258.350101,-383.047749,8882.471304
895.467084,-1036.288319,536.266849,9030.512492
895.467413,-222.061783,995.924147,8660.409521
895.467742,296.082377,1608.800546,8882.471304
895.468072,1110.308913,1532.190996,8364.327145
895.468401,2072.576638,1838.629195,8956.491898
895.468730,2368.659014,1608.800546,9548.656652
895.469060,1776.494261,2681.334243,10362.883188
895.469389,74.020594,2604.724693,11029.068536
895.469718,-1110.308913,2451.505594,11103.089130
895.470048,-1776.494261,1991.848295,10881.027347
895.470377,-1998.556043,1685.410096,10436.903782
895.470706,-2146.597232,1762.019645,9474.636058
895.471035,-2072.576638,689.485948,8660.409521
895.471365,-2442.679609,0.000000,8068.244768
895.471694,-2960.823768,0.000000,7402.059420
895.472023,-3256.906145,0.000000,6957.935855
895.472353,-2442.679609,-459.657299,6661.853478
895.472682,-1036.288319,0.000000,6809.894666
895.473011,-148.041188,229.828649,7179.997637
895.473340,592.164754,842.705048,7772.162391
895.473670,1184.329507,1532.190996,8068.244768
895.473999,1850.514855,2298.286494,8734.430116
895.474328,1036.288319,2834.553343,9844.739029
895.474658,296.082377,3140.991542,11843.295072
895.474987,-666.185348,2834.553343,13027.624579
895.475316,-2072.576638,2298.286494,12953.603985
895.475645,-2886.803174,1838.629195,12805.562797
895.475975,-3108.864956,842.705048,12213.398043
895.476304,-2812.782580,-689.485948,11399.171507
895.476633,-2664.741391,-1685.410096,10140.821405
895.476963,-2368.659014,-1225.752797,9178.553681
895.477292,-1998.556043,-995.924147,8438.347739
895.477621,-1110.308913,-306.438199,8216.285956
895.477951,-592.164754,306.438199,7994.224174
895.478280,-296.082377,1762.019645,8660.409521
895.478609,148.041188,1838.629195,9030.512492
895.478938,740.205942,2145.067394,9252.574275
895.479268,1036.288319,2298.286494,9992.780217
895.479597,1258.350101,1991.848295,10362.883188
895.479926,0.000000,1455.581446,10807.006753
895.480256,-740.205942,1838.629195,10732.986159
895.480585,-1332.370696,1455.581446,10362.883188
895.480914,-1702.473667,1225.752797,10288.862594
895.481243,-1702.473667,1378.971896,9918.759623
895.481573,-1332.370696,766.095498,9474.636058
895.481902,-1924.535449,612.876398,8290.306550
895.482231,-1850.514855,383.047749,7550.100608
895.482561,-1776.494261,306.438199,6809.894666
895.482890,-1406.391290,-229.828649,6365.771101
895.483219,-1110.308913,-229.828649,6661.853478
895.483548,-814.226536,229.828649,7402.059420
895.483878,-370.102971,842.705048,7624.121203
895.484207,74.020594,689.485948,7994.224174
895.484536,814.226536,1302.362347,8586.388927
895.484866,1036.288319,1762.019645,10362.883188
895.485195,222.061783,2145.067394,11473.192101
895.485524,-962.267725,2451.505594,12287.418637
895.485853,-2146.597232,2451.505594,12657.521608
895.486183,-2738.761985,2298.286494,12435.459826
895.486512,-2368.659014,1072.533697,12361.439231
895.486841,-2072.576638,-459.657299,11325.150913
895.487171,-1850.514855,-1302.362347,10288.862594
895.487500,-1776.494261,-2145.067394,9548.656652
895.487829,-1702.473667,-1608.800546,9178.553681
895.488159,-1184.329507,76.609550,9104.533087
895.488488,-222.061783,612.876398,9104.533087
895.488817,370.102971,919.314598,9400.615463
895.489146,888.247130,1762.019645,9400.615463
895.489476,1554.432478,2221.676944,9400.615463
895.489805,2220.617826,2604.724693,9548.656652
895.490134,1776.494261,2221.676944,9918.759623
895.490464,1110.308913,2298.286494,10584.944971
895.490793,0.000000,2068.457845,10881.027347
895.491122,-1332.370696,1762.019645,10955.047942
895.491451,-2368.659014,1838.629195,10288.862594
895.491781,-3478.967927,1532.190996,9918.759623
895.492110,-3849.070898,689.485948,9400.615463
895.492439,-4367.215058,0.000000,8068.244768
895.492769,-4293.194464,-612.876398,7254.018232
895.493098,-4515.256246,-919.314598,6513.812290
895.493427,-3849.070898,-1378.971896,6439.791695
895.493756,-2812.782580,-612.876398,6809.894666
895.494086,-1702.473667,-383.047749,7328.038826
895.494415,-444.123565,612.876398,7920.203579
895.494744,888.247130,1072.533697,7920.203579
895.495074,1998.556043,1532.190996,7994.224174
895.495403,2886.803174,2604.724693,9696.697840
895.495732,2516.700203,2757.943793,10732.986159
895.496062,962.267725,3064.381992,11991.336260
895.496391,-962.267725,3370.820191,13175.665768
895.496720,-2220.617826,2374.896044,13323.706956
895.497049,-3108.864956,1532.190996,13027.624579
895.497379,-2812.782580,0.000000,12065.356855
895.497708,-2368.659014,-1378.971896,10584.944971
895.498037,-2368.659014,-2451.505594,9178.553681
895.498367,-2442.679609,-2374.896044,8512.368333
895.498696,-2146.597232,-1455.581446,8882.471304
895.499025,-1776.494261,-229.828649,8808.450710
895.499354,-1406.391290,1225.752797,9474.636058
895.499684,-962.267725,1685.410096,9400.615463
895.500013,-222.061783,1685.410096,9400.615463
895.500342,814.226536,2145.067394,9400.615463
895.500672,1184.329507,1991.848295,9252.574275
895.501001,1184.329507,1991.848295,10066.800811
895.501330,0.000000,2145.067394,10510.924376
895.501659,-814.226536,2374.896044,10510.924376
895.501989,-1110.308913,2068.457845,10288.862594
895.502318,-1332.370696,1225.752797,10214.842000
895.502647,-1332.370696,1915.238745,9770.718434
895.502977,-1184.329507,1302.362347,9030.512492
895.503306,-1628.453072,612.876398,7698.141797
895.503635,-2146.597232,306.438199,6587.832884
895.503964,-2072.576638,-459.657299,6143.709319
895.504294,-1480.411884,-536.266849,6439.791695
895.504623,-888.247130,76.609550,7254.018232
895.504952,-814.226536,919.314598,7550.100608
895.505282,-370.102971,1149.143247,7476.080014
895.505611,518.144159,1302.362347,8216.285956
895.505940,1332.370696,2068.457845,9696.697840
895.506270,740.205942,2834.553343,10362.883188
895.506599,-296.082377,3140.991542,11103.089130
895.506928,-1480.411884,3140.991542,11621.233289
895.507257,-2368.659014,2298.286494,12065.356855
895.507587,-2886.803174,1838.629195,12731.542202
895.507916,-3404.947333,919.314598,12583.501014
895.508245,-3330.926739,0.000000,11029.068536
895.508575,-3034.844362,-1225.752797,9844.739029
895.508904,-2368.659014,-1762.019645,9104.533087
895.509233,-1924.535449,-1608.800546,8808.450710
895.509562,-1554.432478,-919.314598,8956.491898
895.509892,-1036.288319,612.876398,9252.574275
895.510221,-370.102971,1915.238745,9622.677246
895.510550,296.082377,2068.457845,9400.615463
895.510880,1628.453072,1378.971896,9178.553681
895.511209,1480.411884,1302.362347,9548.656652
895.511538,1480.411884,1915.238745,10288.862594
895.511867,740.205942,1915.238745,10732.986159
895.512197,-296.082377,2145.067394,10955.047942
895.512526,-1036.288319,1685.410096,10288.862594
895.512855,-1702.473667,1378.971896,10214.842000
895.513185,-2146.597232,1455.581446,9844.739029
895.513514,-1776.494261,766.095498,9326.594869
895.513843,-2590.720797,306.438199,8216.285956
895.514173,-3256.906145,229.828649,7179.997637
895.514502,-3330.926739,-229.828649,6365.771101
895.514831,-2516.700203,-766.095498,6365.771101
895.515160,-1998.556043,-842.705048,6587.832884
895.515490,-1702.473667,0.000000,7105.977043
895.515819,-1480.411884,383.047749,7550.100608
895.516148,-666.185348,1302.362347,7402.059420
895.516478,296.082377,1991.848295,8364.327145
895.516807,1110.308913,1991.848295,9844.739029
895.517136,888.247130,2298.286494,11103.089130
895.517465,-518.144159,2757.943793,12065.356855
895.517795,-1554.432478,2681.334243,12435.459826
895.518124,-2072.576638,2374.896044,12435.459826
895.518453,-2368.659014,1685.410096,12435.459826
895.518783,-1924.535449,-306.438199,11251.130318
895.519112,-1776.494261,-1838.629195,9918.759623
895.519441,-1406.391290,-2145.067394,9252.574275
895.519770,-1184.329507,-1608.800546,8956.491898
895.520100,-1036.288319,-919.314598,9474.636058
895.520429,-518.144159,153.219100,9844.739029
895.520758,148.041188,1149.143247,10140.821405
895.521088,666.185348,2145.067394,9770.718434
895.521417,1110.308913,1532.190996,9178.553681
895.521746,2072.576638,1991.848295,9400.615463
895.522075,1554.432478,2221.676944,10140.821405
895.522405,74.020594,2145.067394,10584.944971
895.522734,-1332.370696,2068.457845,10658.965565
895.523063,-1924.535449,1762.019645,10288.862594
895.523393,-2368.659014,919.314598,10140.821405
895.523722,-2886.803174,612.876398,9696.697840
895.524051,-2738.761985,229.828649,9252.574275
895.524381,-2368.659014,0.000000,8290.306550
895.524710,-2590.720797,76.609550,7550.100608
895.525039,-2664.741391,459.657299,6883.915261
895.525368,-2442.679609,383.047749,6661.853478
895.525698,-1406.391290,153.219100,7031.956449
895.526027,-814.226536,459.657299,7105.977043
895.526356,-592.164754,383.047749,7402.059420
895.526686,74.020594,689.485948,7920.203579
895.527015,296.082377,2145.067394,8216.285956
895.527344,740.205942,2221.676944,9326.594869
895.527673,666.185348,1838.629195,10510.924376
895.528003,-370.102971,2298.286494,11473.192101
895.528332,-2220.617826,2451.505594,11991.336260
895.528661,-2960.823768,1838.629195,12879.583391
895.528990,-3997.112087,1532.190996,12953.603985
895.529319,-3701.029710,536.266849,12287.418637
895.529649,-3108.864956,-1302.362347,10510.924376
895.529978,-2664.741391,-2604.724693,9326.594869
895.530307,-1776.494261,-2374.896044,8734.430116
895.530636,-1406.391290,-2298.286494,9326.594869
895.530966,-962.267725,-842.705048,9844.739029
895.531295,-518.144159,995.924147,9992.780217
895.531624,296.082377,1915.238745,10066.800811
895.531953,888.247130,2451.505594,9770.718434
895.532283,2072.576638,2757.943793,9992.780217
895.532612,2220.617826,2604.724693,10288.862594
895.532941,1776.494261,2451.505594,10436.903782
895.533270,370.102971,2451.505594,10807.006753
895.533600,-444.123565,2145.067394,10881.027347
895.533929,-1628.453072,1378.971896,9992.780217
895.534258,-2072.576638,995.924147,9474.636058
895.534587,-2072.576638,919.314598,8808.450710
895.534917,-2146.597232,229.828649,8216.285956
895.535246,-2368.659014,-153.219100,7698.141797
895.535575,-2886.803174,0.000000,7105.977043
895.535904,-3108.864956,766.095498,6883.915261
895.536234,-2516.700203,459.657299,7105.977043
895.536563,-1776.494261,229.828649,7476.080014
895.536892,-740.205942,536.266849,7698.141797
895.537221,-296.082377,766.095498,7550.100608
895.537550,518.144159,1378.971896,7920.203579
895.537880,1184.329507,2068.457845,8808.450710
895.538209,1036.288319,2604.724693,9622.677246
895.538538,518.144159,3140.991542,10732.986159
895.538867,-148.041188,3370.820191,11695.253884
895.539197,-1998.556043,2834.553343,11843.295072
895.539526,-2738.761985,2374.896044,12287.418637
895.539855,-3256.906145,1455.581446,12065.356855
895.540184,-3034.844362,229.828649,11251.130318
895.540514,-2738.761985,-1762.019645,9992.780217
895.540843,-2516.700203,-2145.067394,9178.553681
895.541172,-2294.638420,-1532.190996,8956.491898
895.541501,-1776.494261,-842.705048,9252.574275
895.541831,-814.226536,0.000000,9696.697840
895.542160,-296.082377,1378.971896,10214.842000
895.542489,222.061783,2604.724693,10140.821405
895.542818,1110.308913,2145.067394,9474.636058
895.543148,1554.432478,2451.505594,9770.718434
895.543477,1406.391290,2451.505594,10140.821405
895.543806,666.185348,2298.286494,10362.883188
895.544135,-296.082377,2528.115143,10510.924376
895.544465,-1110.308913,1762.019645,9992.780217
895.544794,-2072.576638,1149.143247,9326.594869
895.545123,-2220.617826,1072.533697,8956.491898
895.545452,-1850.514855,229.828649,8216.285956
895.545781,-1702.473667,-153.219100,7994.224174
895.546111,-1998.556043,383.047749,7550.100608
895.546440,-2812.782580,842.705048,7254.018232
895.546769,-2590.720797,76.609550,6957.935855
895.547098,-2220.617826,-153.219100,7179.997637
895.547428,-1628.453072,383.047749,7846.182985
895.547757,-592.164754,1149.143247,8142.265362
895.548086,0.000000,689.485948,7772.162391
895.548415,444.123565,919.314598,8512.368333
895.548745,888.247130,1302.362347,9622.677246
895.549074,740.205942,1608.800546,10955.047942
895.549403,-222.061783,2374.896044,11843.295072
895.549732,-1628.453072,2987.772442,12139.377449
895.550062,-2442.679609,2145.067394,12213.398043
895.550391,-2220.617826,842.705048,11843.295072
895.550720,-1628.453072,-689.485948,11251.130318
895.551049,-1258.350101,-1149.143247,9992.780217
895.551379,-1776.494261,-1685.410096,9474.636058
895.551708,-1480.411884,-1532.190996,9326.594869
895.552037,-888.247130,-1072.533697,9770.718434
895.552366,-296.082377,-153.219100,10288.862594
895.552696,518.144159,1149.143247,10584.944971
895.553025,592.164754,2145.067394,9696.697840
895.553354,888.247130,2068.457845,9252.574275
895.553683,1258.350101,2451.505594,9474.636058
895.554013,1184.329507,2145.067394,10066.800811
895.554342,0.000000,2068.457845,10140.821405
895.554671,-2220.617826,1915.238745,9992.780217
895.555000,-2886.803174,1149.143247,9696.697840
895.555329,-3256.906145,0.000000,9770.718434
895.555659,-3182.885551,-536.266849,9696.697840
895.555988,-2664.741391,-153.219100,9178.553681
895.556317,-2072.576638,0.000000,8290.306550
895.556646,-1850.514855,229.828649,7476.080014
895.556976,-1776.494261,842.705048,7328.038826
895.557305,-1184.329507,919.314598,7402.059420
895.557634,-296.082377,1072.533697,7402.059420
895.557963,222.061783,1378.971896,7624.121203
895.558293,296.082377,1072.533697,7772.162391
895.558622,222.061783,1685.410096,7920.203579
895.558951,666.185348,842.705048,8364.327145
895.559280,888.247130,1072.533697,9474.636058
895.559610,592.164754,1762.019645,10066.800811
895.559939,-370.102971,2451.505594,10807.006753
895.560268,-1850.514855,2298.286494,11103.089130
895.560597,-2960.823768,1991.848295,11547.212695
895.560927,-3849.070898,1378.971896,11843.295072
895.561256,-3923.091493,1072.533697,11547.212695
895.561585,-3182.885551,-612.876398,10955.047942
895.561914,-3552.988522,-1302.362347,10140.821405
895.562244,-3404.947333,-1608.800546,9474.636058
895.562573,-2960.823768,-1608.800546,9400.615463
895.562902,-1998.556043,-1225.752797,9548.656652
895.563231,-962.267725,153.219100,9918.759623
895.563560,0.000000,995.924147,9696.697840
895.563890,1406.391290,1378.971896,9696.697840
895.564219,2072.576638,2374.896044,9696.697840
895.564548,2664.741391,2604.724693,9548.656652
895.564877,2738.761985,2451.505594,10066.800811
895.565207,2072.576638,2298.286494,10066.800811
895.565536,296.082377,2911.162892,10362.883188
895.565865,-888.247130,1685.410096,9992.780217
895.566194,-1702.473667,612.876398,9918.759623
895.566524,-1776.494261,229.828649,9918.759623
895.566853,-1924.535449,0.000000,9104.533087
895.567182,-2368.659014,-459.657299,8142.265362
895.567511,-2442.679609,-229.828649,7476.080014
895.567841,-2812.782580,0.000000,7031.956449
895.568170,-2294.638420,0.000000,6661.853478
895.568499,-1776.494261,229.828649,7179.997637
895.568828,-888.247130,1608.800546,7550.100608
895.569158,-814.226536,1225.752797,7772.162391
895.569487,-222.061783,1455.581446,7920.203579
895.569816,222.061783,1685.410096,8586.388927
895.570145,740.205942,1991.848295,9548.656652
895.570475,444.123565,2068.457845,10732.986159
895.570804,-1036.288319,3140.991542,11399.171507
895.571133,-1702.473667,2374.896044,11843.295072
895.571462,-2368.659014,1762.019645,11843.295072
895.571791,-2146.597232,1378.971896,11991.336260
895.572121,-1850.514855,536.266849,11325.150913
895.572450,-1480.411884,-919.314598,10066.800811
895.572779,-1406.391290,-1378.971896,9474.636058
895.573108,-1110.308913,-1225.752797,9474.636058
895.573438,-740.205942,-229.828649,9918.759623
895.573767,-592.164754,689.485948,10066.800811
895.574096,-222.061783,1072.533697,9992.780217
895.574425,0.000000,1685.410096,10066.800811
895.574755,592.164754,1991.848295,9992.780217
895.575084,1184.329507,2298.286494,10140.821405
895.575413,1110.308913,2298.286494,10214.842000
895.575742,222.061783,2374.896044,9622.677246
895.576072,-740.205942,2221.676944,9770.718434
895.576401,-1554.432478,1685.410096,9622.677246
895.576730,-2072.576638,1149.143247,9474.636058
895.577059,-2442.679609,1225.752797,9548.656652
895.577389,-2812.782580,689.485948,8660.409521
895.577718,-2960.823768,229.828649,7550.100608
895.578047,-3034.844362,-229.828649,7328.038826
895.578376,-2960.823768,0.000000,7179.997637
895.578706,-2294.638420,0.000000,6957.935855
895.579035,-1332.370696,153.219100,7179.997637
895.579364,-518.144159,1455.581446,7328.038826
895.579693,370.102971,1072.533697,7698.141797
895.580022,1110.308913,1149.143247,7920.203579
895.580352,1406.391290,1302.362347,8734.430116
895.580681,1480.411884,2145.067394,10066.800811
895.581010,1036.288319,2145.067394,10584.944971
895.581339,0.000000,2451.505594,11325.150913
895.581669,-1258.350101,2068.457845,11769.274478
895.581998,-2368.659014,1455.581446,11843.295072
895.582327,-2738.761985,689.485948,11991.336260
895.582656,-2368.659014,-229.828649,11473.192101
895.582986,-2072.576638,-1532.190996,10955.047942
895.583315,-2442.679609,-2068.457845,9992.780217
895.583644,-2368.659014,-1532.190996,9548.656652
895.583973,-1702.473667,-1225.752797,9474.636058
895.584303,-740.205942,0.000000,9622.677246
895.584632,296.082377,1072.533697,9548.656652
895.584961,444.123565,1302.362347,9474.636058
895.585290,888.247130,1608.800546,9400.615463
895.585620,1554.432478,1762.019645,9474.636058
895.585949,1850.514855,1762.019645,10066.800811
895.586278,1332.370696,1991.848295,10584.944971
895.586607,592.164754,2145.067394,10658.965565
895.586937,-518.144159,2068.457845,10584.944971
895.587266,-1184.329507,1532.190996,10214.842000
895.587595,-1628.453072,1302.362347,9770.718434
895.587924,-1850.514855,1072.533697,9474.636058
895.588254,-1850.514855,383.047749,9178.553681
895.588583,-2294.638420,76.609550,8364.327145
895.588912,-2960.823768,306.438199,7476.080014
895.589241,-2886.803174,0.000000,6883.915261
895.589570,-2368.659014,-383.047749,6661.853478
895.589900,-1702.473667,-229.828649,7328.038826
895.590229,-1184.329507,0.000000,7402.059420
895.590558,-666.185348,995.924147,7624.121203
895.590887,0.000000,1302.362347,8364.327145
895.591217,592.164754,1915.238745,9400.615463
895.591546,814.226536,2298.286494,10066.800811
895.591875,-296.082377,2604.724693,11325.150913
895.592204,-1702.473667,2987.772442,11991.336260
895.592534,-2368.659014,2757.943793,11991.336260
895.592863,-2812.782580,1455.581446,11769.274478
895.593192,-2812.782580,383.047749,11325.150913
895.593521,-2072.576638,-612.876398,10140.821405
895.593851,-2442.679609,-1225.752797,9622.677246
895.594180,-2368.659014,-1149.143247,9178.553681
895.594509,-2072.576638,-919.314598,8956.491898
895.594838,-1332.370696,-383.047749,9178.553681
895.595168,-370.102971,689.485948,9104.533087
895.595497,-296.082377,1072.533697,9548.656652
895.595826,222.061783,1378.971896,9548.656652
895.596155,740.205942,1685.410096,9474.636058
895.596485,740.205942,1915.238745,9844.739029
895.596814,814.226536,1302.362347,9918.759623
895.597143,296.082377,1838.629195,10584.944971
895.597472,-814.226536,1915.238745,10881.027347
895.597801,-1480.411884,1838.629195,10658.965565
895.598131,-2220.617826,1225.752797,10214.842000
895.598460,-1998.556043,995.924147,10288.862594
895.598789,-1480.411884,459.657299,9474.636058
895.599118,-1924.535449,229.828649,8586.388927
895.599448,-2294.638420,0.000000,7846.182985
895.599777,-2812.782580,0.000000,7254.018232
895.600106,-2442.679609,0.000000,6809.894666
895.600435,-1332.370696,76.609550,6957.935855
895.600765,-296.082377,0.000000,7105.977043
895.601094,222.061783,306.438199,7328.038826
895.601423,740.205942,995.924147,7772.162391
895.601752,1258.350101,1685.410096,8956.491898
895.602082,1110.308913,2604.724693,9918.759623
895.602411,814.226536,2681.334243,10658.965565
895.602740,-666.185348,3217.601092,12065.356855
895.603069,-1480.411884,2987.772442,12657.521608
895.603399,-2146.597232,2145.067394,12509.480420
895.603728,-2516.700203,1455.581446,11917.315666
895.604057,-2368.659014,612.876398,11177.109724
895.604386,-2442.679609,-842.705048,9992.780217
895.604716,-2368.659014,-1762.019645,9696.697840
895.605045,-2072.576638,-1762.019645,9252.574275
895.605374,-1850.514855,-842.705048,8808.450710
895.605703,-1036.288319,-536.266849,8142.265362
895.606032,0.000000,612.876398,8660.409521
895.606362,518.144159,1685.410096,8660.409521
895.606691,1258.350101,1915.238745,8660.409521
895.607020,2072.576638,2298.286494,9252.574275
895.607349,2294.638420,2681.334243,9992.780217
895.607679,1776.494261,2681.334243,10955.047942
895.608008,222.061783,2528.115143,11325.150913
895.608337,-814.226536,2451.505594,10955.047942
895.608666,-1776.494261,1991.848295,10881.027347
895.608996,-2368.659014,1302.362347,10732.986159
895.609325,-2146.597232,1378.971896,10362.883188
895.609654,-2516.700203,76.609550,9326.594869
895.609983,-3552.988522,-383.047749,8068.244768
895.610313,-3552.988522,0.000000,7105.977043
895.610642,-2738.761985,-229.828649,6587.832884
895.610971,-1924.535449,-383.047749,6883.915261
895.611300,-1258.350101,306.438199,6957.935855
895.611630,-1110.308913,689.485948,6809.894666
895.611959,-148.041188,383.047749,7402.059420
895.612288,444.123565,1225.752797,8586.388927
895.612617,888.247130,2374.896044,9548.656652
895.612947,370.102971,2528.115143,10881.027347
895.613276,-370.102971,2451.505594,11769.274478
895.613605,-962.267725,2757.943793,11991.336260
895.613934,-1332.370696,1762.019645,11843.295072
895.614263,-1628.453072,995.924147,11769.274478
895.614593,-1702.473667,383.047749,11621.233289
895.614922,-1554.432478,-229.828649,10807.006753
895.615251,-1776.494261,-612.876398,9696.697840
895.615580,-2294.638420,-229.828649,8734.430116
895.615910,-2294.638420,-919.314598,8290.306550
895.616239,-1480.411884,0.000000,8364.327145
895.616568,-1332.370696,0.000000,8808.450710
895.616897,-1110.308913,229.828649,8882.471304
895.617227,-888.247130,306.438199,8956.491898
895.617556,-888.247130,536.266849,9104.533087
895.617885,0.000000,689.485948,9770.718434
895.618214,1406.391290,766.095498,11103.089130
895.618544,888.247130,1762.019645,11251.130318
895.618873,370.102971,2068.457845,11473.192101
895.619202,0.000000,1991.848295,11029.068536
895.619531,222.061783,1685.410096,10881.027347
895.619861,888.247130,1532.190996,10584.944971
895.620190,-296.082377,1225.752797,9548.656652
895.620519,-1184.329507,842.705048,8660.409521
895.620848,-1554.432478,229.828649,7846.182985
895.621178,-1628.453072,-229.828649,7105.977043
895.621507,-1184.329507,-766.095498,6291.750507
895.621836,-1184.329507,-612.876398,6513.812290
895.622165,-1184.329507,0.000000,7254.018232
895.622494,-1406.391290,995.924147,7994.224174
895.622824,-1184.329507,1532.190996,8438.347739
895.623153,-518.144159,1762.019645,9400.615463
895.623482,-370.102971,2145.067394,10436.903782
895.623811,-1332.370696,2681.334243,11399.171507
895.624141,-2220.617826,2681.334243,11843.295072
895.624470,-2812.782580,2145.067394,11325.150913
895.624799,-3108.864956,1532.190996,10881.027347
895.625128,-2960.823768,766.095498,11103.089130
895.625458,-2590.720797,-459.657299,10436.903782
895.625787,-2220.617826,-995.924147,9918.759623
895.626116,-2220.617826,-842.705048,9104.533087
895.626445,-1924.535449,-383.047749,9104.533087
895.626775,-740.205942,-229.828649,8586.388927
895.627104,444.123565,229.828649,8734.430116
895.627433,666.185348,1225.752797,9252.574275
895.627762,888.247130,1762.019645,9474.636058
895.628092,962.267725,2298.286494,9474.636058
895.628421,1258.350101,2604.724693,9622.677246
895.628750,1036.288319,1762.019645,10288.862594
895.629079,0.000000,1532.190996,11029.068536
895.629409,-1110.308913,1532.190996,11029.068536
895.629738,-1924.535449,1149.143247,10732.986159
895.630068,-2368.659014,995.924147,10807.006753
895.630397,-2960.823768,1149.143247,10658.965565
895.630726,-2886.803174,919.314598,9918.759623
895.631056,-2960.823768,153.219100,8956.491898
895.631385,-3034.844362,76.609550,7550.100608
895.631714,-2886.803174,0.000000,6957.935855
895.632044,-1924.535449,76.609550,6217.729913
895.632373,-1554.432478,-536.266849,6809.894666
895.632702,-1036.288319,153.219100,7550.100608
895.633032,-740.205942,612.876398,8068.244768
895.633361,0.000000,1225.752797,8882.471304
895.633691,518.144159,1685.410096,9400.615463
895.634020,962.267725,2451.505594,10584.944971
895.634349,888.247130,2451.505594,10807.006753
895.634679,296.082377,2681.334243,11621.233289
895.635008,-592.164754,2604.724693,11769.274478
895.635337,-1480.411884,2451.505594,11177.109724
895.635667,-1924.535449,1991.848295,11621.233289
895.635996,-2072.576638,306.438199,10881.027347
895.636325,-1998.556043,-612.876398,10362.883188
895.636655,-2590.720797,-1149.143247,9400.615463
895.636984,-2442.679609,-995.924147,8734.430116
895.637314,-1702.473667,-766.095498,8438.347739
895.637643,-1184.329507,-383.047749,8512.368333
895.637972,-592.164754,689.485948,8808.450710
895.638302,-222.061783,1608.800546,9252.574275
895.638631,296.082377,2298.286494,9104.533087
895.638960,1554.432478,2604.724693,9178.553681
895.639290,814.226536,2681.334243,9548.656652
895.639619,1036.288319,2221.676944,10288.862594
895.639948,148.041188,2374.896044,10436.903782
895.640278,-518.144159,2068.457845,10658.965565
895.640607,-1332.370696,1532.190996,10807.006753
895.640937,-1628.453072,1685.410096,10732.986159
895.641266,-1998.556043,1378.971896,10214.842000
895.641595,-2146.597232,306.438199,9400.615463
895.641925,-2368.659014,229.828649,8956.491898
895.642254,-2664.741391,536.266849,7846.182985
895.642583,-2146.597232,459.657299,7179.997637
895.642913,-1554.432478,153.219100,7105.977043
895.643242,-888.247130,0.000000,7105.977043
895.643571,-296.082377,689.485948,7328.038826
895.643901,0.000000,842.705048,7920.203579
895.644230,0.000000,1685.410096,8660.409521
895.644559,814.226536,1838.629195,9696.697840
895.644889,74.020594,2145.067394,10955.047942
895.645218,-666.185348,2374.896044,11621.233289
895.645548,-1850.514855,2451.505594,12139.377449
895.645877,-2368.659014,2528.115143,12509.480420
895.646206,-2960.823768,1838.629195,11473.192101
895.646536,-2664.741391,459.657299,11547.212695
895.646865,-2220.617826,-919.314598,10066.800811
895.647194,-1776.494261,-1302.362347,9104.533087
895.647524,-1628.453072,-2068.457845,8364.327145
895.647853,-1406.391290,-612.876398,7994.224174
895.648182,-1036.288319,-153.219100,8512.368333
895.648512,-592.164754,153.219100,8956.491898
895.648841,0.000000,1302.362347,9474.636058
895.649171,296.082377,1685.410096,9474.636058
895.649500,1110.308913,2068.457845,9474.636058
895.649829,1332.370696,2145.067394,9622.677246
895.650159,1258.350101,1608.800546,9770.718434
895.650488,666.185348,1915.238745,10214.842000
895.650817,-370.102971,1838.629195,10436.903782
895.651147,-962.267725,1378.971896,10288.862594
895.651476,-2072.576638,1378.971896,10436.903782
895.651805,-2590.720797,689.485948,10214.842000
895.652135,-2368.659014,0.000000,9918.759623
895.652464,-2886.803174,-153.219100,9104.533087
895.652794,-2812.782580,0.000000,7994.224174
895.653123,-2516.700203,-229.828649,7550.100608
895.653452,-1702.473667,-612.876398,7105.977043
895.653782,-666.185348,-306.438199,7179.997637
895.654111,0.000000,536.266849,7550.100608
895.654440,370.102971,1225.752797,8068.244768
895.654770,740.205942,2298.286494,8882.471304
895.655099,814.226536,2681.334243,9622.677246
895.655428,814.226536,2604.724693,10955.047942
895.655758,-148.041188,2911.162892,11547.212695
895.656087,-1258.350101,2834.553343,11843.295072
895.656417,-2220.617826,1762.019645,11695.253884
895.656746,-2960.823768,1685.410096,11843.295072
895.657075,-2960.823768,0.000000,11399.171507
895.657405,-2442.679609,-612.876398,10510.924376
895.657734,-2294.638420,-1072.533697,9326.594869
895.658063,-1776.494261,-1532.190996,8512.368333
895.658393,-962.267725,-766.095498,8290.306550
895.658722,-888.247130,76.609550,8586.388927
895.659051,-666.185348,995.924147,8808.450710
895.659381,-444.123565,1991.848295,9400.615463
895.659710,0.000000,2374.896044,9474.636058
895.660040,0.000000,1991.848295,9104.533087
895.660369,222.061783,1455.581446,9474.636058
895.660698,740.205942,1378.971896,9696.697840
895.661028,0.000000,1608.800546,9918.759623
895.661357,-814.226536,1455.581446,10658.965565
895.661686,-1702.473667,1838.629195,10732.986159
895.662016,-2146.597232,1685.410096,10510.924376
895.662345,-2664.741391,1225.752797,10140.821405
895.662674,-2442.679609,842.705048,9548.656652
895.663004,-2590.720797,-229.828649,8734.430116
895.663333,-2960.823768,-306.438199,7920.203579
895.663663,-3330.926739,-766.095498,6809.894666
895.663992,-2368.659014,-689.485948,7105.977043
895.664321,-1628.453072,-1072.533697,7179.997637
895.664651,-1110.308913,0.000000,7846.182985
895.664980,-370.102971,459.657299,8808.450710
895.665309,296.082377,1149.143247,8956.491898
895.665639,-148.041188,2221.676944,9844.739029
895.665968,148.041188,2681.334243,11325.150913
895.666297,-296.082377,2757.943793,11843.295072
895.666627,-1258.350101,3064.381992,12065.356855
895.666956,-2220.617826,2451.505594,11547.212695
895.667286,-2146.597232,1072.533697,10955.047942
895.667615,-2220.617826,0.000000,11251.130318
895.667944,-1554.432478,-689.485948,10881.027347
895.668274,-1702.473667,-1378.971896,9918.759623
895.668603,-1776.494261,-1685.410096,9252.574275
895.668932,-1554.432478,-689.485948,8734.430116
895.669262,-888.247130,-229.828649,8364.327145
895.669591,0.000000,689.485948,8438.347739
895.669920,296.082377,1685.410096,8734.430116
895.670250,962.267725,2374.896044,9178.553681
895.670579,740.205942,2145.067394,8882.471304
895.670909,740.205942,2757.943793,9252.574275
895.671238,1036.288319,2604.724693,9770.718434
895.671567,592.164754,2221.676944,10066.800811
895.671897,-222.061783,1991.848295,10436.903782
895.672226,-666.185348,1685.410096,10436.903782
895.672555,-1332.370696,1378.971896,10658.965565
895.672885,-2368.659014,995.924147,10658.965565
895.673214,-2516.700203,1149.143247,9992.780217
895.673543,-2294.638420,766.095498,9252.574275
895.673873,-2368.659014,76.609550,8068.244768
895.674202,-1628.453072,0.000000,6661.853478
895.674532,-1184.329507,76.609550,6587.832884
895.674861,-518.144159,76.609550,6587.832884
895.675190,222.061783,842.705048,7328.038826
895.675520,148.041188,1762.019645,7846.182985
895.675849,222.061783,2145.067394,8882.471304
895.676178,740.205942,2221.676944,9770.718434
895.676508,666.185348,2834.553343,10955.047942
895.676837,296.082377,3064.381992,11473.192101
895.677166,-1332.370696,2911.162892,11843.295072
895.677496,-2960.823768,2068.457845,11621.233289
895.677825,-3478.967927,1302.362347,11621.233289
895.678155,-4219.173869,153.219100,11621.233289
895.678484,-3849.070898,-766.095498,11325.150913
895.678813,-3775.050304,-1762.019645,10066.800811
895.679143,-3256.906145,-2068.457845,8882.471304
895.679472,-2368.659014,-2451.505594,8216.285956
895.679801,-592.164754,-1149.143247,8364.327145
895.680131,444.123565,-153.219100,8586.388927
895.680460,1184.329507,1532.190996,9104.533087
895.680789,1480.411884,2681.334243,9400.615463
895.681119,2294.638420,3217.601092,9400.615463
895.681448,2442.679609,2757.943793,10140.821405
895.681778,1924.535449,2757.943793,10288.862594
895.682107,1554.432478,2451.505594,10510.924376
895.682436,444.123565,1838.629195,10658.965565
895.682766,-1036.288319,153.219100,10436.903782
895.683095,-1998.556043,0.000000,9622.677246
895.683424,-2664.741391,-306.438199,10362.883188
895.683754,-2960.823768,-383.047749,9992.780217
895.684083,-2738.761985,-459.657299,9030.512492
895.684412,-2516.700203,0.000000,7698.141797
895.684742,-2072.576638,-76.609550,7105.977043
895.685071,-2220.617826,229.828649,6809.894666
895.685401,-1628.453072,306.438199,6883.915261
895.685730,-1036.288319,536.266849,7402.059420
895.686059,-444.123565,1149.143247,8216.285956
895.686389,-148.041188,919.314598,8660.409521
895.686718,0.000000,995.924147,9400.615463
895.687047,0.000000,1991.848295,10140.821405
895.687377,518.144159,1991.848295,11029.068536
895.687706,0.000000,1991.848295,11843.295072
895.688035,-1110.308913,2298.286494,11991.336260
895.688365,-1702.473667,1225.752797,11325.150913
895.688694,-2072.576638,76.609550,11621.233289
895.689024,-1998.556043,0.000000,11843.295072
895.689353,-1924.535449,0.000000,11251.130318
895.689682,-1850.514855,0.000000,9622.677246
895.690012,-1110.308913,-1072.533697,8512.368333
895.690341,-814.226536,-766.095498,7994.224174
895.690670,0.000000,-459.657299,7994.224174
895.691000,518.144159,306.438199,8216.285956
895.691329,666.185348,1685.410096,8660.409521
895.691658,0.000000,2528.115143,9030.512492
895.691988,0.000000,2451.505594,9622.677246
895.692317,0.000000,2451.505594,9992.780217
895.692647,0.000000,2068.457845,10584.944971
895.692976,-814.226536,1685.410096,10584.944971
895.693305,-1850.514855,2451.505594,10584.944971
895.693635,-2368.659014,1608.800546,9844.739029
895.693964,-3034.844362,306.438199,9474.636058
895.694293,-3108.864956,0.000000,9474.636058
895.694623,-3256.906145,383.047749,9178.553681
895.694952,-3404.947333,-76.609550,8216.285956
895.695281,-3256.906145,0.000000,7476.080014
895.695611,-3034.844362,-153.219100,7105.977043
895.695940,-1924.535449,-459.657299,6883.915261
895.696270,-1036.288319,-612.876398,7105.977043
895.696599,0.000000,0.000000,7994.224174
895.696928,222.061783,1532.190996,9252.574275
895.697258,148.041188,1838.629195,9474.636058
895.697587,518.144159,2451.505594,10214.842000
895.697916,1184.329507,2451.505594,11103.089130
895.698246,814.226536,2374.896044,11621.233289
895.698575,0.000000,3064.381992,11843.295072
895.698904,-1332.370696,2068.457845,11621.233289
895.699234,-2738.761985,1225.752797,11621.233289
895.699563,-3478.967927,383.047749,11473.192101
895.699893,-3330.926739,-153.219100,11399.171507
895.700222,-2738.761985,-995.924147,10362.883188
895.700551,-2368.659014,-1762.019645,9622.677246
895.700881,-2220.617826,-1608.800546,8808.450710
895.701210,-1850.514855,-766.095498,8512.368333
895.701539,-740.205942,-153.219100,8364.327145
895.701869,0.000000,689.485948,8956.491898
895.702198,888.247130,1915.238745,8882.471304
895.702527,962.267725,2451.505594,8956.491898
895.702857,1702.473667,2604.724693,9030.512492
895.703186,2146.597232,2528.115143,9622.677246
895.703516,1924.535449,2298.286494,10362.883188
895.703845,1036.288319,2298.286494,10807.006753
895.704174,0.000000,2374.896044,10658.965565
895.704504,-518.144159,1762.019645,10807.006753
895.704833,-1184.329507,1455.581446,10732.986159
895.705162,-1702.473667,1455.581446,10288.862594
895.705492,-1406.391290,919.314598,8956.491898
895.705821,-1924.535449,229.828649,7846.182985
895.706150,-2368.659014,229.828649,7105.977043
895.706480,-2294.638420,0.000000,6143.709319
895.706809,-1480.411884,-459.657299,5921.647536
895.707139,-1110.308913,306.438199,6513.812290
895.707468,-370.102971,919.314598,7328.038826
895.707797,-370.102971,842.705048,8364.327145
895.708127,-518.144159,1685.410096,9326.594869
895.708456,-666.185348,2604.724693,10584.944971
895.708785,-888.247130,2911.162892,11695.253884
895.709115,-962.267725,2834.553343,12287.418637
895.709444,-1924.535449,2528.115143,11917.315666
895.709773,-2294.638420,1838.629195,11621.233289
895.710103,-2146.597232,842.705048,11473.192101
895.710432,-1998.556043,0.000000,11177.109724
895.710761,-1332.370696,-229.828649,11103.089130
895.711091,-1406.391290,-383.047749,10140.821405
895.711420,-1332.370696,-689.485948,9326.594869
895.711750,-962.267725,-612.876398,8586.388927
895.712079,-222.061783,-383.047749,8512.368333
895.712408,0.000000,459.657299,8586.388927
895.712738,740.205942,1072.533697,9400.615463
895.713067,0.000000,1455.581446,9474.636058
895.713396,0.000000,2068.457845,9104.533087
895.713726,148.041188,1762.019645,9770.718434
895.714055,296.082377,1378.971896,10436.903782
895.714384,0.000000,1455.581446,10658.965565
895.714714,-1110.308913,1378.971896,11029.068536
895.715043,-1924.535449,1302.362347,10584.944971
895.715373,-2590.720797,995.924147,10436.903782
895.715702,-2960.823768,842.705048,10214.842000
895.716031,-2812.782580,842.705048,9400.615463
895.716361,-2442.679609,0.000000,8660.409521
895.716690,-2072.576638,-383.047749,7476.080014
895.717019,-1554.432478,-536.266849,6439.791695
895.717349,-888.247130,-536.266849,6069.688724
895.717678,0.000000,-229.828649,6217.729913
895.718007,370.102971,229.828649,7254.018232
895.718337,518.144159,1532.190996,8216.285956
895.718666,592.164754,1685.410096,9252.574275
895.718996,962.267725,2221.676944,10140.821405
895.719325,962.267725,2528.115143,11399.171507
895.719654,222.061783,1838.629195,11843.295072
895.719984,-814.226536,2068.457845,12361.439231
895.720313,-1850.514855,1302.362347,12657.521608
895.720642,-2368.659014,536.266849,12657.521608
895.720972,-2738.761985,459.657299,12139.377449
895.721301,-2294.638420,0.000000,10732.986159
895.721630,-2146.597232,-1302.362347,9400.615463
895.721960,-2072.576638,-1302.362347,8290.306550
895.722289,-1628.453072,-536.266849,7920.203579
895.722619,-962.267725,153.219100,7624.121203
895.722948,74.020594,612.876398,7624.121203
895.723277,148.041188,1378.971896,8734.430116
895.723607,0.000000,1532.190996,9474.636058
895.723936,-370.102971,2145.067394,9474.636058
895.724265,148.041188,2145.067394,9622.677246
895.724595,444.123565,1685.410096,10362.883188
895.724924,370.102971,1838.629195,10881.027347
895.725253,-814.226536,1149.143247,10955.047942
895.725583,-1554.432478,766.095498,10807.006753
895.725912,-2072.576638,689.485948,10658.965565
895.726242,-2442.679609,1532.190996,10732.986159
895.726571,-2368.659014,1685.410096,9918.759623
895.726900,-2146.597232,1225.752797,8216.285956
895.727230,-2294.638420,0.000000,7179.997637
895.727559,-2072.576638,0.000000,6513.812290
895.727889,-1628.453072,0.000000,5995.668130
895.728218,-888.247130,-612.876398,6291.750507
895.728548,-814.226536,-383.047749,7698.141797
895.728877,-1332.370696,536.266849,8586.388927
895.729207,-1480.411884,1225.752797,9400.615463
895.729536,-962.267725,1455.581446,10288.862594
895.729866,-444.123565,1762.019645,10807.006753
895.730195,-222.061783,1455.581446,11029.068536
895.730525,-888.247130,1302.362347,11991.336260
895.730854,-1554.432478,1225.752797,12509.480420
895.731184,-2516.700203,1455.581446,12361.439231
895.731513,-2812.782580,1378.971896,11843.295072
895.731843,-1628.453072,689.485948,10658.965565
895.732172,-740.205942,-766.095498,9400.615463
895.732502,-370.102971,-919.314598,7698.141797
895.732832,0.000000,-842.705048,7254.018232
895.733161,74.020594,229.828649,7550.100608
895.733491,148.041188,919.314598,8364.327145
895.733820,148.041188,2068.457845,9104.533087
895.734150,-740.205942,2451.505594,9844.739029
895.734479,-370.102971,2221.676944,10140.821405
895.734809,0.000000,1532.190996,10066.800811
895.735138,518.144159,766.095498,10510.924376
895.735468,518.144159,459.657299,11177.109724
895.735797,-962.267725,919.314598,11547.212695
895.736127,-1480.411884,1378.971896,11621.233289
895.736456,-1554.432478,1532.190996,11103.089130
895.736786,-1036.288319,1532.190996,10510.924376
895.737115,-1110.308913,1532.190996,9252.574275
895.737445,-222.061783,1378.971896,7402.059420
895.737775,-222.061783,1302.362347,6587.832884
895.738104,-666.185348,1378.971896,5995.668130
895.738434,-1480.411884,1685.410096,5477.523971
895.738763,-1850.514855,383.047749,5699.585753
895.739093,-2146.597232,-229.828649,7476.080014
895.739422,-2294.638420,689.485948,9326.594869
895.739752,-2590.720797,995.924147,9326.594869
895.740081,-1924.535449,842.705048,9622.677246
895.740411,-592.164754,689.485948,9992.780217
895.740740,222.061783,383.047749,10881.027347
895.741070,444.123565,1225.752797,11843.295072
895.741399,-666.185348,2298.286494,12657.521608
895.741729,-1332.370696,2911.162892,12657.521608
895.742058,-1628.453072,2145.067394,12139.377449
895.742388,-1184.329507,1149.143247,11251.130318
895.742717,-444.123565,229.828649,9474.636058
895.743047,-148.041188,-1225.752797,8216.285956
895.743377,0.000000,-1149.143247,7624.121203
895.743706,-814.226536,153.219100,7624.121203
895.744036,-1332.370696,0.000000,8216.285956
895.744365,-1184.329507,306.438199,8734.430116
895.744695,-1776.494261,2298.286494,9844.739029
895.745024,-1258.350101,2681.334243,10140.821405
895.745354,-666.185348,1915.238745,10214.842000
895.745683,0.000000,1225.752797,10140.821405
895.746013,-148.041188,1225.752797,9918.759623
895.746342,-888.247130,306.438199,11177.109724
895.746672,-1554.432478,689.485948,11621.233289
895.747001,-2368.659014,919.314598,11177.109724
895.747331,-2442.679609,536.266849,10510.924376
895.747660,-1924.535449,919.314598,9400.615463
895.747990,-592.164754,766.095498,9104.533087
895.748320,0.000000,229.828649,7772.162391
895.748649,-444.123565,919.314598,6809.894666
895.748979,-888.247130,1302.362347,6217.729913
895.749308,-444.123565,689.485948,6217.729913
895.749638,-296.082377,459.657299,6513.812290
895.749967,-296.082377,766.095498,7624.121203
895.750297,-444.123565,1072.533697,8216.285956
895.750626,0.000000,689.485948,9030.512492
895.750956,0.000000,1532.190996,9918.759623
895.751285,0.000000,1762.019645,10362.883188
895.751615,-444.123565,1532.190996,11621.233289
895.751944,-1924.535449,1455.581446,12435.459826
895.752274,-2812.782580,1302.362347,13175.665768
895.752603,-3627.009116,1378.971896,12953.603985
895.752933,-3775.050304,536.266849,12139.377449
895.753263,-2368.659014,-612.876398,10214.842000
895.753592,-1480.411884,-1532.190996,8956.491898
895.753922,-814.226536,-1685.410096,7698.141797
895.754251,0.000000,-1302.362347,7105.977043
895.754581,1036.288319,-229.828649,7328.038826
895.754910,888.247130,1378.971896,8290.306550
895.755240,518.144159,2374.896044,9548.656652
895.755569,370.102971,3140.991542,10288.862594
895.755899,518.144159,3294.210641,10214.842000
895.756228,1036.288319,2528.115143,10066.800811
895.756558,1184.329507,1302.362347,10510.924376
895.756887,296.082377,919.314598,11103.089130
895.757217,-1258.350101,536.266849,11547.212695
895.757546,-2442.679609,842.705048,11399.171507
895.757876,-2886.803174,689.485948,10955.047942
895.758206,-3330.926739,919.314598,10214.842000
895.758535,-2516.700203,459.657299,9178.553681
895.758865,-2590.720797,0.000000,7550.100608
895.759194,-2146.597232,-459.657299,6661.853478
895.759524,-2146.597232,383.047749,5847.626942
895.759853,-2220.617826,229.828649,5551.544565
895.760183,-1554.432478,0.000000,5625.565159
895.760512,-1184.329507,-229.828649,7179.997637
895.760842,-1184.329507,689.485948,8586.388927
895.761171,-1258.350101,1455.581446,9326.594869
895.761501,-814.226536,1685.410096,9770.718434
895.761830,0.000000,2221.676944,10584.944971
895.762160,-296.082377,1762.019645,11399.171507
895.762489,-666.185348,2298.286494,12213.398043
895.762819,-1702.473667,2221.676944,11843.295072
895.763148,-2516.700203,1762.019645,11769.274478
895.763478,-2738.761985,612.876398,11917.315666
895.763808,-2368.659014,-306.438199,11769.274478
895.764137,-2368.659014,-689.485948,10881.027347
895.764467,-2368.659014,-1838.629195,8956.491898
895.764796,-2072.576638,-2374.896044,7698.141797
895.765126,-1184.329507,-1532.190996,7328.038826
895.765455,0.000000,-1072.533697,7994.224174
895.765785,444.123565,153.219100,8660.409521
895.766114,444.123565,2068.457845,9548.656652
895.766444,740.205942,3753.867940,10214.842000
895.766773,1480.411884,3140.991542,10732.986159
895.767103,1776.494261,3217.601092,10955.047942
895.767432,1258.350101,2528.115143,11103.089130
895.767762,222.061783,1532.190996,11769.274478
895.768091,-1258.350101,1838.629195,11843.295072
895.768421,-2442.679609,1072.533697,11547.212695
895.768751,-3108.864956,459.657299,10807.006753
895.769080,-2812.782580,229.828649,9696.697840
895.769410,-2368.659014,76.609550,7994.224174
895.769739,-1554.432478,-536.266849,6661.853478
895.770069,-814.226536,76.609550,5403.503377
895.770398,-518.144159,766.095498,4663.297435
895.770728,370.102971,766.095498,5255.462188
895.771057,518.144159,1378.971896,6661.853478
895.771387,148.041188,2374.896044,7772.162391
895.771716,0.000000,2451.505594,8882.471304
895.772046,0.000000,2298.286494,9622.677246
895.772375,0.000000,2528.115143,10288.862594
895.772705,0.000000,1991.848295,11473.192101
895.773034,-1036.288319,1915.238745,11843.295072
895.773364,-2368.659014,2221.676944,12065.356855
895.773694,-2960.823768,1302.362347,12287.418637
895.774023,-3034.844362,153.219100,12361.439231
895.774353,-3330.926739,1149.143247,12213.398043
895.774682,-2442.679609,612.876398,10362.883188
895.775012,-2072.576638,-995.924147,8660.409521
895.775341,-1258.350101,-1378.971896,8068.244768
895.775671,-888.247130,-383.047749,7624.121203
895.776000,-1184.329507,306.438199,7846.182985
895.776330,-1184.329507,919.314598,8808.450710
895.776659,-888.247130,2068.457845,9844.739029
895.776989,-222.061783,2145.067394,10584.944971
895.777318,666.185348,1991.848295,10732.986159
895.777648,1332.370696,2604.724693,10066.800811
895.777977,1480.411884,1685.410096,10658.965565
895.778307,888.247130,1915.238745,10881.027347
895.778636,0.000000,1455.581446,11547.212695
895.778966,-1258.350101,1072.533697,11695.253884
895.779296,-2220.617826,919.314598,10955.047942
895.779625,-2664.741391,1302.362347,9696.697840
895.779955,-2294.638420,383.047749,8808.450710
895.780284,-1850.514855,-1149.143247,7476.080014
895.780614,-1924.535449,-766.095498,6143.709319
895.780943,-1998.556043,-383.047749,5329.482782
895.781273,-1480.411884,0.000000,5255.462188
895.781602,-1258.350101,536.266849,6439.791695
895.781932,-1036.288319,995.924147,7698.141797
895.782261,-962.267725,1455.581446,8660.409521
895.782591,-740.205942,2681.334243,9178.553681
895.782920,-296.082377,2451.505594,9696.697840
895.783250,-222.061783,2451.505594,10807.006753
895.783579,-444.123565,1915.238745,11251.130318
895.783909,-1406.391290,1455.581446,11473.192101
895.784239,-2146.597232,459.657299,11843.295072
895.784568,-2516.700203,306.438199,12509.480420
895.784898,-2442.679609,459.657299,12953.603985
895.785227,-2516.700203,-153.219100,11325.150913
895.785557,-1332.370696,-919.314598,9844.739029
895.785886,-222.061783,-766.095498,8586.388927
895.786216,1184.329507,-1225.752797,7772.162391
895.786545,1036.288319,0.000000,7846.182985
895.786875,518.144159,1225.752797,8364.327145
895.787204,370.102971,2298.286494,9400.615463
895.787534,370.102971,2374.896044,10436.903782
895.787863,222.061783,2374.896044,10881.027347
895.788193,518.144159,2451.505594,10732.986159
895.788522,370.102971,1762.019645,10732.986159
895.788852,-592.164754,1378.971896,11177.109724
895.789182,-1480.411884,1532.190996,11843.295072
895.789511,-2738.761985,1302.362347,11547.212695
895.789841,-3404.947333,1149.143247,10584.944971
895.790170,-4071.132681,1378.971896,9770.718434
895.790500,-3404.947333,1072.533697,8734.430116
895.790829,-2664.741391,-306.438199,7105.977043
895.791159,-2368.659014,-383.047749,6365.771101
895.791488,-2146.597232,306.438199,5847.626942
895.791818,-2072.576638,383.047749,5773.606348
895.792147,-1554.432478,612.876398,6587.832884
895.792477,-740.205942,1072.533697,7105.977043
895.792806,-222.061783,1302.362347,8068.244768
895.793136,74.020594,1608.800546,8808.450710
895.793465,518.144159,2374.896044,9844.739029
895.793795,370.102971,2604.724693,10436.903782
895.794124,148.041188,2374.896044,11029.068536
895.794454,-1036.288319,2374.896044,11473.192101
895.794784,-1702.473667,1608.800546,11547.212695
895.795113,-2442.679609,459.657299,11621.233289
895.795443,-3034.844362,612.876398,11621.233289
895.795772,-3552.988522,-153.219100,11029.068536
895.796102,-2886.803174,-1302.362347,9918.759623
895.796431,-1924.535449,-1762.019645,8660.409521
895.796761,-1406.391290,-1915.238745,8290.306550
895.797090,-518.144159,-995.924147,8142.265362
895.797420,-370.102971,-459.657299,8586.388927
895.797749,0.000000,536.266849,9400.615463
895.798079,296.082377,1455.581446,10584.944971
895.798408,518.144159,2757.943793,11325.150913
895.798738,888.247130,2221.676944,11251.130318
895.799067,1332.370696,1455.581446,11547.212695
895.799397,1406.391290,919.314598,11621.233289
895.799727,888.247130,536.266849,11843.295072
895.800056,74.020594,1225.752797,11769.274478
895.800386,-592.164754,1225.752797,11103.089130
895.800715,-1406.391290,919.314598,9770.718434
895.801045,-1036.288319,1685.410096,8882.471304
895.801374,-740.205942,1149.143247,7550.100608
895.801704,-1332.370696,306.438199,5921.647536
895.802033,-2072.576638,612.876398,5477.523971
895.802363,-2812.782580,459.657299,6439.791695
895.802692,-3108.864956,229.828649,7031.956449
895.803022,-3330.926739,766.095498,7772.162391
895.803351,-2960.823768,1225.752797,8216.285956
895.803681,-1702.473667,1225.752797,8586.388927
895.804010,-370.102971,153.219100,8808.450710
895.804340,814.226536,1762.019645,9474.636058
895.804670,814.226536,2068.457845,10362.883188
895.804999,444.123565,2528.115143,11473.192101
895.805329,-1184.329507,3447.429741,11843.295072
895.805658,-1776.494261,2757.943793,11843.295072
895.805988,-2442.679609,1838.629195,11399.171507
895.806317,-2220.617826,919.314598,10955.047942
895.806647,-1406.391290,0.000000,9992.780217
895.806976,-1036.288319,-995.924147,8512.368333
895.807306,-1036.288319,-1685.410096,7772.162391
895.807635,-1036.288319,-689.485948,8142.265362
895.807965,-1110.308913,689.485948,9178.553681
895.808294,-1110.308913,2145.067394,9474.636058
895.808624,-888.247130,2604.724693,10436.903782
895.808953,-666.185348,3294.210641,10955.047942
895.809283,-518.144159,2528.115143,10214.842000
895.809613,0.000000,1608.800546,10807.006753
895.809942,-148.041188,1302.362347,11103.089130
895.810272,-666.185348,1072.533697,11177.109724
895.810601,-1332.370696,919.314598,10955.047942
895.810931,-1998.556043,766.095498,10658.965565
895.811260,-1998.556043,383.047749,9918.759623
895.811590,-1554.432478,919.314598,9474.636058
895.811919,-888.247130,1455.581446,8586.388927
895.812249,-444.123565,919.314598,7624.121203
895.812578,-444.123565,612.876398,6661.853478
895.812908,-1184.329507,689.485948,6069.688724
895.813237,-814.226536,995.924147,6587.832884
895.813567,-518.144159,842.705048,7105.977043
895.813896,-666.185348,919.314598,7772.162391
895.814226,-370.102971,919.314598,8290.306550
895.814555,-296.082377,919.314598,8808.450710
895.814885,-148.041188,1225.752797,9918.759623
895.815215,0.000000,1838.629195,11029.068536
895.815544,-296.082377,1838.629195,11399.171507
895.815874,-1258.350101,1762.019645,11547.212695
895.816203,-1628.453072,1225.752797,11917.315666
895.816533,-2590.720797,766.095498,11399.171507
895.816862,-2664.741391,306.438199,11103.089130
895.817192,-2220.617826,-459.657299,9992.780217
895.817521,-1554.432478,-1455.581446,8956.491898
895.817851,-1036.288319,-1838.629195,8068.244768
895.818180,-666.185348,-766.095498,8290.306550
895.818510,-444.123565,229.828649,9104.533087
895.818839,0.000000,842.705048,9548.656652
895.819169,-296.082377,1915.238745,10510.924376
895.819498,-222.061783,2911.162892,10658.965565
895.819828,444.123565,2757.943793,10658.965565
895.820158,518.144159,1991.848295,10807.006753
895.820487,740.205942,1762.019645,10584.944971
895.820817,666.185348,459.657299,10732.986159
895.821146,0.000000,229.828649,10955.047942
895.821476,-1406.391290,766.095498,10732.986159
895.821805,-2442.679609,689.485948,10362.883188
895.822135,-2664.741391,919.314598,10288.862594
895.822464,-2146.597232,1225.752797,9474.636058
895.822794,-1998.556043,919.314598,7920.203579
895.823123,-1924.535449,0.000000,6957.935855
895.823453,-1406.391290,76.609550,5921.647536
895.823782,-2294.638420,919.314598,6143.709319
895.824112,-2294.638420,995.924147,6217.729913
895.824441,-1776.494261,383.047749,7179.997637
895.824771,-1554.432478,1378.971896,7772.162391
895.825101,-1554.432478,1378.971896,8364.327145
895.825430,-1110.308913,1685.410096,9178.553681
895.825760,-518.144159,2221.676944,9770.718434
895.826089,-296.082377,2528.115143,10510.924376
895.826419,-888.247130,2221.676944,10658.965565
895.826748,-1406.391290,2604.724693,10362.883188
895.827078,-2146.597232,842.705048,11029.068536
895.827407,-2664.741391,306.438199,11843.295072
895.827737,-2960.823768,0.000000,11991.336260
895.828066,-2960.823768,-612.876398,10510.924376
895.828396,-2294.638420,-1762.019645,9400.615463
895.828725,-1480.411884,-1838.629195,8734.430116
895.829055,-666.185348,-1225.752797,8808.450710
895.829384,0.000000,-459.657299,8882.471304
895.829714,592.164754,612.876398,9474.636058
895.830044,444.123565,2451.505594,10140.821405
895.830373,1406.391290,2528.115143,10807.006753
895.830703,1258.350101,2604.724693,10807.006753
895.831032,1406.391290,1991.848295,10362.883188
895.831362,1480.411884,1149.143247,10807.006753
895.831691,296.082377,689.485948,11177.109724
895.832021,-962.267725,1455.581446,11695.253884
895.832350,-1924.535449,0.000000,11399.171507
895.832680,-2738.761985,76.609550,11251.130318
895.833009,-2886.803174,689.485948,10140.821405
895.833339,-1850.514855,689.485948,8882.471304
895.833668,-1406.391290,-383.047749,7179.997637
895.833998,-962.267725,0.000000,5847.626942
895.834328,-666.185348,919.314598,5847.626942
895.834657,-444.123565,1072.533697,5699.585753
895.834987,-370.102971,1072.533697,6217.729913
895.835316,-296.082377,1608.800546,7105.977043
895.835646,-740.205942,1225.752797,7994.224174
895.835975,-888.247130,1685.410096,8882.471304
895.836305,-592.164754,2145.067394,9622.677246
895.836634,0.000000,1685.410096,10510.924376
895.836964,-370.102971,1838.629195,11177.109724
895.837293,-1554.432478,2374.896044,10362.883188
895.837623,-1776.494261,1072.533697,11325.150913
895.837953,-2220.617826,536.266849,12287.418637
895.838282,-3108.864956,1532.190996,12805.562797
895.838612,-3404.947333,842.705048,11769.274478
895.838941,-2442.679609,0.000000,9770.718434
895.839271,-1554.432478,-1149.143247,8660.409521
895.839600,-740.205942,-1532.190996,7476.080014
895.839930,0.000000,-1149.143247,7698.141797
895.840259,296.082377,459.657299,7994.224174
895.840589,148.041188,2374.896044,9252.574275
895.840918,444.123565,3217.601092,10140.821405
895.841248,592.164754,3294.210641,10510.924376
895.841578,1258.350101,3447.429741,11029.068536
895.841907,1628.453072,2681.334243,11029.068536
895.842237,666.185348,2068.457845,11029.068536
895.842566,-518.144159,1608.800546,11769.274478
895.842896,-2442.679609,842.705048,11917.315666
895.843225,-3849.070898,459.657299,11769.274478
895.843555,-4663.297435,1149.143247,10955.047942
895.843884,-3552.988522,919.314598,9474.636058
895.844214,-2368.659014,-919.314598,6957.935855
895.844543,-1184.329507,-1225.752797,5329.482782
895.844873,-666.185348,-306.438199,4885.359217
895.845203,-222.061783,995.924147,5477.523971
895.845532,74.020594,1915.238745,5921.647536
895.845862,222.061783,1991.848295,6883.915261
895.846191,-444.123565,2221.676944,7624.121203
895.846521,0.000000,1608.800546,8660.409521
895.846850,222.061783,1838.629195,9622.677246
895.847180,296.082377,1915.238745,10584.944971
895.847509,0.000000,1532.190996,11029.068536
895.847839,-814.226536,919.314598,11621.233289
895.848168,-1776.494261,306.438199,12065.356855
895.848498,-2516.700203,459.657299,12953.603985
895.848828,-3330.926739,1225.752797,12879.583391
895.849157,-3330.926739,612.876398,11621.233289
895.849487,-2590.720797,-306.438199,9548.656652
895.849816,-888.247130,-1532.190996,8438.347739
895.850146,-148.041188,-1608.800546,7402.059420
895.850475,74.020594,-1072.533697,7179.997637
895.850805,-148.041188,0.000000,7328.038826
895.851134,0.000000,1072.533697,8586.388927
895.851464,222.061783,1378.971896,9918.759623
895.851793,666.185348,1991.848295,11029.068536
895.852123,814.226536,2451.505594,11473.192101
895.852453,1332.370696,2145.067394,11917.315666
895.852782,814.226536,1685.410096,12065.356855
895.853112,0.000000,1762.019645,11991.336260
895.853441,-1332.370696,1455.581446,12435.459826
895.853771,-2220.617826,1455.581446,11769.274478
895.854100,-2442.679609,1378.971896,10955.047942
895.854430,-2220.617826,1072.533697,9400.615463
895.854759,-1702.473667,536.266849,7179.997637
895.855089,-1036.288319,-995.924147,5995.668130
895.855418,-1332.370696,0.000000,5551.544565
895.855748,-1480.411884,995.924147,5773.606348
895.856078,-1702.473667,1378.971896,5773.606348
895.856407,-1036.288319,1455.581446,5995.668130
895.856737,-888.247130,1302.362347,6957.935855
895.857066,-518.144159,1378.971896,7772.162391
895.857396,-296.082377,1685.410096,8882.471304
895.857725,-296.082377,2374.896044,9844.739029
895.858055,-814.226536,2221.676944,10584.944971
895.858384,-1332.370696,1915.238745,11399.171507
895.858714,-2294.638420,1378.971896,12065.356855
895.859043,-2812.782580,1149.143247,12731.542202
895.859373,-3478.967927,1149.143247,12805.562797
895.859703,-3849.070898,1225.752797,11843.295072
895.860032,-3034.844362,689.485948,10288.862594
895.860362,-1480.411884,-1762.019645,8660.409521
895.860691,-814.226536,-1685.410096,7772.162391
895.861021,-444.123565,-689.485948,7254.018232
895.861350,-296.082377,0.000000,7402.059420
895.861680,0.000000,153.219100,8438.347739
895.862009,0.000000,1685.410096,9252.574275
895.862339,-222.061783,1838.629195,10732.986159
895.862668,296.082377,1685.410096,11251.130318
895.862998,888.247130,1532.190996,11843.295072
895.863327,888.247130,1072.533697,11917.315666
895.863657,740.205942,612.876398,12213.398043
895.863987,-666.185348,919.314598,12287.418637
895.864316,-1406.391290,1302.362347,11917.315666
895.864646,-1924.535449,1608.800546,11103.089130
895.864975,-1850.514855,2068.457845,9696.697840
895.865305,-1480.411884,1225.752797,7994.224174
895.865634,-1480.411884,0.000000,6217.729913
895.865964,-1924.535449,-383.047749,5773.606348
895.866293,-2516.700203,0.000000,6365.771101
895.866623,-3108.864956,153.219100,6883.915261
895.866952,-2664.741391,383.047749,7254.018232
895.867282,-2294.638420,-153.219100,7328.038826
895.867612,-1110.308913,0.000000,7994.224174
895.867941,148.041188,0.000000,8142.265362
895.868271,1702.473667,612.876398,9104.533087
895.868600,1998.556043,1378.971896,10362.883188
895.868930,1776.494261,2604.724693,11769.274478
895.869259,296.082377,3447.429741,12361.439231
895.869589,-666.185348,3064.381992,12583.501014
895.869918,-1184.329507,2451.505594,12213.398043
895.870248,-1332.370696,1838.629195,11843.295072
895.870577,-666.185348,689.485948,11029.068536
895.870907,-1036.288319,-536.266849,8882.471304
895.871237,-1036.288319,-1532.190996,7994.224174
895.871566,-1628.453072,-919.314598,7846.182985
895.871896,-1924.535449,0.000000,8364.327145
895.872225,-2072.576638,1072.533697,8438.347739
895.872555,-1406.391290,1532.190996,9030.512492
895.872884,-1554.432478,2298.286494,9844.739029
895.873214,-1184.329507,2068.457845,9992.780217
895.873543,-296.082377,1838.629195,10362.883188
895.873873,0.000000,1762.019645,10658.965565
895.874202,-296.082377,1225.752797,11251.130318
895.874532,-1184.329507,1225.752797,11399.171507
895.874862,-1554.432478,1072.533697,11843.295072
895.875191,-1850.514855,1225.752797,11695.253884
895.875521,-1924.535449,1685.410096,11029.068536
895.875850,-962.267725,2068.457845,9252.574275
895.876180,-666.185348,842.705048,7846.182985
895.876509,-592.164754,383.047749,6809.894666
895.876839,-740.205942,1225.752797,6143.709319
895.877168,-666.185348,1685.410096,6291.750507
895.877498,-592.164754,1149.143247,5847.626942
895.877827,-814.226536,1072.533697,6143.709319
895.878157,-592.164754,995.924147,7550.100608
895.878487,-444.123565,842.705048,8734.430116
895.878816,-444.123565,1378.971896,9326.594869
895.879146,-592.164754,2145.067394,9770.718434
895.879475,-740.205942,1455.581446,11251.130318
895.879805,-1406.391290,612.876398,11991.336260
895.880134,-2590.720797,1455.581446,12805.562797
895.880464,-3552.988522,1532.190996,12435.459826
895.880793,-3404.947333,1302.362347,11843.295072
895.881123,-2442.679609,766.095498,10807.006753
895.881452,-740.205942,-612.876398,9400.615463
895.881782,-296.082377,-1532.190996,8142.265362
895.882112,0.000000,-1072.533697,7698.141797
895.882441,74.020594,229.828649,8068.244768
895.882771,222.061783,1072.533697,8142.265362
895.883100,-148.041188,1149.143247,9104.533087
895.883430,0.000000,1149.143247,10288.862594
895.883759,0.000000,1532.190996,10955.047942
895.884089,518.144159,1455.581446,11473.192101
895.884418,888.247130,1225.752797,11251.130318
895.884748,666.185348,536.266849,11029.068536
895.885077,0.000000,0.000000,11695.253884
895.885407,-888.247130,536.266849,11695.253884
895.885737,-1480.411884,842.705048,11399.171507
895.886066,-1702.473667,1302.362347,10436.903782
895.886396,-1924.535449,1225.752797,9252.574275
895.886725,-1332.370696,612.876398,7698.141797
895.887055,-740.205942,0.000000,6957.935855
895.887384,-888.247130,153.219100,6587.832884
895.887714,-1554.432478,766.095498,6365.771101
895.888043,-2368.659014,766.095498,6809.894666
895.888373,-1702.473667,1072.533697,7624.121203
895.888702,-2146.597232,1225.752797,8438.347739
895.889032,-1628.453072,1149.143247,8660.409521
895.889362,-888.247130,1072.533697,8734.430116
895.889691,-370.102971,1532.190996,9326.594869
895.890021,0.000000,1149.143247,9992.780217
895.890350,-962.267725,1532.190996,10658.965565
895.890680,-1776.494261,2068.457845,11473.192101
895.891009,-2516.700203,1838.629195,11769.274478
895.891339,-2664.741391,1762.019645,11473.192101
895.891668,-2072.576638,1149.143247,10955.047942
895.891998,-1480.411884,153.219100,10140.821405
895.892327,-1110.308913,-689.485948,8956.491898
895.892657,-1258.350101,-919.314598,8438.347739
895.892987,-1480.411884,0.000000,8586.388927
895.893316,-1406.391290,536.266849,8290.306550
895.893646,-444.123565,689.485948,9104.533087
895.893975,-296.082377,1762.019645,9548.656652
895.894305,0.000000,1302.362347,9992.780217
895.894634,444.123565,1838.629195,9918.759623
895.894964,296.082377,1685.410096,9992.780217
895.895293,222.061783,1608.800546,11251.130318
895.895623,-888.247130,1378.971896,11325.150913
895.895952,-1998.556043,1225.752797,11399.171507
895.896282,-2664.741391,612.876398,11399.171507
895.896611,-2886.803174,153.219100,11325.150913
895.896941,-2368.659014,229.828649,10214.842000
895.897271,-1480.411884,0.000000,8956.491898
895.897600,-1258.350101,-842.705048,7550.100608
895.897930,-1036.288319,-153.219100,6809.894666
895.898259,-1036.288319,536.266849,6513.812290
895.898589,-814.226536,766.095498,6291.750507
895.898918,-814.226536,689.485948,6587.832884
895.899248,-148.041188,1532.190996,7846.182985
895.899577,0.000000,1532.190996,8882.471304
895.899907,0.000000,1302.362347,9252.574275
895.900236,0.000000,2298.286494,9474.636058
895.900566,296.082377,1991.848295,10066.800811
895.900896,0.000000,842.705048,10510.924376
895.901225,-814.226536,842.705048,11547.212695
895.901555,-1924.535449,919.314598,12361.439231
895.901884,-2812.782580,612.876398,12435.459826
895.902214,-3627.009116,1302.362347,11843.295072
895.902543,-2738.761985,383.047749,10807.006753
895.902873,-1850.514855,-1072.533697,9622.677246
895.903202,-1258.350101,-1225.752797,8290.306550
895.903532,-740.205942,-612.876398,7772.162391
895.903861,-370.102971,766.095498,7772.162391
895.904191,148.041188,1455.581446,8290.306550
895.904521,148.041188,2145.067394,9400.615463
895.904850,444.123565,2834.553343,9992.780217
895.905180,444.123565,2451.505594,10066.800811
895.905509,592.164754,2221.676944,9770.718434
895.905839,518.144159,2221.676944,10066.800811
895.906168,370.102971,1378.971896,10658.965565
895.906498,-814.226536,1149.143247,11177.109724
895.906827,-1924.535449,1149.143247,11695.253884
895.907157,-2516.700203,1149.143247,11621.233289
895.907486,-2960.823768,1608.800546,10584.944971
895.907816,-2516.700203,689.485948,9400.615463
895.908146,-1702.473667,0.000000,8142.265362
895.908475,-888.247130,-459.657299,6883.915261
895.908805,-814.226536,842.705048,6291.750507
895.909134,-592.164754,1608.800546,5921.647536
895.909464,-592.164754,1225.752797,6143.709319
895.909793,-592.164754,1608.800546,7179.997637
895.910123,-666.185348,2068.457845,7994.224174
895.910452,-444.123565,1685.410096,9030.512492
895.910782,-518.144159,1685.410096,9770.718434
895.911111,-370.102971,2374.896044,10140.821405
895.911441,-888.247130,1838.629195,10807.006753
895.911771,-1628.453072,1532.190996,11251.130318
895.912100,-2368.659014,1762.019645,11251.130318
895.912430,-3034.844362,995.924147,11917.315666
895.912759,-2812.782580,842.705048,11991.336260
895.913089,-3478.967927,612.876398,11177.109724
895.913418,-2442.679609,-842.705048,9770.718434
895.913748,-1332.370696,-1455.581446,8734.430116
895.914077,-814.226536,-1149.143247,8290.306550
895.914407,-296.082377,-536.266849,8068.244768
895.914736,296.082377,-383.047749,8216.285956
895.915066,74.020594,1225.752797,8512.368333
895.915396,666.185348,2374.896044,9474.636058
895.915725,1184.329507,1915.238745,10658.965565
895.916055,1110.308913,2374.896044,10510.924376
895.916384,814.226536,2451.505594,10362.883188
895.916714,148.041188,1455.581446,11325.150913
895.917043,-592.164754,1455.581446,11917.315666
895.917373,-1702.473667,1455.581446,11991.336260
895.917702,-2516.700203,459.657299,11399.171507
895.918032,-2368.659014,229.828649,10214.842000
895.918361,-2294.638420,0.000000,9104.533087
895.918691,-1480.411884,-536.266849,7772.162391
895.919021,-962.267725,-689.485948,7105.977043
895.919350,-1480.411884,459.657299,6513.812290
895.919680,-1036.288319,1225.752797,6291.750507
895.920009,-222.061783,1455.581446,5921.647536
895.920339,-222.061783,1302.362347,6587.832884
895.920668,0.000000,1532.190996,7550.100608
895.920998,0.000000,1685.410096,8586.388927
895.921327,-296.082377,1455.581446,9326.594869
895.921657,-666.185348,2068.457845,10955.047942
895.921986,-1110.308913,2145.067394,11621.233289
895.922316,-1776.494261,1762.019645,12287.418637
895.922646,-2738.761985,1532.190996,12361.439231
895.922975,-3034.844362,919.314598,12139.377449
895.923305,-2960.823768,229.828649,11547.212695
895.923634,-2812.782580,153.219100,10955.047942
895.923964,-2590.720797,-383.047749,9474.636058
895.924293,-1850.514855,-1302.362347,8512.368333
895.924623,-1184.329507,-1302.362347,7698.141797
895.924952,-814.226536,-229.828649,7402.059420
895.925282,-444.123565,153.219100,8216.285956
895.925611,-444.123565,766.095498,9178.553681
895.925941,-296.082377,1532.190996,10214.842000
895.926270,0.000000,2374.896044,10955.047942
895.926600,222.061783,2451.505594,10732.986159
895.926930,888.247130,2221.676944,10955.047942
895.927259,888.247130,1225.752797,11177.109724
895.927589,296.082377,1225.752797,11177.109724
895.927918,-888.247130,1532.190996,10658.965565
895.928248,-1776.494261,1455.581446,10214.842000
895.928577,-2590.720797,995.924147,9844.739029
895.928907,-2664.741391,1302.362347,9252.574275
895.929236,-2664.741391,612.876398,7772.162391
895.929566,-2368.659014,-459.657299,7105.977043
895.929895,-2590.720797,-995.924147,7179.997637
895.930225,-2812.782580,76.609550,7698.141797
895.930555,-2812.782580,76.609550,7698.141797
895.930884,-1776.494261,-229.828649,7328.038826
895.931214,-222.061783,229.828649,7698.141797
895.931543,592.164754,1225.752797,7994.224174
895.931873,1776.494261,1149.143247,8512.368333
895.932202,2146.597232,1838.629195,9474.636058
895.932532,1776.494261,3064.381992,10955.047942
895.932861,814.226536,3370.820191,11843.295072
895.933191,-296.082377,2757.943793,12435.459826
895.933521,-1258.350101,1991.848295,11991.336260
895.933850,-2072.576638,1149.143247,11843.295072
895.934180,-2146.597232,153.219100,11473.192101
895.934509,-2146.597232,-229.828649,10584.944971
895.934839,-2220.617826,-1149.143247,9178.553681
895.935168,-2368.659014,-1532.190996,8290.306550
895.935498,-2146.597232,-536.266849,7772.162391
895.935828,-1480.411884,0.000000,8068.244768
895.936157,-1110.308913,919.314598,8438.347739
895.936487,-1110.308913,1915.238745,8882.471304
895.936816,-814.226536,2451.505594,9918.759623
895.937146,0.000000,2451.505594,10288.862594
895.937476,518.144159,2528.115143,10658.965565
895.937805,518.144159,2068.457845,10214.842000
895.938135,222.061783,1149.143247,10584.944971
895.938464,-370.102971,1378.971896,10732.986159
895.938794,-814.226536,1532.190996,11177.109724
895.939124,-1036.288319,1608.800546,11177.109724
895.939453,-1258.350101,1532.190996,10362.883188
895.939783,-1628.453072,1685.410096,9252.574275
895.940112,-1258.350101,842.705048,7994.224174
895.940442,-1184.329507,229.828649,7105.977043
895.940771,-1628.453072,306.438199,6439.791695
895.941101,-1776.494261,1149.143247,6439.791695
895.941431,-1554.432478,306.438199,6217.729913
895.941760,-1184.329507,0.000000,7328.038826
895.942090,-1110.308913,919.314598,8216.285956
895.942419,-962.267725,1378.971896,8438.347739
895.942749,-740.205942,2068.457845,9178.553681
895.943079,-444.123565,2604.724693,10140.821405
895.943408,-296.082377,2528.115143,11029.068536
895.943738,-740.205942,2528.115143,11621.233289
895.944067,-2294.638420,2528.115143,11621.233289
895.944397,-3034.844362,1991.848295,10955.047942
895.944727,-3404.947333,459.657299,11325.150913
895.945056,-2960.823768,-766.095498,11621.233289
895.945386,-2368.659014,-1302.362347,10955.047942
895.945715,-2368.659014,-1915.238745,9770.718434
895.946045,-1924.535449,-1378.971896,8660.409521
895.946374,-1110.308913,-306.438199,8660.409521
895.946704,148.041188,0.000000,8660.409521
895.947034,1110.308913,919.314598,8882.471304
895.947363,1480.411884,1991.848295,9252.574275
895.947693,1998.556043,2451.505594,9548.656652
895.948022,2220.617826,2298.286494,9918.759623
895.948352,1998.556043,2298.286494,10584.944971
895.948682,962.267725,2298.286494,11251.130318
895.949011,0.000000,1532.190996,11621.233289
895.949341,-1184.329507,1072.533697,11473.192101
895.949670,-2146.597232,1072.533697,11177.109724
895.950000,-2516.700203,-153.219100,10362.883188
895.950330,-2664.741391,-306.438199,9400.615463
895.950659,-2368.659014,-229.828649,8586.388927
895.950989,-2072.576638,0.000000,7624.121203
895.951318,-2442.679609,383.047749,6883.915261
895.951648,-1924.535449,919.314598,6365.771101
895.951978,-1554.432478,766.095498,6439.791695
895.952307,-740.205942,536.266849,6735.874072
895.952637,-370.102971,919.314598,7402.059420
895.952966,-296.082377,1149.143247,7698.141797
895.953296,-296.082377,919.314598,8734.430116
895.953625,296.082377,1762.019645,9548.656652
895.953955,444.123565,1532.190996,10881.027347
895.954285,296.082377,2221.676944,11843.295072
895.954614,-740.205942,2987.772442,11991.336260
895.954944,-2146.597232,1991.848295,12435.459826
895.955273,-2442.679609,1149.143247,12731.542202
895.955603,-3108.864956,995.924147,12509.480420
895.955933,-2960.823768,459.657299,11103.089130
895.956262,-2368.659014,-995.924147,9474.636058
895.956592,-2146.597232,-2068.457845,8068.244768
895.956921,-1554.432478,-1915.238745,7402.059420
895.957251,-962.267725,-1225.752797,7772.162391
895.957581,-370.102971,76.609550,8142.265362
895.957910,-444.123565,1455.581446,9326.594869
895.958240,-592.164754,3370.820191,9992.780217
895.958569,0.000000,2987.772442,10140.821405
895.958899,296.082377,2681.334243,10436.903782
895.959228,592.164754,2068.457845,10584.944971
895.959558,0.000000,1455.581446,11177.109724
895.959888,-962.267725,1532.190996,11547.212695
895.960217,-1850.514855,76.609550,11399.171507
895.960547,-2664.741391,229.828649,10362.883188
895.960876,-2738.761985,76.609550,9622.677246
895.961206,-1924.535449,229.828649,8808.450710
895.961536,-1258.350101,0.000000,7550.100608
895.961865,-1332.370696,-459.657299,6809.894666
895.962195,-1332.370696,612.876398,5921.647536
895.962524,-888.247130,1072.533697,6143.709319
895.962854,-740.205942,995.924147,6513.812290
895.963184,-370.102971,1149.143247,7624.121203
895.963513,-592.164754,1608.800546,8512.368333
895.963843,-296.082377,1455.581446,8956.491898
895.964172,-148.041188,842.705048,9622.677246
895.964502,-222.061783,842.705048,10807.006753
895.964832,-518.144159,1302.362347,11843.295072
895.965161,-1480.411884,1302.362347,12213.398043
895.965491,-2368.659014,1072.533697,12213.398043
895.965820,-2664.741391,766.095498,12731.542202
895.966150,-2960.823768,919.314598,12509.480420
895.966479,-2442.679609,383.047749,11399.171507
895.966809,-1332.370696,-153.219100,9770.718434
895.967139,-222.061783,-1302.362347,8364.327145
895.967468,222.061783,-1225.752797,7402.059420
895.967798,666.185348,-383.047749,7698.141797
895.968127,592.164754,306.438199,8068.244768
895.968457,518.144159,1838.629195,9104.533087
895.968787,148.041188,2604.724693,9696.697840
895.969116,148.041188,2987.772442,10584.944971
895.969446,444.123565,2528.115143,10955.047942
895.969775,444.123565,2068.457845,11029.068536
895.970105,74.020594,1608.800546,10955.047942
895.970435,-666.185348,1685.410096,10658.965565
895.970764,-1332.370696,1378.971896,10436.903782
895.971094,-1998.556043,1302.362347,9992.780217
895.971423,-2220.617826,1072.533697,9326.594869
895.971753,-1998.556043,1072.533697,8660.409521
895.972082,-1702.473667,919.314598,7476.080014
895.972412,-1998.556043,459.657299,6217.729913
895.972742,-2072.576638,842.705048,6143.709319
895.973071,-1850.514855,919.314598,6291.750507
895.973401,-1776.494261,612.876398,6661.853478
895.973730,-1628.453072,842.705048,7550.100608
895.974060,-1628.453072,1685.410096,8142.265362
895.974390,-740.205942,1762.019645,9104.533087
895.974719,-296.082377,1455.581446,9474.636058
895.975049,370.102971,1685.410096,9918.759623
895.975378,296.082377,1685.410096,10881.027347
895.975708,-370.102971,1532.190996,11843.295072
895.976038,-1554.432478,2681.334243,12213.398043
895.976367,-2812.782580,1762.019645,12213.398043
895.976697,-2886.803174,1149.143247,12435.459826
895.977026,-2886.803174,229.828649,11917.315666
895.977356,-2368.659014,-689.485948,10362.883188
895.977686,-1702.473667,-1915.238745,8808.450710
895.978015,-1332.370696,-1915.238745,8364.327145
895.978345,-1036.288319,-766.095498,8364.327145
895.978674,-518.144159,0.000000,9030.512492
895.979004,0.000000,1072.533697,9474.636058
895.979333,444.123565,2604.724693,9918.759623
895.979663,444.123565,2298.286494,9770.718434
895.979993,888.247130,2068.457845,10066.800811
895.980322,1110.308913,1762.019645,10584.944971
895.980652,962.267725,1225.752797,10807.006753
895.980981,0.000000,1149.143247,11103.089130
895.981311,-888.247130,1915.238745,10584.944971
895.981641,-1480.411884,766.095498,10288.862594
895.981970,-1628.453072,306.438199,9400.615463
895.982300,-1258.350101,306.438199,8512.368333
895.982629,-740.205942,689.485948,7328.038826
895.982959,-740.205942,842.705048,6439.791695
895.983289,-444.123565,1532.190996,6143.709319
895.983618,-962.267725,1762.019645,6513.812290
895.983948,-1110.308913,1225.752797,6439.791695
895.984277,-1184.329507,689.485948,6957.935855
895.984607,-1332.370696,1072.533697,7698.141797
895.984936,-1480.411884,689.485948,8808.450710
895.985266,-1184.329507,306.438199,9474.636058
895.985596,-1036.288319,459.657299,10214.842000
895.985925,-1036.288319,766.095498,11473.192101
895.986255,-962.267725,1302.362347,12065.356855
895.986584,-1258.350101,1991.848295,12731.542202
895.986914,-1850.514855,1915.238745,12731.542202
895.987244,-2072.576638,1455.581446,12065.356855
895.987573,-1776.494261,919.314598,11621.233289
895.987903,-740.205942,229.828649,10732.986159
895.988232,-148.041188,-459.657299,9030.512492
895.988562,0.000000,-1225.752797,8586.388927
895.988892,-296.082377,0.000000,8586.388927
895.989221,-666.185348,459.657299,8734.430116
895.989551,-888.247130,995.924147,9104.533087
895.989880,-1332.370696,2068.457845,9252.574275
895.990210,-1480.411884,2757.943793,9992.780217
895.990540,-1406.391290,2068.457845,9918.759623
895.990869,-1258.350101,1302.362347,9918.759623
895.991199,-1406.391290,612.876398,10288.862594
895.991528,-2072.576638,153.219100,11029.068536
895.991858,-2442.679609,1072.533697,10510.924376
895.992187,-2442.679609,383.047749,10510.924376
895.992517,-2072.576638,153.219100,9622.677246
895.992847,-1480.411884,0.000000,8586.388927
895.993176,-518.144159,612.876398,7920.203579
895.993506,222.061783,919.314598,6809.894666
895.993835,0.000000,1149.143247,6883.915261
895.994165,-592.164754,2068.457845,6957.935855
895.994495,-888.247130,2298.286494,7031.956449
895.994824,-962.267725,1072.533697,6957.935855
895.995154,-1036.288319,1072.533697,8068.244768
895.995483,-1258.350101,689.485948,8734.430116
895.995813,-1258.350101,459.657299,9400.615463
895.996143,-1332.370696,153.219100,9844.739029
895.996472,-1258.350101,459.657299,10955.047942
895.996802,-1332.370696,766.095498,11695.253884
895.997131,-2294.638420,612.876398,11843.295072
895.997461,-2442.679609,766.095498,12213.398043
895.997790,-2368.659014,919.314598,11843.295072
895.998120,-2294.638420,459.657299,11473.192101
895.998450,-1554.432478,0.000000,10732.986159
895.998779,-740.205942,-536.266849,9770.718434
895.999109,-148.041188,-842.705048,9474.636058
895.999438,-370.102971,0.000000,9326.594869
895.999768,-296.082377,536.266849,9326.594869
896.000098,74.020594,919.314598,9400.615463
896.000427,444.123565,1762.019645,10214.842000
896.000757,740.205942,2221.676944,10436.903782
896.001086,518.144159,2374.896044,10288.862594
896.001416,666.185348,2068.457845,10066.800811
896.001746,518.144159,1685.410096,10066.800811
896.002075,296.082377,1455.581446,10584.944971
896.002405,-666.185348,1685.410096,10807.006753
896.002734,-1554.432478,1225.752797,9622.677246
896.003064,-1850.514855,995.924147,9104.533087
896.003393,-1628.453072,842.705048,8586.388927
896.003723,-1554.432478,919.314598,8068.244768
896.004053,-444.123565,536.266849,7550.100608
896.004382,-1184.329507,1149.143247,6883.915261
896.004712,-1628.453072,1838.629195,6587.832884
896.005041,-1776.494261,1762.019645,6735.874072
896.005371,-1406.391290,1455.581446,6957.935855
896.005701,-1184.329507,1302.362347,6883.915261
896.006030,-1332.370696,1762.019645,7772.162391
896.006360,-1258.350101,1302.362347,8956.491898
896.006689,-1258.350101,1225.752797,9400.615463
896.007019,-1110.308913,1608.800546,10066.800811
896.007349,-592.164754,766.095498,11251.130318
896.007678,-666.185348,1302.362347,11621.233289
896.008008,-1924.535449,1302.362347,11843.295072
896.008337,-2664.741391,766.095498,12213.398043
896.008667,-2812.782580,536.266849,12287.418637
896.008997,-2442.679609,76.609550,11917.315666
896.009326,-2220.617826,0.000000,10807.006753
896.009656,-1184.329507,-766.095498,9918.759623
896.009985,-592.164754,-766.095498,8956.491898
896.010315,-592.164754,76.609550,8808.450710
896.010644,0.000000,229.828649,9030.512492
896.010974,666.185348,1762.019645,9548.656652
896.011304,814.226536,1915.238745,9844.739029
896.011633,148.041188,2298.286494,10066.800811
896.011963,296.082377,1762.019645,9992.780217
896.012292,296.082377,1225.752797,10362.883188
896.012622,148.041188,995.924147,10436.903782
896.012952,-962.267725,1225.752797,10510.924376
896.013281,-1998.556043,842.705048,10288.862594
896.013611,-2220.617826,459.657299,10140.821405
896.013940,-1924.535449,536.266849,9770.718434
896.014270,-1924.535449,383.047749,8586.388927
896.014600,-666.185348,153.219100,7550.100608
896.014929,-444.123565,306.438199,6957.935855
896.015259,-1258.350101,919.314598,6735.874072
896.015588,-1406.391290,1455.581446,6735.874072
896.015918,-1184.329507,1225.752797,6513.812290
896.016247,-666.185348,842.705048,6587.832884
896.016577,-222.061783,1072.533697,7550.100608
896.016907,0.000000,1149.143247,8142.265362
896.017236,370.102971,995.924147,9104.533087
896.017566,222.061783,1302.362347,9770.718434
896.017895,74.020594,1991.848295,10732.986159
896.018225,0.000000,1455.581446,11843.295072
896.018555,-962.267725,1915.238745,12953.603985
896.018884,-2072.576638,1225.752797,12805.562797
896.019214,-2812.782580,995.924147,12435.459826
896.019543,-2812.782580,536.266849,11621.233289
896.019873,-1776.494261,-766.095498,11325.150913
896.020203,-1406.391290,-1302.362347,9622.677246
896.020532,-1184.329507,-1149.143247,8660.409521
896.020862,-518.144159,-459.657299,8290.306550
896.021191,148.041188,306.438199,8586.388927
896.021521,518.144159,1072.533697,9030.512492
896.021851,296.082377,2145.067394,9770.718434
896.022180,0.000000,2987.772442,10510.924376
896.022510,-370.102971,2681.334243,10436.903782
896.022839,0.000000,2221.676944,10510.924376
896.023169,-444.123565,1378.971896,10362.883188
896.023498,-1332.370696,536.266849,10510.924376
896.023828,-2516.700203,689.485948,10584.944971
896.024158,-3034.844362,842.705048,10140.821405
896.024487,-2664.741391,229.828649,9474.636058
896.024817,-2220.617826,76.609550,8586.388927
896.025146,-1702.473667,1455.581446,7476.080014
896.025476,-1110.308913,536.266849,6957.935855
896.025806,-1332.370696,766.095498,6439.791695
896.026135,-1702.473667,1532.190996,6587.832884
896.026465,-1776.494261,1608.800546,6439.791695
896.026794,-1184.329507,1915.238745,6587.832884
896.027124,-666.185348,306.438199,7254.018232
896.027454,-740.205942,383.047749,8438.347739
896.027783,-888.247130,766.095498,9400.615463
896.028113,-962.267725,1455.581446,9992.780217
896.028442,-518.144159,2374.896044,10955.047942
896.028772,-592.164754,1838.629195,11621.233289
896.029101,-1184.329507,1455.581446,12583.501014
896.029431,-2294.638420,1072.533697,12657.521608
896.029761,-2960.823768,689.485948,12287.418637
896.030090,-3256.906145,76.609550,12065.356855
896.030420,-2294.638420,-689.485948,11177.109724
896.030749,-1628.453072,-1378.971896,10066.800811
896.031079,-888.247130,-2451.505594,8734.430116
896.031409,-296.082377,-1991.848295,8364.327145
896.031738,222.061783,-306.438199,8808.450710
896.032068,1036.288319,842.705048,9178.553681
896.032397,1480.411884,2374.896044,10066.800811
896.032727,1110.308913,3447.429741,10955.047942
896.033056,1184.329507,3294.210641,11103.089130
896.033386,1406.391290,2681.334243,10881.027347
896.033715,1184.329507,1762.019645,10510.924376
896.034045,518.144159,1608.800546,10288.862594
896.034374,-444.123565,229.828649,10436.903782
896.034704,-1628.453072,383.047749,10288.862594
896.035033,-2072.576638,229.828649,9696.697840
896.035363,-2516.700203,76.609550,8956.491898
896.035693,-2442.679609,766.095498,7920.203579
896.036022,-1702.473667,919.314598,7105.977043
896.036352,-1184.329507,766.095498,6957.935855
896.036681,-1184.329507,1608.800546,6365.771101
896.037011,-1184.329507,2221.676944,5995.668130
896.037340,-962.267725,1225.752797,5699.585753
896.037670,-740.205942,842.705048,6587.832884
896.037999,-962.267725,1532.190996,7772.162391
896.038329,-962.267725,1608.800546,9030.512492
896.038658,-1036.288319,1455.581446,9474.636058
896.038988,-814.226536,1991.848295,10510.924376
896.039318,-888.247130,1685.410096,11251.130318
896.039647,-1184.329507,1225.752797,11843.295072
896.039977,-2146.597232,1685.410096,12435.459826
896.040306,-2812.782580,1915.238745,12361.439231
896.040636,-3182.885551,1149.143247,12361.439231
896.040965,-2812.782580,842.705048,11325.150913
896.041295,-1776.494261,0.000000,10140.821405
896.041624,-1406.391290,-1455.581446,8956.491898
896.041954,-962.267725,-1608.800546,8586.388927
896.042283,-1036.288319,-306.438199,8882.471304
896.042613,-962.267725,1072.533697,9252.574275
896.042942,-740.205942,689.485948,9844.739029
896.043272,-814.226536,2451.505594,10584.944971
896.043602,-296.082377,2757.943793,10881.027347
896.043931,370.102971,2374.896044,10881.027347
896.044261,888.247130,1838.629195,10362.883188
896.044590,444.123565,1838.629195,9918.759623
896.044920,0.000000,1378.971896,10214.842000
896.045249,-962.267725,1455.581446,10288.862594
896.045579,-1924.535449,1378.971896,9622.677246
896.045908,-1924.535449,1225.752797,8882.471304
896.046238,-1554.432478,612.876398,7550.100608
896.046567,-1110.308913,76.609550,7105.977043
896.046897,-814.226536,-153.219100,6809.894666
896.047227,-1184.329507,76.609550,7105.977043
896.047556,-1776.494261,995.924147,7179.997637
896.047886,-2294.638420,919.314598,6513.812290
896.048215,-1332.370696,766.095498,6957.935855
896.048545,-888.247130,612.876398,7772.162391
896.048874,-296.082377,383.047749,8586.388927
896.049204,74.020594,612.876398,9252.574275
896.049533,222.061783,1608.800546,10066.800811
896.049863,148.041188,1532.190996,10881.027347
896.050192,-148.041188,1762.019645,12139.377449
896.050522,-962.267725,2068.457845,12509.480420
896.050851,-1480.411884,1762.019645,12065.356855
896.051181,-1702.473667,1072.533697,11399.171507
896.051511,-1554.432478,536.266849,10955.047942
896.051840,-1628.453072,-306.438199,10362.883188
896.052170,-1628.453072,-919.314598,9548.656652
896.052499,-1776.494261,-1225.752797,8956.491898
896.052829,-2368.659014,-766.095498,9104.533087
896.053158,-2294.638420,-612.876398,9326.594869
896.053488,-1480.411884,-459.657299,10140.821405
896.053817,-592.164754,689.485948,11029.068536
896.054147,74.020594,1608.800546,11103.089130
896.054476,814.226536,1915.238745,10288.862594
896.054806,1628.453072,2221.676944,10066.800811
896.055136,1850.514855,1838.629195,10214.842000
896.055465,1480.411884,1915.238745,10436.903782
896.055795,296.082377,2145.067394,10658.965565
896.056124,-814.226536,2068.457845,9844.739029
896.056454,-1406.391290,1225.752797,9252.574275
896.056783,-1702.473667,153.219100,8068.244768
896.057113,-1628.453072,0.000000,7402.059420
896.057442,-1850.514855,0.000000,7031.956449
896.057772,-2368.659014,153.219100,6957.935855
896.058101,-3182.885551,459.657299,6883.915261
896.058431,-3627.009116,842.705048,7031.956449
896.058760,-3256.906145,459.657299,7105.977043
896.059090,-2442.679609,459.657299,8068.244768
896.059420,-2220.617826,919.314598,8586.388927
896.059749,-1850.514855,1302.362347,8808.450710
896.060079,-1406.391290,1225.752797,9104.533087
896.060408,-518.144159,1302.362347,9770.718434
896.060738,-148.041188,1149.143247,11029.068536
896.061067,-444.123565,1762.019645,11843.295072
896.061397,-1036.288319,1762.019645,11843.295072
896.061726,-1258.350101,1378.971896,11399.171507
896.062056,-1110.308913,766.095498,11769.274478
896.062385,-740.205942,612.876398,11621.233289
896.062715,-740.205942,76.609550,11029.068536
896.063045,-888.247130,-459.657299,9844.739029
896.063374,-1110.308913,-1302.362347,9326.594869
896.063704,-592.164754,153.219100,9474.636058
896.064033,0.000000,153.219100,9326.594869
896.064363,0.000000,995.924147,9548.656652
896.064692,-148.041188,1685.410096,9918.759623
896.065022,0.000000,2604.724693,10510.924376
896.065351,0.000000,2604.724693,10362.883188
896.065681,-296.082377,2298.286494,10140.821405
896.066010,-518.144159,1762.019645,10436.903782
896.066340,-1258.350101,1455.581446,10362.883188
896.066669,-1850.514855,995.924147,10288.862594
896.066999,-2220.617826,536.266849,9770.718434
896.067329,-2368.659014,-76.609550,8734.430116
896.067658,-2146.597232,612.876398,8216.285956
896.067988,-1628.453072,459.657299,7476.080014
896.068317,-888.247130,76.609550,7031.956449
896.068647,-1036.288319,766.095498,6661.853478
896.068976,-1184.329507,1685.410096,6439.791695
896.069306,-888.247130,1991.848295,6883.915261
896.069635,-296.082377,1991.848295,7179.997637
896.069965,-370.102971,2221.676944,7846.182985
896.070294,-222.061783,2221.676944,8512.368333
896.070624,148.041188,2374.896044,8734.430116
896.070954,0.000000,1455.581446,9474.636058
896.071283,-222.061783,1455.581446,10881.027347
896.071613,-962.267725,1378.971896,11843.295072
896.071942,-2072.576638,1455.581446,12657.521608
896.072272,-2960.823768,1838.629195,12361.439231
896.072601,-3034.844362,306.438199,12287.418637
896.072931,-3182.885551,153.219100,11695.253884
896.073260,-2294.638420,-689.485948,10658.965565
896.073590,-1628.453072,-1455.581446,9622.677246
896.073919,-1332.370696,-1915.238745,8956.491898
896.074249,-1184.329507,-459.657299,8808.450710
896.074578,-222.061783,229.828649,9252.574275
896.074908,74.020594,1072.533697,9770.718434
896.075238,592.164754,1991.848295,10436.903782
896.075567,962.267725,2681.334243,10955.047942
896.075897,1110.308913,2681.334243,10510.924376
896.076226,1258.350101,2911.162892,10436.903782
896.076556,1036.288319,2145.067394,10807.006753
896.076885,370.102971,1915.238745,10807.006753
896.077215,-814.226536,1225.752797,10436.903782
896.077544,-1480.411884,229.828649,9918.759623
896.077874,-1924.535449,459.657299,9326.594869
896.078203,-2294.638420,-383.047749,8438.347739
896.078533,-1924.535449,0.000000,7476.080014
896.078863,-1332.370696,-153.219100,6809.894666
896.079192,-1332.370696,0.000000,6291.750507
896.079522,-1554.432478,1685.410096,6439.791695
896.079851,-2146.597232,1225.752797,6143.709319
896.080181,-1332.370696,1378.971896,6735.874072
896.080510,-962.267725,1378.971896,7920.203579
896.080840,-888.247130,1685.410096,8882.471304
896.081169,-518.144159,1685.410096,9622.677246
896.081499,-962.267725,1455.581446,10214.842000
896.081828,-962.267725,1532.190996,11103.089130
896.082158,-1258.350101,919.314598,11843.295072
896.082487,-1480.411884,919.314598,12583.501014
896.082817,-2294.638420,1302.362347,12139.377449
896.083147,-1850.514855,612.876398,10955.047942
896.083476,-1480.411884,0.000000,10807.006753
896.083806,-666.185348,-229.828649,10288.862594
896.084135,0.000000,-612.876398,9548.656652
