#time,accel_x,accel_y,accel_z
1049.685336,-1184.329507,919.314598,9178.553681
1049.685666,-814.226536,919.314598,9326.594869
1049.685995,-740.205942,919.314598,9400.615463
1049.686325,-1036.288319,842.705048,9474.636058
1049.686654,-962.267725,919.314598,9622.677246
1049.686983,-1258.350101,919.314598,9474.636058
1049.687313,-962.267725,1225.752797,9622.677246
1049.687642,-1184.329507,536.266849,10066.800811
1049.687972,-1184.329507,842.705048,9696.697840
1049.688301,-1258.350101,766.095498,9696.697840
1049.688630,-1110.308913,919.314598,9696.697840
1049.688960,-962.267725,766.095498,9696.697840
1049.689289,-888.247130,842.705048,9326.594869
1049.689619,-814.226536,919.314598,9696.697840
1049.689948,-1184.329507,1072.533697,9622.677246
1049.690278,-1036.288319,842.705048,9622.677246
1049.690607,-1036.288319,1072.533697,9622.677246
1049.690936,-1110.308913,842.705048,9474.636058
1049.691266,-962.267725,919.314598,9474.636058
1049.691595,-962.267725,995.924147,9770.718434
1049.691925,-1036.288319,766.095498,9474.636058
1049.692254,-962.267725,842.705048,9474.636058
1049.692583,-888.247130,842.705048,9696.697840
1049.692913,-962.267725,1149.143247,9104.533087
1049.693242,-962.267725,995.924147,9400.615463
1049.693572,-1110.308913,842.705048,9474.636058
1049.693901,-1184.329507,995.924147,9400.615463
1049.694230,-1036.288319,1149.143247,9400.615463
1049.694560,-1036.288319,1225.752797,9474.636058
1049.694889,-740.205942,766.095498,9326.594869
1049.695219,-962.267725,995.924147,9474.636058
1049.695548,-1184.329507,1225.752797,9178.553681
1049.695877,-1110.308913,1149.143247,9400.615463
1049.696207,-888.247130,1225.752797,9696.697840
1049.696536,-1110.308913,383.047749,8956.491898
1049.696866,-962.267725,919.314598,9548.656652
1049.697195,-888.247130,995.924147,9622.677246
1049.697524,-962.267725,766.095498,9548.656652
1049.697854,-1036.288319,1378.971896,9548.656652
1049.698183,-1036.288319,919.314598,9622.677246
1049.698513,-1184.329507,919.314598,9770.718434
1049.698842,-1110.308913,919.314598,9622.677246
1049.699171,-962.267725,995.924147,9622.677246
1049.699501,-1036.288319,919.314598,9622.677246
1049.699830,-888.247130,842.705048,9252.574275
1049.700160,-962.267725,919.314598,9622.677246
1049.700489,-1036.288319,919.314598,9696.697840
1049.700818,-1184.329507,689.485948,9474.636058
1049.701148,-1110.308913,842.705048,9548.656652
1049.701477,-1036.288319,1072.533697,9326.594869
1049.701807,-888.247130,383.047749,9474.636058
1049.702136,-1184.329507,842.705048,9770.718434
1049.702465,-888.247130,995.924147,9548.656652
1049.702795,-962.267725,919.314598,9622.677246
1049.703124,-962.267725,842.705048,9252.574275
1049.703454,-962.267725,1072.533697,9030.512492
1049.703783,-888.247130,919.314598,9548.656652
1049.704112,-888.247130,766.095498,9400.615463
1049.704442,-962.267725,995.924147,9474.636058
1049.704771,-1110.308913,919.314598,9252.574275
1049.705101,-814.226536,995.924147,9474.636058
1049.705430,-1184.329507,1149.143247,9474.636058
1049.705759,-1036.288319,842.705048,9622.677246
1049.706089,-1036.288319,919.314598,9474.636058
1049.706418,-1110.308913,1072.533697,9326.594869
1049.706748,-962.267725,1225.752797,9326.594869
1049.707077,-1036.288319,1149.143247,9474.636058
1049.707406,-962.267725,919.314598,9474.636058
1049.707736,-888.247130,1072.533697,9030.512492
1049.708065,-222.061783,995.924147,9030.512492
1049.708395,592.164754,842.705048,9030.512492
1049.708724,1184.329507,306.438199,9474.636058
1049.709054,592.164754,842.705048,9178.553681
1049.709383,444.123565,766.095498,9548.656652
1049.709712,0.000000,766.095498,10214.842000
1049.710042,-666.185348,919.314598,10510.924376
1049.710371,-962.267725,689.485948,10732.986159
1049.710701,-518.144159,383.047749,10658.965565
1049.711030,-222.061783,76.609550,9622.677246
1049.711359,740.205942,0.000000,9548.656652
1049.711689,1776.494261,-306.438199,9178.553681
1049.712018,2664.741391,76.609550,8956.491898
1049.712348,3775.050304,689.485948,8512.368333
1049.712677,3701.029710,1455.581446,9252.574275
1049.713006,3923.091493,2298.286494,9622.677246
1049.713336,3552.988522,1838.629195,9992.780217
1049.713665,2886.803174,1225.752797,9918.759623
1049.713995,2072.576638,995.924147,10362.883188
1049.714324,1332.370696,612.876398,10732.986159
1049.714653,1258.350101,0.000000,10658.965565
1049.714983,1702.473667,0.000000,10214.842000
1049.715312,2072.576638,-229.828649,9400.615463
1049.715642,3034.844362,0.000000,9178.553681
1049.715971,3701.029710,229.828649,8956.491898
1049.716300,4219.173869,1225.752797,9178.553681
1049.716630,3849.070898,2374.896044,9474.636058
1049.716959,3034.844362,2911.162892,9918.759623
1049.717289,1480.411884,2757.943793,10510.924376
1049.717618,-444.123565,2987.772442,9918.759623
1049.717947,-1924.535449,2221.676944,9326.594869
1049.718277,-1702.473667,689.485948,8586.388927
1049.718606,-148.041188,-842.705048,7550.100608
1049.718936,1702.473667,-766.095498,7031.956449
1049.719265,2886.803174,-1225.752797,5773.606348
1049.719594,3775.050304,-383.047749,6661.853478
1049.719924,3923.091493,1378.971896,8068.244768
1049.720253,3108.864956,3524.039291,10066.800811
1049.720583,2072.576638,4060.306139,11843.295072
1049.720912,1184.329507,3677.258390,12435.459826
1049.721241,-222.061783,2834.553343,12731.542202
1049.721571,-1258.350101,612.876398,12583.501014
1049.721900,-1554.432478,-1149.143247,11695.253884
1049.722230,-1258.350101,-2068.457845,10584.944971
1049.722559,-370.102971,-2451.505594,9178.553681
1049.722888,666.185348,-2221.676944,8438.347739
1049.723218,2442.679609,-1225.752797,7772.162391
1049.723547,3923.091493,153.219100,7254.018232
1049.723877,4441.235652,1225.752797,7254.018232
1049.724206,4367.215058,2528.115143,7698.141797
1049.724535,4589.276840,3677.258390,9104.533087
1049.724865,3701.029710,3677.258390,10362.883188
1049.725194,2368.659014,3064.381992,11029.068536
1049.725524,1332.370696,1991.848295,11399.171507
1049.725853,666.185348,383.047749,11177.109724
1049.726182,-148.041188,-766.095498,10807.006753
1049.726512,-740.205942,-995.924147,10658.965565
1049.726841,-740.205942,-1378.971896,10584.944971
1049.727171,-296.082377,-1225.752797,10362.883188
1049.727500,296.082377,-536.266849,10140.821405
1049.727829,962.267725,306.438199,9326.594869
1049.728159,1702.473667,689.485948,8438.347739
1049.728488,3256.906145,612.876398,8586.388927
1049.728818,3997.112087,459.657299,8290.306550
1049.729147,4589.276840,76.609550,7994.224174
1049.729477,4737.318029,459.657299,8438.347739
1049.729806,3701.029710,459.657299,9178.553681
1049.730135,2812.782580,1149.143247,9992.780217
1049.730465,1850.514855,1915.238745,10288.862594
1049.730794,1406.391290,2068.457845,10288.862594
1049.731124,1628.453072,2145.067394,10214.842000
1049.731453,1850.514855,1685.410096,9548.656652
1049.731782,1776.494261,1608.800546,8512.368333
1049.732112,2368.659014,919.314598,7994.224174
1049.732441,3256.906145,0.000000,7846.182985
1049.732771,2960.823768,383.047749,8512.368333
1049.733100,1702.473667,1378.971896,8808.450710
1049.733429,444.123565,766.095498,9918.759623
1049.733759,-518.144159,229.828649,10140.821405
1049.734088,-1184.329507,612.876398,11029.068536
1049.734418,-1184.329507,229.828649,11621.233289
1049.734747,-814.226536,-766.095498,10955.047942
1049.735076,-592.164754,-229.828649,10436.903782
1049.735406,0.000000,153.219100,9770.718434
1049.735735,1628.453072,229.828649,9104.533087
1049.736065,3478.967927,1378.971896,8438.347739
1049.736394,5625.565159,1915.238745,8068.244768
1049.736723,7624.121203,3294.210641,7846.182985
1049.737053,8808.450710,3294.210641,8216.285956
1049.737382,8364.327145,3524.039291,9400.615463
1049.737712,6143.709319,4290.134789,10510.924376
1049.738041,3182.885551,4596.572988,11843.295072
1049.738370,592.164754,3140.991542,13471.748144
1049.738700,-2368.659014,1072.533697,13767.830521
1049.739029,-5625.565159,-459.657299,12731.542202
1049.739359,-7179.997637,-2068.457845,11029.068536
1049.739688,-6661.853478,-3064.381992,8586.388927
1049.740017,-3775.050304,-2987.772442,5477.523971
1049.740347,1110.308913,-3983.696590,2516.700203
1049.740676,5921.647536,-3447.429741,1628.453072
1049.741006,9548.656652,-766.095498,3330.926739
1049.741335,9770.718434,3830.477490,5329.482782
1049.741664,8364.327145,7584.345430,7402.059420
1049.741994,6809.894666,7814.174080,11029.068536
1049.742323,3182.885551,9039.926876,14285.974681
1049.742653,-1406.391290,7354.516781,16210.510130
1049.742982,-5033.400406,2374.896044,16358.551318
1049.743311,-6587.832884,-1455.581446,15470.304188
1049.743641,-5625.565159,-3677.258390,12509.480420
1049.743970,-3256.906145,-7277.907231,9622.677246
1049.744300,592.164754,-8503.660028,7254.018232
1049.744629,4441.235652,-5592.497135,3775.050304
1049.744958,9030.512492,-2681.334243,2368.659014
1049.745288,12065.356855,-689.485948,4737.318029
1049.745617,11251.130318,4443.353888,7920.203579
1049.745947,7328.038826,7967.393179,11251.130318
1049.746276,2294.638420,8656.879127,12731.542202
1049.746605,-1110.308913,7814.174080,14508.036463
1049.746935,-2368.659014,4213.525239,14582.057057
1049.747264,-2072.576638,-1225.752797,12287.418637
1049.747594,-1258.350101,-5592.497135,9400.615463
1049.747923,0.000000,-7354.516781,5921.647536
1049.748252,2220.617826,-6511.811733,5625.565159
1049.748582,2664.741391,-4290.134789,6957.935855
1049.748911,2072.576638,-306.438199,7476.080014
1049.749241,888.247130,3064.381992,9326.594869
1049.749570,1554.432478,6281.983084,10362.883188
1049.749900,2368.659014,5362.668486,12139.377449
1049.750229,2146.597232,2451.505594,13767.830521
1049.750558,666.185348,1455.581446,12879.583391
1049.750888,-666.185348,-612.876398,11473.192101
1049.751217,-1554.432478,-2911.162892,11695.253884
1049.751547,-2738.761985,-2374.896044,9474.636058
1049.751876,-1258.350101,-2911.162892,5551.544565
1049.752205,3108.864956,-5209.449386,3552.988522
1049.752535,7698.141797,-3524.039291,4071.132681
1049.752864,10955.047942,1915.238745,5329.482782
1049.753194,11029.068536,4136.915689,6883.915261
1049.753523,9400.615463,5745.716235,9252.574275
1049.753852,5181.441594,9346.365076,11621.233289
1049.754182,1554.432478,9422.974625,14656.077652
1049.754511,-1554.432478,5362.668486,17394.839637
1049.754841,-4811.338623,1225.752797,17394.839637
1049.755170,-8142.265362,-1378.971896,14434.015869
1049.755499,-9252.574275,-4903.011187,11547.212695
1049.755829,-7179.997637,-6894.859482,10436.903782
1049.756158,-4663.297435,-6205.373534,7402.059420
1049.756488,-2886.803174,-4519.963438,2886.803174
1049.756817,962.267725,-1915.238745,-740.205942
1049.757146,7105.977043,766.095498,2368.659014
1049.757476,10288.862594,3677.258390,6291.750507
1049.757805,8586.388927,10495.508323,7105.977043
1049.758134,6291.750507,10878.556072,7920.203579
1049.758464,5403.503377,7277.907231,11843.295072
1049.758793,2590.720797,7507.735880,17172.777854
1049.759123,-2590.720797,6818.249932,16876.695478
1049.759452,-5255.462188,2374.896044,14508.036463
1049.759781,-6069.688724,-4443.353888,12213.398043
1049.760111,-5773.606348,-4979.620737,11621.233289
1049.760440,-4737.318029,-4749.792088,11769.274478
1049.760769,-3849.070898,-2451.505594,9252.574275
1049.761099,-2664.741391,1072.533697,4293.194464
1049.761428,1480.411884,612.876398,740.205942
1049.761758,7179.997637,306.438199,888.247130
1049.762087,11177.109724,1378.971896,4219.173869
1049.762416,10140.821405,4290.134789,6513.812290
1049.762746,5329.482782,8427.050478,8216.285956
1049.763075,1184.329507,8273.831378,10955.047942
1049.763405,-2072.576638,4443.353888,14211.954086
1049.763734,-5773.606348,2298.286494,16506.592507
1049.764063,-8290.306550,995.924147,15248.242405
1049.764393,-9030.512492,-919.314598,12509.480420
1049.764722,-7105.977043,-4903.011187,10140.821405
1049.765051,-5403.503377,-7737.564530,8364.327145
1049.765381,-5699.585753,-7890.783629,8142.265362
1049.765710,-5033.400406,-2298.286494,8142.265362
1049.766040,-1554.432478,1608.800546,8512.368333
1049.766369,2960.823768,612.876398,8882.471304
1049.766698,6365.771101,2604.724693,8068.244768
1049.767028,7179.997637,3294.210641,7624.121203
1049.767357,6809.894666,1838.629195,8364.327145
1049.767686,2960.823768,2374.896044,11325.150913
1049.768016,-1036.288319,5439.278036,14804.118840
1049.768345,-3182.885551,4290.134789,17024.736666
1049.768675,-5551.544565,919.314598,15248.242405
1049.769004,-5921.647536,-306.438199,11325.150913
1049.769333,-3330.926739,-3753.867940,7624.121203
1049.769663,-1850.514855,-7584.345430,5995.668130
1049.769992,-2368.659014,-3294.210641,5477.523971
1049.770321,-4071.132681,766.095498,6587.832884
1049.770651,-1924.535449,2528.115143,6735.874072
1049.770980,666.185348,2528.115143,7698.141797
1049.771310,1554.432478,2757.943793,9104.533087
1049.771639,1554.432478,3140.991542,10140.821405
1049.771968,-370.102971,2451.505594,11325.150913
1049.772298,-3552.988522,3447.429741,12953.603985
1049.772627,-4959.379811,5439.278036,13397.727550
1049.772957,-4959.379811,3370.820191,11547.212695
1049.773286,-3182.885551,153.219100,9030.512492
1049.773615,-740.205942,-2068.457845,6661.853478
1049.773945,518.144159,-2681.334243,4737.318029
1049.774274,444.123565,-2528.115143,4219.173869
1049.774603,296.082377,-612.876398,5477.523971
1049.774933,1184.329507,1991.848295,7105.977043
1049.775262,2368.659014,3064.381992,7550.100608
1049.775592,3404.947333,3447.429741,8660.409521
1049.775921,5403.503377,4903.011187,8956.491898
1049.776250,4515.256246,2987.772442,9992.780217
1049.776580,1850.514855,3907.087040,12509.480420
1049.776909,-1036.288319,5822.325785,13989.892304
1049.777238,-2146.597232,4290.134789,13471.748144
1049.777568,-3034.844362,842.705048,12583.501014
1049.777897,-5033.400406,-459.657299,11325.150913
1049.778227,-5181.441594,-1072.533697,9770.718434
1049.778556,-4441.235652,-4673.182538,8512.368333
1049.778885,-4959.379811,-3140.991542,7698.141797
1049.779215,-3997.112087,-153.219100,5921.647536
1049.779544,-1554.432478,-2604.724693,5255.462188
1049.779874,888.247130,-2987.772442,6661.853478
1049.780203,2664.741391,612.876398,9252.574275
1049.780532,3182.885551,2528.115143,10288.862594
1049.780862,1850.514855,3600.648841,10732.986159
1049.781191,148.041188,6052.154434,12953.603985
1049.781520,1036.288319,5898.935335,15470.304188
1049.781850,1850.514855,3524.039291,15470.304188
1049.782179,-370.102971,2757.943793,12509.480420
1049.782509,-2664.741391,842.705048,9548.656652
1049.782838,-5625.565159,-2987.772442,8068.244768
1049.783167,-7920.203579,-2834.553343,9178.553681
1049.783497,-6883.915261,-2145.067394,9918.759623
1049.783826,-4219.173869,-2451.505594,7105.977043
1049.784155,-1924.535449,-2221.676944,3552.988522
1049.784485,1184.329507,-1838.629195,3404.947333
1049.784814,4219.173869,-1991.848295,5255.462188
1049.785144,4071.132681,-689.485948,7920.203579
1049.785473,1258.350101,4366.744339,10732.986159
1049.785802,0.000000,8963.317327,14063.912898
1049.786132,-222.061783,8810.098227,15174.221811
1049.786461,-1110.308913,4903.011187,13619.789333
1049.786790,-1628.453072,229.828649,9622.677246
1049.787120,-2146.597232,-3907.087040,6957.935855
1049.787449,-3256.906145,-5056.230287,7254.018232
1049.787779,-3330.926739,-2834.553343,9178.553681
1049.788108,-2516.700203,-2374.896044,8438.347739
1049.788437,-1110.308913,-3064.381992,6291.750507
1049.788767,1406.391290,-1302.362347,5625.565159
1049.789096,5181.441594,1838.629195,7031.956449
1049.789426,6587.832884,3217.601092,9474.636058
1049.789755,3701.029710,6588.421283,11843.295072
1049.790084,592.164754,8733.488677,12435.459826
1049.790414,-518.144159,6435.202183,12731.542202
1049.790743,-1480.411884,3677.258390,12657.521608
1049.791072,-3552.988522,1991.848295,11029.068536
1049.791402,-5699.585753,-2681.334243,9474.636058
1049.791731,-8068.244768,-6741.640382,8956.491898
1049.792061,-8216.285956,-5362.668486,9696.697840
1049.792390,-5921.647536,-3447.429741,9400.615463
1049.792719,-3182.885551,-4290.134789,7846.182985
1049.793049,0.000000,-2145.067394,6365.771101
1049.793378,2886.803174,919.314598,6883.915261
1049.793707,5921.647536,2681.334243,8660.409521
1049.794037,5477.523971,5592.497135,11029.068536
1049.794366,3627.009116,9959.241474,13249.686362
1049.794696,888.247130,9882.631924,13693.809927
1049.795025,-518.144159,4903.011187,13027.624579
1049.795354,-2220.617826,1915.238745,12065.356855
1049.795684,-3923.091493,-383.047749,10140.821405
1049.796013,-6143.709319,-4673.182538,8586.388927
1049.796343,-7550.100608,-4060.306139,8364.327145
1049.796672,-6439.791695,-3064.381992,8290.306550
1049.797001,-3034.844362,-2221.676944,6069.688724
1049.797331,-444.123565,-1608.800546,4219.173869
1049.797660,2368.659014,689.485948,4589.276840
1049.797989,4219.173869,2987.772442,6365.771101
1049.798319,4145.153275,4673.182538,9992.780217
1049.798648,1628.453072,7660.954980,13989.892304
1049.798978,-1110.308913,10342.289223,15692.365970
1049.799307,-2960.823768,7890.783629,13989.892304
1049.799636,-4293.194464,3294.210641,10436.903782
1049.799966,-3256.906145,-1455.581446,7772.162391
1049.800295,-3182.885551,-6971.469032,6957.935855
1049.800624,-4515.256246,-6971.469032,6735.874072
1049.800954,-5033.400406,-2298.286494,6883.915261
1049.801283,-2072.576638,-1302.362347,6217.729913
1049.801613,2294.638420,-2451.505594,5329.482782
1049.801942,4515.256246,536.266849,6069.688724
1049.802271,5995.668130,4443.353888,7550.100608
1049.802601,6365.771101,5822.325785,9770.718434
1049.802930,4219.173869,7354.516781,13323.706956
1049.803260,1110.308913,9193.145976,15100.201217
1049.803589,-2220.617826,5669.106685,14952.160028
1049.803918,-4885.359217,2451.505594,13471.748144
1049.804248,-6143.709319,-766.095498,11621.233289
1049.804577,-6809.894666,-5745.716235,9474.636058
1049.804906,-7698.141797,-8197.221829,7920.203579
1049.805236,-7772.162391,-6281.983084,6883.915261
1049.805565,-4367.215058,-5132.839837,7105.977043
1049.805895,-222.061783,-4060.306139,5699.585753
1049.806224,3256.906145,-1991.848295,5477.523971
1049.806553,5551.544565,1378.971896,7105.977043
1049.806883,6069.688724,3907.087040,9326.594869
1049.807212,5107.421000,7967.393179,13249.686362
1049.807541,2960.823768,8503.660028,15988.448347
1049.807871,296.082377,6128.763984,16062.468941
1049.808200,-3923.091493,3830.477490,13915.871710
1049.808530,-6587.832884,536.266849,11843.295072
1049.808859,-6143.709319,-3294.210641,11325.150913
1049.809188,-7105.977043,-7277.907231,8956.491898
1049.809518,-7698.141797,-7048.078582,7846.182985
1049.809847,-5921.647536,-5209.449386,8142.265362
1049.810176,-2072.576638,-2451.505594,6735.874072
1049.810506,2220.617826,-306.438199,3404.947333
1049.810835,5033.400406,1455.581446,3478.967927
1049.811165,6883.915261,3600.648841,6883.915261
1049.811494,5329.482782,6358.592633,11399.171507
1049.811823,2072.576638,9499.584175,15322.262999
1049.812153,-1702.473667,10572.117872,15840.407159
1049.812482,-4293.194464,7660.954980,13693.809927
1049.812812,-5329.482782,2451.505594,10584.944971
1049.813141,-3775.050304,-4060.306139,8142.265362
1049.813470,-2960.823768,-7584.345430,6513.812290
1049.813800,-3775.050304,-5745.716235,4959.379811
1049.814129,-4515.256246,-2451.505594,5625.565159
1049.814458,-1332.370696,-1072.533697,5699.585753
1049.814788,1924.535449,459.657299,5699.585753
1049.815117,4515.256246,2757.943793,6069.688724
1049.815447,6069.688724,5515.887586,7254.018232
1049.815776,4885.359217,7584.345430,9548.656652
1049.816105,2072.576638,9422.974625,13175.665768
1049.816435,-370.102971,8427.050478,15174.221811
1049.816764,-2812.782580,5056.230287,14137.933492
1049.817093,-5181.441594,2298.286494,11769.274478
1049.817423,-7105.977043,-1378.971896,9696.697840
1049.817752,-7179.997637,-4903.011187,9030.512492
1049.818082,-7254.018232,-6971.469032,8068.244768
1049.818411,-7402.059420,-5439.278036,6957.935855
1049.818740,-4737.318029,-2834.553343,6217.729913
1049.819070,-666.185348,-1608.800546,6513.812290
1049.819399,3108.864956,-842.705048,7254.018232
1049.819729,5477.523971,2604.724693,8216.285956
1049.820058,4737.318029,4136.915689,9030.512492
1049.820387,3256.906145,6128.763984,11843.295072
1049.820717,1702.473667,8197.221829,15544.324782
1049.821046,370.102971,7277.907231,16728.654289
1049.821375,-2072.576638,2681.334243,15100.201217
1049.821705,-4293.194464,995.924147,12213.398043
1049.822034,-5329.482782,-2374.896044,9252.574275
1049.822364,-5699.585753,-6588.421283,8216.285956
1049.822693,-6513.812290,-5669.106685,8734.430116
1049.823022,-5773.606348,-3064.381992,7846.182985
1049.823352,-3034.844362,-1838.629195,5255.462188
1049.823681,592.164754,-1302.362347,4515.256246
1049.824010,3404.947333,0.000000,6069.688724
1049.824340,4959.379811,1149.143247,9030.512492
1049.824669,1184.329507,3524.039291,11843.295072
1049.824999,-1924.535449,8810.098227,14434.015869
1049.825328,-2886.803174,9346.365076,15544.324782
1049.825657,-2368.659014,4519.963438,13545.768739
1049.825987,-2886.803174,153.219100,10955.047942
1049.826316,-3404.947333,-2604.724693,7476.080014
1049.826645,-3034.844362,-4903.011187,5995.668130
1049.826975,-3775.050304,-5362.668486,5255.462188
1049.827304,-3330.926739,-1915.238745,6661.853478
1049.827634,-518.144159,-1072.533697,7402.059420
1049.827963,2590.720797,-306.438199,6217.729913
1049.828292,5255.462188,2681.334243,5255.462188
1049.828622,7105.977043,3600.648841,6143.709319
1049.828951,5921.647536,4826.401637,9178.553681
1049.829281,2738.761985,7584.345430,13101.645173
1049.829610,-148.041188,10189.070123,15396.283594
1049.829939,-2368.659014,6435.202183,14063.912898
1049.830269,-4959.379811,2604.724693,11399.171507
1049.830598,-6217.729913,-153.219100,9326.594869
1049.830927,-6291.750507,-6052.154434,8290.306550
1049.831257,-6365.771101,-6971.469032,7550.100608
1049.831586,-5921.647536,-4290.134789,7105.977043
1049.831916,-4145.153275,-3294.210641,7105.977043
1049.832245,-1628.453072,-2451.505594,6809.894666
1049.832574,1776.494261,536.266849,7254.018232
1049.832904,4811.338623,2068.457845,7846.182985
1049.833233,4959.379811,2987.772442,8882.471304
1049.833562,2368.659014,5898.935335,11843.295072
1049.833892,-222.061783,8427.050478,15766.386565
1049.834221,-1924.535449,6205.373534,16654.633695
1049.834551,-3775.050304,3064.381992,14285.974681
1049.834880,-5329.482782,536.266849,11843.295072
1049.835209,-5477.523971,-3830.477490,10066.800811
1049.835539,-4885.359217,-6971.469032,9104.533087
1049.835868,-4663.297435,-6665.030833,8808.450710
1049.836198,-3034.844362,-3447.429741,7254.018232
1049.836527,0.000000,-306.438199,5181.441594
1049.836856,3627.009116,612.876398,5107.421000
1049.837186,6143.709319,2451.505594,7179.997637
1049.837515,5847.626942,3064.381992,9252.574275
1049.837844,2812.782580,5286.058936,11325.150913
1049.838174,-222.061783,8197.221829,14063.912898
1049.838503,-1924.535449,6588.421283,15026.180623
1049.838833,-3330.926739,3983.696590,13471.748144
1049.839162,-4589.276840,0.000000,10510.924376
1049.839491,-4737.318029,-3677.258390,6957.935855
1049.839821,-5107.421000,-6818.249932,5329.482782
1049.840150,-4959.379811,-4826.401637,6587.832884
1049.840479,-3775.050304,-1608.800546,8068.244768
1049.840809,-1850.514855,-612.876398,6883.915261
1049.841138,1110.308913,459.657299,4515.256246
1049.841468,4441.235652,2298.286494,3997.112087
1049.841797,7624.121203,3370.820191,5773.606348
1049.842126,6735.874072,3753.867940,10807.006753
1049.842456,2146.597232,7354.516781,14508.036463
1049.842785,-2072.576638,10189.070123,15026.180623
1049.843114,-2886.803174,5898.935335,14137.933492
1049.843444,-3627.009116,1455.581446,12213.398043
1049.843773,-4737.318029,-1302.362347,10140.821405
1049.844103,-5847.626942,-6128.763984,7920.203579
1049.844432,-6883.915261,-6281.983084,7179.997637
1049.844761,-6069.688724,-2987.772442,8290.306550
1049.845091,-3627.009116,-1455.581446,7920.203579
1049.845420,-740.205942,-2834.553343,5773.606348
1049.845750,1850.514855,-1072.533697,5477.523971
1049.846079,4663.297435,1838.629195,6809.894666
1049.846408,5255.462188,2757.943793,9104.533087
1049.846738,2590.720797,6358.592633,11991.336260
1049.847067,-888.247130,8733.488677,15322.262999
1049.847396,-2664.741391,5745.716235,15988.448347
1049.847726,-3997.112087,3524.039291,14952.160028
1049.848055,-5329.482782,612.876398,12139.377449
1049.848385,-6587.832884,-2834.553343,9622.677246
1049.848714,-7105.977043,-5515.887586,8512.368333
1049.849043,-6809.894666,-5439.278036,8364.327145
1049.849373,-3849.070898,-3294.210641,8512.368333
1049.849702,-814.226536,-1532.190996,6143.709319
1049.850031,1628.453072,689.485948,3923.091493
1049.850361,4441.235652,919.314598,5551.544565
1049.850690,5921.647536,1455.581446,9030.512492
1049.851020,3997.112087,5209.449386,12139.377449
1049.851349,370.102971,9346.365076,14137.933492
1049.851678,-2368.659014,8580.269578,13989.892304
1049.852008,-3849.070898,4136.915689,13471.748144
1049.852337,-3701.029710,459.657299,11325.150913
1049.852667,-3552.988522,-3140.991542,8142.265362
1049.852996,-4293.194464,-7048.078582,7179.997637
1049.853325,-5403.503377,-4903.011187,8216.285956
1049.853655,-4589.276840,0.000000,8808.450710
1049.853984,-518.144159,-1455.581446,6069.688724
1049.854313,3552.988522,-1762.019645,4515.256246
1049.854643,6217.729913,2221.676944,4737.318029
1049.854972,7624.121203,5056.230287,7105.977043
1049.855302,5921.647536,5745.716235,10214.842000
1049.855631,2738.761985,9039.926876,12731.542202
1049.855960,148.041188,8810.098227,14434.015869
1049.856290,-1776.494261,4366.744339,14211.954086
1049.856619,-3182.885551,2145.067394,12435.459826
1049.856948,-4293.194464,-689.485948,9474.636058
1049.857278,-4811.338623,-5898.935335,7031.956449
1049.857607,-6143.709319,-5822.325785,5699.585753
1049.857937,-4737.318029,-2911.162892,7402.059420
1049.858266,-1554.432478,-1608.800546,7772.162391
1049.858596,592.164754,-842.705048,6365.771101
1049.858925,2220.617826,1455.581446,5181.441594
1049.859255,3478.967927,1685.410096,7254.018232
1049.859585,2442.679609,2681.334243,10807.006753
1049.859914,-740.205942,8350.440928,14285.974681
1049.860244,-3034.844362,8350.440928,16062.468941
1049.860573,-4293.194464,3983.696590,15100.201217
1049.860903,-5773.606348,612.876398,12805.562797
1049.861233,-5773.606348,-2451.505594,10510.924376
1049.861562,-5255.462188,-6435.202183,8364.327145
1049.861892,-5625.565159,-7431.126331,7179.997637
1049.862221,-5699.585753,-3217.601092,8216.285956
1049.862551,-3108.864956,-1378.971896,9030.512492
1049.862881,1332.370696,-1532.190996,8660.409521
1049.863210,3552.988522,1302.362347,7105.977043
1049.863540,5477.523971,3830.477490,6587.832884
1049.863870,5847.626942,3830.477490,7994.224174
1049.864199,4367.215058,4673.182538,11769.274478
1049.864529,1406.391290,6358.592633,15026.180623
1049.864858,-1998.556043,6741.640382,15100.201217
1049.865188,-4737.318029,3830.477490,13027.624579
1049.865518,-5625.565159,766.095498,11103.089130
1049.865847,-5255.462188,-2757.943793,8808.450710
1049.866177,-5995.668130,-6588.421283,7402.059420
1049.866506,-6513.812290,-4136.915689,6661.853478
1049.866836,-4663.297435,-1685.410096,6809.894666
1049.867166,-1776.494261,-1455.581446,6291.750507
1049.867495,1406.391290,306.438199,6069.688724
1049.867825,3701.029710,2451.505594,6439.791695
1049.868154,4885.359217,3983.696590,6957.935855
1049.868484,3997.112087,5439.278036,8660.409521
1049.868814,3182.885551,8350.440928,11843.295072
1049.869143,2590.720797,7124.688131,13545.768739
1049.869473,592.164754,2911.162892,12583.501014
1049.869802,-1702.473667,995.924147,11029.068536
1049.870132,-2886.803174,-919.314598,9474.636058
1049.870462,-2886.803174,-3600.648841,9474.636058
1049.870791,-3552.988522,-3064.381992,9252.574275
1049.871121,-3108.864956,-919.314598,7846.182985
1049.871450,74.020594,-1838.629195,5329.482782
1049.871780,3182.885551,-2145.067394,3997.112087
1049.872110,5329.482782,1072.533697,5699.585753
1049.872439,4441.235652,3370.820191,8068.244768
1049.872769,1480.411884,4213.525239,10955.047942
1049.873099,-1554.432478,7584.345430,13767.830521
1049.873428,-2812.782580,7584.345430,15544.324782
1049.873758,-3849.070898,2604.724693,13989.892304
1049.874087,-5847.626942,-689.485948,11917.315666
1049.874417,-7624.121203,-2528.115143,9622.677246
1049.874747,-7846.182985,-6435.202183,8808.450710
1049.875076,-7846.182985,-6281.983084,8142.265362
1049.875406,-7105.977043,-2757.943793,8586.388927
1049.875735,-3923.091493,-2451.505594,8364.327145
1049.876065,518.144159,-2911.162892,7846.182985
1049.876395,3775.050304,1072.533697,6883.915261
1049.876724,6143.709319,3677.258390,6587.832884
1049.877054,6587.832884,2451.505594,8882.471304
1049.877383,4589.276840,6435.202183,13027.624579
1049.877713,1184.329507,9806.022374,15914.427753
1049.878043,-296.082377,6205.373534,15914.427753
1049.878372,-2368.659014,3294.210641,13989.892304
1049.878702,-4959.379811,2298.286494,12287.418637
1049.879031,-5921.647536,-2298.286494,10584.944971
1049.879361,-6809.894666,-5898.935335,7550.100608
1049.879691,-6883.915261,-4213.525239,6587.832884
1049.880020,-4663.297435,-4443.353888,6217.729913
1049.880350,-2220.617826,-3600.648841,5773.606348
1049.880679,0.000000,919.314598,4959.379811
1049.881009,2738.761985,2145.067394,5699.585753
1049.881339,4219.173869,3140.991542,6735.874072
1049.881668,3182.885551,6052.154434,8068.244768
1049.881998,2516.700203,7660.954980,11399.171507
1049.882328,2368.659014,6281.983084,13693.809927
1049.882657,74.020594,4673.182538,13101.645173
1049.882987,-2220.617826,3294.210641,10807.006753
1049.883316,-3330.926739,-689.485948,8882.471304
1049.883646,-2738.761985,-2757.943793,8808.450710
1049.883976,-2072.576638,-2451.505594,8734.430116
1049.884305,-962.267725,-153.219100,6217.729913
1049.884635,666.185348,-459.657299,3256.906145
1049.884964,2738.761985,-1225.752797,2812.782580
1049.885294,4219.173869,842.705048,6291.750507
1049.885624,4293.194464,4136.915689,9696.697840
1049.885953,1628.453072,5669.106685,11991.336260
1049.886283,-1480.411884,7354.516781,13101.645173
1049.886612,-2812.782580,5822.325785,14804.118840
1049.886942,-2368.659014,-383.047749,15766.386565
1049.887272,-3923.091493,-3064.381992,13915.871710
1049.887601,-6365.771101,-1685.410096,10881.027347
1049.887931,-6883.915261,-3524.039291,9326.594869
1049.888260,-5921.647536,-5132.839837,8364.327145
1049.888590,-3701.029710,-3447.429741,7846.182985
1049.888920,-888.247130,-2834.553343,6365.771101
1049.889249,2886.803174,-2298.286494,5329.482782
1049.889579,5107.421000,1072.533697,6809.894666
1049.889908,5921.647536,3370.820191,10288.862594
1049.890238,3775.050304,4290.134789,12435.459826
1049.890568,370.102971,7431.126331,13249.686362
1049.890897,-1110.308913,7354.516781,14952.160028
1049.891227,-1184.329507,4136.915689,15248.242405
1049.891557,-2664.741391,2681.334243,13397.727550
1049.891886,-5107.421000,76.609550,10288.862594
1049.892216,-6143.709319,-4749.792088,7698.141797
1049.892545,-7105.977043,-6128.763984,6069.688724
1049.892875,-6735.874072,-4519.963438,6957.935855
1049.893205,-4589.276840,-3677.258390,8364.327145
1049.893534,-2886.803174,-2145.067394,6661.853478
1049.893864,0.000000,459.657299,5255.462188
1049.894193,3923.091493,1378.971896,6587.832884
1049.894523,6217.729913,2451.505594,8290.306550
1049.894853,5033.400406,5132.839837,9992.780217
1049.895182,2368.659014,7277.907231,12657.521608
1049.895512,666.185348,7048.078582,14211.954086
1049.895841,-1110.308913,5515.887586,13101.645173
1049.896171,-2220.617826,2911.162892,11695.253884
1049.896501,-2590.720797,-306.438199,9400.615463
1049.896830,-3330.926739,-3140.991542,7254.018232
1049.897160,-3552.988522,-3983.696590,5477.523971
1049.897489,-1406.391290,-2911.162892,4515.256246
1049.897819,814.226536,-2221.676944,4293.194464
1049.898149,3108.864956,-689.485948,4441.235652
1049.898478,4737.318029,1608.800546,6883.915261
1049.898808,4515.256246,4673.182538,9030.512492
1049.899137,2442.679609,6741.640382,11103.089130
1049.899467,370.102971,8503.660028,12805.562797
1049.899797,-1258.350101,5592.497135,15248.242405
1049.900126,-3330.926739,1915.238745,15322.262999
1049.900456,-5625.565159,0.000000,13915.871710
1049.900786,-6735.874072,-1762.019645,11621.233289
1049.901115,-7031.956449,-6128.763984,8956.491898
1049.901445,-7105.977043,-6741.640382,6883.915261
1049.901774,-4737.318029,-4060.306139,5921.647536
1049.902104,-592.164754,-3983.696590,4959.379811
1049.902434,3256.906145,-3294.210641,5921.647536
1049.902763,3775.050304,1838.629195,8142.265362
1049.903093,3256.906145,4979.620737,9326.594869
1049.903422,2220.617826,6665.030833,9770.718434
1049.903752,1776.494261,8197.221829,12953.603985
1049.904082,1184.329507,8427.050478,16654.633695
1049.904411,-444.123565,4443.353888,16580.613101
1049.904741,-3997.112087,1762.019645,13619.789333
1049.905070,-6883.915261,0.000000,9844.739029
1049.905400,-6661.853478,-4213.525239,7994.224174
1049.905730,-6217.729913,-8733.488677,8290.306550
1049.906059,-5921.647536,-6665.030833,8808.450710
1049.906389,-4811.338623,-2604.724693,7402.059420
1049.906718,-1554.432478,-1762.019645,4811.338623
1049.907048,2812.782580,-229.828649,4885.359217
1049.907378,5033.400406,2604.724693,6143.709319
1049.907707,5995.668130,1455.581446,7994.224174
1049.908037,3923.091493,4136.915689,11177.109724
1049.908366,1184.329507,9882.631924,13619.789333
1049.908696,148.041188,8273.831378,14656.077652
1049.909026,-1554.432478,2374.896044,14508.036463
1049.909355,-3256.906145,1455.581446,12213.398043
1049.909685,-4145.153275,0.000000,8956.491898
1049.910014,-4293.194464,-3907.087040,5847.626942
1049.910344,-4959.379811,-2911.162892,3701.029710
1049.910674,-2886.803174,-2221.676944,3182.885551
1049.911003,222.061783,-4979.620737,4071.132681
1049.911333,3034.844362,-2451.505594,6661.853478
1049.911663,3182.885551,4443.353888,9030.512492
1049.911992,2812.782580,6971.469032,9474.636058
1049.912322,2368.659014,4749.792088,8734.430116
1049.912651,2072.576638,4213.525239,11991.336260
1049.912981,1776.494261,3294.210641,16210.510130
1049.913311,-296.082377,2834.553343,16432.571912
1049.913640,-3923.091493,1762.019645,13397.727550
1049.913970,-5921.647536,-995.924147,10732.986159
1049.914299,-6439.791695,-4903.011187,8956.491898
1049.914629,-4885.359217,-5669.106685,8512.368333
1049.914959,-2664.741391,-3907.087040,6513.812290
1049.915288,-222.061783,-2221.676944,3256.906145
1049.915618,2220.617826,-1762.019645,3775.050304
1049.915947,4293.194464,-766.095498,7402.059420
1049.916277,4589.276840,2911.162892,10955.047942
1049.916607,1776.494261,6205.373534,11769.274478
1049.916936,-740.205942,8733.488677,14211.954086
1049.917266,-1184.329507,9039.926876,17098.757260
1049.917595,-2220.617826,5439.278036,15914.427753
1049.917925,-3256.906145,0.000000,10955.047942
1049.918255,-3997.112087,-3217.601092,8734.430116
1049.918584,-5107.421000,-6358.592633,9622.677246
1049.918914,-7402.059420,-6128.763984,10807.006753
1049.919243,-8586.388927,-3064.381992,10288.862594
1049.919573,-6439.791695,-1302.362347,6735.874072
1049.919903,-74.020594,-2145.067394,4071.132681
1049.920232,6143.709319,-1532.190996,4293.194464
1049.920562,8882.471304,919.314598,5847.626942
1049.920892,7550.100608,2681.334243,7846.182985
1049.921221,2738.761985,7124.688131,11399.171507
1049.921551,666.185348,11184.994271,15100.201217
1049.921880,-888.247130,9346.365076,16728.654289
1049.922210,-3034.844362,4903.011187,14878.139434
1049.922540,-4219.173869,919.314598,11547.212695
1049.922869,-4293.194464,-3677.258390,8142.265362
1049.923199,-4145.153275,-5132.839837,6365.771101
1049.923528,-4737.318029,-2834.553343,4885.359217
1049.923858,-3775.050304,-1685.410096,3034.844362
1049.924188,-444.123565,-3907.087040,2738.761985
1049.924517,3849.070898,-1225.752797,4737.318029
1049.924847,5773.606348,4213.525239,7328.038826
1049.925176,5033.400406,6052.154434,7994.224174
1049.925506,2442.679609,7354.516781,9622.677246
1049.925836,740.205942,9422.974625,12139.377449
1049.926165,444.123565,5515.887586,15174.221811
1049.926495,-1332.370696,0.000000,15914.427753
1049.926824,-5847.626942,459.657299,14656.077652
1049.927154,-8808.450710,0.000000,12287.418637
1049.927484,-8734.430116,-4903.011187,11177.109724
1049.927813,-7624.121203,-5132.839837,8290.306550
1049.928143,-4293.194464,-3370.820191,4737.318029
1049.928472,444.123565,-4749.792088,1628.453072
1049.928802,4663.297435,-4749.792088,2886.803174
1049.929132,5329.482782,1608.800546,6513.812290
1049.929461,4071.132681,5286.058936,9622.677246
1049.929791,1998.556043,6281.983084,11843.295072
1049.930121,-666.185348,9729.412825,14804.118840
1049.930450,-1480.411884,9806.022374,17690.922014
1049.930780,-1702.473667,3907.087040,16506.592507
1049.931109,-3330.926739,0.000000,12065.356855
1049.931439,-5033.400406,-2221.676944,8586.388927
1049.931769,-5995.668130,-6971.469032,9770.718434
1049.932098,-6809.894666,-8350.440928,11399.171507
1049.932428,-7846.182985,-2528.115143,10436.903782
1049.932757,-5847.626942,-995.924147,7105.977043
1049.933087,-296.082377,-1915.238745,3478.967927
1049.933417,4663.297435,-612.876398,3849.070898
1049.933746,8068.244768,612.876398,6217.729913
1049.934076,6809.894666,1072.533697,8882.471304
1049.934405,2294.638420,6665.030833,12361.439231
1049.934735,-888.247130,10495.508323,16284.530724
1049.935065,-1258.350101,7048.078582,17616.901420
1049.935394,-2812.782580,3140.991542,15026.180623
1049.935724,-4219.173869,2298.286494,10140.821405
1049.936053,-3330.926739,-2298.286494,5477.523971
1049.936383,-2812.782580,-5209.449386,3775.050304
1049.936713,-3108.864956,-3140.991542,4071.132681
1049.937042,-2146.597232,-2604.724693,4367.215058
1049.937372,-444.123565,-2681.334243,5181.441594
1049.937701,1184.329507,1378.971896,7031.956449
1049.938031,2368.659014,5669.106685,8068.244768
1049.938361,3701.029710,4826.401637,8586.388927
1049.938690,3330.926739,4749.792088,8364.327145
1049.939020,2072.576638,5745.716235,11843.295072
1049.939350,1036.288319,3140.991542,16062.468941
1049.939679,-2812.782580,2834.553343,16284.530724
1049.940009,-7550.100608,3907.087040,13323.706956
1049.940338,-8882.471304,0.000000,9844.739029
1049.940668,-7105.977043,-4443.353888,8660.409521
1049.940998,-4515.256246,-4749.792088,6809.894666
1049.941327,-1480.411884,-3907.087040,3404.947333
1049.941657,962.267725,-5209.449386,2220.617826
1049.941986,2516.700203,-1455.581446,4071.132681
1049.942316,3330.926739,2604.724693,7476.080014
1049.942646,3108.864956,3907.087040,11029.068536
1049.942975,148.041188,7048.078582,13323.706956
1049.943305,-2220.617826,10265.679673,15914.427753
1049.943634,-2072.576638,8197.221829,16654.633695
1049.943964,-1480.411884,2068.457845,14211.954086
1049.944294,-3330.926739,-536.266849,10732.986159
1049.944623,-5329.482782,-1685.410096,9252.574275
1049.944953,-6439.791695,-6588.421283,10140.821405
1049.945282,-7476.080014,-6818.249932,10732.986159
1049.945612,-7698.141797,-1838.629195,9992.780217
1049.945942,-4441.235652,-1685.410096,7624.121203
1049.946271,1554.432478,-3294.210641,5329.482782
1049.946601,5181.441594,-1225.752797,5329.482782
1049.946930,7105.977043,1532.190996,6439.791695
1049.947260,6143.709319,1915.238745,8660.409521
1049.947590,3034.844362,5362.668486,12213.398043
1049.947919,1036.288319,10955.165621,16136.489536
1049.948249,-740.205942,7354.516781,16284.530724
1049.948579,-1258.350101,2451.505594,12953.603985
1049.948908,-1850.514855,-995.924147,9326.594869
1049.949238,-1184.329507,-3447.429741,8216.285956
1049.949567,-1924.535449,-3677.258390,6513.812290
1049.949897,-3182.885551,-1532.190996,5477.523971
1049.950227,-1628.453072,-1149.143247,4515.256246
1049.950556,518.144159,-1532.190996,3923.091493
1049.950886,3256.906145,612.876398,5699.585753
1049.951215,4885.359217,3830.477490,7846.182985
1049.951545,3701.029710,5439.278036,8438.347739
1049.951875,1258.350101,5286.058936,10584.944971
1049.952204,-592.164754,5056.230287,13915.871710
1049.952534,-1332.370696,3753.867940,16210.510130
1049.952863,-3775.050304,2604.724693,13471.748144
1049.953193,-5403.503377,459.657299,11177.109724
1049.953523,-5255.462188,-1991.848295,10436.903782
1049.953852,-4885.359217,-3983.696590,8956.491898
1049.954182,-4885.359217,-4060.306139,6439.791695
1049.954511,-2220.617826,-1532.190996,2960.823768
1049.954841,1850.514855,-1378.971896,3182.885551
1049.955171,5107.421000,-1762.019645,5699.585753
1049.955500,4589.276840,3217.601092,8734.430116
1049.955830,1258.350101,6435.202183,9400.615463
1049.956159,-518.144159,7814.174080,11473.192101
1049.956489,-1628.453072,8963.317327,16358.551318
1049.956819,-2886.803174,7354.516781,18801.230927
1049.957148,-4219.173869,2757.943793,14804.118840
1049.957478,-6587.832884,-1608.800546,7846.182985
1049.957807,-7254.018232,-4290.134789,7031.956449
1049.958137,-7179.997637,-8350.440928,10362.883188
1049.958467,-8438.347739,-6894.859482,11991.336260
1049.958796,-9400.615463,-612.876398,9474.636058
1049.959126,-5921.647536,-612.876398,5403.503377
1049.959455,370.102971,-2528.115143,3404.947333
1049.959785,6587.832884,-1838.629195,4959.379811
1049.960114,8512.368333,459.657299,7846.182985
1049.960444,5625.565159,3983.696590,9326.594869
1049.960774,1332.370696,10112.460574,12139.377449
1049.961103,148.041188,10112.460574,17172.777854
1049.961433,0.000000,4290.134789,18875.251521
1049.961762,-2886.803174,1991.848295,16580.613101
1049.962092,-4885.359217,766.095498,10807.006753
1049.962421,-4589.276840,-2451.505594,6143.709319
1049.962751,-4145.153275,-5592.497135,4811.338623
1049.963081,-3256.906145,-5286.058936,5329.482782
1049.963410,-2072.576638,-3907.087040,5255.462188
1049.963740,296.082377,-1149.143247,4515.256246
1049.964069,2368.659014,2451.505594,5773.606348
1049.964399,4293.194464,5056.230287,7846.182985
1049.964728,5403.503377,4749.792088,7994.224174
1049.965058,4071.132681,3907.087040,9400.615463
1049.965388,3404.947333,5286.058936,13397.727550
1049.965717,1406.391290,6205.373534,15100.201217
1049.966047,-2072.576638,3447.429741,13619.789333
1049.966376,-4737.318029,0.000000,11843.295072
1049.966706,-5329.482782,-1915.238745,10510.924376
1049.967035,-4737.318029,-3370.820191,9992.780217
1049.967365,-3997.112087,-3677.258390,9104.533087
1049.967695,-2590.720797,-2374.896044,4737.318029
1049.968024,814.226536,-1532.190996,2368.659014
1049.968354,4811.338623,-2757.943793,3330.926739
1049.968683,6883.915261,1072.533697,6735.874072
1049.969013,4441.235652,5515.887586,9696.697840
1049.969342,-296.082377,7814.174080,11843.295072
1049.969672,-3627.009116,10265.679673,14508.036463
1049.970002,-3923.091493,8350.440928,15988.448347
1049.970331,-3478.967927,2068.457845,13767.830521
1049.970661,-3701.029710,-4060.306139,11029.068536
1049.970990,-6439.791695,-5362.668486,9030.512492
1049.971320,-9622.677246,-5745.716235,7994.224174
1049.971650,-10658.965565,-5975.544884,9400.615463
1049.971979,-8512.368333,-2451.505594,11029.068536
1049.972309,-3923.091493,-612.876398,8512.368333
1049.972638,1036.288319,-2145.067394,5181.441594
1049.972968,5477.523971,-1378.971896,4737.318029
1049.973297,7550.100608,2681.334243,7031.956449
1049.973627,6217.729913,5209.449386,10214.842000
1049.973957,3108.864956,8886.707777,13767.830521
1049.974286,592.164754,11338.213370,16580.613101
1049.974616,-1036.288319,7431.126331,15174.221811
1049.974945,-3034.844362,995.924147,13545.768739
1049.975275,-5107.421000,-2221.676944,12361.439231
1049.975604,-6439.791695,-3830.477490,10362.883188
1049.975934,-7624.121203,-5898.935335,7550.100608
1049.976264,-7031.956449,-4213.525239,6439.791695
1049.976593,-3997.112087,-3447.429741,5773.606348
1049.976923,-148.041188,-3217.601092,4367.215058
1049.977252,3256.906145,-459.657299,3997.112087
1049.977582,5329.482782,4060.306139,5033.400406
1049.977911,5699.585753,6205.373534,7179.997637
1049.978241,4441.235652,6894.859482,10955.047942
1049.978571,3108.864956,7967.393179,13989.892304
1049.978900,0.000000,6281.983084,13619.789333
1049.979230,-1924.535449,2451.505594,11843.295072
1049.979559,-2368.659014,306.438199,11325.150913
1049.979889,-3256.906145,-1608.800546,11251.130318
1049.980218,-4737.318029,-3983.696590,9992.780217
1049.980548,-6069.688724,-2834.553343,6587.832884
1049.980878,-2812.782580,-1149.143247,3478.967927
1049.981207,2220.617826,-2451.505594,2812.782580
1049.981537,5181.441594,-919.314598,4515.256246
1049.981866,4441.235652,4136.915689,7328.038826
1049.982196,1776.494261,5362.668486,9548.656652
1049.982525,-296.082377,6435.202183,12509.480420
1049.982855,-2146.597232,9346.365076,15914.427753
1049.983185,-3182.885551,6281.983084,17246.798449
1049.983514,-4219.173869,-306.438199,14359.995275
1049.983844,-5773.606348,-2911.162892,10140.821405
1049.984173,-5181.441594,-4443.353888,8068.244768
1049.984503,-5403.503377,-7277.907231,7031.956449
1049.984832,-5921.647536,-4903.011187,7254.018232
1049.985162,-4811.338623,-766.095498,6661.853478
1049.985492,222.061783,-2451.505594,7179.997637
1049.985821,4219.173869,-1072.533697,8068.244768
1049.986151,5181.441594,4519.963438,8438.347739
1049.986480,4441.235652,5132.839837,9844.739029
1049.986810,3182.885551,6205.373534,12583.501014
1049.987139,1480.411884,9116.536426,15470.304188
1049.987469,888.247130,6281.983084,17394.839637
1049.987799,-2294.638420,76.609550,14878.139434
1049.988128,-7698.141797,1455.581446,10955.047942
1049.988458,-9474.636058,-1915.238745,8956.491898
1049.988787,-6735.874072,-8886.707777,9400.615463
1049.989117,-6883.915261,-6052.154434,7402.059420
1049.989447,-6735.874072,-2834.553343,4071.132681
1049.989776,-1850.514855,-4443.353888,2886.803174
1049.990106,2886.803174,-2757.943793,4515.256246
1049.990435,5255.462188,3907.087040,6661.853478
1049.990765,6291.750507,4903.011187,7994.224174
1049.991094,4737.318029,6205.373534,9104.533087
1049.991424,2738.761985,11797.870669,11399.171507
1049.991754,2294.638420,7431.126331,15100.201217
1049.992083,1554.432478,2604.724693,15544.324782
1049.992413,-2960.823768,2451.505594,12139.377449
1049.992742,-5773.606348,-383.047749,9030.512492
1049.993072,-5773.606348,-3677.258390,9104.533087
1049.993401,-5107.421000,-4903.011187,8216.285956
1049.993731,-4441.235652,-3830.477490,5551.544565
1049.994061,-2368.659014,-3983.696590,2516.700203
1049.994390,1332.370696,-1991.848295,2738.761985
1049.994720,4293.194464,2298.286494,5329.482782
1049.995049,4737.318029,4596.572988,8734.430116
1049.995379,2442.679609,6128.763984,10362.883188
1049.995708,-740.205942,8963.317327,11769.274478
1049.996038,-2368.659014,7124.688131,14359.995275
1049.996368,-2368.659014,3217.601092,15988.448347
1049.996697,-4071.132681,-536.266849,15026.180623
1049.997027,-7031.956449,-1302.362347,10955.047942
1049.997356,-7624.121203,-4903.011187,8882.471304
1049.997686,-5699.585753,-8044.002729,9326.594869
1049.998015,-4885.359217,-3370.820191,8882.471304
1049.998345,-3256.906145,-919.314598,6587.832884
1049.998675,962.267725,-2604.724693,6217.729913
1049.999004,4959.379811,1149.143247,6735.874072
1049.999334,6735.874072,4673.182538,8586.388927
1049.999663,7328.038826,4826.401637,10214.842000
1049.999993,4071.132681,6665.030833,11917.315666
1050.000322,296.082377,8810.098227,13397.727550
1050.000652,-518.144159,5132.839837,15470.304188
1050.000982,-1776.494261,-383.047749,15470.304188
1050.001311,-4959.379811,229.828649,12953.603985
1050.001641,-6957.935855,-2298.286494,9770.718434
1050.001970,-6587.832884,-6894.859482,8734.430116
1050.002300,-6143.709319,-4749.792088,7550.100608
1050.002629,-4737.318029,-2374.896044,5995.668130
1050.002959,-1776.494261,-2068.457845,4515.256246
1050.003289,1924.535449,-612.876398,4293.194464
1050.003618,4515.256246,4213.525239,6217.729913
1050.003948,6291.750507,4673.182538,7994.224174
1050.004277,4441.235652,5132.839837,9178.553681
1050.004607,1702.473667,8733.488677,10214.842000
1050.004936,0.000000,6971.469032,12731.542202
1050.005266,0.000000,2681.334243,13545.768739
1050.005596,-2442.679609,1762.019645,12435.459826
1050.005925,-4441.235652,-383.047749,9696.697840
1050.006255,-4441.235652,-3830.477490,8068.244768
1050.006584,-4663.297435,-4749.792088,7031.956449
1050.006914,-3552.988522,-2451.505594,6217.729913
1050.007244,-962.267725,-1762.019645,5181.441594
1050.007573,1184.329507,-459.657299,4737.318029
1050.007903,3256.906145,2528.115143,6513.812290
1050.008232,4589.276840,3294.210641,9252.574275
1050.008562,3552.988522,4213.525239,10584.944971
1050.008891,148.041188,5362.668486,12879.583391
1050.009221,-3330.926739,6358.592633,15174.221811
1050.009551,-4071.132681,3907.087040,15174.221811
1050.009880,-4293.194464,0.000000,13471.748144
1050.010210,-4959.379811,-1149.143247,10584.944971
1050.010539,-5773.606348,-4826.401637,7476.080014
1050.010869,-5847.626942,-7048.078582,6957.935855
1050.011198,-5181.441594,-4366.744339,7476.080014
1050.011528,-3404.947333,-1378.971896,7920.203579
1050.011858,-296.082377,-766.095498,7254.018232
1050.012187,2368.659014,0.000000,7105.977043
1050.012517,4145.153275,3140.991542,9104.533087
1050.012846,5699.585753,3600.648841,11029.068536
1050.013176,3997.112087,3830.477490,13323.706956
1050.013505,74.020594,6205.373534,14359.995275
1050.013835,-2146.597232,5898.935335,14508.036463
1050.014165,-2812.782580,842.705048,14285.974681
1050.014494,-3627.009116,-995.924147,13249.686362
1050.014824,-4811.338623,-1991.848295,10807.006753
1050.015153,-5255.462188,-5515.887586,8216.285956
1050.015483,-5329.482782,-3983.696590,6439.791695
1050.015812,-3256.906145,-2451.505594,4737.318029
1050.016142,370.102971,-2068.457845,4737.318029
1050.016472,3108.864956,-612.876398,4293.194464
1050.016801,4885.359217,3294.210641,5847.626942
1050.017131,5699.585753,5286.058936,8512.368333
1050.017460,4145.153275,5132.839837,10362.883188
1050.017790,1332.370696,7660.954980,13397.727550
1050.018119,-1036.288319,7277.907231,15248.242405
1050.018449,-2368.659014,4136.915689,14137.933492
1050.018779,-3997.112087,1302.362347,11695.253884
1050.019108,-3330.926739,-1225.752797,9918.759623
1050.019438,-3775.050304,-4213.525239,8216.285956
1050.019767,-5181.441594,-4213.525239,6957.935855
1050.020097,-4219.173869,-1685.410096,4441.235652
1050.020426,0.000000,-766.095498,3182.885551
1050.020756,4589.276840,-689.485948,3182.885551
1050.021086,6661.853478,2298.286494,5107.421000
1050.021415,5699.585753,4826.401637,7179.997637
1050.021745,3923.091493,5898.935335,9178.553681
1050.022074,1184.329507,7354.516781,13397.727550
1050.022404,-1850.514855,8427.050478,17542.880825
1050.022733,-4219.173869,5439.278036,17024.736666
1050.023063,-6365.771101,0.000000,13915.871710
1050.023393,-6883.915261,-2681.334243,10807.006753
1050.023722,-6957.935855,-4519.963438,8956.491898
1050.024052,-7105.977043,-7201.297681,7402.059420
1050.024381,-6735.874072,-5286.058936,6069.688724
1050.024711,-4219.173869,-2757.943793,4811.338623
1050.025041,444.123565,-1455.581446,4737.318029
1050.025370,4663.297435,-459.657299,6143.709319
1050.025700,5181.441594,2298.286494,8586.388927
1050.026029,3034.844362,4903.011187,10288.862594
1050.026359,1628.453072,7507.735880,12953.603985
1050.026688,148.041188,9499.584175,16358.551318
1050.027018,-148.041188,6741.640382,15766.386565
1050.027348,-2072.576638,383.047749,13545.768739
1050.027677,-4219.173869,-3217.601092,11473.192101
1050.028007,-5699.585753,-5209.449386,11843.295072
1050.028336,-7328.038826,-6358.592633,11399.171507
1050.028666,-8512.368333,-3830.477490,9474.636058
1050.028995,-6661.853478,-2145.067394,5995.668130
1050.029325,-222.061783,-3677.258390,3923.091493
1050.029655,6439.791695,-3217.601092,3775.050304
1050.029984,8586.388927,919.314598,5107.421000
1050.030314,6957.935855,4903.011187,7031.956449
1050.030643,3256.906145,6741.640382,10510.924376
1050.030973,888.247130,9729.412825,14804.118840
1050.031302,-592.164754,9422.974625,16728.654289
1050.031632,-2072.576638,4903.011187,14285.974681
1050.031962,-3478.967927,919.314598,10362.883188
1050.032291,-3478.967927,-2757.943793,8216.285956
1050.032621,-3627.009116,-6588.421283,7846.182985
1050.032950,-4811.338623,-5056.230287,6439.791695
1050.033280,-4219.173869,-1608.800546,4737.318029
1050.033609,-962.267725,-306.438199,3701.029710
1050.033939,3701.029710,-383.047749,4441.235652
1050.034269,6439.791695,2374.896044,6365.771101
1050.034598,6439.791695,3907.087040,8586.388927
1050.034928,3923.091493,4596.572988,11621.233289
1050.035257,-296.082377,8963.317327,14730.098246
1050.035587,-2812.782580,9652.803275,17320.819043
1050.035916,-2738.761985,3677.258390,15100.201217
1050.036246,-3478.967927,0.000000,10732.986159
1050.036576,-4071.132681,-1608.800546,7105.977043
1050.036905,-3404.947333,-6971.469032,6513.812290
1050.037235,-3552.988522,-6741.640382,7698.141797
1050.037564,-5107.421000,-1378.971896,7698.141797
1050.037894,-4071.132681,995.924147,6143.709319
1050.038223,-296.082377,-459.657299,5033.400406
1050.038553,4219.173869,1838.629195,6365.771101
1050.038883,4589.276840,3294.210641,8512.368333
1050.039212,2590.720797,3907.087040,11103.089130
1050.039542,-1110.308913,6894.859482,13397.727550
1050.039871,-3034.844362,6205.373534,16950.716072
1050.040201,-3478.967927,2911.162892,17394.839637
1050.040530,-5329.482782,229.828649,14508.036463
1050.040860,-6365.771101,-1838.629195,10214.842000
1050.041190,-4515.256246,-5132.839837,7846.182985
1050.041519,-3034.844362,-7124.688131,7698.141797
1050.041849,-2516.700203,-2068.457845,7772.162391
1050.042178,-1184.329507,-306.438199,5921.647536
1050.042508,1702.473667,0.000000,4515.256246
1050.042838,4589.276840,1378.971896,5551.544565
1050.043167,5329.482782,3370.820191,8290.306550
1050.043497,4589.276840,5745.716235,9696.697840
1050.043826,2590.720797,5822.325785,11843.295072
1050.044156,-148.041188,5286.058936,15544.324782
1050.044485,-2442.679609,5132.839837,16136.489536
1050.044815,-4293.194464,1149.143247,13027.624579
1050.045145,-4663.297435,-1838.629195,9918.759623
1050.045474,-3923.091493,-2221.676944,7846.182985
1050.045804,-4589.276840,-4136.915689,6661.853478
1050.046133,-3775.050304,-4213.525239,5551.544565
1050.046463,-1998.556043,-1991.848295,4885.359217
1050.046792,1258.350101,995.924147,3997.112087
1050.047122,4663.297435,1302.362347,4071.132681
1050.047452,6587.832884,2374.896044,5255.462188
1050.047781,5921.647536,4749.792088,7179.997637
1050.048111,3849.070898,4290.134789,11103.089130
1050.048440,1406.391290,5745.716235,15470.304188
1050.048770,-1480.411884,7354.516781,16654.633695
1050.049099,-2960.823768,2145.067394,14582.057057
1050.049429,-4071.132681,-1378.971896,11547.212695
1050.049759,-4441.235652,-1991.848295,10362.883188
1050.050088,-4293.194464,-4213.525239,9844.739029
1050.050418,-5551.544565,-4903.011187,8142.265362
1050.050747,-5625.565159,-1302.362347,5773.606348
1050.051077,-2220.617826,229.828649,4737.318029
1050.051406,2590.720797,-1838.629195,4589.276840
1050.051736,4737.318029,-153.219100,5403.503377
1050.052066,3775.050304,3064.381992,7772.162391
1050.052395,1776.494261,4826.401637,11029.068536
1050.052725,-1258.350101,8350.440928,13693.809927
1050.053054,-3034.844362,9193.145976,15766.386565
1050.053384,-3627.009116,2987.772442,14952.160028
1050.053713,-4589.276840,-2604.724693,13175.665768
1050.054043,-5921.647536,-2911.162892,11991.336260
1050.054373,-7328.038826,-3217.601092,11251.130318
1050.054702,-7920.203579,-5056.230287,10140.821405
1050.055032,-7550.100608,-2451.505594,8290.306550
1050.055361,-2886.803174,-995.924147,6143.709319
1050.055691,3108.864956,-2834.553343,4145.153275
1050.056020,7994.224174,-1532.190996,3701.029710
1050.056350,7698.141797,3294.210641,5773.606348
1050.056680,5551.544565,5975.544884,8512.368333
1050.057009,2442.679609,7890.783629,11769.274478
1050.057339,-296.082377,8886.707777,15618.345376
1050.057668,-2516.700203,6511.811733,15914.427753
1050.057998,-3997.112087,2374.896044,13471.748144
1050.058327,-5107.421000,-995.924147,10140.821405
1050.058657,-4367.215058,-4826.401637,9400.615463
1050.058987,-4959.379811,-6741.640382,8142.265362
1050.059313,-6365.771101,-3753.867940,6661.853478
1050.059643,-5551.544565,-766.095498,5403.503377
1050.059972,-962.267725,0.000000,3923.091493
1050.060302,4515.256246,1072.533697,4811.338623
1050.060631,7402.059420,2681.334243,6143.709319
1050.060961,6957.935855,5209.449386,6661.853478
1050.061290,4441.235652,6358.592633,8660.409521
1050.061620,2146.597232,7048.078582,13915.871710
1050.061949,-296.082377,7124.688131,16950.716072
1050.062279,-2812.782580,3600.648841,14878.139434
1050.062608,-4515.256246,-1149.143247,11843.295072
1050.062938,-4441.235652,-4060.306139,10288.862594
1050.063267,-3627.009116,-5669.106685,10881.027347
1050.063597,-4219.173869,-4443.353888,10955.047942
1050.063926,-5181.441594,-1838.629195,6069.688724
1050.064256,-2442.679609,995.924147,1702.473667
1050.064585,3182.885551,-766.095498,2146.597232
1050.064915,7105.977043,-689.485948,6809.894666
1050.065244,4663.297435,3907.087040,9918.759623
1050.065574,0.000000,6894.859482,10807.006753
1050.065903,-2368.659014,8580.269578,12953.603985
1050.066233,-2738.761985,8120.612279,15248.242405
1050.066562,-2886.803174,1991.848295,14804.118840
1050.066892,-4589.276840,-5745.716235,12361.439231
1050.067221,-6735.874072,-4979.620737,10436.903782
1050.067551,-7476.080014,-2604.724693,10362.883188
1050.067880,-7031.956449,-4213.525239,11251.130318
1050.068210,-6661.853478,-2987.772442,8956.491898
1050.068539,-3923.091493,-689.485948,6365.771101
1050.068869,1776.494261,-2604.724693,4441.235652
1050.069198,6735.874072,-306.438199,5995.668130
1050.069528,7254.018232,5056.230287,7920.203579
1050.069857,4737.318029,5515.887586,9622.677246
1050.070187,1406.391290,6128.763984,11547.212695
1050.070516,-666.185348,8120.612279,13767.830521
1050.070846,-370.102971,5209.449386,14730.098246
1050.071175,-2220.617826,383.047749,12953.603985
1050.071505,-6291.750507,-1072.533697,10288.862594
1050.071834,-7328.038826,-2451.505594,9548.656652
1050.072164,-6513.812290,-5515.887586,9474.636058
1050.072493,-5699.585753,-2681.334243,8438.347739
1050.072823,-4219.173869,-383.047749,5995.668130
1050.073152,-592.164754,-1762.019645,3997.112087
1050.073482,3997.112087,306.438199,4219.173869
1050.073811,7105.977043,3294.210641,5847.626942
1050.074141,6957.935855,4673.182538,8142.265362
1050.074470,3923.091493,5439.278036,10584.944971
1050.074800,370.102971,7737.564530,13693.809927
1050.075129,-444.123565,6511.811733,14730.098246
1050.075459,-962.267725,2221.676944,13101.645173
1050.075788,-1850.514855,-306.438199,10807.006753
1050.076118,-3108.864956,-2145.067394,9104.533087
1050.076447,-4293.194464,-4903.011187,9104.533087
1050.076777,-4737.318029,-3677.258390,9326.594869
1050.077106,-4219.173869,153.219100,7105.977043
1050.077435,-888.247130,229.828649,4515.256246
1050.077765,2960.823768,-383.047749,3552.988522
1050.078094,5699.585753,842.705048,6143.709319
1050.078424,5255.462188,3447.429741,9548.656652
1050.078753,2590.720797,5056.230287,10658.965565
1050.079083,-1628.453072,7201.297681,12287.418637
1050.079412,-3256.906145,6128.763984,15692.365970
1050.079742,-4219.173869,995.924147,16506.592507
1050.080071,-5921.647536,-1225.752797,13471.748144
1050.080401,-6513.812290,-2451.505594,9770.718434
1050.080730,-5847.626942,-5286.058936,7772.162391
1050.081060,-5033.400406,-6281.983084,8734.430116
1050.081389,-4219.173869,-2604.724693,8438.347739
1050.081719,-1184.329507,-919.314598,6439.791695
1050.082048,2368.659014,-1302.362347,4811.338623
1050.082378,5181.441594,995.924147,6365.771101
1050.082707,5403.503377,4596.572988,9844.739029
1050.083037,4145.153275,5745.716235,11621.233289
1050.083366,888.247130,7737.564530,12583.501014
1050.083696,-1332.370696,7660.954980,12953.603985
1050.084025,-1702.473667,3983.696590,12657.521608
1050.084355,-2738.761985,-2145.067394,12435.459826
1050.084684,-4959.379811,-2757.943793,12065.356855
1050.085014,-7476.080014,-3140.991542,10584.944971
1050.085343,-8438.347739,-5056.230287,9252.574275
1050.085673,-7846.182985,-2451.505594,8586.388927
1050.086002,-4663.297435,0.000000,6957.935855
1050.086332,740.205942,-1532.190996,4441.235652
1050.086661,5181.441594,-153.219100,2368.659014
1050.086991,7402.059420,3753.867940,3627.009116
1050.087320,7624.121203,4903.011187,6883.915261
1050.087650,4663.297435,5132.839837,10288.862594
1050.087979,814.226536,9346.365076,13545.768739
1050.088309,-1258.350101,7814.174080,14211.954086
1050.088638,-2220.617826,1915.238745,13693.809927
1050.088968,-3849.070898,-842.705048,11991.336260
1050.089297,-4515.256246,-2451.505594,11473.192101
1050.089627,-4959.379811,-5362.668486,10436.903782
1050.089956,-5995.668130,-2604.724693,8068.244768
1050.090286,-5329.482782,-153.219100,5107.421000
1050.090615,-1924.535449,-919.314598,3775.050304
1050.090945,2368.659014,-536.266849,4441.235652
1050.091274,4367.215058,2681.334243,6217.729913
1050.091604,4293.194464,4903.011187,8364.327145
1050.091933,1628.453072,5056.230287,10510.924376
1050.092263,-1406.391290,7354.516781,13545.768739
1050.092592,-2738.761985,5132.839837,15470.304188
1050.092922,-3478.967927,153.219100,14434.015869
1050.093251,-4885.359217,-1225.752797,12657.521608
1050.093581,-5625.565159,-1915.238745,11029.068536
1050.093910,-5477.523971,-5209.449386,10140.821405
1050.094240,-5033.400406,-5898.935335,9474.636058
1050.094569,-4071.132681,-2145.067394,7698.141797
1050.094899,-74.020594,-153.219100,6587.832884
1050.095228,4145.153275,-459.657299,5847.626942
1050.095558,6069.688724,1991.848295,7105.977043
1050.095887,5773.606348,4136.915689,8882.471304
1050.096217,3775.050304,5132.839837,10658.965565
1050.096546,1258.350101,6971.469032,13619.789333
1050.096876,-1184.329507,7048.078582,15692.365970
1050.097205,-3552.988522,3294.210641,13767.830521
1050.097535,-5699.585753,-1532.190996,11103.089130
1050.097864,-5921.647536,-3600.648841,9844.739029
1050.098194,-5773.606348,-4596.572988,9474.636058
1050.098523,-5995.668130,-4903.011187,8216.285956
1050.098853,-6217.729913,-2451.505594,6365.771101
1050.099182,-3627.009116,-1302.362347,4811.338623
1050.099512,1036.288319,-1072.533697,4959.379811
1050.099841,5329.482782,1378.971896,5551.544565
1050.100171,6217.729913,4213.525239,6291.750507
1050.100500,4885.359217,4903.011187,8290.306550
1050.100830,2664.741391,5822.325785,11843.295072
1050.101159,370.102971,7124.688131,14804.118840
1050.101489,-814.226536,5822.325785,14804.118840
1050.101818,-2220.617826,459.657299,11843.295072
1050.102148,-3552.988522,-459.657299,9474.636058
1050.102477,-3034.844362,-2681.334243,9252.574275
1050.102807,-2812.782580,-6052.154434,9252.574275
1050.103136,-4515.256246,-2911.162892,7254.018232
1050.103466,-3849.070898,459.657299,5255.462188
1050.103795,0.000000,0.000000,4737.318029
1050.104125,4663.297435,76.609550,5625.565159
1050.104454,5847.626942,2911.162892,6587.832884
1050.104784,4515.256246,3064.381992,7698.141797
1050.105113,1776.494261,3524.039291,10584.944971
1050.105443,-1332.370696,6741.640382,15544.324782
1050.105772,-3775.050304,6358.592633,18209.066173
1050.106102,-5699.585753,1915.238745,15470.304188
1050.106431,-7105.977043,-1532.190996,11029.068536
1050.106761,-5995.668130,-3907.087040,8586.388927
1050.107090,-3923.091493,-6971.469032,8808.450710
1050.107420,-4219.173869,-4979.620737,8734.430116
1050.107749,-4885.359217,-1225.752797,6587.832884
1050.108079,-2072.576638,0.000000,4737.318029
1050.108408,2220.617826,-229.828649,5403.503377
1050.108738,5403.503377,2451.505594,8438.347739
1050.109067,4737.318029,4673.182538,9548.656652
1050.109397,2368.659014,5515.887586,10066.800811
1050.109726,222.061783,6971.469032,12139.377449
1050.110056,0.000000,6971.469032,14211.954086
1050.110385,-222.061783,2145.067394,14434.015869
1050.110715,-3108.864956,-2451.505594,12213.398043
1050.111044,-6883.915261,-2451.505594,10955.047942
1050.111374,-8216.285956,-2987.772442,10732.986159
1050.111703,-7402.059420,-4596.572988,11029.068536
1050.112032,-6439.791695,-2451.505594,9474.636058
1050.112362,-3997.112087,-1225.752797,5181.441594
1050.112691,1480.411884,-2451.505594,2664.741391
1050.113021,6439.791695,-1302.362347,2886.803174
1050.113350,7105.977043,3907.087040,5699.585753
1050.113680,4737.318029,5745.716235,8290.306550
1050.114009,1628.453072,7431.126331,11029.068536
1050.114339,0.000000,8886.707777,14063.912898
1050.114668,74.020594,5056.230287,15692.365970
1050.114998,-1924.535449,536.266849,14211.954086
1050.115327,-4515.256246,-842.705048,11325.150913
1050.115657,-4589.276840,-2374.896044,9770.718434
1050.115986,-4071.132681,-4443.353888,9326.594869
1050.116316,-5403.503377,-1838.629195,6661.853478
1050.116645,-4293.194464,-766.095498,4219.173869
1050.116975,222.061783,-3600.648841,3478.967927
1050.117304,3404.947333,-689.485948,4515.256246
1050.117634,3108.864956,3753.867940,7476.080014
1050.117963,2294.638420,4673.182538,10436.903782
1050.118293,-1184.329507,5822.325785,12065.356855
1050.118622,-3923.091493,7814.174080,13693.809927
1050.118952,-3775.050304,4136.915689,14804.118840
1050.119281,-3849.070898,536.266849,13027.624579
1050.119611,-4589.276840,-612.876398,10658.965565
1050.119940,-5921.647536,-2221.676944,7698.141797
1050.120270,-5773.606348,-5898.935335,6883.915261
1050.120599,-5329.482782,-5439.278036,8290.306550
1050.120929,-4959.379811,-766.095498,9474.636058
1050.121258,-3478.967927,306.438199,8882.471304
1050.121588,-1924.535449,766.095498,7772.162391
1050.121917,74.020594,2221.676944,7920.203579
1050.122247,1850.514855,1991.848295,9844.739029
1050.122576,1406.391290,2528.115143,11991.336260
1050.122906,-2590.720797,6358.592633,13693.809927
1050.123235,-5181.441594,6894.859482,14582.057057
1050.123565,-5329.482782,2987.772442,13027.624579
1050.123894,-5625.565159,-383.047749,10362.883188
1050.124224,-5255.462188,-1532.190996,9030.512492
1050.124553,-3923.091493,-2451.505594,8438.347739
1050.124883,-3997.112087,-2681.334243,7550.100608
1050.125212,-5921.647536,-1149.143247,7402.059420
1050.125542,-6365.771101,-842.705048,7846.182985
1050.125871,-5773.606348,0.000000,8512.368333
1050.126201,-5033.400406,2528.115143,7994.224174
1050.126530,-3330.926739,2451.505594,8734.430116
1050.126860,-1406.391290,2068.457845,8364.327145
1050.127189,-296.082377,1455.581446,8882.471304
1050.127519,-1554.432478,1378.971896,10436.903782
1050.127848,-3775.050304,2987.772442,10955.047942
1050.128178,-4959.379811,4519.963438,10288.862594
1050.128507,-4737.318029,2987.772442,8956.491898
1050.128837,-3256.906145,383.047749,8956.491898
1050.129166,-2072.576638,-383.047749,8142.265362
1050.129496,-518.144159,-229.828649,7105.977043
1050.129825,-814.226536,-995.924147,7402.059420
1050.130155,-2738.761985,229.828649,8512.368333
1050.130484,-5699.585753,2681.334243,9030.512492
1050.130814,-6439.791695,2987.772442,9548.656652
1050.131143,-5181.441594,1072.533697,10807.006753
1050.131473,-4219.173869,1455.581446,10362.883188
1050.131802,-3923.091493,1072.533697,9178.553681
1050.132132,-3108.864956,-842.705048,8808.450710
1050.132461,-3108.864956,-1532.190996,9622.677246
1050.132791,-5477.523971,689.485948,10436.903782
1050.133120,-7254.018232,3064.381992,10436.903782
1050.133450,-7772.162391,1762.019645,10436.903782
1050.133779,-7550.100608,536.266849,10955.047942
1050.134109,-5847.626942,536.266849,11325.150913
1050.134438,-3997.112087,-306.438199,10362.883188
1050.134768,-2146.597232,-995.924147,7846.182985
1050.135097,-1406.391290,0.000000,7105.977043
1050.135427,-1776.494261,689.485948,8956.491898
1050.135756,-2368.659014,1838.629195,11547.212695
1050.136086,-4071.132681,2911.162892,11695.253884
1050.136415,-6069.688724,3064.381992,10362.883188
1050.136745,-6735.874072,2221.676944,9918.759623
1050.137074,-5847.626942,842.705048,10658.965565
1050.137404,-4885.359217,0.000000,9844.739029
1050.137733,-4145.153275,-383.047749,7920.203579
1050.138063,-3404.947333,-1072.533697,5255.462188
1050.138392,-1332.370696,-229.828649,5699.585753
1050.138722,296.082377,229.828649,8734.430116
1050.139051,-1110.308913,1149.143247,10732.986159
1050.139381,-4589.276840,3064.381992,11029.068536
1050.139710,-7476.080014,4749.792088,10658.965565
1050.140040,-8290.306550,3677.258390,11473.192101
1050.140369,-7920.203579,2068.457845,12731.542202
1050.140699,-7105.977043,0.000000,10807.006753
1050.141028,-5107.421000,-3294.210641,7846.182985
1050.141358,-2812.782580,-4060.306139,5847.626942
1050.141687,-814.226536,-2681.334243,6217.729913
1050.142017,1036.288319,-1072.533697,7105.977043
1050.142346,1776.494261,153.219100,8512.368333
1050.142676,222.061783,3370.820191,9104.533087
1050.143005,-1998.556043,5132.839837,10140.821405
1050.143335,-3478.967927,5132.839837,11991.336260
1050.143664,-5033.400406,4519.963438,12657.521608
1050.143994,-6439.791695,3677.258390,11251.130318
1050.144323,-5921.647536,1225.752797,9474.636058
1050.144653,-3404.947333,-1608.800546,8290.306550
1050.144982,-1776.494261,-3447.429741,7698.141797
1050.145312,-1850.514855,-2528.115143,6661.853478
1050.145641,-2368.659014,-383.047749,6513.812290
1050.145971,-1406.391290,1532.190996,8216.285956
1050.146300,-1480.411884,3830.477490,10362.883188
1050.146629,-3627.009116,5209.449386,11991.336260
1050.146959,-6439.791695,4749.792088,12139.377449
1050.147288,-8142.265362,2757.943793,12435.459826
1050.147618,-9918.759623,1149.143247,13619.789333
1050.147947,-9918.759623,-459.657299,13249.686362
1050.148277,-9178.553681,-1532.190996,10066.800811
1050.148606,-6439.791695,-3447.429741,6439.791695
1050.148936,-1998.556043,-5056.230287,4515.256246
1050.149265,2812.782580,-2987.772442,4293.194464
1050.149595,5107.421000,842.705048,5477.523971
1050.149924,4589.276840,4673.182538,7105.977043
1050.150254,2220.617826,7201.297681,9918.759623
1050.150583,0.000000,8656.879127,12731.542202
1050.150913,-2886.803174,7431.126331,14359.995275
1050.151242,-6291.750507,4213.525239,14878.139434
1050.151572,-9548.656652,1532.190996,13989.892304
1050.151901,-11251.130318,-1225.752797,12509.480420
1050.152231,-10955.047942,-4060.306139,9770.718434
1050.152560,-9844.739029,-6281.983084,6513.812290
1050.152890,-6883.915261,-6665.030833,4145.153275
1050.153219,-3108.864956,-4136.915689,4145.153275
1050.153549,0.000000,0.000000,4959.379811
1050.153878,1184.329507,3294.210641,6365.771101
1050.154208,740.205942,6281.983084,7328.038826
1050.154537,-222.061783,8273.831378,9104.533087
1050.154867,-1850.514855,7737.564530,11325.150913
1050.155196,-4145.153275,5362.668486,12805.562797
1050.155526,-6957.935855,2145.067394,12509.480420
1050.155855,-9326.594869,-1685.410096,11843.295072
1050.156185,-10214.842000,-4979.620737,11399.171507
1050.156514,-9252.574275,-6741.640382,11473.192101
1050.156844,-7328.038826,-5362.668486,10288.862594
1050.157173,-4293.194464,-3370.820191,8068.244768
1050.157503,-592.164754,-1762.019645,6661.853478
1050.157832,2294.638420,766.095498,6957.935855
1050.158162,3997.112087,3907.087040,9178.553681
1050.158492,3552.988522,6665.030833,10510.924376
1050.158821,518.144159,7660.954980,11621.233289
1050.159151,-2516.700203,5898.935335,12657.521608
1050.159481,-5181.441594,2757.943793,13545.768739
1050.159810,-7772.162391,459.657299,12657.521608
1050.160140,-9104.533087,-2451.505594,10066.800811
1050.160470,-8586.388927,-5056.230287,7920.203579
1050.160799,-6735.874072,-5515.887586,7031.956449
1050.161129,-4737.318029,-3524.039291,7179.997637
1050.161459,-3552.988522,-1455.581446,6735.874072
1050.161788,-2516.700203,1915.238745,6661.853478
1050.162118,-1776.494261,5362.668486,7920.203579
1050.162448,-1332.370696,7890.783629,9548.656652
1050.162777,-1998.556043,8044.002729,10881.027347
1050.163107,-3182.885551,5515.887586,10881.027347
1050.163436,-4293.194464,3983.696590,11695.253884
1050.163766,-5329.482782,1378.971896,11695.253884
1050.164096,-6439.791695,0.000000,10807.006753
1050.164425,-6809.894666,-2068.457845,9622.677246
1050.164755,-5403.503377,-2834.553343,7994.224174
1050.165085,-2664.741391,-536.266849,7698.141797
1050.165414,-296.082377,1532.190996,7328.038826
1050.165744,1036.288319,2834.553343,7476.080014
1050.166074,814.226536,4903.011187,7846.182985
1050.166403,222.061783,6358.592633,9178.553681
1050.166733,-1036.288319,7277.907231,9696.697840
1050.167063,-2220.617826,5898.935335,11325.150913
1050.167392,-3627.009116,4519.963438,10881.027347
1050.167722,-4293.194464,2604.724693,9992.780217
1050.168052,-4071.132681,383.047749,9400.615463
1050.168381,-4293.194464,-306.438199,8438.347739
1050.168711,-3997.112087,-306.438199,8734.430116
1050.169041,-3330.926739,1225.752797,8734.430116
1050.169370,-3404.947333,2681.334243,9326.594869
1050.169700,-3256.906145,3677.258390,10140.821405
1050.170030,-2886.803174,4979.620737,10436.903782
1050.170359,-1924.535449,5745.716235,10881.027347
1050.170689,-1554.432478,5132.839837,10584.944971
1050.171019,-1258.350101,4060.306139,10658.965565
1050.171348,-444.123565,2757.943793,10288.862594
1050.171678,-148.041188,2451.505594,9400.615463
1050.172008,-222.061783,2604.724693,8586.388927
1050.172337,-444.123565,2911.162892,9400.615463
1050.172667,-296.082377,3677.258390,9992.780217
1050.172997,-518.144159,5132.839837,10436.903782
1050.173326,-1554.432478,6894.859482,10288.862594
1050.173656,-2368.659014,7048.078582,9474.636058
1050.173985,-2442.679609,6052.154434,9252.574275
1050.174315,-2368.659014,5209.449386,8216.285956
1050.174645,-2220.617826,3830.477490,7105.977043
1050.174974,-1258.350101,2451.505594,6291.750507
1050.175304,-1110.308913,1378.971896,6291.750507
1050.175634,-1258.350101,995.924147,6661.853478
1050.175963,-2368.659014,2221.676944,7846.182985
1050.176293,-3108.864956,3140.991542,9104.533087
1050.176623,-3404.947333,4826.401637,9992.780217
1050.176952,-3256.906145,5515.887586,10658.965565
1050.177282,-2368.659014,6052.154434,11177.109724
1050.177612,-1554.432478,5592.497135,10658.965565
1050.177941,-444.123565,4673.182538,10288.862594
1050.178271,-296.082377,4443.353888,10288.862594
1050.178601,0.000000,4213.525239,9548.656652
1050.178930,222.061783,3447.429741,9252.574275
1050.179260,592.164754,3064.381992,8512.368333
1050.179590,1036.288319,2834.553343,8586.388927
1050.179919,1480.411884,2451.505594,9104.533087
1050.180249,740.205942,2451.505594,9844.739029
1050.180579,0.000000,3830.477490,10658.965565
1050.180908,-1924.535449,4826.401637,11325.150913
1050.181238,-1850.514855,5439.278036,11843.295072
1050.181568,-1258.350101,4826.401637,11917.315666
1050.181897,-1184.329507,4673.182538,11473.192101
1050.182227,-1554.432478,3830.477490,10288.862594
1050.182557,-1036.288319,4673.182538,9770.718434
1050.182886,-666.185348,5209.449386,9770.718434
1050.183216,-518.144159,5515.887586,8734.430116
1050.183545,-148.041188,4443.353888,7105.977043
1050.183875,0.000000,2451.505594,6143.709319
1050.184205,-296.082377,1991.848295,5403.503377
1050.184534,-1036.288319,1225.752797,6587.832884
1050.184864,-2294.638420,1532.190996,7994.224174
1050.185194,-3627.009116,2374.896044,9474.636058
1050.185523,-4071.132681,3447.429741,10362.883188
1050.185853,-3108.864956,4213.525239,10955.047942
1050.186183,-1554.432478,4903.011187,11325.150913
1050.186512,0.000000,5592.497135,10658.965565
1050.186842,666.185348,6128.763984,9918.759623
1050.187172,1110.308913,6665.030833,9696.697840
1050.187501,1332.370696,6435.202183,9178.553681
1050.187831,592.164754,6128.763984,8068.244768
1050.188161,-148.041188,5056.230287,7254.018232
1050.188490,-222.061783,3140.991542,6587.832884
1050.188820,-666.185348,536.266849,6513.812290
1050.189150,-1480.411884,-306.438199,6513.812290
1050.189479,-2146.597232,-459.657299,8142.265362
1050.189809,-3034.844362,0.000000,9844.739029
1050.190139,-3256.906145,1915.238745,11843.295072
1050.190468,-2960.823768,3600.648841,12953.603985
1050.190798,-1998.556043,4673.182538,13545.768739
1050.191128,-1332.370696,5745.716235,13323.706956
1050.191457,-740.205942,6511.811733,12583.501014
1050.191787,0.000000,6052.154434,11547.212695
1050.192117,296.082377,4903.011187,10732.986159
1050.192446,74.020594,4213.525239,9548.656652
1050.192776,-296.082377,3370.820191,8216.285956
1050.193106,-1480.411884,2221.676944,7476.080014
1050.193435,-1406.391290,1991.848295,7328.038826
1050.193765,-1036.288319,1302.362347,7624.121203
1050.194094,-296.082377,1608.800546,7846.182985
1050.194424,74.020594,2145.067394,8290.306550
1050.194754,666.185348,2604.724693,8364.327145
1050.195083,592.164754,3600.648841,9918.759623
1050.195413,-444.123565,5515.887586,11177.109724
1050.195743,-1184.329507,7354.516781,12065.356855
1050.196072,-1702.473667,7737.564530,12361.439231
1050.196402,-1850.514855,7048.078582,11917.315666
1050.196732,-2886.803174,6435.202183,11103.089130
1050.197061,-3256.906145,5745.716235,9104.533087
1050.197391,-2590.720797,4443.353888,6217.729913
1050.197721,-296.082377,2987.772442,4145.153275
1050.198050,2220.617826,1838.629195,4219.173869
1050.198380,2590.720797,1608.800546,4663.297435
1050.198710,1332.370696,2451.505594,5921.647536
1050.199039,-1036.288319,4213.525239,8068.244768
1050.199369,-3849.070898,5975.544884,10732.986159
1050.199699,-4885.359217,6588.421283,13693.809927
1050.200028,-4959.379811,6511.811733,15322.262999
1050.200358,-5477.523971,5209.449386,14582.057057
1050.200688,-4959.379811,4596.572988,12435.459826
1050.201017,-3034.844362,3447.429741,9844.739029
1050.201347,-370.102971,2451.505594,7698.141797
1050.201677,2960.823768,1608.800546,5699.585753
1050.202006,4737.318029,2451.505594,5033.400406
1050.202336,5847.626942,3524.039291,5625.565159
1050.202666,4811.338623,4903.011187,7328.038826
1050.202995,1924.535449,6281.983084,10066.800811
1050.203325,-1998.556043,8120.612279,12583.501014
1050.203654,-4663.297435,8503.660028,14137.933492
1050.203984,-4589.276840,6971.469032,14211.954086
1050.204314,-3849.070898,3753.867940,13249.686362
1050.204643,-2590.720797,689.485948,10658.965565
1050.204973,-1702.473667,-612.876398,7254.018232
1050.205303,-1110.308913,-689.485948,5921.647536
1050.205632,-740.205942,1915.238745,7031.956449
1050.205962,-1184.329507,4213.525239,8364.327145
1050.206292,-1628.453072,5439.278036,7698.141797
1050.206621,-1332.370696,4443.353888,6365.771101
1050.206951,-666.185348,1838.629195,6217.729913
1050.207281,0.000000,1532.190996,9178.553681
1050.207610,-1776.494261,3140.991542,11843.295072
1050.207940,-3256.906145,4749.792088,13323.706956
1050.208270,-3775.050304,4979.620737,13249.686362
1050.208599,-2590.720797,4749.792088,13101.645173
1050.208929,-1332.370696,4596.572988,10436.903782
1050.209259,370.102971,3294.210641,7105.977043
1050.209588,2886.803174,536.266849,5033.400406
1050.209918,4367.215058,-306.438199,4663.297435
1050.210248,3552.988522,1149.143247,6365.771101
1050.210577,1628.453072,3447.429741,7254.018232
1050.210907,-444.123565,3753.867940,9622.677246
1050.211237,-2294.638420,3370.820191,11917.315666
1050.211566,-3404.947333,3447.429741,13323.706956
1050.211896,-3552.988522,3447.429741,13471.748144
1050.212226,-3034.844362,766.095498,12805.562797
1050.212555,-2516.700203,1072.533697,12139.377449
1050.212885,-2960.823768,2681.334243,11251.130318
1050.213215,-2442.679609,3830.477490,10436.903782
1050.213544,-1850.514855,4903.011187,9400.615463
1050.213874,-962.267725,6665.030833,8068.244768
1050.214203,222.061783,4903.011187,5699.585753
1050.214533,2294.638420,1685.410096,4663.297435
1050.214863,2664.741391,-229.828649,4737.318029
1050.215192,444.123565,383.047749,6957.935855
1050.215522,-1480.411884,1608.800546,10658.965565
1050.215852,-3330.926739,3064.381992,13397.727550
1050.216181,-5329.482782,4596.572988,14211.954086
1050.216511,-4959.379811,4673.182538,13323.706956
1050.216841,-2590.720797,2451.505594,12287.418637
1050.217170,-444.123565,1225.752797,11399.171507
1050.217500,-222.061783,2834.553343,8734.430116
1050.217830,-592.164754,4136.915689,7179.997637
1050.218159,296.082377,4136.915689,6957.935855
1050.218489,1036.288319,4826.401637,7031.956449
1050.218819,1332.370696,5132.839837,6143.709319
1050.219148,1628.453072,3600.648841,4737.318029
1050.219478,2072.576638,612.876398,4663.297435
1050.219808,1406.391290,153.219100,6661.853478
1050.220137,-814.226536,153.219100,9844.739029
1050.220467,-2960.823768,459.657299,12657.521608
1050.220797,-5699.585753,1838.629195,12879.583391
1050.221126,-5551.544565,1685.410096,12435.459826
1050.221456,-4219.173869,0.000000,12213.398043
1050.221786,-2516.700203,76.609550,11843.295072
1050.222115,-1480.411884,536.266849,10362.883188
1050.222445,-814.226536,766.095498,8512.368333
1050.222775,0.000000,1915.238745,8290.306550
1050.223104,518.144159,3140.991542,7550.100608
1050.223434,2368.659014,2374.896044,6587.832884
1050.223764,3108.864956,153.219100,5625.565159
1050.224093,2960.823768,1225.752797,6809.894666
1050.224423,3034.844362,1915.238745,8586.388927
1050.224752,1332.370696,-153.219100,10955.047942
1050.225082,-1850.514855,-1072.533697,11991.336260
1050.225412,-4811.338623,-842.705048,13027.624579
1050.225741,-5107.421000,-1532.190996,13841.851115
1050.226071,-4959.379811,-1302.362347,13915.871710
1050.226401,-4959.379811,-766.095498,12731.542202
1050.226730,-4367.215058,-919.314598,10658.965565
1050.227060,-2738.761985,-1378.971896,9622.677246
1050.227390,-666.185348,689.485948,8438.347739
1050.227719,1554.432478,1149.143247,6513.812290
1050.228049,3997.112087,-612.876398,4885.359217
1050.228379,3775.050304,-842.705048,5329.482782
1050.228708,3108.864956,0.000000,8290.306550
1050.229038,1998.556043,1302.362347,11843.295072
1050.229368,-1184.329507,3217.601092,13693.809927
1050.229697,-3701.029710,3907.087040,14211.954086
1050.230027,-4293.194464,1302.362347,14211.954086
1050.230357,-3923.091493,-1072.533697,13989.892304
1050.230686,-3552.988522,-459.657299,12509.480420
1050.231016,-3701.029710,306.438199,10140.821405
1050.231346,-3330.926739,229.828649,7402.059420
1050.231675,-2738.761985,1378.971896,5403.503377
1050.232005,-518.144159,229.828649,3849.070898
1050.232335,2220.617826,-1072.533697,3108.864956
1050.232664,2220.617826,612.876398,2812.782580
1050.232994,962.267725,2145.067394,3404.947333
1050.233324,1406.391290,1991.848295,7105.977043
1050.233653,814.226536,1455.581446,11621.233289
1050.233983,-2368.659014,4596.572988,14137.933492
1050.234312,-4737.318029,5056.230287,14508.036463
1050.234642,-4737.318029,2451.505594,14804.118840
1050.234972,-3849.070898,2374.896044,14508.036463
1050.235301,-3404.947333,2451.505594,12361.439231
1050.235631,-2294.638420,229.828649,9030.512492
1050.235961,-1110.308913,-689.485948,5477.523971
1050.236290,296.082377,-459.657299,4071.132681
1050.236620,1628.453072,-153.219100,4293.194464
1050.236950,2294.638420,-536.266849,4663.297435
1050.237279,1850.514855,1072.533697,5255.462188
1050.237609,2516.700203,1072.533697,8068.244768
1050.237939,2146.597232,689.485948,12213.398043
1050.238268,-222.061783,2451.505594,15100.201217
1050.238598,-2812.782580,3753.867940,16432.571912
1050.238928,-3849.070898,2604.724693,16654.633695
1050.239257,-3849.070898,2374.896044,15914.427753
1050.239587,-3849.070898,1532.190996,13693.809927
1050.239917,-2738.761985,-1072.533697,10881.027347
1050.240246,-1332.370696,-2374.896044,6957.935855
1050.240576,666.185348,-995.924147,3701.029710
1050.240906,3627.009116,-2068.457845,2664.741391
1050.241235,5773.606348,-2757.943793,3923.091493
1050.241565,4071.132681,153.219100,5921.647536
1050.241895,1110.308913,2604.724693,8438.347739
1050.242224,-518.144159,4749.792088,12361.439231
1050.242554,-1628.453072,5209.449386,15174.221811
1050.242884,-2960.823768,4903.011187,15692.365970
1050.243213,-3404.947333,2221.676944,14582.057057
1050.243543,-3330.926739,0.000000,13323.706956
1050.243873,-4367.215058,-229.828649,10362.883188
1050.244202,-5995.668130,-459.657299,8142.265362
1050.244532,-5921.647536,-1378.971896,5921.647536
1050.244861,-3849.070898,-842.705048,4145.153275
1050.245191,370.102971,-1378.971896,1850.514855
1050.245521,4219.173869,-2911.162892,1184.329507
1050.245850,4441.235652,-2298.286494,1998.556043
1050.246180,2368.659014,1072.533697,4811.338623
1050.246510,0.000000,3294.210641,9992.780217
1050.246839,-1924.535449,4979.620737,15692.365970
1050.247169,-3404.947333,5822.325785,18949.272115
1050.247499,-4071.132681,4673.182538,18061.024985
1050.247828,-4219.173869,229.828649,15026.180623
1050.248158,-3404.947333,-2451.505594,12213.398043
1050.248488,-2738.761985,-2451.505594,9992.780217
1050.248817,-1480.411884,-2145.067394,8660.409521
1050.249147,-1036.288319,-1225.752797,6587.832884
1050.249477,-518.144159,-689.485948,4737.318029
1050.249806,1998.556043,-1762.019645,3849.070898
1050.250136,3701.029710,-1302.362347,4737.318029
1050.250466,3108.864956,1455.581446,6661.853478
1050.250795,2368.659014,2911.162892,10140.821405
1050.251125,888.247130,1455.581446,14359.995275
1050.251455,-2368.659014,2681.334243,17320.819043
1050.251784,-5255.462188,3830.477490,17468.860231
1050.252114,-5847.626942,1225.752797,15692.365970
1050.252444,-5181.441594,-536.266849,12583.501014
1050.252773,-3627.009116,-1532.190996,10732.986159
1050.253103,-2220.617826,-3217.601092,7846.182985
1050.253433,-888.247130,-3600.648841,4811.338623
1050.253762,296.082377,-995.924147,3256.906145
1050.254092,2516.700203,383.047749,2516.700203
1050.254422,5107.421000,1302.362347,4663.297435
1050.254751,5403.503377,2987.772442,6735.874072
1050.255081,4145.153275,4290.134789,9844.739029
1050.255410,1998.556043,4903.011187,12805.562797
1050.255740,-888.247130,5822.325785,14804.118840
1050.256070,-3108.864956,4903.011187,15692.365970
1050.256399,-3849.070898,1685.410096,14656.077652
1050.256729,-4663.297435,-306.438199,12583.501014
1050.257059,-4885.359217,-1225.752797,10140.821405
1050.257388,-4885.359217,-2528.115143,7920.203579
1050.257718,-4367.215058,-1685.410096,5921.647536
1050.258048,-2368.659014,153.219100,3849.070898
1050.258377,1332.370696,306.438199,2220.617826
1050.258707,4515.256246,-766.095498,2590.720797
1050.259037,4589.276840,1072.533697,4515.256246
1050.259366,2368.659014,3753.867940,7476.080014
1050.259696,-370.102971,4979.620737,11917.315666
1050.260026,-2368.659014,6281.983084,15766.386565
1050.260355,-4145.153275,5515.887586,16950.716072
1050.260685,-4515.256246,2528.115143,15914.427753
1050.261014,-4515.256246,-1915.238745,13323.706956
1050.261344,-4293.194464,-3217.601092,10288.862594
1050.261674,-4219.173869,-2221.676944,8438.347739
1050.262003,-3849.070898,-2068.457845,7105.977043
1050.262333,-2220.617826,-689.485948,5847.626942
1050.262662,222.061783,76.609550,4885.359217
1050.262992,3182.885551,-306.438199,4515.256246
1050.263322,3849.070898,689.485948,4219.173869
1050.263651,3701.029710,1838.629195,5329.482782
1050.263981,3108.864956,1915.238745,9622.677246
1050.264310,666.185348,2451.505594,13767.830521
1050.264640,-2516.700203,3983.696590,15396.283594
1050.264970,-4589.276840,1762.019645,14804.118840
1050.265299,-4737.318029,-1915.238745,13619.789333
1050.265629,-5033.400406,-3064.381992,12213.398043
1050.265958,-4367.215058,-2604.724693,11103.089130
1050.266288,-3108.864956,-3600.648841,8808.450710
1050.266618,-1628.453072,-3140.991542,6513.812290
1050.266947,296.082377,-1532.190996,5773.606348
1050.267277,3034.844362,0.000000,6957.935855
1050.267606,3997.112087,1455.581446,7846.182985
1050.267936,3552.988522,4060.306139,8586.388927
1050.268266,2886.803174,3677.258390,10436.903782
1050.268595,1480.411884,2221.676944,13545.768739
1050.268925,-888.247130,2681.334243,16062.468941
1050.269254,-4071.132681,2757.943793,15618.345376
1050.269584,-4959.379811,153.219100,13397.727550
1050.269914,-5033.400406,-1608.800546,11177.109724
1050.270243,-4737.318029,-2068.457845,9918.759623
1050.270573,-4589.276840,-2221.676944,8512.368333
1050.270902,-3775.050304,-1532.190996,5625.565159
1050.271232,-1406.391290,383.047749,3627.009116
1050.271561,2368.659014,842.705048,3256.906145
1050.271891,4737.318029,1149.143247,3849.070898
1050.272221,4367.215058,2221.676944,5551.544565
1050.272550,2146.597232,3907.087040,7846.182985
1050.272880,444.123565,4136.915689,11769.274478
1050.273209,-1924.535449,5515.887586,14656.077652
1050.273539,-4367.215058,4749.792088,14952.160028
1050.273869,-4737.318029,1532.190996,13767.830521
1050.274198,-3997.112087,-1455.581446,11547.212695
1050.274528,-4071.132681,-1991.848295,9474.636058
1050.274857,-4219.173869,-995.924147,7994.224174
1050.275187,-3775.050304,-842.705048,6439.791695
1050.275517,-2442.679609,919.314598,4663.297435
1050.275846,222.061783,919.314598,3627.009116
1050.276176,3256.906145,153.219100,3775.050304
1050.276505,3552.988522,1378.971896,4367.215058
1050.276835,2812.782580,2298.286494,5995.668130
1050.277165,2664.741391,1762.019645,10288.862594
1050.277494,1184.329507,2298.286494,15248.242405
1050.277824,-2516.700203,3753.867940,16950.716072
1050.278153,-5329.482782,2681.334243,16136.489536
1050.278483,-5033.400406,-383.047749,15100.201217
1050.278813,-3627.009116,-1302.362347,14137.933492
1050.279142,-2812.782580,-766.095498,11917.315666
1050.279472,-1850.514855,-1915.238745,8808.450710
1050.279801,-814.226536,-2068.457845,5699.585753
1050.280131,1110.308913,-995.924147,4663.297435
1050.280461,4441.235652,-229.828649,5995.668130
1050.280790,5107.421000,689.485948,6513.812290
1050.281120,3034.844362,3064.381992,7624.121203
1050.281449,1850.514855,3524.039291,9696.697840
1050.281779,888.247130,2068.457845,13471.748144
1050.282109,-1406.391290,2987.772442,15692.365970
1050.282438,-4441.235652,3140.991542,14508.036463
1050.282768,-5477.523971,1149.143247,12953.603985
1050.283097,-5181.441594,-1838.629195,11251.130318
1050.283427,-4515.256246,-2451.505594,10140.821405
1050.283757,-4219.173869,-1838.629195,9178.553681
1050.284086,-3997.112087,-306.438199,5847.626942
1050.284416,-1480.411884,76.609550,2664.741391
1050.284745,3404.947333,-536.266849,2738.761985
1050.285075,6291.750507,-689.485948,3997.112087
1050.285404,4885.359217,1991.848295,5699.585753
1050.285734,2368.659014,5209.449386,8882.471304
1050.286064,0.000000,5592.497135,11917.315666
1050.286393,-2146.597232,6358.592633,15396.283594
1050.286723,-4145.153275,5286.058936,16284.530724
1050.287052,-4663.297435,1455.581446,14582.057057
1050.287382,-4737.318029,-1991.848295,11251.130318
1050.287712,-5033.400406,-2451.505594,8586.388927
1050.288041,-4811.338623,-2451.505594,7328.038826
1050.288371,-4145.153275,-1838.629195,6513.812290
1050.288700,-3034.844362,-229.828649,4589.276840
1050.289030,0.000000,689.485948,2664.741391
1050.289360,3923.091493,-689.485948,2812.782580
1050.289689,4885.359217,153.219100,4885.359217
1050.290019,3478.967927,2987.772442,7772.162391
1050.290348,1184.329507,3600.648841,11843.295072
1050.290678,-888.247130,4136.915689,15914.427753
1050.291008,-2886.803174,5132.839837,17542.880825
1050.291337,-4219.173869,4060.306139,17246.798449
1050.291667,-3849.070898,229.828649,14952.160028
1050.291996,-3849.070898,-1838.629195,12065.356855
1050.292326,-2812.782580,-2451.505594,9400.615463
1050.292656,-1850.514855,-3217.601092,7402.059420
1050.292985,-1184.329507,-1302.362347,5995.668130
1050.293315,222.061783,1149.143247,4959.379811
1050.293644,3034.844362,-229.828649,4293.194464
1050.293974,4737.318029,-536.266849,4885.359217
1050.294304,3849.070898,1762.019645,7772.162391
1050.294633,1998.556043,3983.696590,11473.192101
1050.294963,-518.144159,4673.182538,14508.036463
1050.295292,-3256.906145,4290.134789,15322.262999
1050.295622,-4515.256246,3140.991542,15174.221811
1050.295952,-3849.070898,612.876398,14211.954086
1050.296281,-3997.112087,-459.657299,12213.398043
1050.296611,-4515.256246,-153.219100,9770.718434
1050.296940,-4441.235652,-842.705048,7698.141797
1050.297270,-3330.926739,0.000000,4811.338623
1050.297600,0.000000,229.828649,3182.885551
1050.297929,3552.988522,-306.438199,2812.782580
1050.298259,5181.441594,306.438199,3701.029710
1050.298588,3849.070898,2604.724693,5699.585753
1050.298918,814.226536,4749.792088,8438.347739
1050.299248,-1332.370696,5209.449386,13101.645173
1050.299577,-3182.885551,6435.202183,16210.510130
1050.299907,-4219.173869,5975.544884,16062.468941
1050.300236,-3701.029710,1608.800546,12361.439231
1050.300566,-2960.823768,-2911.162892,9104.533087
1050.300895,-3701.029710,-2834.553343,8586.388927
1050.301225,-5033.400406,-1072.533697,8660.409521
1050.301555,-4885.359217,383.047749,7179.997637
1050.301884,-3330.926739,1225.752797,4441.235652
1050.302214,1406.391290,0.000000,3404.947333
1050.302543,5181.441594,-2068.457845,3775.050304
1050.302873,5403.503377,-995.924147,5255.462188
1050.303203,3330.926739,2145.067394,7920.203579
1050.303532,0.000000,3907.087040,13249.686362
1050.303862,-2812.782580,6205.373534,18505.148550
1050.304191,-4811.338623,7048.078582,19023.292709
1050.304521,-4737.318029,2374.896044,16580.613101
1050.304851,-3256.906145,-2911.162892,13027.624579
1050.305180,-3256.906145,-3370.820191,9844.739029
1050.305510,-2812.782580,-2681.334243,8512.368333
1050.305839,-2368.659014,-2451.505594,7772.162391
1050.306169,-1554.432478,0.000000,6291.750507
1050.306499,518.144159,766.095498,4811.338623
1050.306828,3701.029710,-536.266849,4219.173869
1050.307158,4737.318029,-536.266849,5181.441594
1050.307487,3256.906145,1915.238745,7772.162391
1050.307817,1258.350101,3064.381992,11917.315666
1050.308147,-666.185348,4366.744339,15766.386565
1050.308476,-3182.885551,5745.716235,16580.613101
1050.308806,-4589.276840,3370.820191,14878.139434
1050.309135,-3849.070898,-612.876398,12435.459826
1050.309465,-3701.029710,-1762.019645,10658.965565
1050.309795,-3552.988522,-766.095498,9474.636058
1050.310124,-3627.009116,0.000000,7179.997637
1050.310454,-2886.803174,1378.971896,4811.338623
1050.310783,0.000000,612.876398,3330.926739
1050.311113,3256.906145,-306.438199,3108.864956
1050.311443,4589.276840,76.609550,4663.297435
1050.311772,2812.782580,3370.820191,6661.853478
1050.312102,296.082377,4749.792088,9770.718434
1050.312431,-1332.370696,4826.401637,13471.748144
1050.312761,-3256.906145,5132.839837,15396.283594
1050.313091,-4293.194464,3830.477490,14582.057057
1050.313420,-3256.906145,612.876398,12509.480420
1050.313750,-2664.741391,-1149.143247,10881.027347
1050.314079,-3627.009116,0.000000,9622.677246
1050.314409,-4145.153275,0.000000,9252.574275
1050.314738,-3256.906145,459.657299,7846.182985
1050.315068,-1110.308913,2451.505594,4811.338623
1050.315398,2516.700203,689.485948,2960.823768
1050.315727,5699.585753,-1225.752797,2960.823768
1050.316057,5625.565159,153.219100,5107.421000
1050.316386,2738.761985,2451.505594,9030.512492
1050.316716,-222.061783,4903.011187,13767.830521
1050.317046,-2960.823768,6818.249932,17542.880825
1050.317375,-4663.297435,7124.688131,17246.798449
1050.317705,-4071.132681,2451.505594,14952.160028
1050.318034,-3108.864956,-2451.505594,11621.233289
1050.318364,-2886.803174,-3140.991542,9104.533087
1050.318694,-3404.947333,-2068.457845,7624.121203
1050.319023,-3256.906145,0.000000,7105.977043
1050.319353,-2442.679609,1225.752797,5255.462188
1050.319682,148.041188,0.000000,3330.926739
1050.320012,3404.947333,-2145.067394,3701.029710
1050.320342,4515.256246,-1225.752797,5551.544565
1050.320671,2886.803174,2221.676944,8734.430116
1050.321001,1036.288319,2834.553343,12287.418637
1050.321330,-1480.411884,2757.943793,16284.530724
1050.321660,-3701.029710,4366.744339,17690.922014
1050.321990,-4737.318029,3370.820191,17024.736666
1050.322319,-4071.132681,153.219100,14656.077652
1050.322649,-3256.906145,-1532.190996,11769.274478
1050.322978,-3404.947333,-2834.553343,9252.574275
1050.323308,-2220.617826,-2374.896044,7476.080014
1050.323638,-1258.350101,-1072.533697,5699.585753
1050.323967,666.185348,536.266849,4515.256246
1050.324297,3108.864956,612.876398,3849.070898
1050.324626,3997.112087,306.438199,5033.400406
1050.324956,2738.761985,2068.457845,7402.059420
1050.325286,148.041188,3217.601092,10658.965565
1050.325615,-2220.617826,3677.258390,13471.748144
1050.325945,-4219.173869,4060.306139,14878.139434
1050.326274,-5255.462188,2451.505594,13915.871710
1050.326604,-4885.359217,-153.219100,12287.418637
1050.326934,-4811.338623,-1991.848295,10510.924376
1050.327263,-4515.256246,-842.705048,8882.471304
1050.327593,-3923.091493,-306.438199,7328.038826
1050.327922,-2368.659014,153.219100,5181.441594
1050.328252,592.164754,995.924147,3256.906145
1050.328581,3478.967927,536.266849,2368.659014
1050.328911,5477.523971,76.609550,3775.050304
1050.329241,4145.153275,2451.505594,6217.729913
1050.329570,2072.576638,3294.210641,10214.842000
1050.329900,-740.205942,4673.182538,13989.892304
1050.330229,-3552.988522,4903.011187,16432.571912
1050.330559,-4885.359217,4290.134789,15840.407159
1050.330889,-4219.173869,383.047749,14137.933492
1050.331218,-3330.926739,-2221.676944,11843.295072
1050.331548,-3330.926739,-995.924147,10214.842000
1050.331877,-3256.906145,-1532.190996,8512.368333
1050.332207,-2368.659014,-1225.752797,6809.894666
1050.332537,-888.247130,459.657299,5329.482782
1050.332866,1628.453072,229.828649,4515.256246
1050.333196,3330.926739,0.000000,4663.297435
1050.333525,3627.009116,306.438199,5403.503377
1050.333855,2886.803174,1991.848295,9622.677246
1050.334185,1036.288319,2374.896044,13915.871710
1050.334514,-2146.597232,3830.477490,17024.736666
1050.334844,-4589.276840,4903.011187,17690.922014
1050.335173,-4737.318029,2604.724693,15544.324782
1050.335503,-3849.070898,0.000000,13323.706956
1050.335833,-2886.803174,-995.924147,11029.068536
1050.336162,-2368.659014,-1378.971896,8586.388927
1050.336492,-1850.514855,-1225.752797,6143.709319
1050.336821,-370.102971,995.924147,3775.050304
1050.337151,1702.473667,919.314598,2886.803174
1050.337481,3923.091493,76.609550,3404.947333
1050.337810,3775.050304,229.828649,4515.256246
1050.338140,1776.494261,2528.115143,7179.997637
1050.338469,148.041188,3600.648841,11251.130318
1050.338799,-2220.617826,3064.381992,14211.954086
1050.339129,-4663.297435,4366.744339,15470.304188
1050.339458,-5107.421000,2834.553343,14359.995275
1050.339788,-4219.173869,-306.438199,12657.521608
1050.340117,-3404.947333,-1149.143247,10658.965565
1050.340447,-4367.215058,-383.047749,8512.368333
1050.340777,-3404.947333,-995.924147,7105.977043
1050.341106,-1998.556043,-612.876398,5477.523971
1050.341436,814.226536,1072.533697,3923.091493
1050.341765,3923.091493,-306.438199,3182.885551
1050.342095,5329.482782,-1532.190996,3923.091493
1050.342424,3775.050304,995.924147,6957.935855
1050.342754,962.267725,2987.772442,10807.006753
1050.343084,-1776.494261,3677.258390,14211.954086
1050.343413,-3997.112087,3600.648841,16580.613101
1050.343743,-4663.297435,2757.943793,16580.613101
1050.344072,-4737.318029,-1072.533697,14359.995275
1050.344402,-3923.091493,-3370.820191,11769.274478
1050.344732,-3478.967927,-3140.991542,9844.739029
1050.345061,-2812.782580,-2374.896044,8438.347739
1050.345391,-2072.576638,-1302.362347,7105.977043
1050.345720,-518.144159,229.828649,6291.750507
1050.346050,2072.576638,306.438199,5181.441594
1050.346380,3923.091493,-229.828649,5033.400406
1050.346709,3775.050304,153.219100,6513.812290
1050.347039,2220.617826,306.438199,9918.759623
1050.347368,148.041188,2374.896044,14211.954086
1050.347698,-2812.782580,3677.258390,16062.468941
1050.348028,-4589.276840,3370.820191,15470.304188
1050.348357,-3923.091493,76.609550,14063.912898
1050.348687,-2664.741391,-1838.629195,12509.480420
1050.349016,-2294.638420,-919.314598,10510.924376
1050.349346,-2442.679609,-612.876398,7920.203579
1050.349676,-2072.576638,0.000000,6143.709319
1050.350005,-370.102971,842.705048,4589.276840
1050.350335,1702.473667,1225.752797,3997.112087
1050.350664,3256.906145,383.047749,3552.988522
1050.350994,4071.132681,842.705048,5773.606348
1050.351324,1850.514855,2451.505594,8808.450710
1050.351653,-1036.288319,4290.134789,11843.295072
1050.351983,-3330.926739,4749.792088,14063.912898
1050.352312,-4367.215058,4060.306139,14285.974681
1050.352642,-3256.906145,2681.334243,13027.624579
1050.352972,-2738.761985,-229.828649,11843.295072
1050.353301,-2886.803174,-689.485948,10510.924376
1050.353631,-4071.132681,-229.828649,8734.430116
1050.353960,-4441.235652,919.314598,7550.100608
1050.354290,-2960.823768,2681.334243,5477.523971
1050.354620,740.205942,1685.410096,3849.070898
1050.354949,4885.359217,-459.657299,2590.720797
1050.355279,5699.585753,-1072.533697,3034.844362
1050.355608,3923.091493,919.314598,5699.585753
1050.355938,1258.350101,3140.991542,9992.780217
1050.356267,-1776.494261,5515.887586,14508.036463
1050.356597,-5181.441594,6818.249932,16580.613101
1050.356927,-5847.626942,3677.258390,16062.468941
1050.357256,-4071.132681,-995.924147,14582.057057
1050.357586,-3478.967927,-2451.505594,11547.212695
1050.357915,-4219.173869,-2451.505594,9178.553681
1050.358245,-4589.276840,-1838.629195,7698.141797
1050.358575,-3330.926739,-1302.362347,6883.915261
1050.358904,-1110.308913,-689.485948,6143.709319
1050.359234,1702.473667,-229.828649,5181.441594
1050.359563,4145.153275,-306.438199,4959.379811
1050.359893,4145.153275,76.609550,6587.832884
1050.360223,2516.700203,1149.143247,10288.862594
1050.360552,296.082377,1762.019645,14656.077652
1050.360882,-1998.556043,3524.039291,16876.695478
1050.361211,-3849.070898,3524.039291,16284.530724
1050.361541,-3775.050304,919.314598,14063.912898
1050.361871,-2812.782580,-3447.429741,12805.562797
1050.362200,-2220.617826,-3064.381992,11473.192101
1050.362530,-2146.597232,-1149.143247,9030.512492
1050.362859,-2072.576638,-1149.143247,6365.771101
1050.363189,222.061783,-1225.752797,4515.256246
1050.363518,2516.700203,-689.485948,3256.906145
1050.363848,4589.276840,-689.485948,4441.235652
1050.364178,3701.029710,1455.581446,5699.585753
1050.364507,1036.288319,2451.505594,7698.141797
1050.364837,-592.164754,1838.629195,11917.315666
1050.365166,-3034.844362,2834.553343,15544.324782
1050.365496,-5921.647536,3677.258390,15618.345376
1050.365825,-5699.585753,995.924147,13397.727550
1050.366155,-4145.153275,-2451.505594,11769.274478
1050.366484,-3330.926739,-1149.143247,10362.883188
1050.366814,-4071.132681,612.876398,9326.594869
1050.367143,-2960.823768,995.924147,7402.059420
1050.367473,-1406.391290,2068.457845,4663.297435
1050.367803,1258.350101,2145.067394,3256.906145
1050.368132,4737.318029,766.095498,3923.091493
1050.368462,5625.565159,229.828649,4441.235652
1050.368791,3404.947333,842.705048,6809.894666
1050.369121,592.164754,2757.943793,10955.047942
1050.369450,-2516.700203,4519.963438,15396.283594
1050.369780,-4811.338623,5515.887586,17320.819043
1050.370109,-5477.523971,3677.258390,15692.365970
1050.370439,-4441.235652,-153.219100,13027.624579
1050.370768,-3108.864956,-1991.848295,10658.965565
1050.371098,-2664.741391,-612.876398,9474.636058
1050.371428,-2886.803174,689.485948,7550.100608
1050.371757,-2516.700203,842.705048,5625.565159
1050.372087,-296.082377,1378.971896,3923.091493
1050.372416,2886.803174,919.314598,3330.926739
1050.372746,5033.400406,-459.657299,4367.215058
1050.373075,4145.153275,689.485948,5625.565159
1050.373405,1924.535449,1915.238745,8512.368333
1050.373734,-370.102971,2298.286494,13397.727550
1050.374064,-3108.864956,3677.258390,16506.592507
1050.374394,-5181.441594,4136.915689,16728.654289
1050.374723,-4737.318029,842.705048,15026.180623
1050.375053,-3404.947333,-1915.238745,13175.665768
1050.375382,-3775.050304,-1149.143247,10584.944971
1050.375712,-3182.885551,-612.876398,8882.471304
1050.376041,-2146.597232,-689.485948,7031.956449
1050.376371,222.061783,612.876398,4737.318029
1050.376700,2590.720797,76.609550,3256.906145
1050.377030,5329.482782,-1532.190996,4145.153275
1050.377359,5625.565159,-306.438199,6365.771101
1050.377689,2516.700203,2068.457845,9178.553681
1050.378019,-296.082377,3753.867940,13175.665768
1050.378348,-2516.700203,4443.353888,16506.592507
1050.378678,-3997.112087,4290.134789,17912.983796
1050.379007,-4589.276840,2987.772442,15470.304188
1050.379337,-3997.112087,-306.438199,12361.439231
1050.379666,-3034.844362,-2451.505594,9992.780217
1050.379996,-3552.988522,-2145.067394,8956.491898
1050.380325,-4219.173869,-383.047749,8068.244768
1050.380655,-3108.864956,1378.971896,5477.523971
1050.380985,0.000000,919.314598,2442.679609
1050.381314,4441.235652,-1302.362347,1184.329507
1050.381644,5329.482782,-1378.971896,2960.823768
1050.381973,3478.967927,1072.533697,6291.750507
1050.382303,296.082377,4060.306139,10584.944971
1050.382632,-2886.803174,5898.935335,14656.077652
1050.382962,-4959.379811,6665.030833,16950.716072
1050.383291,-5773.606348,4290.134789,15988.448347
1050.383621,-4737.318029,-612.876398,13471.748144
1050.383950,-3627.009116,-2528.115143,10732.986159
1050.384280,-3404.947333,-1225.752797,8364.327145
1050.384610,-2812.782580,0.000000,7031.956449
1050.384939,-1850.514855,76.609550,5181.441594
1050.385269,222.061783,536.266849,3552.988522
1050.385598,2812.782580,459.657299,2886.803174
1050.385928,4737.318029,-306.438199,3330.926739
1050.386257,4145.153275,1149.143247,5921.647536
1050.386587,2738.761985,1685.410096,10066.800811
1050.386916,0.000000,2145.067394,15174.221811
1050.387246,-2664.741391,4060.306139,17616.901420
1050.387576,-4737.318029,4366.744339,17246.798449
1050.387905,-4293.194464,1762.019645,15396.283594
1050.388235,-3256.906145,-995.924147,13915.871710
1050.388564,-2886.803174,-1378.971896,11769.274478
1050.388894,-2146.597232,-1455.581446,8882.471304
1050.389223,-740.205942,-1149.143247,6809.894666
1050.389553,666.185348,229.828649,4737.318029
1050.389882,2886.803174,459.657299,4737.318029
1050.390212,4293.194464,-689.485948,4737.318029
1050.390541,4145.153275,153.219100,5995.668130
1050.390871,2294.638420,1685.410096,9252.574275
1050.391201,0.000000,3753.867940,13249.686362
1050.391530,-2516.700203,5975.544884,15766.386565
1050.391860,-3775.050304,4443.353888,15618.345376
1050.392189,-3775.050304,1149.143247,13323.706956
1050.392519,-3478.967927,-1378.971896,11251.130318
1050.392848,-3108.864956,-1072.533697,10214.842000
1050.393178,-4441.235652,-842.705048,8956.491898
1050.393507,-5255.462188,229.828649,6661.853478
1050.393837,-3330.926739,1302.362347,3775.050304
1050.394166,1332.370696,612.876398,3108.864956
1050.394496,4959.379811,842.705048,3034.844362
1050.394826,4441.235652,842.705048,3182.885551
1050.395155,3108.864956,1532.190996,5773.606348
1050.395485,444.123565,3140.991542,10807.006753
1050.395814,-2368.659014,6511.811733,15692.365970
1050.396144,-4885.359217,7431.126331,16728.654289
1050.396473,-4959.379811,4060.306139,15544.324782
1050.396803,-3701.029710,-536.266849,13545.768739
1050.397132,-3849.070898,-919.314598,11399.171507
1050.397462,-4589.276840,-536.266849,9178.553681
1050.397792,-4219.173869,-1149.143247,7624.121203
1050.398121,-2664.741391,-459.657299,6143.709319
1050.398451,-666.185348,689.485948,3775.050304
1050.398780,2590.720797,-306.438199,3701.029710
1050.399110,4737.318029,-766.095498,4071.132681
1050.399439,4663.297435,919.314598,5847.626942
1050.399769,3034.844362,2604.724693,10584.944971
1050.400098,148.041188,3907.087040,15396.283594
1050.400428,-2590.720797,5132.839837,17246.798449
1050.400757,-4219.173869,3524.039291,16802.674883
1050.401087,-3552.988522,1225.752797,15248.242405
1050.401417,-2886.803174,-1072.533697,13101.645173
1050.401746,-2368.659014,-2068.457845,11103.089130
1050.402076,-2368.659014,-1608.800546,8364.327145
1050.402405,-1776.494261,-995.924147,7031.956449
1050.402735,74.020594,919.314598,5107.421000
1050.403064,2368.659014,536.266849,4219.173869
1050.403394,3923.091493,-842.705048,3256.906145
1050.403723,3256.906145,306.438199,4737.318029
1050.404053,1776.494261,1532.190996,8660.409521
1050.404383,-370.102971,3294.210641,13471.748144
1050.404712,-3404.947333,4213.525239,15544.324782
1050.405042,-5329.482782,3677.258390,15174.221811
1050.405371,-4293.194464,919.314598,13989.892304
1050.405701,-3404.947333,-1608.800546,12213.398043
1050.406030,-3182.885551,-766.095498,10214.842000
1050.406360,-3404.947333,0.000000,8660.409521
1050.406689,-2738.761985,459.657299,6883.915261
1050.407019,-740.205942,1685.410096,4293.194464
1050.407348,2294.638420,536.266849,3256.906145
1050.407678,4959.379811,-459.657299,3775.050304
1050.408008,4589.276840,383.047749,4441.235652
1050.408337,2590.720797,1991.848295,7254.018232
1050.408667,222.061783,2987.772442,11917.315666
1050.408996,-2516.700203,4443.353888,15618.345376
1050.409326,-4811.338623,5209.449386,16580.613101
1050.409655,-4959.379811,3217.601092,14952.160028
1050.409985,-4367.215058,0.000000,12287.418637
1050.410314,-3997.112087,-1302.362347,9918.759623
1050.410644,-3627.009116,-1378.971896,8512.368333
1050.410973,-3997.112087,-689.485948,6957.935855
1050.411303,-2812.782580,-153.219100,5107.421000
1050.411633,-444.123565,0.000000,3627.009116
1050.411962,2738.761985,-1149.143247,2738.761985
1050.412292,3701.029710,-1225.752797,3923.091493
1050.412621,3478.967927,536.266849,7254.018232
1050.412951,1332.370696,3140.991542,12139.377449
1050.413280,-1332.370696,4366.744339,16506.592507
1050.413610,-3701.029710,5515.887586,18061.024985
1050.413939,-4367.215058,3830.477490,17098.757260
1050.414269,-3256.906145,153.219100,14878.139434
1050.414599,-2146.597232,-1762.019645,12435.459826
1050.414928,-2072.576638,-1225.752797,9770.718434
1050.415258,-1332.370696,-995.924147,7846.182985
1050.415587,-592.164754,-1149.143247,6291.750507
1050.415917,518.144159,153.219100,3997.112087
1050.416246,2812.782580,-919.314598,3404.947333
1050.416576,3775.050304,-1455.581446,4145.153275
1050.416905,2960.823768,76.609550,5329.482782
1050.417235,1850.514855,1762.019645,9918.759623
1050.417564,74.020594,2834.553343,14285.974681
1050.417894,-3182.885551,4443.353888,16358.551318
1050.418224,-5255.462188,4596.572988,16062.468941
1050.418553,-4737.318029,1991.848295,14359.995275
1050.418883,-3627.009116,0.000000,12509.480420
1050.419212,-3034.844362,-383.047749,10214.842000
1050.419542,-3256.906145,-766.095498,7254.018232
1050.419871,-2368.659014,-306.438199,4885.359217
1050.420201,-444.123565,1149.143247,3478.967927
1050.420530,2664.741391,229.828649,2960.823768
1050.420860,4589.276840,-842.705048,3478.967927
1050.421190,3627.009116,1225.752797,5107.421000
1050.421519,1036.288319,3064.381992,7698.141797
1050.421849,-814.226536,4136.915689,11991.336260
1050.422178,-2812.782580,4749.792088,15470.304188
1050.422508,-4515.256246,4979.620737,16062.468941
1050.422837,-4219.173869,2528.115143,14656.077652
1050.423167,-3701.029710,-766.095498,11843.295072
1050.423496,-3701.029710,-1225.752797,10510.924376
1050.423826,-3997.112087,-229.828649,8734.430116
1050.424155,-3775.050304,-459.657299,6957.935855
1050.424485,-1998.556043,766.095498,4145.153275
1050.424815,814.226536,229.828649,3182.885551
1050.425144,4293.194464,-1225.752797,3330.926739
1050.425474,4071.132681,-919.314598,4737.318029
1050.425803,2368.659014,766.095498,7476.080014
1050.426133,592.164754,3064.381992,12509.480420
1050.426462,-1628.453072,3753.867940,16950.716072
1050.426792,-4367.215058,5515.887586,18283.086767
1050.427121,-4663.297435,2681.334243,16654.633695
1050.427451,-3404.947333,-1072.533697,13989.892304
1050.427781,-2442.679609,-1838.629195,11325.150913
1050.428110,-2368.659014,-306.438199,8660.409521
1050.428440,-1332.370696,-1532.190996,7402.059420
1050.428769,-1332.370696,-1225.752797,5329.482782
1050.429099,-370.102971,-229.828649,3849.070898
1050.429428,1258.350101,-1455.581446,3627.009116
1050.429758,2664.741391,-1838.629195,3923.091493
1050.430087,3256.906145,0.000000,6735.874072
1050.430417,2368.659014,1455.581446,10362.883188
1050.430746,222.061783,1608.800546,15100.201217
1050.431076,-3256.906145,4136.915689,17024.736666
1050.431406,-5255.462188,4136.915689,16802.674883
1050.431735,-4885.359217,2145.067394,15988.448347
1050.432065,-3478.967927,612.876398,13619.789333
1050.432394,-3108.864956,-689.485948,10436.903782
1050.432724,-2146.597232,-2374.896044,6883.915261
1050.433053,-888.247130,-2374.896044,4737.318029
1050.433383,814.226536,153.219100,4219.173869
1050.433712,2220.617826,612.876398,3775.050304
1050.434042,3330.926739,76.609550,3997.112087
1050.434371,2886.803174,689.485948,5181.441594
1050.434701,1628.453072,1608.800546,8512.368333
1050.435031,148.041188,2374.896044,12657.521608
1050.435360,-2368.659014,4290.134789,15100.201217
1050.435690,-4145.153275,4366.744339,15840.407159
1050.436019,-4515.256246,2681.334243,14211.954086
1050.436349,-4293.194464,229.828649,12139.377449
1050.436678,-4293.194464,-306.438199,9918.759623
1050.437008,-3478.967927,0.000000,8290.306550
1050.437337,-3256.906145,-536.266849,5921.647536
1050.437667,-1184.329507,229.828649,3182.885551
1050.437997,1480.411884,-612.876398,2738.761985
1050.438326,3552.988522,-1762.019645,3256.906145
1050.438656,3552.988522,153.219100,5033.400406
1050.438985,1628.453072,1838.629195,7105.977043
1050.439315,0.000000,2451.505594,11843.295072
1050.439644,-2146.597232,3907.087040,16210.510130
1050.439974,-4293.194464,5056.230287,17172.777854
1050.440303,-4441.235652,1991.848295,15544.324782
1050.440633,-3627.009116,-919.314598,12879.583391
1050.440962,-2812.782580,-2068.457845,10510.924376
1050.441292,-2220.617826,-1762.019645,9326.594869
1050.441622,-1776.494261,-1838.629195,8438.347739
1050.441951,-1110.308913,-306.438199,4737.318029
1050.442281,592.164754,-306.438199,4441.235652
1050.442610,2812.782580,-1072.533697,4811.338623
1050.442940,3627.009116,-306.438199,5625.565159
1050.443269,2960.823768,1149.143247,7550.100608
1050.443599,1554.432478,1532.190996,11029.068536
1050.443928,-296.082377,1302.362347,15248.242405
1050.444258,-3404.947333,3983.696590,18505.148550
1050.444588,-5329.482782,4443.353888,17838.963202
1050.444917,-4885.359217,1149.143247,14952.160028
1050.445247,-3627.009116,-1072.533697,12435.459826
1050.445576,-2368.659014,-1225.752797,9548.656652
1050.445906,-1776.494261,-1072.533697,7105.977043
1050.446235,-444.123565,-306.438199,4367.215058
1050.446565,888.247130,1378.971896,2664.741391
1050.446894,2960.823768,766.095498,2072.576638
1050.447224,4441.235652,-383.047749,3256.906145
1050.447553,3108.864956,1072.533697,5847.626942
1050.447883,74.020594,2604.724693,9400.615463
1050.448213,-2146.597232,2987.772442,13323.706956
1050.448542,-4293.194464,4443.353888,15470.304188
1050.448872,-5329.482782,3524.039291,15396.283594
1050.449201,-4589.276840,1532.190996,14211.954086
1050.449531,-3997.112087,0.000000,11917.315666
1050.449860,-3923.091493,-229.828649,10214.842000
1050.450190,-3627.009116,459.657299,8438.347739
1050.450519,-3182.885551,1149.143247,5921.647536
1050.450849,-740.205942,1072.533697,3108.864956
1050.451179,2664.741391,0.000000,2664.741391
1050.451508,4737.318029,-919.314598,3034.844362
1050.451838,4145.153275,-306.438199,4737.318029
1050.452167,1554.432478,1378.971896,7994.224174
1050.452497,-888.247130,2221.676944,12953.603985
1050.452826,-2664.741391,4443.353888,16432.571912
1050.453156,-4515.256246,4443.353888,17172.777854
1050.453485,-4071.132681,1991.848295,15766.386565
1050.453815,-2886.803174,-995.924147,12953.603985
1050.454144,-2368.659014,-1762.019645,10881.027347
1050.454474,-2442.679609,-995.924147,8882.471304
1050.454804,-2220.617826,-229.828649,7402.059420
1050.455133,-814.226536,76.609550,5181.441594
1050.455463,370.102971,-612.876398,4515.256246
1050.455792,2664.741391,-1838.629195,3701.029710
1050.456122,3182.885551,-1608.800546,4811.338623
1050.456451,2664.741391,-383.047749,7698.141797
1050.456781,444.123565,995.924147,12879.583391
1050.457110,-2738.761985,3370.820191,16432.571912
1050.457440,-5033.400406,4673.182538,17468.860231
1050.457769,-4811.338623,2987.772442,16136.489536
1050.458099,-3182.885551,383.047749,14137.933492
1050.458429,-2812.782580,-919.314598,11843.295072
1050.458758,-2368.659014,-1378.971896,9178.553681
1050.459088,-2072.576638,-1225.752797,7031.956449
1050.459417,-1036.288319,153.219100,4589.276840
1050.459747,962.267725,919.314598,3849.070898
1050.460076,3330.926739,-689.485948,3182.885551
1050.460406,4441.235652,-1455.581446,4293.194464
1050.460735,2960.823768,1302.362347,6069.688724
1050.461065,814.226536,2911.162892,9770.718434
1050.461395,-1332.370696,3677.258390,13767.830521
1050.461724,-3552.988522,4673.182538,15988.448347
1050.462054,-4737.318029,4673.182538,15618.345376
1050.462384,-3997.112087,1532.190996,13767.830521
1050.462713,-3478.967927,-612.876398,11769.274478
1050.463043,-4071.132681,612.876398,9400.615463
1050.463373,-4515.256246,-153.219100,7550.100608
1050.463702,-3627.009116,76.609550,5403.503377
1050.464032,-1702.473667,919.314598,4219.173869
1050.464362,1702.473667,459.657299,2442.679609
1050.464691,3404.947333,-1149.143247,2664.741391
1050.465021,3330.926739,-612.876398,3701.029710
1050.465351,1554.432478,1072.533697,7994.224174
1050.465680,-666.185348,2757.943793,13323.706956
1050.466010,-3627.009116,4903.011187,16580.613101
1050.466340,-4959.379811,5439.278036,17542.880825
1050.466669,-4293.194464,2834.553343,16284.530724
1050.466999,-3034.844362,-383.047749,13471.748144
1050.467329,-2146.597232,-1838.629195,11029.068536
1050.467658,-1406.391290,-1838.629195,8956.491898
1050.467988,-1406.391290,-1378.971896,7698.141797
1050.468318,0.000000,689.485948,5181.441594
1050.468648,814.226536,1072.533697,4219.173869
1050.468977,3330.926739,306.438199,3627.009116
1050.469307,3775.050304,76.609550,4441.235652
1050.469637,3330.926739,1072.533697,7254.018232
1050.469966,2294.638420,1685.410096,12509.480420
1050.470296,-518.144159,2987.772442,15692.365970
1050.470626,-5181.441594,3524.039291,16580.613101
1050.470955,-6883.915261,2451.505594,16062.468941
1050.471285,-5773.606348,689.485948,15026.180623
1050.471615,-4441.235652,-842.705048,13101.645173
1050.471944,-3701.029710,-1072.533697,9918.759623
1050.472274,-2368.659014,-1455.581446,6217.729913
1050.472604,-814.226536,-1302.362347,3552.988522
1050.472933,2220.617826,-766.095498,2368.659014
1050.473263,4811.338623,0.000000,2738.761985
1050.473593,5699.585753,153.219100,3849.070898
1050.473922,4145.153275,1915.238745,6587.832884
1050.474252,1776.494261,3370.820191,10955.047942
1050.474582,-814.226536,4443.353888,14952.160028
1050.474911,-2886.803174,5286.058936,17172.777854
1050.475241,-4145.153275,3524.039291,16210.510130
1050.475571,-4219.173869,919.314598,14285.974681
1050.475900,-3923.091493,-1915.238745,12287.418637
1050.476230,-4145.153275,-1072.533697,10362.883188
1050.476560,-5033.400406,153.219100,8142.265362
1050.476889,-3997.112087,689.485948,4515.256246
1050.477219,-888.247130,766.095498,3256.906145
1050.477549,3849.070898,0.000000,2368.659014
1050.477878,5625.565159,-536.266849,3256.906145
1050.478208,4663.297435,1072.533697,3330.926739
1050.478538,2368.659014,2528.115143,6809.894666
1050.478867,-444.123565,4213.525239,12953.603985
1050.479197,-3775.050304,6894.859482,17542.880825
1050.479527,-5921.647536,7124.688131,17987.004391
1050.479856,-5477.523971,2528.115143,16062.468941
1050.480186,-4737.318029,-1838.629195,12509.480420
1050.480516,-4589.276840,-2374.896044,9844.739029
1050.480845,-3404.947333,-2834.553343,8808.450710
1050.481175,-3256.906145,-1838.629195,6809.894666
1050.481505,-2516.700203,1149.143247,4515.256246
1050.481835,1110.308913,842.705048,2886.803174
1050.482164,4219.173869,-536.266849,4219.173869
1050.482494,4885.359217,229.828649,5329.482782
1050.482824,3552.988522,2451.505594,7476.080014
1050.483153,1554.432478,2451.505594,11769.274478
1050.483483,-740.205942,3217.601092,16432.571912
1050.483813,-3701.029710,3907.087040,18357.107362
1050.484142,-4367.215058,2145.067394,17542.880825
1050.484472,-4293.194464,0.000000,14878.139434
1050.484802,-3404.947333,-919.314598,12509.480420
1050.485131,-2368.659014,-536.266849,10214.842000
1050.485461,-1554.432478,-1991.848295,7698.141797
1050.485791,-148.041188,-1762.019645,4959.379811
1050.486120,1924.535449,-995.924147,2146.597232
1050.486450,4219.173869,-229.828649,2664.741391
1050.486780,5181.441594,153.219100,4071.132681
1050.487109,3627.009116,2298.286494,6439.791695
1050.487439,888.247130,3064.381992,10288.862594
1050.487769,-1554.432478,4366.744339,14211.954086
1050.488098,-3775.050304,4749.792088,16358.551318
1050.488428,-4663.297435,3600.648841,15544.324782
1050.488758,-5033.400406,229.828649,13027.624579
1050.489087,-4737.318029,-1991.848295,11251.130318
1050.489417,-4737.318029,-919.314598,9326.594869
1050.489747,-4737.318029,229.828649,7920.203579
1050.490076,-3775.050304,1991.848295,6217.729913
1050.490406,-1406.391290,2221.676944,3627.009116
1050.490736,2590.720797,-383.047749,2072.576638
1050.491065,5181.441594,-1608.800546,2812.782580
1050.491395,5033.400406,306.438199,4737.318029
1050.491725,1480.411884,3294.210641,8216.285956
1050.492054,-1332.370696,4519.963438,13175.665768
1050.492384,-3478.967927,4903.011187,17542.880825
1050.492714,-4811.338623,5209.449386,17468.860231
1050.493043,-4589.276840,2604.724693,15914.427753
