#time,accel_x,accel_y,accel_z
923.661569,-1110.308913,919.314598,9474.636058
923.661899,-1184.329507,1072.533697,9178.553681
923.662228,-1184.329507,1072.533697,9400.615463
923.662558,-962.267725,919.314598,9326.594869
923.662887,-1184.329507,995.924147,9326.594869
923.663217,-962.267725,919.314598,9326.594869
923.663546,-1110.308913,1378.971896,9400.615463
923.663876,-962.267725,919.314598,9548.656652
923.664205,-962.267725,1072.533697,9474.636058
923.664535,-1110.308913,995.924147,9474.636058
923.664864,-1036.288319,919.314598,9548.656652
923.665194,-666.185348,1302.362347,9474.636058
923.665523,-814.226536,1149.143247,9474.636058
923.665853,-1036.288319,995.924147,9622.677246
923.666182,-1110.308913,919.314598,9622.677246
923.666512,-1036.288319,766.095498,9474.636058
923.666841,-962.267725,689.485948,9622.677246
923.667171,-888.247130,766.095498,9474.636058
923.667500,-1036.288319,842.705048,9548.656652
923.667830,-1036.288319,1072.533697,9770.718434
923.668159,-1184.329507,995.924147,9548.656652
923.668489,-962.267725,766.095498,9770.718434
923.668818,-814.226536,1149.143247,9622.677246
923.669148,-1036.288319,842.705048,9548.656652
923.669477,-1110.308913,766.095498,9696.697840
923.669807,-1110.308913,766.095498,9622.677246
923.670136,-1036.288319,995.924147,9696.697840
923.670466,-814.226536,919.314598,9474.636058
923.670795,-962.267725,1302.362347,9252.574275
923.671125,-814.226536,766.095498,9474.636058
923.671454,-1036.288319,842.705048,9548.656652
923.671784,-1184.329507,842.705048,9474.636058
923.672113,-1036.288319,995.924147,9548.656652
923.672443,-1184.329507,1072.533697,9770.718434
923.672772,-814.226536,842.705048,9474.636058
923.673102,-1184.329507,842.705048,9326.594869
923.673431,-1110.308913,842.705048,9326.594869
923.673761,-1036.288319,919.314598,9400.615463
923.674090,-1036.288319,842.705048,9178.553681
923.674420,-962.267725,536.266849,9326.594869
923.674749,-962.267725,689.485948,9474.636058
923.675079,-1184.329507,842.705048,9326.594869
923.675408,-1258.350101,919.314598,9474.636058
923.675738,-1110.308913,1302.362347,9548.656652
923.676068,-814.226536,1149.143247,9326.594869
923.676397,-1036.288319,995.924147,9548.656652
923.676727,-1110.308913,689.485948,9474.636058
923.677056,-1036.288319,995.924147,9622.677246
923.677386,-666.185348,306.438199,9474.636058
923.677715,-592.164754,1072.533697,9400.615463
923.678045,-888.247130,995.924147,9548.656652
923.678374,-1110.308913,1072.533697,9548.656652
923.678704,-1036.288319,995.924147,9622.677246
923.679033,-1036.288319,919.314598,9696.697840
923.679363,-814.226536,1072.533697,9844.739029
923.679692,-962.267725,612.876398,9622.677246
923.680022,-962.267725,1149.143247,9770.718434
923.680351,-962.267725,766.095498,9548.656652
923.680681,-1184.329507,766.095498,9622.677246
923.681010,-592.164754,766.095498,9474.636058
923.681340,-962.267725,612.876398,9474.636058
923.681669,-962.267725,919.314598,9622.677246
923.681999,-1110.308913,842.705048,9474.636058
923.682328,-1036.288319,995.924147,9548.656652
923.682658,-1036.288319,995.924147,9474.636058
923.682987,-888.247130,842.705048,9400.615463
923.683317,-962.267725,842.705048,9326.594869
923.683646,-1036.288319,919.314598,9400.615463
923.683976,-1184.329507,995.924147,9400.615463
923.684305,-1036.288319,995.924147,9474.636058
923.684635,-518.144159,1455.581446,9400.615463
923.684964,-1110.308913,1149.143247,9252.574275
923.685294,-1110.308913,919.314598,9474.636058
923.685623,-1036.288319,995.924147,9474.636058
923.685953,-1036.288319,995.924147,9400.615463
923.686282,-962.267725,383.047749,9474.636058
923.686612,-1184.329507,1225.752797,9178.553681
923.686941,-1036.288319,1072.533697,9474.636058
923.687271,-1110.308913,1225.752797,9548.656652
923.687600,-1110.308913,1149.143247,9548.656652
923.687930,-962.267725,919.314598,9474.636058
923.688259,-1406.391290,995.924147,9400.615463
923.688589,-888.247130,842.705048,9622.677246
923.688918,-1036.288319,995.924147,9622.677246
923.689248,-1036.288319,919.314598,9548.656652
923.689577,-1110.308913,842.705048,9696.697840
923.689907,-1258.350101,459.657299,9622.677246
923.690237,-1332.370696,1302.362347,9770.718434
923.690566,-962.267725,919.314598,9770.718434
923.690896,-888.247130,842.705048,9770.718434
923.691225,-1110.308913,766.095498,9548.656652
923.691555,-814.226536,1149.143247,9252.574275
923.691884,-740.205942,842.705048,9622.677246
923.692214,-1036.288319,919.314598,9696.697840
923.692543,-1036.288319,919.314598,9548.656652
923.692873,-1110.308913,842.705048,9770.718434
923.693202,-1258.350101,995.924147,9696.697840
923.693532,-1184.329507,1149.143247,9326.594869
923.693861,-1184.329507,919.314598,9474.636058
923.694191,-1184.329507,995.924147,9474.636058
923.694520,-1184.329507,842.705048,9548.656652
923.694850,-1036.288319,995.924147,9400.615463
923.695179,-814.226536,1608.800546,9400.615463
923.695509,-962.267725,842.705048,9474.636058
923.695838,-740.205942,842.705048,9104.533087
923.696168,-148.041188,766.095498,8882.471304
923.696497,666.185348,536.266849,9104.533087
923.696827,1036.288319,153.219100,9104.533087
923.697156,740.205942,459.657299,8808.450710
923.697486,296.082377,689.485948,9474.636058
923.697815,-296.082377,766.095498,10066.800811
923.698145,-592.164754,1149.143247,10362.883188
923.698474,-370.102971,689.485948,10066.800811
923.698804,0.000000,536.266849,9770.718434
923.699133,222.061783,76.609550,9474.636058
923.699463,888.247130,306.438199,9178.553681
923.699792,1850.514855,306.438199,9030.512492
923.700122,2738.761985,919.314598,9030.512492
923.700451,3182.885551,919.314598,8956.491898
923.700781,3478.967927,1532.190996,9326.594869
923.701110,3478.967927,2068.457845,9548.656652
923.701440,3404.947333,1455.581446,10288.862594
923.701769,2516.700203,919.314598,10362.883188
923.702099,1702.473667,689.485948,10510.924376
923.702428,1554.432478,459.657299,10807.006753
923.702758,1480.411884,0.000000,10955.047942
923.703087,1776.494261,0.000000,10140.821405
923.703417,2442.679609,0.000000,9548.656652
923.703746,3256.906145,0.000000,8882.471304
923.704076,4515.256246,536.266849,8956.491898
923.704406,4663.297435,1455.581446,9178.553681
923.704735,4145.153275,2528.115143,9548.656652
923.705065,3182.885551,2681.334243,9992.780217
923.705394,1702.473667,3140.991542,10288.862594
923.705724,-296.082377,2604.724693,9992.780217
923.706053,-1776.494261,2221.676944,9622.677246
923.706383,-1924.535449,229.828649,8586.388927
923.706712,-740.205942,-612.876398,7476.080014
923.707042,666.185348,-1378.971896,6883.915261
923.707371,2294.638420,-612.876398,6513.812290
923.707701,3108.864956,0.000000,6365.771101
923.708030,3849.070898,1149.143247,7698.141797
923.708360,3182.885551,3140.991542,9844.739029
923.708689,2220.617826,4443.353888,11325.150913
923.709019,1258.350101,4290.134789,11991.336260
923.709348,-148.041188,2451.505594,12213.398043
923.709678,-814.226536,1072.533697,12287.418637
923.710007,-1110.308913,-689.485948,11621.233289
923.710337,-888.247130,-1838.629195,10510.924376
923.710666,0.000000,-1838.629195,9474.636058
923.710996,1850.514855,-1608.800546,8068.244768
923.711325,3701.029710,-689.485948,7698.141797
923.711655,4737.318029,153.219100,7550.100608
923.711984,4959.379811,1991.848295,7476.080014
923.712314,4367.215058,2987.772442,8216.285956
923.712643,3552.988522,4749.792088,9400.615463
923.712973,2664.741391,3907.087040,9992.780217
923.713302,1554.432478,2834.553343,11103.089130
923.713632,296.082377,1532.190996,11473.192101
923.713961,-666.185348,-229.828649,11103.089130
923.714291,-1628.453072,-1455.581446,10436.903782
923.714620,-2294.638420,-1455.581446,10140.821405
923.714950,-1850.514855,-1685.410096,10288.862594
923.715279,-740.205942,-1378.971896,10362.883188
923.715609,740.205942,-689.485948,9992.780217
923.715938,2072.576638,0.000000,9104.533087
923.716268,3849.070898,229.828649,8512.368333
923.716597,5181.441594,919.314598,8438.347739
923.716927,5847.626942,1532.190996,8808.450710
923.717256,6069.688724,1532.190996,8660.409521
923.717586,5477.523971,1532.190996,9178.553681
923.717915,4515.256246,1378.971896,10066.800811
923.718245,3478.967927,1072.533697,10510.924376
923.718575,1702.473667,1608.800546,10732.986159
923.718904,1036.288319,1532.190996,10732.986159
923.719234,296.082377,1455.581446,10510.924376
923.719563,-592.164754,1149.143247,9918.759623
923.719893,-518.144159,1072.533697,8956.491898
923.720222,-1036.288319,383.047749,7994.224174
923.720552,-888.247130,612.876398,7698.141797
923.720881,-888.247130,612.876398,7698.141797
923.721211,-1036.288319,229.828649,8290.306550
923.721540,-1332.370696,995.924147,8586.388927
923.721870,-1850.514855,842.705048,8586.388927
923.722199,-2146.597232,766.095498,9474.636058
923.722529,-1924.535449,919.314598,10881.027347
923.722858,-1776.494261,1149.143247,11695.253884
923.723188,-2072.576638,1302.362347,11547.212695
923.723517,-1776.494261,1225.752797,11399.171507
923.723847,-888.247130,612.876398,10807.006753
923.724176,518.144159,612.876398,10140.821405
923.724506,1776.494261,612.876398,9696.697840
923.724835,3256.906145,1685.410096,9030.512492
923.725165,4663.297435,2145.067394,8586.388927
923.725494,5255.462188,2374.896044,8512.368333
923.725824,4737.318029,3447.429741,8734.430116
923.726153,3330.926739,3677.258390,9696.697840
923.726483,1332.370696,4596.572988,10510.924376
923.726812,-740.205942,3830.477490,10807.006753
923.727142,-2812.782580,2374.896044,10288.862594
923.727471,-4219.173869,153.219100,9844.739029
923.727801,-5773.606348,-2145.067394,9622.677246
923.728130,-7105.977043,-2068.457845,9104.533087
923.728460,-7772.162391,-1608.800546,8364.327145
923.728789,-6661.853478,-2451.505594,7994.224174
923.729119,-4367.215058,-1302.362347,8068.244768
923.729448,-2072.576638,383.047749,6957.935855
923.729778,888.247130,1685.410096,6069.688724
923.730107,3775.050304,2145.067394,6217.729913
923.730437,5181.441594,2604.724693,7328.038826
923.730766,4145.153275,4060.306139,10214.842000
923.731096,1998.556043,4596.572988,12435.459826
923.731425,0.000000,4749.792088,13989.892304
923.731755,-1998.556043,3370.820191,13767.830521
923.732085,-2442.679609,995.924147,11843.295072
923.732414,-2590.720797,-2604.724693,10510.924376
923.732744,-2886.803174,-4596.572988,10584.944971
923.733073,-2960.823768,-2987.772442,10140.821405
923.733403,-2664.741391,-1532.190996,9104.533087
923.733732,-1184.329507,-459.657299,7772.162391
923.734062,1406.391290,229.828649,6365.771101
923.734391,4737.318029,76.609550,6291.750507
923.734721,6365.771101,612.876398,7031.956449
923.735050,5847.626942,3064.381992,8216.285956
923.735380,3552.988522,4749.792088,10214.842000
923.735709,-592.164754,4903.011187,12065.356855
923.736039,-3627.009116,4903.011187,14137.933492
923.736368,-6217.729913,2911.162892,13693.809927
923.736698,-7772.162391,-919.314598,12139.377449
923.737027,-8734.430116,-2681.334243,10881.027347
923.737357,-8660.409521,-3447.429741,9252.574275
923.737686,-6439.791695,-4673.182538,8290.306550
923.738016,-4367.215058,-4136.915689,7254.018232
923.738345,-814.226536,-842.705048,5477.523971
923.738675,3404.947333,1378.971896,3478.967927
923.739004,7031.956449,1608.800546,4367.215058
923.739334,8364.327145,2145.067394,6291.750507
923.739663,7550.100608,4213.525239,9770.718434
923.739993,3775.050304,5822.325785,13101.645173
923.740322,-666.185348,7660.954980,15248.242405
923.740652,-4885.359217,6435.202183,15100.201217
923.740981,-6661.853478,1762.019645,13693.809927
923.741311,-6957.935855,-4366.744339,12583.501014
923.741640,-6661.853478,-5362.668486,11177.109724
923.741970,-6217.729913,-3830.477490,8882.471304
923.742300,-5033.400406,-3983.696590,6587.832884
923.742629,-2294.638420,-3294.210641,4959.379811
923.742959,1998.556043,-1608.800546,4811.338623
923.743288,5551.544565,919.314598,4959.379811
923.743618,6661.853478,5439.278036,5847.626942
923.743948,6291.750507,6588.421283,7846.182985
923.744277,4367.215058,5439.278036,11103.089130
923.744607,296.082377,4979.620737,14508.036463
923.744937,-4145.153275,5132.839837,15766.386565
923.745266,-7994.224174,3907.087040,15544.324782
923.745596,-10436.903782,842.705048,13323.706956
923.745925,-9770.718434,-3907.087040,10436.903782
923.746255,-6587.832884,-7967.393179,8438.347739
923.746585,-3182.885551,-7354.516781,6957.935855
923.746914,-222.061783,-2681.334243,5625.565159
923.747244,2516.700203,-306.438199,4737.318029
923.747573,5255.462188,2451.505594,4145.153275
923.747903,7698.141797,4443.353888,4811.338623
923.748233,8586.388927,5132.839837,7846.182985
923.748562,7105.977043,6971.469032,11473.192101
923.748892,2738.761985,7737.564530,14211.954086
923.749222,-1998.556043,6205.373534,15248.242405
923.749551,-6439.791695,3830.477490,14434.015869
923.749881,-8216.285956,-689.485948,12805.562797
923.750210,-8068.244768,-4290.134789,11177.109724
923.750540,-6809.894666,-6281.983084,9400.615463
923.750870,-5403.503377,-4903.011187,7402.059420
923.751199,-3182.885551,-4060.306139,5477.523971
923.751529,740.205942,-2298.286494,4663.297435
923.751858,4071.132681,229.828649,5107.421000
923.752188,6217.729913,3830.477490,5995.668130
923.752518,6365.771101,6052.154434,7254.018232
923.752847,5477.523971,6281.983084,10140.821405
923.753177,3108.864956,6358.592633,13027.624579
923.753506,148.041188,5669.106685,14878.139434
923.753836,-3552.988522,4366.744339,15100.201217
923.754166,-6069.688724,1455.581446,13619.789333
923.754495,-7698.141797,-2374.896044,11325.150913
923.754825,-7179.997637,-5515.887586,9474.636058
923.755155,-5403.503377,-5209.449386,8586.388927
923.755484,-3775.050304,-3370.820191,7994.224174
923.755814,-1184.329507,-1072.533697,7031.956449
923.756143,1480.411884,459.657299,5921.647536
923.756473,3627.009116,2834.553343,5255.462188
923.756803,4959.379811,4213.525239,6291.750507
923.757132,4959.379811,5132.839837,8734.430116
923.757462,3552.988522,6435.202183,11621.233289
923.757791,0.000000,5132.839837,13693.809927
923.758121,-3849.070898,3983.696590,14063.912898
923.758451,-6365.771101,2145.067394,12805.562797
923.758780,-7179.997637,-459.657299,10510.924376
923.759110,-5921.647536,-3907.087040,9178.553681
923.759439,-4959.379811,-4366.744339,8438.347739
923.759769,-4071.132681,-3217.601092,7772.162391
923.760099,-2072.576638,-1532.190996,7105.977043
923.760428,370.102971,1378.971896,5773.606348
923.760758,3627.009116,3370.820191,5255.462188
923.761088,6217.729913,3064.381992,6143.709319
923.761417,6661.853478,3140.991542,8364.327145
923.761747,4885.359217,4596.572988,11251.130318
923.762076,1628.453072,4826.401637,12583.501014
923.762406,-2220.617826,5439.278036,13619.789333
923.762736,-4885.359217,3370.820191,13619.789333
923.763065,-5773.606348,-1072.533697,12435.459826
923.763395,-6069.688724,-4443.353888,10658.965565
923.763724,-5995.668130,-5439.278036,9474.636058
923.764054,-5107.421000,-3983.696590,8512.368333
923.764384,-3552.988522,-2298.286494,7402.059420
923.764713,-740.205942,-1302.362347,6439.791695
923.765043,2738.761985,-766.095498,6439.791695
923.765372,5107.421000,1685.410096,6587.832884
923.765702,6291.750507,5209.449386,7105.977043
923.766032,6069.688724,4903.011187,8660.409521
923.766361,4663.297435,4366.744339,11325.150913
923.766691,1184.329507,4290.134789,13397.727550
923.767021,-2590.720797,3524.039291,14582.057057
923.767350,-6143.709319,2681.334243,13915.871710
923.767680,-8586.388927,76.609550,11917.315666
923.768009,-8956.491898,-4136.915689,10214.842000
923.768339,-7846.182985,-6894.859482,9548.656652
923.768669,-6217.729913,-5286.058936,8142.265362
923.768998,-3701.029710,-3217.601092,6291.750507
923.769328,0.000000,-2681.334243,5847.626942
923.769657,3775.050304,0.000000,5773.606348
923.769987,6439.791695,2451.505594,6365.771101
923.770317,7772.162391,3600.648841,7698.141797
923.770646,7105.977043,5515.887586,9844.739029
923.770976,4737.318029,6435.202183,12509.480420
923.771305,1406.391290,5822.325785,14434.015869
923.771635,-2812.782580,3907.087040,14878.139434
923.771965,-6291.750507,1991.848295,13841.851115
923.772294,-7698.141797,-1225.752797,11621.233289
923.772624,-7772.162391,-4443.353888,10214.842000
923.772954,-6735.874072,-5056.230287,8290.306550
923.773283,-5033.400406,-4979.620737,7179.997637
923.773613,-2886.803174,-2298.286494,5995.668130
923.773942,0.000000,1378.971896,3182.885551
923.774272,3182.885551,2757.943793,2664.741391
923.774602,5107.421000,2528.115143,5107.421000
923.774931,4219.173869,4519.963438,9104.533087
923.775261,1628.453072,6052.154434,12583.501014
923.775590,-2516.700203,6358.592633,15396.283594
923.775920,-6513.812290,6435.202183,15988.448347
923.776250,-8808.450710,3753.867940,14285.974681
923.776579,-8216.285956,-1915.238745,11399.171507
923.776909,-6069.688724,-5975.544884,8882.471304
923.777238,-4145.153275,-5669.106685,7402.059420
923.777568,-2368.659014,-3600.648841,6809.894666
923.777898,-592.164754,-1532.190996,6735.874072
923.778227,1776.494261,1302.362347,6143.709319
923.778557,4811.338623,3830.477490,5329.482782
923.778887,7772.162391,5439.278036,5551.544565
923.779216,9030.512492,6052.154434,7846.182985
923.779546,7254.018232,6511.811733,10658.965565
923.779875,3182.885551,6281.983084,13619.789333
923.780205,-1480.411884,5745.716235,14730.098246
923.780535,-5477.523971,5132.839837,14063.912898
923.780864,-7402.059420,612.876398,12435.459826
923.781194,-7994.224174,-4366.744339,10807.006753
923.781523,-7402.059420,-6128.763984,9400.615463
923.781853,-6809.894666,-4826.401637,7994.224174
923.782183,-5255.462188,-3370.820191,6439.791695
923.782512,-2368.659014,-1685.410096,5551.544565
923.782842,1184.329507,0.000000,5403.503377
923.783171,4811.338623,1378.971896,7031.956449
923.783501,5847.626942,4366.744339,7772.162391
923.783831,5625.565159,7048.078582,8364.327145
923.784160,4589.276840,6128.763984,10807.006753
923.784490,1924.535449,4903.011187,13915.871710
923.784820,-1480.411884,4673.182538,14359.995275
923.785149,-4293.194464,2528.115143,13693.809927
923.785479,-5551.544565,153.219100,11547.212695
923.785808,-5995.668130,-2757.943793,9252.574275
923.786138,-4737.318029,-5439.278036,8882.471304
923.786468,-3034.844362,-5898.935335,7920.203579
923.786797,-1480.411884,-3370.820191,6809.894666
923.787127,962.267725,-612.876398,6291.750507
923.787456,3478.967927,1225.752797,6809.894666
923.787786,4885.359217,3447.429741,7254.018232
923.788116,5033.400406,3907.087040,8142.265362
923.788445,4737.318029,4596.572988,10362.883188
923.788775,2664.741391,5592.497135,12805.562797
923.789104,-962.267725,4903.011187,13915.871710
923.789434,-4589.276840,2911.162892,13545.768739
923.789764,-7624.121203,-306.438199,12139.377449
923.790093,-7994.224174,-3753.867940,10214.842000
923.790423,-7402.059420,-5515.887586,9178.553681
923.790753,-6587.832884,-4979.620737,8808.450710
923.791082,-4811.338623,-3983.696590,8068.244768
923.791412,-2368.659014,-2068.457845,7105.977043
923.791741,1628.453072,842.705048,5107.421000
923.792071,4811.338623,2681.334243,4663.297435
923.792401,6735.874072,3447.429741,6883.915261
923.792730,6143.709319,5132.839837,9548.656652
923.793060,3478.967927,6281.983084,12361.439231
923.793389,148.041188,5592.497135,14434.015869
923.793719,-3256.906145,4673.182538,14211.954086
923.794049,-6143.709319,2604.724693,13323.706956
923.794378,-6957.935855,-1762.019645,10955.047942
923.794708,-6217.729913,-5669.106685,8882.471304
923.795037,-5329.482782,-5669.106685,7846.182985
923.795367,-4441.235652,-4213.525239,7105.977043
923.795697,-2664.741391,-2834.553343,7179.997637
923.796026,-814.226536,0.000000,6587.832884
923.796356,2590.720797,1915.238745,6957.935855
923.796686,5255.462188,3447.429741,7328.038826
923.797015,5995.668130,5056.230287,8068.244768
923.797345,5255.462188,6128.763984,10362.883188
923.797674,2812.782580,5362.668486,12657.521608
923.798004,-592.164754,4519.963438,14285.974681
923.798334,-4441.235652,3830.477490,14211.954086
923.798663,-7328.038826,1072.533697,12213.398043
923.798993,-8364.327145,-2221.676944,9474.636058
923.799322,-7698.141797,-5132.839837,8586.388927
923.799652,-5403.503377,-5439.278036,8142.265362
923.799982,-3849.070898,-3907.087040,7550.100608
923.800311,-2072.576638,-766.095498,6069.688724
923.800641,962.267725,2604.724693,4145.153275
923.800970,4663.297435,2451.505594,4441.235652
923.801300,6587.832884,2911.162892,7105.977043
923.801630,5699.585753,5439.278036,10066.800811
923.801959,2812.782580,6818.249932,12879.583391
923.802289,-592.164754,6741.640382,14508.036463
923.802619,-4219.173869,5209.449386,14952.160028
923.802948,-6513.812290,2298.286494,13027.624579
923.803278,-6513.812290,-2834.553343,10362.883188
923.803607,-5699.585753,-5515.887586,8586.388927
923.803937,-5033.400406,-4979.620737,7846.182985
923.804267,-3849.070898,-3907.087040,7624.121203
923.804596,-2442.679609,-1991.848295,7476.080014
923.804926,-296.082377,306.438199,6143.709319
923.805255,3330.926739,2451.505594,5699.585753
923.805585,6439.791695,4060.306139,6439.791695
923.805915,7179.997637,4903.011187,8290.306550
923.806244,5329.482782,5286.058936,10584.944971
923.806574,2220.617826,5286.058936,13027.624579
923.806903,-1776.494261,5592.497135,15174.221811
923.807233,-5255.462188,4519.963438,14359.995275
923.807563,-7846.182985,0.000000,12213.398043
923.807892,-8142.265362,-3753.867940,9474.636058
923.808222,-7254.018232,-6665.030833,8808.450710
923.808552,-5477.523971,-5592.497135,8068.244768
923.808881,-4071.132681,-3447.429741,7476.080014
923.809211,-2072.576638,-1072.533697,6291.750507
923.809540,1480.411884,919.314598,6365.771101
923.809870,4737.318029,2451.505594,7254.018232
923.810200,6513.812290,4136.915689,8068.244768
923.810529,6217.729913,6665.030833,9178.553681
923.810859,4293.194464,6971.469032,10955.047942
923.811188,1110.308913,5515.887586,12287.418637
923.811518,-1776.494261,3983.696590,12805.562797
923.811848,-4293.194464,1302.362347,11917.315666
923.812177,-5995.668130,-1455.581446,10510.924376
923.812507,-6883.915261,-3447.429741,9622.677246
923.812836,-6439.791695,-4366.744339,9030.512492
923.813166,-3997.112087,-4136.915689,8438.347739
923.813496,-1924.535449,-2757.943793,7105.977043
923.813825,1036.288319,-612.876398,6735.874072
923.814155,3478.967927,1455.581446,7105.977043
923.814485,4737.318029,3294.210641,7994.224174
923.814814,4441.235652,5209.449386,9844.739029
923.815144,3404.947333,6052.154434,11399.171507
923.815473,1628.453072,5745.716235,12805.562797
923.815803,-444.123565,4519.963438,13175.665768
923.816133,-3034.844362,1532.190996,11843.295072
923.816462,-4959.379811,-1838.629195,10436.903782
923.816792,-6069.688724,-4136.915689,9474.636058
923.817121,-7105.977043,-4519.963438,9400.615463
923.817451,-6513.812290,-3294.210641,8882.471304
923.817781,-4071.132681,-2451.505594,7920.203579
923.818110,74.020594,-1991.848295,7105.977043
923.818440,3478.967927,0.000000,6365.771101
923.818770,5847.626942,2757.943793,7179.997637
923.819099,6735.874072,5132.839837,8586.388927
923.819429,5181.441594,7124.688131,10214.842000
923.819758,2368.659014,7584.345430,11843.295072
923.820088,-888.247130,6205.373534,12287.418637
923.820418,-3775.050304,3294.210641,12509.480420
923.820747,-6291.750507,306.438199,11769.274478
923.821077,-8290.306550,-2528.115143,10658.965565
923.821406,-9622.677246,-4979.620737,9104.533087
923.821736,-8882.471304,-6435.202183,7846.182985
923.822066,-6365.771101,-5592.497135,7402.059420
923.822395,-2664.741391,-3830.477490,6883.915261
923.822725,1258.350101,-1608.800546,6957.935855
923.823054,4737.318029,1149.143247,7105.977043
923.823384,6883.915261,4596.572988,8142.265362
923.823714,7476.080014,6435.202183,9696.697840
923.824043,6291.750507,7354.516781,11769.274478
923.824373,3923.091493,6894.859482,12953.603985
923.824703,962.267725,5056.230287,13545.768739
923.825032,-2442.679609,2528.115143,12953.603985
923.825362,-5403.503377,0.000000,11769.274478
923.825691,-7031.956449,-3830.477490,10510.924376
923.826021,-8216.285956,-4979.620737,9844.739029
923.826351,-7550.100608,-4519.963438,8882.471304
923.826680,-5699.585753,-4060.306139,7550.100608
923.827010,-3256.906145,-1915.238745,6143.709319
923.827339,-148.041188,1072.533697,4737.318029
923.827669,2886.803174,3140.991542,4737.318029
923.827999,5181.441594,3064.381992,6439.791695
923.828328,4589.276840,4290.134789,9252.574275
923.828658,1850.514855,6128.763984,12287.418637
923.828987,-2368.659014,5669.106685,14063.912898
923.829317,-5625.565159,4673.182538,14285.974681
923.829647,-7105.977043,1915.238745,12731.542202
923.829976,-6217.729913,-2757.943793,10584.944971
923.830306,-4737.318029,-5592.497135,9622.677246
923.830636,-4145.153275,-4060.306139,8808.450710
923.830965,-2664.741391,-2374.896044,8142.265362
923.831295,-740.205942,-153.219100,7402.059420
923.831624,1850.514855,1915.238745,6513.812290
923.831954,5551.544565,2911.162892,6217.729913
923.832284,8290.306550,4213.525239,5921.647536
923.832613,8808.450710,5515.887586,7920.203579
923.832943,6439.791695,5745.716235,9992.780217
923.833272,2072.576638,5286.058936,12213.398043
923.833602,-2442.679609,5132.839837,13175.665768
923.833932,-5995.668130,3370.820191,13249.686362
923.834261,-7476.080014,0.000000,12435.459826
923.834591,-8290.306550,-3370.820191,11177.109724
923.834920,-8364.327145,-5286.058936,9622.677246
923.835250,-7105.977043,-4749.792088,8364.327145
923.835580,-4737.318029,-2757.943793,7402.059420
923.835909,-1332.370696,-919.314598,6365.771101
923.836239,1776.494261,383.047749,6291.750507
923.836569,4515.256246,2987.772442,7105.977043
923.836898,5551.544565,4903.011187,7179.997637
923.837228,5847.626942,5592.497135,8512.368333
923.837557,4293.194464,5209.449386,10510.924376
923.837887,1554.432478,4903.011187,12879.583391
923.838217,-1702.473667,3140.991542,13545.768739
923.838546,-4737.318029,1838.629195,12657.521608
923.838876,-5995.668130,-383.047749,11251.130318
923.839205,-5921.647536,-2451.505594,9770.718434
923.839535,-5255.462188,-4749.792088,9548.656652
923.839865,-3256.906145,-4290.134789,8586.388927
923.840194,-962.267725,-2298.286494,7846.182985
923.840524,1184.329507,76.609550,7031.956449
923.840853,3552.988522,2604.724693,6365.771101
923.841183,4737.318029,3677.258390,7105.977043
923.841513,5181.441594,2987.772442,9252.574275
923.841842,3997.112087,4673.182538,11251.130318
923.842172,1184.329507,5362.668486,12509.480420
923.842501,-2368.659014,4290.134789,12731.542202
923.842831,-5625.565159,2374.896044,12509.480420
923.843160,-7550.100608,-1838.629195,11843.295072
923.843490,-7550.100608,-3907.087040,10807.006753
923.843820,-7550.100608,-4596.572988,9474.636058
923.844149,-6439.791695,-3140.991542,8364.327145
923.844479,-3330.926739,-2987.772442,7402.059420
923.844808,0.000000,-2068.457845,6439.791695
923.845138,3552.988522,612.876398,6291.750507
923.845468,5403.503377,3217.601092,5995.668130
923.845797,6069.688724,5362.668486,7105.977043
923.846127,5625.565159,5822.325785,9030.512492
923.846456,3923.091493,5362.668486,11325.150913
923.846786,888.247130,3983.696590,12879.583391
923.847115,-2368.659014,3370.820191,13693.809927
923.847445,-5551.544565,1991.848295,12953.603985
923.847775,-7328.038826,-842.705048,11695.253884
923.848104,-7402.059420,-4443.353888,9992.780217
923.848434,-6439.791695,-5132.839837,9178.553681
923.848763,-4441.235652,-4136.915689,8586.388927
923.849093,-2368.659014,-1532.190996,7698.141797
923.849423,296.082377,153.219100,6587.832884
923.849752,3627.009116,766.095498,5921.647536
923.850082,5255.462188,2451.505594,7031.956449
923.850411,5403.503377,3907.087040,8586.388927
923.850741,4219.173869,5362.668486,10436.903782
923.851070,1776.494261,5132.839837,12287.418637
923.851400,-1332.370696,3524.039291,12583.501014
923.851730,-4219.173869,1532.190996,12805.562797
923.852059,-5551.544565,-995.924147,12213.398043
923.852389,-6365.771101,-2374.896044,11621.233289
923.852718,-6883.915261,-2987.772442,10658.965565
923.853048,-5921.647536,-2757.943793,9548.656652
923.853378,-3775.050304,-2604.724693,7476.080014
923.853707,-592.164754,-1225.752797,6661.853478
923.854037,2812.782580,995.924147,5551.544565
923.854366,4885.359217,2987.772442,5181.441594
923.854696,5625.565159,3677.258390,6069.688724
923.855025,4959.379811,3907.087040,8290.306550
923.855355,2664.741391,4366.744339,10658.965565
923.855685,-1480.411884,4519.963438,13323.706956
923.856014,-4885.359217,3600.648841,14434.015869
923.856344,-7550.100608,1915.238745,13619.789333
923.856673,-8216.285956,153.219100,11473.192101
923.857003,-7105.977043,-4290.134789,9252.574275
923.857333,-4885.359217,-5132.839837,8956.491898
923.857662,-3552.988522,-2987.772442,8438.347739
923.857992,-1628.453072,-1149.143247,7846.182985
923.858321,1332.370696,1225.752797,6217.729913
923.858651,4293.194464,2451.505594,4885.359217
923.858980,7624.121203,3294.210641,5995.668130
923.859310,7994.224174,3830.477490,8290.306550
923.859640,5773.606348,5209.449386,11029.068536
923.859969,1554.432478,5669.106685,13397.727550
923.860299,-2516.700203,5515.887586,14359.995275
923.860628,-5403.503377,3983.696590,13915.871710
923.860958,-7105.977043,-536.266849,12879.583391
923.861288,-7328.038826,-4443.353888,11473.192101
923.861617,-7254.018232,-4903.011187,9770.718434
923.861947,-5403.503377,-3370.820191,7994.224174
923.862276,-3330.926739,-2451.505594,6513.812290
923.862606,-444.123565,-919.314598,5403.503377
923.862935,2738.761985,766.095498,4885.359217
923.863265,5847.626942,2145.067394,5921.647536
923.863595,6661.853478,4826.401637,6883.915261
923.863924,4959.379811,6435.202183,7846.182985
923.864254,2812.782580,5515.887586,10510.924376
923.864583,0.000000,4366.744339,13175.665768
923.864913,-3108.864956,3524.039291,14434.015869
923.865243,-5551.544565,2068.457845,13693.809927
923.865572,-7105.977043,-306.438199,11547.212695
923.865902,-7179.997637,-2681.334243,9844.739029
923.866231,-5773.606348,-4826.401637,8956.491898
923.866561,-3034.844362,-4136.915689,8216.285956
923.866890,-814.226536,-1838.629195,7105.977043
923.867220,2072.576638,612.876398,5847.626942
923.867550,4737.318029,1838.629195,6661.853478
923.867879,5773.606348,2987.772442,7402.059420
923.868209,5699.585753,4366.744339,9178.553681
923.868538,4293.194464,4979.620737,10584.944971
923.868868,1332.370696,6052.154434,12361.439231
923.869198,-1406.391290,4136.915689,12953.603985
923.869527,-3849.070898,1072.533697,13101.645173
923.869857,-5921.647536,-1685.410096,12213.398043
923.870186,-7031.956449,-2911.162892,11473.192101
923.870516,-7105.977043,-3217.601092,10732.986159
923.870845,-5625.565159,-2757.943793,9474.636058
923.871175,-3034.844362,-2374.896044,7476.080014
923.871505,592.164754,-1532.190996,5773.606348
923.871834,3330.926739,536.266849,4811.338623
923.872164,4811.338623,2604.724693,5551.544565
923.872493,4959.379811,4596.572988,7105.977043
923.872823,2516.700203,5209.449386,9252.574275
923.873153,-296.082377,4673.182538,11473.192101
923.873482,-2516.700203,3140.991542,12879.583391
923.873812,-4367.215058,1915.238745,13471.748144
923.874141,-6069.688724,306.438199,11991.336260
923.874471,-6069.688724,-2604.724693,10140.821405
923.874800,-5921.647536,-4443.353888,8660.409521
923.875130,-4145.153275,-4673.182538,8734.430116
923.875460,-2146.597232,-2145.067394,8956.491898
923.875789,-518.144159,0.000000,8068.244768
923.876119,1998.556043,2068.457845,6809.894666
923.876448,4737.318029,2298.286494,6735.874072
923.876778,6439.791695,3064.381992,7550.100608
923.877107,6513.812290,4136.915689,9548.656652
923.877437,4515.256246,4979.620737,11029.068536
923.877767,1258.350101,4903.011187,11843.295072
923.878096,-1554.432478,3677.258390,12731.542202
923.878426,-4515.256246,1302.362347,12953.603985
923.878755,-6587.832884,-689.485948,11991.336260
923.879085,-8364.327145,-2374.896044,10807.006753
923.879415,-8364.327145,-2834.553343,9400.615463
923.879744,-6957.935855,-3370.820191,8142.265362
923.880074,-4293.194464,-3753.867940,6883.915261
923.880403,-1406.391290,-1991.848295,5847.626942
923.880733,1406.391290,612.876398,5847.626942
923.881062,4145.153275,3217.601092,5477.523971
923.881392,5477.523971,4596.572988,6365.771101
923.881722,4959.379811,3677.258390,8586.388927
923.882051,2590.720797,4519.963438,11473.192101
923.882381,-666.185348,5362.668486,13841.851115
923.882710,-3404.947333,4979.620737,14508.036463
923.883040,-5773.606348,2528.115143,13619.789333
923.883370,-6365.771101,-842.705048,11399.171507
923.883699,-5551.544565,-4136.915689,9474.636058
923.884029,-3923.091493,-5439.278036,8882.471304
923.884358,-2664.741391,-2681.334243,8068.244768
923.884688,-888.247130,-919.314598,7105.977043
923.885017,2072.576638,229.828649,6365.771101
923.885347,4293.194464,1302.362347,6587.832884
923.885677,6217.729913,3140.991542,7624.121203
923.886006,6217.729913,4903.011187,9326.594869
923.886336,4589.276840,6052.154434,11251.130318
923.886665,1184.329507,5975.544884,12139.377449
923.886995,-2590.720797,4290.134789,13323.706956
923.887325,-5255.462188,1838.629195,13545.768739
923.887654,-6735.874072,-536.266849,12213.398043
923.887984,-7772.162391,-2834.553343,11029.068536
923.888313,-7920.203579,-4213.525239,9030.512492
923.888643,-6143.709319,-4213.525239,8290.306550
923.888972,-3330.926739,-3677.258390,6809.894666
923.889302,0.000000,-1378.971896,5699.585753
923.889632,2960.823768,1072.533697,5403.503377
923.889961,5255.462188,3140.991542,6365.771101
923.890291,6217.729913,4596.572988,7179.997637
923.890620,5477.523971,6358.592633,8882.471304
923.890950,3552.988522,6281.983084,10955.047942
923.891280,666.185348,5592.497135,13101.645173
923.891609,-2738.761985,4136.915689,13841.851115
923.891939,-5773.606348,1685.410096,12657.521608
923.892268,-6661.853478,-1302.362347,11399.171507
923.892598,-6957.935855,-3294.210641,9918.759623
923.892927,-5625.565159,-4596.572988,8956.491898
923.893257,-3849.070898,-4060.306139,8216.285956
923.893587,-2146.597232,-2068.457845,6957.935855
923.893916,1036.288319,-229.828649,6069.688724
923.894246,3923.091493,1608.800546,6513.812290
923.894575,5403.503377,3753.867940,7624.121203
923.894905,5329.482782,5132.839837,9770.718434
923.895235,3404.947333,4903.011187,11177.109724
923.895564,592.164754,5745.716235,12731.542202
923.895894,-2146.597232,4903.011187,13323.706956
923.896223,-4589.276840,2451.505594,13249.686362
923.896553,-6291.750507,-842.705048,12065.356855
923.896882,-7476.080014,-2987.772442,10288.862594
923.897212,-6809.894666,-4596.572988,9548.656652
923.897542,-5477.523971,-4136.915689,8364.327145
923.897871,-3034.844362,-3140.991542,7105.977043
923.898201,-222.061783,-1455.581446,6069.688724
923.898530,2886.803174,919.314598,6217.729913
923.898860,5181.441594,3983.696590,6291.750507
923.899190,5477.523971,5362.668486,7105.977043
923.899519,4885.359217,5056.230287,8734.430116
923.899849,2960.823768,5209.449386,11177.109724
923.900178,-296.082377,4596.572988,13249.686362
923.900508,-4071.132681,3600.648841,13915.871710
923.900837,-6735.874072,1762.019645,12435.459826
923.901167,-7476.080014,-1455.581446,10140.821405
923.901497,-6513.812290,-4749.792088,8882.471304
923.901826,-4959.379811,-5592.497135,8364.327145
923.902156,-3701.029710,-3983.696590,7550.100608
923.902485,-1628.453072,-2068.457845,6957.935855
923.902815,814.226536,0.000000,6439.791695
923.903145,3775.050304,1915.238745,7031.956449
923.903474,5847.626942,3217.601092,8142.265362
923.903804,5921.647536,4673.182538,9992.780217
923.904133,4145.153275,6435.202183,11695.253884
923.904463,1850.514855,6128.763984,12361.439231
923.904792,-1036.288319,4366.744339,13175.665768
923.905122,-3775.050304,1762.019645,13027.624579
923.905452,-5329.482782,-1608.800546,11843.295072
923.905781,-6883.915261,-3294.210641,10140.821405
923.906111,-6809.894666,-4290.134789,9696.697840
923.906440,-6143.709319,-4596.572988,8956.491898
923.906770,-3923.091493,-3524.039291,7476.080014
923.907100,-962.267725,-1762.019645,6513.812290
923.907429,2442.679609,459.657299,6069.688724
923.907759,4959.379811,3294.210641,5847.626942
923.908088,5403.503377,4060.306139,6957.935855
923.908418,4737.318029,4136.915689,9030.512492
923.908747,2368.659014,5209.449386,11843.295072
923.909077,-1480.411884,5286.058936,13619.789333
923.909407,-4515.256246,3677.258390,14211.954086
923.909736,-7105.977043,1149.143247,12435.459826
923.910066,-7476.080014,-2068.457845,10436.903782
923.910395,-6513.812290,-5439.278036,9178.553681
923.910725,-5107.421000,-5592.497135,8216.285956
923.911055,-3478.967927,-3600.648841,7105.977043
923.911384,-1924.535449,-2068.457845,6883.915261
923.911714,592.164754,459.657299,7254.018232
923.912043,3256.906145,2911.162892,7698.141797
923.912373,5477.523971,4290.134789,9030.512492
923.912702,5551.544565,5515.887586,10362.883188
923.913032,4293.194464,6818.249932,11547.212695
923.913362,1998.556043,5515.887586,12139.377449
923.913691,-518.144159,3217.601092,12509.480420
923.914021,-2960.823768,1378.971896,12065.356855
923.914350,-5255.462188,-766.095498,11251.130318
923.914680,-6587.832884,-2757.943793,9696.697840
923.915010,-6661.853478,-3140.991542,8956.491898
923.915339,-5181.441594,-3064.381992,7476.080014
923.915669,-2516.700203,-2604.724693,5995.668130
923.915998,740.205942,-1225.752797,5847.626942
923.916328,3404.947333,1302.362347,5921.647536
923.916657,4515.256246,3830.477490,7328.038826
923.916987,4219.173869,5898.935335,8512.368333
923.917317,3182.885551,6052.154434,9992.780217
923.917646,1110.308913,6205.373534,11769.274478
923.917976,-1628.453072,4826.401637,12435.459826
923.918305,-4071.132681,3370.820191,12287.418637
923.918635,-5921.647536,612.876398,11029.068536
923.918964,-6809.894666,-1915.238745,9252.574275
923.919294,-6439.791695,-4749.792088,8216.285956
923.919624,-4959.379811,-4903.011187,8512.368333
923.919953,-3034.844362,-2757.943793,8586.388927
923.920283,-1480.411884,-919.314598,7624.121203
923.920612,1554.432478,919.314598,7402.059420
923.920942,4811.338623,2528.115143,7698.141797
923.921272,6735.874072,3983.696590,8808.450710
923.921601,6365.771101,5439.278036,9992.780217
923.921931,4367.215058,6588.421283,11399.171507
923.922260,2220.617826,5822.325785,12805.562797
923.922590,-740.205942,3983.696590,13619.789333
923.922919,-3997.112087,1302.362347,13323.706956
923.923249,-6587.832884,-766.095498,12139.377449
923.923579,-8068.244768,-2451.505594,9844.739029
923.923908,-8068.244768,-3907.087040,8438.347739
923.924238,-6513.812290,-4826.401637,7105.977043
923.924567,-3997.112087,-4443.353888,6143.709319
923.924897,-1702.473667,-2528.115143,5773.606348
923.925227,888.247130,-229.828649,6217.729913
923.925556,2664.741391,3907.087040,7031.956449
923.925886,4219.173869,5209.449386,7920.203579
923.926215,4441.235652,4213.525239,9400.615463
923.926545,2886.803174,4060.306139,11917.315666
923.926874,296.082377,5669.106685,13619.789333
923.927204,-2294.638420,4749.792088,13249.686362
923.927534,-4515.256246,1455.581446,11843.295072
923.927863,-5329.482782,-1378.971896,10436.903782
923.928193,-4737.318029,-4749.792088,9252.574275
923.928522,-3997.112087,-6205.373534,8586.388927
923.928852,-3108.864956,-3830.477490,7920.203579
923.929182,-1480.411884,-1302.362347,7402.059420
923.929511,962.267725,76.609550,7105.977043
923.929841,3775.050304,1378.971896,7698.141797
923.930170,5477.523971,2987.772442,8882.471304
923.930500,5551.544565,5056.230287,9770.718434
923.930829,3478.967927,5669.106685,10881.027347
923.931159,370.102971,5362.668486,12065.356855
923.931489,-2294.638420,3064.381992,12805.562797
923.931818,-4885.359217,612.876398,12805.562797
923.932148,-7105.977043,-689.485948,11917.315666
923.932477,-7772.162391,-2451.505594,10807.006753
923.932807,-7994.224174,-3983.696590,9548.656652
923.933137,-6587.832884,-4136.915689,8290.306550
923.933466,-3404.947333,-3447.429741,7105.977043
923.933796,74.020594,-1378.971896,6661.853478
923.934125,2812.782580,2298.286494,6661.853478
923.934455,4515.256246,4979.620737,6069.688724
923.934784,5181.441594,5286.058936,6217.729913
923.935114,5181.441594,4213.525239,8068.244768
923.935444,3034.844362,4903.011187,11325.150913
923.935773,-592.164754,4903.011187,13027.624579
923.936103,-4219.173869,3064.381992,13693.809927
923.936432,-6883.915261,1378.971896,12287.418637
923.936762,-7402.059420,-1532.190996,10362.883188
923.937092,-6587.832884,-4979.620737,9326.594869
923.937421,-5255.462188,-5362.668486,8586.388927
923.937751,-3997.112087,-2298.286494,8438.347739
923.938080,-1776.494261,-1225.752797,7920.203579
923.938410,1036.288319,459.657299,7402.059420
923.938739,3775.050304,2604.724693,7179.997637
923.939069,5551.544565,2911.162892,8068.244768
923.939398,5625.565159,3907.087040,9104.533087
923.939728,3923.091493,5592.497135,10658.965565
923.940057,1258.350101,4903.011187,11991.336260
923.940387,-1628.453072,3370.820191,12657.521608
923.940716,-4441.235652,1149.143247,12657.521608
923.941046,-5921.647536,-1302.362347,11695.253884
923.941375,-7254.018232,-3140.991542,10807.006753
923.941705,-7254.018232,-3370.820191,10214.842000
923.942034,-5699.585753,-2757.943793,8808.450710
923.942364,-2886.803174,-2681.334243,7105.977043
923.942693,370.102971,-1302.362347,5625.565159
923.943023,4071.132681,919.314598,5921.647536
923.943352,5921.647536,3140.991542,6809.894666
923.943682,5847.626942,5362.668486,7402.059420
923.944012,4663.297435,5669.106685,8956.491898
923.944341,2590.720797,5132.839837,10807.006753
923.944671,-888.247130,5209.449386,12213.398043
923.945000,-3923.091493,3217.601092,13545.768739
923.945330,-6661.853478,612.876398,12657.521608
923.945659,-7698.141797,-1378.971896,10807.006753
923.945989,-7105.977043,-3983.696590,9770.718434
923.946318,-5625.565159,-5286.058936,9252.574275
923.946648,-3923.091493,-3524.039291,8586.388927
923.946977,-1554.432478,-842.705048,7179.997637
923.947307,2368.659014,229.828649,6365.771101
923.947636,5773.606348,2221.676944,6513.812290
923.947966,7254.018232,4290.134789,7402.059420
923.948295,6513.812290,4596.572988,9252.574275
923.948625,4145.153275,6128.763984,10955.047942
923.948954,1036.288319,6435.202183,12509.480420
923.949284,-1776.494261,4596.572988,13545.768739
923.949613,-4293.194464,1378.971896,13397.727550
923.949943,-6217.729913,-612.876398,11621.233289
923.950272,-7031.956449,-3140.991542,10214.842000
923.950602,-7031.956449,-4290.134789,9326.594869
923.950931,-5329.482782,-3370.820191,8068.244768
923.951261,-3034.844362,-2451.505594,6587.832884
923.951590,-444.123565,-689.485948,5625.565159
923.951920,2886.803174,842.705048,5551.544565
923.952250,4885.359217,3294.210641,7105.977043
923.952579,4885.359217,4903.011187,8290.306550
923.952909,3256.906145,5898.935335,9326.594869
923.953238,1258.350101,5592.497135,10807.006753
923.953568,-1110.308913,3983.696590,12583.501014
923.953897,-3997.112087,2681.334243,13841.851115
923.954227,-6291.750507,842.705048,12361.439231
923.954556,-7179.997637,-1608.800546,10584.944971
923.954886,-6809.894666,-3830.477490,9696.697840
923.955215,-4737.318029,-3753.867940,9104.533087
923.955545,-2664.741391,-3140.991542,8216.285956
923.955874,-296.082377,-1378.971896,7254.018232
923.956204,2368.659014,766.095498,6513.812290
923.956533,5181.441594,2221.676944,7105.977043
923.956863,7105.977043,2987.772442,8216.285956
923.957192,6143.709319,4443.353888,9548.656652
923.957522,3849.070898,5669.106685,10881.027347
923.957851,1406.391290,4749.792088,12139.377449
923.958181,-1110.308913,2451.505594,13101.645173
923.958510,-4293.194464,536.266849,13619.789333
923.958840,-6587.832884,-1762.019645,12583.501014
923.959169,-8438.347739,-2298.286494,11177.109724
923.959499,-7920.203579,-3140.991542,9770.718434
923.959828,-5551.544565,-3447.429741,8438.347739
923.960158,-2664.741391,-2987.772442,6217.729913
923.960487,0.000000,-1302.362347,5033.400406
923.960817,2812.782580,612.876398,5255.462188
923.961147,4367.215058,3294.210641,5921.647536
923.961476,3997.112087,5209.449386,6883.915261
923.961806,2812.782580,4673.182538,8438.347739
923.962135,740.205942,4443.353888,10955.047942
923.962465,-2294.638420,3907.087040,13249.686362
923.962794,-4737.318029,2528.115143,14878.139434
923.963124,-7105.977043,1072.533697,13767.830521
923.963453,-8142.265362,-842.705048,11325.150913
923.963783,-7254.018232,-3907.087040,9474.636058
923.964112,-4589.276840,-5362.668486,9474.636058
923.964442,-2812.782580,-3370.820191,8364.327145
923.964771,-1184.329507,-1225.752797,7105.977043
923.965101,1480.411884,689.485948,6661.853478
923.965430,4515.256246,2757.943793,7254.018232
923.965760,6661.853478,3447.429741,8364.327145
923.966089,6661.853478,4290.134789,8956.491898
923.966419,4515.256246,5362.668486,9474.636058
923.966748,2146.597232,4366.744339,11029.068536
923.967078,-888.247130,2068.457845,13693.809927
923.967407,-4663.297435,1378.971896,14730.098246
923.967737,-7550.100608,153.219100,13545.768739
923.968066,-8808.450710,-1378.971896,10955.047942
923.968396,-7402.059420,-2145.067394,9326.594869
923.968725,-4737.318029,-2911.162892,7846.182985
923.969055,-1480.411884,-3524.039291,5995.668130
923.969385,1480.411884,-1762.019645,5255.462188
923.969714,2812.782580,2068.457845,5773.606348
923.970044,3849.070898,4749.792088,6957.935855
923.970373,3923.091493,5362.668486,8216.285956
923.970703,3182.885551,5209.449386,9030.512492
923.971032,1258.350101,4596.572988,10658.965565
923.971362,-666.185348,3907.087040,12287.418637
923.971691,-3330.926739,2604.724693,12953.603985
923.972021,-5329.482782,459.657299,11843.295072
923.972350,-6513.812290,-2451.505594,10658.965565
923.972680,-5921.647536,-3983.696590,10214.842000
923.973009,-4441.235652,-2834.553343,10140.821405
923.973339,-2516.700203,-995.924147,8660.409521
923.973668,74.020594,0.000000,6735.874072
923.973998,3701.029710,689.485948,5847.626942
923.974327,7179.997637,1838.629195,5995.668130
923.974657,8734.430116,2451.505594,7031.956449
923.974986,7105.977043,4673.182538,9474.636058
923.975316,3478.967927,6281.983084,11991.336260
923.975645,-666.185348,5362.668486,13471.748144
923.975975,-3997.112087,4136.915689,13767.830521
923.976304,-6217.729913,1762.019645,13101.645173
923.976634,-7402.059420,-995.924147,11029.068536
923.976963,-8068.244768,-4060.306139,9104.533087
923.977293,-7550.100608,-5362.668486,8216.285956
923.977623,-5921.647536,-4673.182538,7105.977043
923.977952,-3701.029710,-3217.601092,6439.791695
923.978282,-370.102971,-689.485948,6809.894666
923.978611,2812.782580,1838.629195,7624.121203
923.978941,4737.318029,4366.744339,7254.018232
923.979270,5847.626942,5056.230287,7476.080014
923.979600,6143.709319,4826.401637,9326.594869
923.979929,3627.009116,5362.668486,11843.295072
923.980259,-740.205942,4749.792088,13841.851115
923.980588,-4145.153275,3830.477490,14582.057057
923.980918,-6735.874072,1149.143247,13249.686362
923.981247,-7328.038826,-2145.067394,11029.068536
923.981577,-5477.523971,-5056.230287,9770.718434
923.981906,-4663.297435,-5286.058936,8882.471304
923.982236,-3330.926739,-3217.601092,7624.121203
923.982565,-1406.391290,-1455.581446,6069.688724
923.982895,1850.514855,229.828649,5403.503377
923.983224,4737.318029,2451.505594,6069.688724
923.983554,6217.729913,3064.381992,7994.224174
923.983883,5551.544565,4979.620737,9474.636058
923.984213,2368.659014,6205.373534,10436.903782
923.984542,0.000000,5056.230287,11695.253884
923.984872,-2442.679609,1838.629195,13101.645173
923.985201,-5107.421000,-229.828649,14730.098246
923.985531,-7254.018232,-1455.581446,13175.665768
923.985860,-8438.347739,-2604.724693,10955.047942
923.986190,-7105.977043,-3447.429741,9030.512492
923.986520,-3775.050304,-3370.820191,6809.894666
923.986849,-592.164754,-2757.943793,5329.482782
923.987179,2886.803174,-1072.533697,4737.318029
923.987508,5329.482782,1838.629195,5477.523971
923.987838,5921.647536,4749.792088,6957.935855
923.988167,5033.400406,6128.763984,8216.285956
923.988497,3552.988522,6205.373534,9918.759623
923.988826,1184.329507,4749.792088,11769.274478
923.989156,-1702.473667,3830.477490,13397.727550
923.989485,-4219.173869,1685.410096,13545.768739
923.989815,-6661.853478,-536.266849,12657.521608
923.990144,-7772.162391,-2987.772442,11325.150913
923.990474,-7402.059420,-5209.449386,10732.986159
923.990803,-5995.668130,-4213.525239,10140.821405
923.991133,-4293.194464,-2145.067394,8734.430116
923.991462,-1628.453072,-536.266849,6439.791695
923.991792,3108.864956,0.000000,5107.421000
923.992121,6217.729913,1149.143247,6069.688724
923.992451,7328.038826,2834.553343,7846.182985
923.992780,5995.668130,5132.839837,9770.718434
923.993110,2590.720797,6588.421283,10955.047942
923.993439,-370.102971,5056.230287,12213.398043
923.993769,-2368.659014,2987.772442,13545.768739
923.994098,-4737.318029,383.047749,13915.871710
923.994428,-6735.874072,-1225.752797,12139.377449
923.994758,-8290.306550,-2528.115143,10288.862594
923.995087,-7772.162391,-3370.820191,8734.430116
923.995417,-5329.482782,-3524.039291,7105.977043
923.995746,-2220.617826,-2757.943793,5773.606348
923.996076,1184.329507,-1149.143247,5551.544565
923.996405,3775.050304,1455.581446,6217.729913
923.996735,4589.276840,4596.572988,6809.894666
923.997064,4737.318029,5898.935335,7994.224174
923.997394,3404.947333,5745.716235,9474.636058
923.997723,1036.288319,5362.668486,11991.336260
923.998053,-1776.494261,4673.182538,13619.789333
923.998382,-4959.379811,2834.553343,13323.706956
923.998712,-6957.935855,383.047749,11991.336260
923.999041,-7328.038826,-2451.505594,10214.842000
923.999371,-6143.709319,-4826.401637,9548.656652
923.999700,-3923.091493,-4213.525239,9030.512492
924.000030,-2368.659014,-1915.238745,7550.100608
924.000359,-148.041188,-459.657299,5921.647536
924.000689,3330.926739,536.266849,5329.482782
924.001018,6735.874072,2681.334243,7105.977043
924.001348,7550.100608,4519.963438,8586.388927
924.001677,6217.729913,5592.497135,10362.883188
924.002007,3552.988522,6741.640382,11917.315666
924.002336,444.123565,5056.230287,12879.583391
924.002666,-2738.761985,2528.115143,13989.892304
924.002996,-4663.297435,766.095498,14211.954086
924.003325,-6735.874072,-842.705048,11621.233289
924.003655,-6809.894666,-3217.601092,9400.615463
924.003984,-5699.585753,-4290.134789,7476.080014
924.004314,-3923.091493,-3600.648841,5699.585753
924.004643,-1480.411884,-2451.505594,4959.379811
924.004973,1036.288319,-689.485948,5625.565159
924.005302,3182.885551,2834.553343,7179.997637
924.005632,3849.070898,5439.278036,8290.306550
924.005961,3552.988522,5975.544884,8438.347739
924.006291,2368.659014,5745.716235,9622.677246
924.006620,814.226536,4903.011187,11621.233289
924.006950,-2294.638420,3830.477490,13101.645173
924.007279,-4959.379811,2145.067394,13175.665768
924.007609,-7105.977043,-306.438199,11917.315666
924.007938,-7105.977043,-2834.553343,10214.842000
924.008268,-5477.523971,-5056.230287,10066.800811
924.008597,-3775.050304,-4366.744339,8882.471304
924.008927,-1776.494261,-2757.943793,7328.038826
924.009256,814.226536,-1225.752797,6217.729913
924.009586,4071.132681,1378.971896,6587.832884
924.009915,6513.812290,3524.039291,7846.182985
924.010245,7031.956449,4443.353888,9252.574275
924.010574,5329.482782,5592.497135,10362.883188
924.010904,2812.782580,5975.544884,11991.336260
924.011234,0.000000,3447.429741,13619.789333
924.011563,-2664.741391,2145.067394,14211.954086
924.011893,-5551.544565,766.095498,13175.665768
924.012222,-7105.977043,-2068.457845,11029.068536
924.012552,-7254.018232,-4443.353888,9474.636058
924.012881,-5847.626942,-4596.572988,7476.080014
924.013211,-4515.256246,-3907.087040,5921.647536
924.013540,-2294.638420,-2911.162892,5255.462188
924.013870,666.185348,-306.438199,5847.626942
924.014199,3034.844362,2451.505594,7550.100608
924.014529,3923.091493,4903.011187,8068.244768
924.014858,3256.906145,5515.887586,8290.306550
924.015188,2886.803174,5515.887586,10066.800811
924.015517,1332.370696,4826.401637,12213.398043
924.015847,-1554.432478,3983.696590,13175.665768
924.016176,-4441.235652,2068.457845,12805.562797
924.016506,-6217.729913,-612.876398,11621.233289
924.016835,-6587.832884,-4596.572988,11177.109724
924.017165,-5995.668130,-5745.716235,11473.192101
924.017494,-5699.585753,-3600.648841,9844.739029
924.017824,-3627.009116,-2145.067394,7105.977043
924.018153,592.164754,-536.266849,5551.544565
924.018483,4737.318029,536.266849,5033.400406
924.018812,8142.265362,2068.457845,5995.668130
924.019142,8068.244768,3753.867940,7550.100608
924.019471,5773.606348,6205.373534,9844.739029
924.019801,2220.617826,7967.393179,11843.295072
924.020131,-888.247130,5745.716235,13397.727550
924.020460,-3552.988522,2681.334243,14359.995275
924.020790,-6217.729913,229.828649,13397.727550
924.021119,-7476.080014,-2451.505594,11473.192101
924.021449,-8364.327145,-4213.525239,9400.615463
924.021778,-7402.059420,-5362.668486,7698.141797
924.022108,-5477.523971,-4290.134789,6143.709319
924.022437,-3034.844362,-2911.162892,5403.503377
924.022767,592.164754,-612.876398,6587.832884
924.023096,3330.926739,2451.505594,7994.224174
924.023426,3849.070898,5132.839837,8808.450710
924.023755,3627.009116,6894.859482,8660.409521
924.024085,3182.885551,6052.154434,10510.924376
924.024414,1924.535449,4903.011187,12065.356855
924.024744,-740.205942,4213.525239,12361.439231
924.025073,-3627.009116,1532.190996,12139.377449
924.025403,-5625.565159,-1302.362347,11547.212695
924.025732,-6217.729913,-3524.039291,11103.089130
924.026062,-5625.565159,-4366.744339,10584.944971
924.026391,-3923.091493,-3294.210641,9030.512492
924.026721,-2368.659014,-1608.800546,7550.100608
924.027050,962.267725,383.047749,6069.688724
924.027380,4885.359217,1762.019645,6069.688724
924.027709,6957.935855,2834.553343,6957.935855
924.028039,6291.750507,5132.839837,8438.347739
924.028369,3552.988522,6665.030833,10214.842000
924.028698,592.164754,6665.030833,11991.336260
924.029028,-2146.597232,3907.087040,13175.665768
924.029357,-4663.297435,919.314598,13175.665768
924.029687,-6291.750507,-1302.362347,11769.274478
924.030016,-7105.977043,-3830.477490,10140.821405
924.030346,-6809.894666,-4979.620737,8660.409521
924.030675,-5181.441594,-3983.696590,7328.038826
924.031005,-3256.906145,-2528.115143,5921.647536
924.031334,74.020594,-995.924147,5403.503377
924.031664,3404.947333,842.705048,7254.018232
924.031993,5403.503377,4136.915689,8660.409521
924.032323,5551.544565,6511.811733,8956.491898
924.032652,5477.523971,6818.249932,9474.636058
924.032982,3701.029710,6128.763984,11177.109724
924.033311,1480.411884,4979.620737,12435.459826
924.033641,-1554.432478,3064.381992,12065.356855
924.033970,-4367.215058,-612.876398,12361.439231
924.034300,-6513.812290,-2528.115143,12583.501014
924.034629,-8216.285956,-2834.553343,11399.171507
924.034959,-7550.100608,-4060.306139,9474.636058
924.035288,-5255.462188,-3753.867940,7698.141797
924.035618,-2368.659014,-2221.676944,5847.626942
924.035947,1406.391290,-1302.362347,4811.338623
924.036277,4589.276840,612.876398,6809.894666
924.036607,5477.523971,4519.963438,9104.533087
924.036936,4219.173869,7201.297681,10510.924376
924.037266,2960.823768,7584.345430,11695.253884
924.037595,1776.494261,6281.983084,11695.253884
924.037925,148.041188,2681.334243,12509.480420
924.038254,-1998.556043,-536.266849,12879.583391
924.038584,-4737.318029,-612.876398,12435.459826
924.038913,-6957.935855,-1838.629195,10955.047942
924.039243,-7624.121203,-3983.696590,8882.471304
924.039572,-5995.668130,-3753.867940,7105.977043
924.039902,-3034.844362,-2987.772442,5403.503377
924.040231,666.185348,-2451.505594,4811.338623
924.040561,3478.967927,-306.438199,6069.688724
924.040890,4663.297435,3830.477490,7698.141797
924.041220,4145.153275,5745.716235,8512.368333
924.041549,3849.070898,5822.325785,9918.759623
924.041879,2294.638420,6435.202183,11473.192101
924.042208,148.041188,4749.792088,12213.398043
924.042538,-2220.617826,2298.286494,11473.192101
924.042867,-4589.276840,0.000000,10955.047942
924.043197,-6587.832884,-3600.648841,12213.398043
924.043526,-7476.080014,-4903.011187,12213.398043
924.043856,-8438.347739,-3983.696590,11029.068536
924.044185,-6957.935855,-3217.601092,8734.430116
924.044515,-3552.988522,-2757.943793,6513.812290
924.044844,888.247130,-1149.143247,5773.606348
924.045174,5255.462188,306.438199,6365.771101
924.045503,7328.038826,1915.238745,7772.162391
924.045833,6365.771101,5515.887586,9474.636058
924.046162,4367.215058,7584.345430,10807.006753
924.046492,2294.638420,5975.544884,11843.295072
924.046821,222.061783,3907.087040,11991.336260
924.047151,-2664.741391,383.047749,12065.356855
924.047480,-4885.359217,-1455.581446,12583.501014
924.047810,-7105.977043,-2374.896044,11843.295072
924.048139,-8364.327145,-3830.477490,10510.924376
924.048469,-8290.306550,-3447.429741,8586.388927
924.048798,-5995.668130,-3217.601092,6661.853478
924.049128,-2220.617826,-2221.676944,6291.750507
924.049457,1332.370696,-459.657299,7254.018232
924.049787,3182.885551,2911.162892,8068.244768
924.050116,3330.926739,5362.668486,7624.121203
924.050446,3552.988522,4979.620737,8438.347739
924.050775,2738.761985,5669.106685,9622.677246
924.051105,592.164754,4826.401637,11029.068536
924.051434,-1924.535449,2451.505594,11769.274478
924.051764,-4367.215058,1608.800546,11621.233289
924.052093,-6365.771101,0.000000,10510.924376
924.052422,-6439.791695,-2681.334243,9770.718434
924.052752,-5847.626942,-4673.182538,9918.759623
924.053081,-4811.338623,-3600.648841,9770.718434
924.053411,-3108.864956,-919.314598,8660.409521
924.053740,0.000000,1072.533697,7624.121203
924.054070,3627.009116,2451.505594,7105.977043
924.054399,6661.853478,2987.772442,7624.121203
924.054729,7179.997637,3753.867940,8660.409521
924.055058,6143.709319,4979.620737,9400.615463
924.055388,3404.947333,5209.449386,11029.068536
924.055717,444.123565,3983.696590,12805.562797
924.056047,-3256.906145,2451.505594,13545.768739
924.056376,-5995.668130,229.828649,12953.603985
924.056706,-6661.853478,-1532.190996,11251.130318
924.057035,-6365.771101,-2451.505594,9030.512492
924.057365,-4885.359217,-2911.162892,7402.059420
924.057694,-2960.823768,-3064.381992,5847.626942
924.058024,-740.205942,-1991.848295,6217.729913
924.058353,1036.288319,995.924147,7105.977043
924.058683,2664.741391,3983.696590,7772.162391
924.059012,3552.988522,5515.887586,8068.244768
924.059342,3775.050304,5209.449386,9178.553681
924.059671,2812.782580,4596.572988,10140.821405
924.060001,1184.329507,3983.696590,11177.109724
924.060330,-1332.370696,2987.772442,11177.109724
924.060660,-3997.112087,919.314598,11177.109724
924.060989,-6291.750507,-1532.190996,12213.398043
924.061319,-7328.038826,-3217.601092,12731.542202
924.061648,-7031.956449,-3140.991542,11769.274478
924.061978,-5255.462188,-2451.505594,9326.594869
924.062307,-2294.638420,-1608.800546,6735.874072
924.062637,1850.514855,-842.705048,5477.523971
924.062966,5551.544565,153.219100,5699.585753
924.063296,7179.997637,1608.800546,6957.935855
924.063625,6365.771101,4826.401637,8586.388927
924.063955,4145.153275,7354.516781,10510.924376
924.064284,1258.350101,5592.497135,11621.233289
924.064614,-1258.350101,3294.210641,12805.562797
924.064943,-3552.988522,766.095498,13619.789333
924.065273,-5847.626942,-1225.752797,13323.706956
924.065602,-8068.244768,-1915.238745,11843.295072
924.065932,-9178.553681,-2911.162892,10066.800811
924.066261,-7772.162391,-3907.087040,7772.162391
924.066591,-4219.173869,-3677.258390,6143.709319
924.066920,0.000000,-2528.115143,6217.729913
924.067250,2442.679609,306.438199,6661.853478
924.067579,3775.050304,3907.087040,6587.832884
924.067909,4071.132681,5362.668486,7179.997637
924.068238,4071.132681,4979.620737,8808.450710
924.068568,2886.803174,5132.839837,10658.965565
924.068897,296.082377,4519.963438,11399.171507
924.069227,-2368.659014,1915.238745,11695.253884
924.069556,-4145.153275,-995.924147,13767.830521
924.069886,-6439.791695,-2987.772442,14804.118840
924.070215,-8364.327145,-2834.553343,13545.768739
924.070545,-7920.203579,-2451.505594,10807.006753
924.070874,-4885.359217,-1685.410096,7846.182985
924.071203,-814.226536,-1225.752797,4811.338623
924.071533,3701.029710,-919.314598,2442.679609
924.071862,7476.080014,-306.438199,3182.885551
924.072192,7920.203579,2757.943793,6809.894666
924.072521,5181.441594,7201.297681,9844.739029
924.072851,2072.576638,8810.098227,11473.192101
924.073180,-740.205942,5822.325785,11177.109724
924.073510,-2220.617826,2834.553343,11695.253884
924.073839,-3330.926739,-1532.190996,13471.748144
924.074169,-5107.421000,-3370.820191,14359.995275
924.074498,-8216.285956,-2451.505594,13175.665768
924.074828,-10658.965565,-2451.505594,11325.150913
924.075157,-9030.512492,-2757.943793,9474.636058
924.075487,-4885.359217,-2145.067394,7031.956449
924.075816,74.020594,-1608.800546,4737.318029
924.076146,4441.235652,-2298.286494,4441.235652
924.076475,6883.915261,2221.676944,6365.771101
924.076805,6069.688724,6281.983084,7846.182985
924.077134,4515.256246,5975.544884,9474.636058
924.077464,2960.823768,6128.763984,10362.883188
924.077793,814.226536,4749.792088,11695.253884
924.078123,-740.205942,842.705048,13323.706956
924.078452,-3627.009116,-1302.362347,14730.098246
924.078782,-7254.018232,-459.657299,13767.830521
924.079111,-8734.430116,-1149.143247,11769.274478
924.079441,-8068.244768,-3447.429741,9844.739029
924.079770,-5847.626942,-2604.724693,7772.162391
924.080100,-2738.761985,-1838.629195,4811.338623
924.080429,1332.370696,-2374.896044,4145.153275
924.080759,5255.462188,76.609550,5181.441594
924.081088,5995.668130,3907.087040,7476.080014
924.081418,5181.441594,5669.106685,9104.533087
924.081747,4071.132681,5822.325785,9400.615463
924.082077,2516.700203,5975.544884,9992.780217
924.082406,814.226536,2987.772442,12583.501014
924.082736,-2072.576638,0.000000,15174.221811
924.083065,-5699.585753,0.000000,15618.345376
924.083395,-8586.388927,-612.876398,12509.480420
924.083724,-8512.368333,-2298.286494,10807.006753
924.084054,-5551.544565,-2528.115143,8364.327145
924.084383,-2516.700203,-2221.676944,4441.235652
924.084713,962.267725,-3447.429741,2368.659014
924.085042,3775.050304,-1608.800546,3849.070898
924.085372,5107.421000,4290.134789,7254.018232
924.085701,3923.091493,7354.516781,9178.553681
924.086031,2294.638420,6818.249932,9770.718434
924.086360,962.267725,6435.202183,10510.924376
924.086690,-370.102971,4826.401637,11621.233289
924.087019,-2368.659014,2451.505594,11843.295072
924.087349,-4589.276840,0.000000,12805.562797
924.087678,-6809.894666,-2757.943793,13989.892304
924.088008,-8586.388927,-3217.601092,13841.851115
924.088337,-8882.471304,-2757.943793,11843.295072
924.088667,-6069.688724,-1532.190996,9030.512492
924.088996,-2368.659014,-1225.752797,5995.668130
924.089326,2590.720797,-459.657299,4515.256246
924.089655,7031.956449,459.657299,4737.318029
924.089984,8956.491898,2604.724693,6513.812290
924.090314,7328.038826,5822.325785,7846.182985
924.090643,4145.153275,7201.297681,10140.821405
924.090973,1776.494261,5439.278036,12509.480420
924.091302,-814.226536,3907.087040,14137.933492
924.091632,-3552.988522,1532.190996,14730.098246
924.091961,-5255.462188,-383.047749,13693.809927
924.092291,-6883.915261,-1991.848295,11399.171507
924.092620,-6587.832884,-3677.258390,9770.718434
924.092950,-5255.462188,-3217.601092,7031.956449
924.093279,-3478.967927,-2757.943793,4589.276840
924.093609,-592.164754,-1685.410096,4811.338623
924.093938,1702.473667,919.314598,6661.853478
924.094268,2590.720797,3907.087040,8290.306550
924.094597,2812.782580,6052.154434,8364.327145
924.094927,2738.761985,4596.572988,8586.388927
924.095256,1850.514855,4136.915689,9770.718434
924.095586,-370.102971,3217.601092,10658.965565
924.095915,-3034.844362,1378.971896,11251.130318
924.096245,-4811.338623,-612.876398,12879.583391
924.096574,-6439.791695,-2451.505594,14211.954086
924.096904,-7550.100608,-2834.553343,13175.665768
924.097233,-6957.935855,-2757.943793,11177.109724
924.097563,-4219.173869,-2911.162892,8142.265362
924.097892,-592.164754,-1685.410096,5699.585753
924.098222,3552.988522,-689.485948,4515.256246
924.098551,7254.018232,842.705048,5255.462188
924.098881,8512.368333,2528.115143,7550.100608
924.099210,6439.791695,5515.887586,9548.656652
924.099540,4219.173869,6665.030833,11177.109724
924.099869,1332.370696,4979.620737,12435.459826
924.100199,-1406.391290,2374.896044,13545.768739
924.100528,-4737.318029,612.876398,14508.036463
924.100858,-7476.080014,-612.876398,13767.830521
924.101187,-8808.450710,-2528.115143,11843.295072
924.101517,-9252.574275,-4136.915689,9104.533087
924.101846,-7772.162391,-4060.306139,6809.894666
924.102176,-4663.297435,-3524.039291,4589.276840
924.102505,-888.247130,-2911.162892,4663.297435
924.102835,2072.576638,-459.657299,5847.626942
924.103164,2738.761985,3524.039291,7254.018232
924.103494,3108.864956,6435.202183,7920.203579
924.103823,3330.926739,5822.325785,8956.491898
924.104153,2590.720797,5362.668486,10436.903782
924.104482,1036.288319,4443.353888,11621.233289
924.104812,-1628.453072,2528.115143,12509.480420
924.105141,-4441.235652,1072.533697,12583.501014
924.105471,-6513.812290,-536.266849,12583.501014
924.105800,-6735.874072,-4136.915689,12805.562797
924.106130,-6291.750507,-3600.648841,11399.171507
924.106459,-5551.544565,-2451.505594,8956.491898
924.106789,-2294.638420,-1302.362347,6291.750507
924.107118,2072.576638,-153.219100,4737.318029
924.107448,6143.709319,1072.533697,4737.318029
924.107777,7994.224174,2298.286494,6217.729913
924.108107,6883.915261,4443.353888,8068.244768
924.108436,4441.235652,7201.297681,10140.821405
924.108766,1628.453072,6281.983084,12213.398043
924.109095,-1480.411884,2834.553343,14508.036463
924.109424,-5255.462188,2298.286494,14952.160028
924.109754,-8216.285956,459.657299,13841.851115
924.110083,-7846.182985,-2221.676944,12139.377449
924.110413,-7846.182985,-3064.381992,9252.574275
924.110742,-5551.544565,-3983.696590,6513.812290
924.111072,-2812.782580,-4519.963438,3775.050304
924.111401,814.226536,-2298.286494,3701.029710
924.111731,3775.050304,689.485948,6069.688724
924.112060,4959.379811,4903.011187,8216.285956
924.112390,4367.215058,7354.516781,8808.450710
924.112719,3997.112087,7660.954980,9178.553681
924.113049,3404.947333,6588.421283,10658.965565
924.113378,1776.494261,4979.620737,11103.089130
924.113708,-1406.391290,2068.457845,11695.253884
924.114037,-4589.276840,-2221.676944,13545.768739
924.114367,-7550.100608,-2221.676944,14137.933492
924.114696,-9178.553681,-2757.943793,12879.583391
924.115026,-7031.956449,-3983.696590,9918.759623
924.115355,-4515.256246,-2451.505594,6735.874072
924.115685,-148.041188,-1991.848295,4737.318029
924.116014,4441.235652,-1532.190996,3627.009116
924.116344,7031.956449,842.705048,5329.482782
924.116673,7105.977043,5439.278036,8586.388927
924.117003,3701.029710,7890.783629,10732.986159
924.117332,1110.308913,7890.783629,12213.398043
924.117662,-370.102971,6511.811733,12731.542202
924.117991,-2072.576638,2145.067394,13619.789333
924.118321,-3923.091493,-995.924147,13915.871710
924.118650,-6661.853478,-1532.190996,12509.480420
924.118980,-8364.327145,-3907.087040,11251.130318
924.119309,-8068.244768,-4673.182538,9030.512492
924.119639,-6513.812290,-3600.648841,7031.956449
924.119968,-3182.885551,-2451.505594,5033.400406
924.120298,74.020594,-995.924147,5181.441594
924.120627,3182.885551,842.705048,6513.812290
924.120957,4589.276840,5515.887586,8216.285956
924.121286,4071.132681,6052.154434,9030.512492
924.121616,3404.947333,5898.935335,10288.862594
924.121945,1702.473667,5439.278036,11251.130318
924.122275,-740.205942,3064.381992,11399.171507
924.122604,-2368.659014,-306.438199,12731.542202
924.122934,-4663.297435,-1608.800546,13841.851115
924.123263,-6735.874072,-1455.581446,13249.686362
924.123593,-7254.018232,-3294.210641,10510.924376
924.123922,-6069.688724,-3753.867940,7624.121203
924.124252,-2886.803174,-2145.067394,5107.421000
924.124581,296.082377,-1608.800546,3849.070898
924.124911,3923.091493,-536.266849,4737.318029
924.125240,5477.523971,3140.991542,7402.059420
924.125570,5181.441594,6128.763984,9696.697840
924.125899,3330.926739,6894.859482,10732.986159
924.126229,2220.617826,6818.249932,10807.006753
924.126558,444.123565,3830.477490,11103.089130
924.126888,-1332.370696,-689.485948,12731.542202
924.127217,-3849.070898,-1378.971896,13545.768739
924.127547,-7179.997637,-1378.971896,13545.768739
924.127876,-8882.471304,-2681.334243,12065.356855
924.128205,-8808.450710,-2987.772442,10066.800811
924.128535,-6069.688724,-2451.505594,7328.038826
924.128864,-2072.576638,-2528.115143,4737.318029
924.129194,2368.659014,-2834.553343,3997.112087
924.129523,4737.318029,536.266849,5847.626942
924.129853,5033.400406,4903.011187,8216.285956
924.130182,4441.235652,6128.763984,9770.718434
924.130512,2886.803174,7124.688131,10140.821405
924.130841,1702.473667,6435.202183,10732.986159
924.131171,296.082377,2528.115143,12435.459826
924.131500,-2664.741391,-306.438199,13915.871710
924.131830,-5921.647536,-689.485948,14211.954086
924.132159,-8438.347739,-1532.190996,12361.439231
924.132489,-8290.306550,-3294.210641,10510.924376
924.132818,-6957.935855,-4290.134789,7846.182985
924.133148,-4367.215058,-4213.525239,5773.606348
924.133477,-888.247130,-3140.991542,4663.297435
924.133807,3108.864956,-306.438199,5181.441594
924.134136,5403.503377,2987.772442,7624.121203
924.134466,5921.647536,5362.668486,9622.677246
924.134795,4959.379811,6665.030833,10214.842000
924.135125,4145.153275,7048.078582,9992.780217
924.135454,3182.885551,4519.963438,11621.233289
924.135784,814.226536,1838.629195,13767.830521
924.136113,-3256.906145,689.485948,15100.201217
924.136443,-6661.853478,-612.876398,13841.851115
924.136772,-8142.265362,-3064.381992,11547.212695
924.137102,-7402.059420,-3830.477490,8882.471304
924.137431,-5107.421000,-3600.648841,5773.606348
924.137761,-1924.535449,-3830.477490,3034.844362
924.138090,1332.370696,-2221.676944,3627.009116
924.138420,4367.215058,1762.019645,6513.812290
924.138749,4959.379811,5362.668486,9104.533087
924.139079,3849.070898,7354.516781,9548.656652
924.139408,2072.576638,7507.735880,9622.677246
924.139738,1332.370696,6741.640382,10362.883188
924.140067,-370.102971,4596.572988,10881.027347
924.140397,-2368.659014,1378.971896,11399.171507
924.140726,-4885.359217,-2757.943793,12731.542202
924.141056,-7698.141797,-3294.210641,13101.645173
924.141385,-9696.697840,-2604.724693,12065.356855
924.141715,-8290.306550,-3600.648841,9474.636058
924.142044,-5181.441594,-2451.505594,7105.977043
924.142374,-888.247130,-1455.581446,5107.421000
924.142703,4367.215058,-536.266849,4737.318029
924.143033,7994.224174,2451.505594,5477.523971
924.143362,8660.409521,5669.106685,7550.100608
924.143692,6513.812290,7507.735880,9696.697840
924.144021,3701.029710,7967.393179,11473.192101
924.144350,962.267725,6741.640382,12583.501014
924.144680,-1184.329507,2834.553343,13619.789333
924.145009,-3552.988522,459.657299,14211.954086
924.145339,-5773.606348,-1225.752797,12731.542202
924.145668,-7328.038826,-4136.915689,11325.150913
924.145997,-7624.121203,-4979.620737,9104.533087
924.146327,-6809.894666,-3753.867940,6809.894666
924.146656,-3552.988522,-2451.505594,5329.482782
924.146986,-296.082377,-1378.971896,5773.606348
924.147315,2664.741391,1532.190996,7624.121203
924.147645,3997.112087,4979.620737,8734.430116
924.147974,3849.070898,5898.935335,8734.430116
924.148303,2960.823768,6205.373534,9252.574275
924.148633,1554.432478,5669.106685,10584.944971
924.148962,-1036.288319,3447.429741,10955.047942
924.149292,-2294.638420,229.828649,12139.377449
924.149621,-4071.132681,-2987.772442,13175.665768
924.149951,-6217.729913,-2834.553343,12583.501014
924.150280,-7328.038826,-3600.648841,10732.986159
924.150609,-5847.626942,-4443.353888,9400.615463
924.150939,-3034.844362,-2451.505594,7476.080014
924.151268,370.102971,-459.657299,6069.688724
924.151598,4367.215058,459.657299,5551.544565
924.151927,7105.977043,3600.648841,6513.812290
924.152257,7031.956449,5439.278036,8216.285956
924.152586,5847.626942,5822.325785,9770.718434
924.152915,3849.070898,6281.983084,10658.965565
924.153245,1110.308913,4826.401637,11695.253884
924.153574,-1924.535449,1532.190996,13397.727550
924.153904,-5107.421000,-536.266849,13989.892304
924.154233,-7698.141797,-1378.971896,13397.727550
924.154563,-8660.409521,-3983.696590,11547.212695
924.154892,-8660.409521,-4290.134789,9178.553681
924.155221,-7179.997637,-3294.210641,6587.832884
924.155551,-3404.947333,-3140.991542,4515.256246
924.155880,222.061783,-1532.190996,4737.318029
924.156210,3108.864956,1685.410096,6661.853478
924.156539,4293.194464,4903.011187,8364.327145
924.156868,4145.153275,5898.935335,9104.533087
924.157198,3701.029710,6741.640382,9326.594869
924.157527,1998.556043,5669.106685,10436.903782
924.157857,370.102971,3447.429741,11325.150913
924.158186,-2220.617826,1915.238745,10732.986159
924.158516,-4367.215058,-1378.971896,11695.253884
924.158845,-6143.709319,-3217.601092,13397.727550
924.159174,-7846.182985,-3064.381992,13471.748144
924.159504,-8734.430116,-2987.772442,11103.089130
924.159833,-6513.812290,-2528.115143,8290.306550
924.160163,-2368.659014,-1378.971896,6439.791695
924.160492,2590.720797,306.438199,5329.482782
924.160822,6587.832884,536.266849,5847.626942
924.161151,7254.018232,2528.115143,6957.935855
924.161480,5699.585753,6205.373534,8586.388927
924.161810,3404.947333,6894.859482,10214.842000
924.162139,1406.391290,4903.011187,11769.274478
924.162469,-1332.370696,2834.553343,13397.727550
924.162798,-4293.194464,76.609550,14434.015869
924.163128,-6143.709319,-1608.800546,13915.871710
924.163457,-7328.038826,-2528.115143,12287.418637
924.163786,-7772.162391,-3140.991542,10436.903782
924.164116,-6587.832884,-3064.381992,7550.100608
924.164445,-3034.844362,-3064.381992,4959.379811
924.164775,1258.350101,-842.705048,4589.276840
924.165104,4737.318029,1072.533697,5773.606348
924.165433,5773.606348,4213.525239,7254.018232
924.165763,4811.338623,6894.859482,7698.141797
924.166092,4071.132681,6358.592633,8882.471304
924.166422,2590.720797,5975.544884,9918.759623
924.166751,592.164754,4366.744339,10288.862594
924.167081,-2072.576638,612.876398,11621.233289
924.167410,-4515.256246,-2374.896044,13693.809927
924.167739,-7550.100608,-2298.286494,13989.892304
924.168069,-9104.533087,-2145.067394,12361.439231
924.168398,-7772.162391,-2834.553343,9992.780217
924.168728,-4515.256246,-1838.629195,7254.018232
924.169057,222.061783,-1072.533697,4885.359217
924.169387,5033.400406,-842.705048,3775.050304
924.169716,7846.182985,2068.457845,4811.338623
924.170045,7476.080014,5439.278036,7846.182985
924.170375,4589.276840,7584.345430,9844.739029
924.170704,2220.617826,7584.345430,11769.274478
924.171034,518.144159,5822.325785,11843.295072
924.171363,-1480.411884,1915.238745,12657.521608
924.171693,-3849.070898,-1532.190996,13767.830521
924.172022,-6365.771101,-1991.848295,13915.871710
924.172351,-8438.347739,-3064.381992,12435.459826
924.172681,-8882.471304,-3600.648841,10510.924376
924.173010,-7550.100608,-1762.019645,7698.141797
924.173340,-4145.153275,-1072.533697,5551.544565
924.173669,518.144159,-919.314598,4737.318029
924.173999,4145.153275,383.047749,5847.626942
924.174328,5181.441594,4749.792088,7254.018232
924.174657,4441.235652,6205.373534,8512.368333
924.174987,3256.906145,5898.935335,9252.574275
924.175316,1036.288319,5592.497135,10658.965565
924.175646,-1036.288319,3370.820191,11251.130318
924.175975,-2590.720797,-153.219100,12657.521608
924.176304,-4811.338623,-1762.019645,13767.830521
924.176634,-7031.956449,-2451.505594,13545.768739
924.176963,-8216.285956,-2528.115143,11547.212695
924.177293,-5995.668130,-2911.162892,9178.553681
924.177622,-2886.803174,-1532.190996,6735.874072
924.177952,518.144159,-459.657299,4737.318029
924.178281,4441.235652,76.609550,4367.215058
924.178610,6513.812290,2911.162892,6365.771101
924.178940,6217.729913,5362.668486,8512.368333
924.179269,4515.256246,5745.716235,9844.739029
924.179599,2442.679609,5669.106685,10140.821405
924.179928,444.123565,1838.629195,11769.274478
924.180258,-2072.576638,-766.095498,13397.727550
924.180587,-5033.400406,-919.314598,14359.995275
924.180916,-7105.977043,-1378.971896,14063.912898
924.181246,-7624.121203,-3294.210641,12361.439231
924.181575,-7031.956449,-3447.429741,9918.759623
924.181905,-4515.256246,-2298.286494,7031.956449
924.182234,-1184.329507,-2298.286494,4367.215058
924.182564,2886.803174,-766.095498,4071.132681
924.182893,5107.421000,2451.505594,6217.729913
924.183222,5477.523971,4826.401637,8216.285956
924.183552,4441.235652,6205.373534,8734.430116
924.183881,2960.823768,6281.983084,8660.409521
924.184211,1480.411884,4060.306139,10140.821405
924.184540,-518.144159,383.047749,12805.562797
924.184869,-4293.194464,-1072.533697,14211.954086
924.185199,-8068.244768,-459.657299,14063.912898
924.185528,-10362.883188,-1915.238745,12361.439231
924.185858,-10066.800811,-2757.943793,10881.027347
924.186187,-7179.997637,-3600.648841,8882.471304
924.186517,-3849.070898,-3217.601092,6439.791695
924.186846,0.000000,-2221.676944,3849.070898
924.187175,3923.091493,76.609550,4293.194464
924.187505,5921.647536,2987.772442,7105.977043
924.187834,5847.626942,5515.887586,8734.430116
924.188164,4737.318029,6358.592633,9474.636058
924.188493,3775.050304,5669.106685,10066.800811
924.188823,2516.700203,4290.134789,10584.944971
924.189152,-518.144159,919.314598,13175.665768
924.189481,-4589.276840,-1685.410096,15470.304188
924.189811,-8364.327145,-1455.581446,15174.221811
924.190140,-9918.759623,-1685.410096,13323.706956
924.190470,-8586.388927,-2757.943793,10510.924376
924.190799,-6217.729913,-2451.505594,7476.080014
924.191129,-2220.617826,-2681.334243,4515.256246
924.191458,2368.659014,-2374.896044,3034.844362
924.191787,5625.565159,766.095498,4367.215058
924.192117,6069.688724,4903.011187,6957.935855
924.192446,4515.256246,6818.249932,8364.327145
924.192776,2072.576638,6665.030833,9326.594869
924.193105,444.123565,6205.373534,10584.944971
924.193435,-1110.308913,3907.087040,10955.047942
924.193764,-2664.741391,0.000000,13027.624579
924.194093,-4959.379811,-2221.676944,14656.077652
924.194423,-8290.306550,-2298.286494,14878.139434
924.194752,-9696.697840,-2451.505594,12509.480420
924.195082,-7698.141797,-2528.115143,9400.615463
924.195411,-3701.029710,-1225.752797,6365.771101
924.195740,1258.350101,0.000000,4145.153275
924.196070,6883.915261,-383.047749,3256.906145
924.196399,9474.636058,2528.115143,4737.318029
924.196729,9326.594869,6818.249932,6957.935855
924.197058,6365.771101,7584.345430,8660.409521
924.197388,3552.988522,6971.469032,9844.739029
924.197717,518.144159,5056.230287,11843.295072
924.198046,-2146.597232,1532.190996,14434.015869
924.198376,-5255.462188,-919.314598,15470.304188
924.198705,-8068.244768,-1608.800546,14582.057057
924.199035,-9474.636058,-3370.820191,12805.562797
924.199364,-9104.533087,-4136.915689,10066.800811
924.199694,-6439.791695,-2987.772442,7031.956449
924.200023,-2738.761985,-1991.848295,3923.091493
924.200352,1628.453072,-1225.752797,3108.864956
924.200682,4885.359217,1378.971896,6143.709319
924.201011,5255.462188,5745.716235,8142.265362
924.201341,4219.173869,6971.469032,8660.409521
924.201670,2294.638420,6894.859482,8882.471304
924.202000,592.164754,5515.887586,10881.027347
924.202329,-1406.391290,2911.162892,12435.459826
924.202658,-3330.926739,383.047749,12065.356855
924.202988,-5033.400406,-2834.553343,13175.665768
924.203317,-7105.977043,-4213.525239,13471.748144
924.203647,-8364.327145,-3983.696590,13397.727550
924.203976,-7624.121203,-2834.553343,11399.171507
924.204306,-5255.462188,-1149.143247,8068.244768
924.204635,-370.102971,0.000000,5033.400406
924.204964,4737.318029,459.657299,3923.091493
924.205294,8660.409521,766.095498,5107.421000
924.205623,8882.471304,3370.820191,7105.977043
924.205953,5329.482782,6435.202183,8734.430116
924.206282,2812.782580,6052.154434,9992.780217
924.206611,148.041188,3907.087040,12361.439231
924.206941,-3034.844362,1685.410096,14730.098246
924.207270,-6217.729913,0.000000,15174.221811
924.207600,-7476.080014,-1762.019645,13249.686362
924.207929,-7550.100608,-3524.039291,11473.192101
924.208259,-6809.894666,-3524.039291,8882.471304
924.208588,-5181.441594,-3370.820191,6735.874072
924.208917,-2368.659014,-2298.286494,4367.215058
924.209247,1184.329507,0.000000,4515.256246
924.209576,3849.070898,1991.848295,6365.771101
924.209906,5181.441594,4979.620737,8068.244768
924.210235,4367.215058,6052.154434,7994.224174
924.210565,3330.926739,4903.011187,8808.450710
924.210894,1480.411884,4136.915689,10214.842000
924.211223,-962.267725,2528.115143,11621.233289
924.211553,-3627.009116,0.000000,13175.665768
924.211882,-6439.791695,-2145.067394,14952.160028
924.212212,-8956.491898,-1685.410096,14508.036463
924.212541,-8290.306550,-2451.505594,12287.418637
924.212871,-5921.647536,-2911.162892,9548.656652
924.213200,-2960.823768,-2068.457845,6143.709319
924.213529,1110.308913,-1378.971896,3775.050304
924.213859,4959.379811,-536.266849,3997.112087
924.214188,7105.977043,2451.505594,6439.791695
924.214518,6143.709319,5822.325785,8734.430116
924.214847,3701.029710,6511.811733,10140.821405
924.215176,1998.556043,6511.811733,10214.842000
924.215506,296.082377,3524.039291,11547.212695
924.215835,-1850.514855,-383.047749,13989.892304
924.216165,-5255.462188,-1225.752797,14952.160028
924.216494,-8660.409521,-1149.143247,14434.015869
924.216824,-10066.800811,-2757.943793,11991.336260
924.217153,-8660.409521,-3294.210641,9548.656652
924.217482,-5477.523971,-2451.505594,6735.874072
924.217812,-888.247130,-2604.724693,4515.256246
924.218141,2812.782580,-2068.457845,3997.112087
924.218471,5033.400406,2451.505594,5699.585753
924.218800,5699.585753,5822.325785,7698.141797
924.219130,4811.338623,6435.202183,8734.430116
924.219459,3256.906145,6971.469032,9770.718434
924.219788,1332.370696,5822.325785,11325.150913
924.220118,-888.247130,3217.601092,11621.233289
924.220447,-3552.988522,306.438199,13027.624579
924.220777,-5773.606348,-2604.724693,14211.954086
924.221106,-7994.224174,-2528.115143,13989.892304
924.221436,-8364.327145,-3370.820191,12139.377449
924.221765,-6069.688724,-3140.991542,9178.553681
924.222094,-2960.823768,-1685.410096,5477.523971
924.222424,1554.432478,-1072.533697,3478.967927
924.222753,5995.668130,-153.219100,3775.050304
924.223083,7772.162391,2911.162892,6513.812290
924.223412,6513.812290,7201.297681,8808.450710
924.223742,3701.029710,8044.002729,9548.656652
924.224071,1702.473667,6818.249932,10510.924376
924.224400,-148.041188,4060.306139,12065.356855
924.224730,-2072.576638,-229.828649,14211.954086
924.225059,-4885.359217,-1149.143247,14878.139434
924.225389,-8142.265362,-1838.629195,13471.748144
924.225718,-9548.656652,-3677.258390,11621.233289
924.226047,-8364.327145,-3064.381992,9474.636058
924.226377,-5181.441594,-2604.724693,6587.832884
924.226706,-888.247130,-1685.410096,4441.235652
924.227036,3182.885551,0.000000,3923.091493
924.227365,5551.544565,2451.505594,5699.585753
924.227695,6217.729913,5822.325785,7772.162391
924.228024,4663.297435,6741.640382,9252.574275
924.228353,2294.638420,7431.126331,10436.903782
924.228683,222.061783,5592.497135,11177.109724
924.229012,-1406.391290,2145.067394,11843.295072
924.229342,-3923.091493,-1072.533697,13323.706956
924.229671,-5995.668130,-2834.553343,14211.954086
924.230001,-7994.224174,-2681.334243,12731.542202
924.230330,-7920.203579,-3370.820191,10732.986159
924.230659,-5995.668130,-2681.334243,8142.265362
924.230989,-2960.823768,-1532.190996,5699.585753
924.231318,1110.308913,-612.876398,4663.297435
924.231648,5033.400406,766.095498,4811.338623
924.231977,6809.894666,3907.087040,7179.997637
924.232307,5477.523971,5975.544884,9548.656652
924.232636,3478.967927,7354.516781,10955.047942
924.232965,1184.329507,5975.544884,11177.109724
924.233295,-444.123565,3370.820191,11769.274478
924.233624,-2072.576638,-689.485948,13471.748144
924.233954,-4737.318029,-1685.410096,14434.015869
924.234283,-7550.100608,-2757.943793,12583.501014
924.234612,-8586.388927,-4366.744339,10955.047942
924.234942,-7105.977043,-3370.820191,9252.574275
924.235271,-4811.338623,-1991.848295,6809.894666
924.235601,-962.267725,-1685.410096,4663.297435
924.235930,3034.844362,0.000000,4367.215058
924.236260,5921.647536,3217.601092,5551.544565
924.236589,6365.771101,5975.544884,7994.224174
924.236918,4811.338623,6358.592633,9104.533087
924.237248,1998.556043,7048.078582,9844.739029
924.237577,-1036.288319,5362.668486,11325.150913
924.237907,-3182.885551,2374.896044,11547.212695
924.238236,-5699.585753,-995.924147,12731.542202
924.238566,-7328.038826,-3753.867940,13471.748144
924.238895,-8882.471304,-4903.011187,12953.603985
924.239224,-8956.491898,-4673.182538,11251.130318
924.239554,-6513.812290,-3830.477490,8660.409521
924.239883,-3034.844362,-2374.896044,6439.791695
924.240213,1110.308913,-766.095498,4885.359217
924.240542,5181.441594,1149.143247,5255.462188
924.240872,8068.244768,4060.306139,7105.977043
924.241201,7698.141797,6511.811733,8512.368333
924.241530,6069.688724,7354.516781,9696.697840
924.241860,3256.906145,6358.592633,10881.027347
924.242189,740.205942,4060.306139,11621.233289
924.242519,-1776.494261,153.219100,13545.768739
924.242848,-4663.297435,-1608.800546,14359.995275
924.243178,-7105.977043,-1915.238745,13397.727550
924.243507,-8808.450710,-4213.525239,11843.295072
924.243837,-8216.285956,-4060.306139,9622.677246
924.244166,-6069.688724,-2987.772442,7031.956449
924.244495,-2294.638420,-2145.067394,4811.338623
924.244825,2220.617826,-689.485948,4811.338623
924.245154,3923.091493,2068.457845,6513.812290
924.245484,4811.338623,5822.325785,8586.388927
924.245813,4071.132681,6358.592633,9400.615463
924.246143,2664.741391,6894.859482,9844.739029
924.246472,1110.308913,5592.497135,10510.924376
924.246802,-518.144159,2757.943793,10510.924376
924.247131,-2146.597232,-1225.752797,12065.356855
924.247461,-4663.297435,-2757.943793,13027.624579
924.247790,-6957.935855,-2451.505594,12657.521608
924.248120,-7698.141797,-3064.381992,11547.212695
924.248449,-6143.709319,-2374.896044,9548.656652
924.248778,-3182.885551,-919.314598,7179.997637
924.249108,1258.350101,-153.219100,4959.379811
924.249437,5847.626942,1072.533697,4441.235652
924.249767,8438.347739,3524.039291,6069.688724
924.250096,7994.224174,5975.544884,8364.327145
924.250426,5403.503377,6588.421283,9696.697840
924.250755,2590.720797,7201.297681,10362.883188
924.251085,0.000000,4903.011187,11843.295072
924.251414,-2960.823768,1532.190996,13841.851115
924.251744,-5921.647536,-995.924147,14434.015869
924.252073,-7698.141797,-2221.676944,12879.583391
924.252403,-9030.512492,-4519.963438,10955.047942
924.252732,-8438.347739,-4596.572988,8734.430116
924.253061,-6439.791695,-3600.648841,6439.791695
924.253391,-2960.823768,-2221.676944,4737.318029
924.253720,1554.432478,-842.705048,5181.441594
924.254050,4367.215058,2604.724693,7105.977043
924.254379,4885.359217,5745.716235,8660.409521
924.254709,4367.215058,6971.469032,9474.636058
924.255038,3108.864956,7354.516781,10214.842000
924.255368,1924.535449,5898.935335,11325.150913
924.255697,-148.041188,3753.867940,11621.233289
924.256027,-2664.741391,536.266849,11399.171507
924.256356,-5033.400406,-2604.724693,12435.459826
924.256686,-7105.977043,-4060.306139,13101.645173
924.257015,-8290.306550,-4136.915689,12361.439231
924.257344,-7402.059420,-3064.381992,9770.718434
924.257674,-4811.338623,-1915.238745,7254.018232
924.258003,-148.041188,-1072.533697,5773.606348
924.258333,4663.297435,-459.657299,5625.565159
924.258662,7402.059420,2145.067394,6661.853478
924.258992,7031.956449,5362.668486,7624.121203
924.259321,4811.338623,7354.516781,9178.553681
924.259651,2812.782580,6665.030833,10807.006753
924.259980,444.123565,3983.696590,12509.480420
924.260310,-2442.679609,1532.190996,13693.809927
924.260639,-5329.482782,-459.657299,13027.624579
924.260969,-6143.709319,-1991.848295,12139.377449
924.261298,-6809.894666,-4136.915689,10955.047942
924.261628,-6883.915261,-4826.401637,9252.574275
924.261957,-5477.523971,-3907.087040,6809.894666
924.262286,-2072.576638,-1915.238745,5107.421000
924.262616,1036.288319,459.657299,5329.482782
924.262945,4145.153275,3524.039291,7402.059420
924.263275,5477.523971,5515.887586,8364.327145
924.263604,5107.421000,5898.935335,8586.388927
924.263934,3997.112087,6358.592633,9400.615463
924.264263,1998.556043,5056.230287,10214.842000
924.264593,-592.164754,2298.286494,11251.130318
924.264922,-3552.988522,-1302.362347,13027.624579
924.265252,-6587.832884,-2145.067394,13767.830521
924.265581,-8290.306550,-2528.115143,12657.521608
924.265911,-7550.100608,-3983.696590,10807.006753
924.266240,-5995.668130,-3677.258390,8586.388927
924.266569,-3182.885551,-2374.896044,6365.771101
924.266899,592.164754,-1378.971896,5107.421000
924.267228,4589.276840,766.095498,5921.647536
924.267558,5995.668130,3907.087040,7698.141797
924.267887,4885.359217,6281.983084,8956.491898
924.268217,3404.947333,6435.202183,10214.842000
924.268546,1924.535449,6052.154434,11103.089130
924.268876,148.041188,3524.039291,11621.233289
924.269205,-2072.576638,1149.143247,12509.480420
924.269535,-4811.338623,-1455.581446,13101.645173
924.269864,-7402.059420,-2834.553343,12805.562797
924.270194,-8956.491898,-4213.525239,11547.212695
924.270523,-8364.327145,-3753.867940,9918.759623
924.270852,-5773.606348,-2374.896044,7476.080014
924.271182,-1924.535449,-1608.800546,5329.482782
924.271511,2220.617826,-1378.971896,5329.482782
924.271841,4959.379811,1838.629195,6143.709319
924.272170,5921.647536,5209.449386,7476.080014
924.272500,4885.359217,5592.497135,8438.347739
924.272829,2960.823768,6511.811733,9474.636058
924.273159,1110.308913,5592.497135,11029.068536
924.273488,-518.144159,2757.943793,11399.171507
924.273818,-2812.782580,-459.657299,12139.377449
924.274147,-5255.462188,-2374.896044,13249.686362
924.274477,-7476.080014,-2528.115143,13249.686362
924.274806,-8216.285956,-3677.258390,11991.336260
924.275135,-6809.894666,-3064.381992,9696.697840
924.275465,-3997.112087,-1072.533697,6809.894666
924.275794,592.164754,-459.657299,5255.462188
924.276124,5403.503377,766.095498,4959.379811
924.276453,7846.182985,3370.820191,6217.729913
924.276783,7846.182985,5515.887586,7402.059420
924.277112,5551.544565,6052.154434,9400.615463
924.277442,2664.741391,5975.544884,11769.274478
924.277771,-444.123565,4213.525239,13545.768739
924.278101,-3330.926739,1991.848295,14730.098246
924.278430,-5995.668130,-919.314598,14211.954086
924.278760,-7105.977043,-2068.457845,13027.624579
924.279089,-7254.018232,-3983.696590,11029.068536
924.279418,-6217.729913,-4060.306139,8216.285956
924.279748,-3997.112087,-2298.286494,5329.482782
924.280077,-518.144159,-536.266849,3404.947333
924.280407,2812.782580,1149.143247,3701.029710
924.280736,5329.482782,2681.334243,6587.832884
924.281066,5329.482782,5822.325785,8438.347739
924.281395,3478.967927,7814.174080,9178.553681
924.281725,1850.514855,7277.907231,9844.739029
924.282054,-222.061783,5592.497135,11029.068536
924.282384,-2442.679609,1915.238745,11917.315666
924.282713,-4219.173869,-2451.505594,13323.706956
924.283043,-6661.853478,-4060.306139,13619.789333
924.283372,-8512.368333,-2987.772442,12509.480420
924.283701,-8068.244768,-2834.553343,10955.047942
924.284031,-6365.771101,-2604.724693,9178.553681
924.284360,-2738.761985,-1072.533697,6069.688724
924.284690,2220.617826,-459.657299,4219.173869
924.285019,6809.894666,766.095498,4367.215058
924.285349,8216.285956,4596.572988,6957.935855
924.285678,6587.832884,6435.202183,9178.553681
924.286008,3849.070898,6358.592633,10066.800811
924.286337,1998.556043,5745.716235,11251.130318
924.286667,0.000000,2451.505594,13397.727550
924.286996,-2886.803174,76.609550,14878.139434
924.287326,-6661.853478,-1149.143247,14804.118840
924.287655,-7624.121203,-2681.334243,13027.624579
924.287984,-7772.162391,-4673.182538,10881.027347
924.288314,-6513.812290,-3217.601092,8068.244768
924.288643,-3330.926739,-1991.848295,5625.565159
924.288973,-444.123565,-1455.581446,4071.132681
924.289302,2590.720797,1225.752797,4293.194464
924.289632,4589.276840,3524.039291,6439.791695
924.289961,4293.194464,5056.230287,8438.347739
924.290291,2368.659014,5975.544884,9030.512492
924.290620,518.144159,5515.887586,9622.677246
924.290950,-592.164754,3140.991542,10288.862594
924.291279,-1776.494261,76.609550,10955.047942
924.291609,-3552.988522,-3600.648841,13175.665768
924.291938,-5921.647536,-4213.525239,14508.036463
924.292267,-8438.347739,-1685.410096,13619.789333
924.292597,-7994.224174,-1608.800546,11843.295072
924.292926,-4811.338623,-1072.533697,8956.491898
924.293256,-888.247130,-383.047749,5329.482782
924.293585,4071.132681,-995.924147,3404.947333
924.293915,8142.265362,689.485948,3997.112087
924.294244,8290.306550,4903.011187,6291.750507
924.294574,6069.688724,6971.469032,9178.553681
924.294903,2960.823768,6205.373534,10658.965565
924.295233,296.082377,5669.106685,10955.047942
924.295562,-1480.411884,2451.505594,11917.315666
924.295892,-3775.050304,-1608.800546,13619.789333
924.296221,-6217.729913,-2451.505594,14285.974681
924.296550,-8808.450710,-3524.039291,13175.665768
924.296880,-10140.821405,-4213.525239,11621.233289
924.297209,-9326.594869,-2681.334243,9474.636058
924.297539,-5625.565159,-1762.019645,7105.977043
924.297868,-1406.391290,-995.924147,5033.400406
924.298198,2812.782580,0.000000,4663.297435
924.298527,5847.626942,2987.772442,6143.709319
924.298857,6661.853478,4826.401637,7476.080014
924.299186,4885.359217,5898.935335,8364.327145
924.299516,2368.659014,6971.469032,9474.636058
924.299845,444.123565,4060.306139,10288.862594
924.300175,-1110.308913,842.705048,11843.295072
924.300504,-3627.009116,-1838.629195,13989.892304
924.300833,-6291.750507,-2757.943793,14582.057057
924.301163,-7846.182985,-2528.115143,13249.686362
924.301492,-7179.997637,-3064.381992,11621.233289
924.301822,-5033.400406,-1685.410096,9104.533087
924.302151,-1628.453072,-612.876398,6217.729913
924.302481,2960.823768,-459.657299,4145.153275
924.302810,6439.791695,1762.019645,4515.256246
924.303140,7624.121203,4443.353888,6809.894666
924.303469,6143.709319,6358.592633,8808.450710
924.303799,3701.029710,6128.763984,9770.718434
924.304128,740.205942,5209.449386,10288.862594
924.304458,-1850.514855,2298.286494,12435.459826
924.304787,-4071.132681,-689.485948,14730.098246
924.305116,-6883.915261,-1378.971896,14656.077652
924.305446,-8438.347739,-2604.724693,12879.583391
924.305775,-8364.327145,-3600.648841,11325.150913
924.306105,-6883.915261,-2451.505594,8882.471304
924.306434,-3552.988522,-1378.971896,6439.791695
924.306764,444.123565,-995.924147,3849.070898
924.307093,4071.132681,1072.533697,3997.112087
924.307423,6143.709319,4060.306139,6365.771101
924.307752,5847.626942,5898.935335,8290.306550
924.308082,4441.235652,6741.640382,8660.409521
924.308411,2220.617826,6511.811733,9770.718434
924.308741,74.020594,4213.525239,10436.903782
924.309070,-1628.453072,689.485948,11991.336260
924.309399,-4589.276840,-2528.115143,14063.912898
924.309729,-7254.018232,-2757.943793,14211.954086
924.310058,-9326.594869,-2604.724693,13175.665768
924.310388,-8438.347739,-2681.334243,11473.192101
924.310717,-5625.565159,-1762.019645,8586.388927
924.311047,-1850.514855,-1378.971896,5625.565159
924.311376,2812.782580,-995.924147,3627.009116
924.311706,6513.812290,995.924147,3997.112087
924.312035,7105.977043,4903.011187,6883.915261
924.312365,5625.565159,6128.763984,9252.574275
924.312694,2664.741391,6358.592633,10658.965565
924.313024,370.102971,6281.983084,10362.883188
924.313353,-1110.308913,1915.238745,12139.377449
924.313682,-2738.761985,-1762.019645,14952.160028
924.314012,-5921.647536,-1302.362347,15470.304188
924.314341,-8438.347739,-2528.115143,13767.830521
924.314671,-8586.388927,-3524.039291,11769.274478
924.315000,-6809.894666,-1532.190996,8586.388927
924.315330,-3849.070898,-995.924147,5551.544565
924.315659,888.247130,-1762.019645,3182.885551
924.315989,5181.441594,0.000000,3404.947333
924.316318,6809.894666,3753.867940,5921.647536
924.316648,6217.729913,5669.106685,7624.121203
924.316977,3849.070898,6435.202183,8512.368333
924.317307,1258.350101,6818.249932,9474.636058
924.317636,-296.082377,3370.820191,10362.883188
924.317965,-2146.597232,0.000000,12435.459826
924.318295,-4515.256246,-3064.381992,14952.160028
924.318624,-7772.162391,-2528.115143,14952.160028
924.318954,-9474.636058,-2068.457845,13545.768739
924.319283,-7994.224174,-2987.772442,11695.253884
924.319613,-4811.338623,-2145.067394,8734.430116
924.319942,-1184.329507,-842.705048,4737.318029
924.320272,3404.947333,-1072.533697,2664.741391
924.320601,7476.080014,1455.581446,3997.112087
924.320931,8142.265362,5132.839837,7328.038826
924.321260,5773.606348,6588.421283,9474.636058
924.321590,2368.659014,7124.688131,10214.842000
924.321919,74.020594,6052.154434,10214.842000
924.322249,-1110.308913,1762.019645,11917.315666
924.322578,-3034.844362,-1838.629195,15174.221811
924.322907,-6291.750507,-2298.286494,15544.324782
924.323237,-9178.553681,-3294.210641,13841.851115
924.323566,-9992.780217,-3907.087040,11621.233289
924.323896,-8290.306550,-2145.067394,9178.553681
924.324225,-4737.318029,-1455.581446,6217.729913
924.324555,296.082377,-1915.238745,3256.906145
924.324884,4441.235652,-995.924147,3256.906145
924.325214,6587.832884,2604.724693,5847.626942
924.325543,5625.565159,6281.983084,7920.203579
924.325873,3330.926739,7048.078582,9030.512492
924.326202,666.185348,6741.640382,9844.739029
924.326532,-1332.370696,4903.011187,11029.068536
924.326861,-2220.617826,2068.457845,11473.192101
924.327190,-3552.988522,-2451.505594,13693.809927
924.327520,-6069.688724,-4060.306139,14582.057057
924.327849,-8956.491898,-2604.724693,13989.892304
924.328179,-9178.553681,-2911.162892,11917.315666
924.328508,-6587.832884,-2451.505594,8734.430116
924.328838,-2960.823768,-1072.533697,5625.565159
924.329167,2294.638420,-459.657299,4441.235652
924.329497,7328.038826,842.705048,4441.235652
924.329826,8512.368333,4060.306139,6069.688724
924.330156,7254.018232,7048.078582,8290.306550
924.330485,4515.256246,5822.325785,10658.965565
924.330815,1480.411884,5132.839837,12435.459826
924.331144,-1554.432478,3907.087040,14137.933492
924.331473,-3701.029710,919.314598,15396.283594
924.331803,-5403.503377,-612.876398,14211.954086
924.332132,-6291.750507,-2681.334243,12287.418637
924.332462,-5921.647536,-4673.182538,10510.924376
924.332791,-5255.462188,-3217.601092,7698.141797
924.333121,-3627.009116,-1685.410096,4367.215058
924.333450,74.020594,153.219100,2886.803174
924.333780,3478.967927,1378.971896,4293.194464
924.334109,5033.400406,3600.648841,7328.038826
924.334439,4441.235652,6818.249932,8734.430116
924.334768,2664.741391,7890.783629,9030.512492
924.335098,740.205942,7124.688131,9918.759623
924.335427,-1184.329507,4749.792088,10658.965565
924.335756,-2886.803174,-536.266849,12361.439231
924.336086,-4811.338623,-3447.429741,13989.892304
924.336415,-7846.182985,-3217.601092,14508.036463
924.336745,-9252.574275,-1915.238745,12583.501014
924.337074,-7846.182985,-2911.162892,10881.027347
924.337404,-4663.297435,-2451.505594,8512.368333
924.337733,-370.102971,-689.485948,4885.359217
924.338063,4293.194464,-766.095498,3034.844362
924.338392,8216.285956,2298.286494,4071.132681
924.338722,8364.327145,5745.716235,7402.059420
924.339051,6365.771101,6665.030833,10214.842000
924.339381,4145.153275,6741.640382,12065.356855
924.339710,962.267725,6281.983084,13471.748144
924.340039,-1776.494261,3370.820191,15026.180623
924.340369,-4959.379811,995.924147,14508.036463
924.340698,-7254.018232,-1072.533697,13175.665768
924.341028,-7698.141797,-4213.525239,10807.006753
924.341357,-7624.121203,-5898.935335,8734.430116
924.341687,-7105.977043,-4136.915689,6587.832884
924.342016,-5329.482782,-2987.772442,5551.544565
924.342346,-2516.700203,-1149.143247,5477.523971
924.342675,888.247130,1302.362347,6365.771101
924.343005,3923.091493,3217.601092,7624.121203
924.343334,4959.379811,5209.449386,8290.306550
924.343664,4145.153275,6511.811733,9030.512492
924.343993,3108.864956,5515.887586,9918.759623
924.344322,1850.514855,2757.943793,11029.068536
924.344652,-518.144159,229.828649,13397.727550
924.344982,-3997.112087,0.000000,14359.995275
924.345311,-6587.832884,-995.924147,13471.748144
924.345641,-7105.977043,-2451.505594,11917.315666
924.345970,-5403.503377,-3907.087040,10140.821405
924.346300,-2442.679609,-3370.820191,6809.894666
924.346629,296.082377,-2757.943793,3997.112087
924.346959,4071.132681,-536.266849,4145.153275
924.347289,5477.523971,2911.162892,5995.668130
924.347618,5551.544565,5439.278036,8290.306550
924.347948,4515.256246,6052.154434,9992.780217
924.348277,2442.679609,6665.030833,10436.903782
924.348607,444.123565,4519.963438,12139.377449
924.348936,-2072.576638,536.266849,14285.974681
924.349266,-5107.421000,-459.657299,14730.098246
924.349596,-7550.100608,-1455.581446,13619.789333
924.349925,-8438.347739,-4136.915689,12139.377449
924.350255,-7550.100608,-4903.011187,10510.924376
924.350584,-6143.709319,-3447.429741,8216.285956
924.350914,-3849.070898,-2987.772442,5551.544565
924.351243,-148.041188,-1072.533697,3478.967927
924.351573,4293.194464,1915.238745,4145.153275
924.351902,7031.956449,3907.087040,6735.874072
924.352232,6513.812290,5362.668486,8734.430116
924.352562,3330.926739,7890.783629,9326.594869
924.352891,1184.329507,7048.078582,9992.780217
924.353221,0.000000,4290.134789,10881.027347
924.353550,-1480.411884,995.924147,12953.603985
924.353880,-3923.091493,-2757.943793,13619.789333
924.354209,-7031.956449,-3600.648841,12805.562797
924.354539,-8734.430116,-3753.867940,11547.212695
924.354869,-7994.224174,-3217.601092,10436.903782
924.355198,-6069.688724,-2374.896044,8512.368333
924.355528,-2516.700203,-919.314598,5847.626942
924.355857,1554.432478,-229.828649,4663.297435
924.356187,5551.544565,1608.800546,5329.482782
924.356516,6735.874072,4903.011187,7254.018232
924.356846,5551.544565,5669.106685,9326.594869
924.357176,2590.720797,6818.249932,9992.780217
924.357505,296.082377,6511.811733,11473.192101
924.357835,-1480.411884,2681.334243,13619.789333
924.358164,-3627.009116,306.438199,14508.036463
924.358494,-6661.853478,-1072.533697,13693.809927
924.358823,-7698.141797,-2834.553343,11991.336260
924.359153,-7772.162391,-4290.134789,10288.862594
924.359482,-6513.812290,-2834.553343,8142.265362
924.359812,-3923.091493,-1762.019645,6217.729913
924.360142,-666.185348,-459.657299,4737.318029
924.360471,3404.947333,1991.848295,4663.297435
924.360801,6291.750507,4290.134789,6069.688724
924.361130,6587.832884,5132.839837,7846.182985
924.361460,4589.276840,7354.516781,9400.615463
924.361789,1184.329507,7507.735880,10214.842000
924.362119,-666.185348,4749.792088,11103.089130
924.362449,-2368.659014,1455.581446,12583.501014
924.362778,-4885.359217,-2221.676944,14063.912898
924.363108,-7254.018232,-3064.381992,13545.768739
924.363437,-8660.409521,-3447.429741,11621.233289
924.363767,-7550.100608,-3983.696590,9622.677246
924.364096,-4589.276840,-3600.648841,7402.059420
924.364426,-1184.329507,-1455.581446,5033.400406
924.364756,2886.803174,0.000000,4737.318029
924.365085,6069.688724,2528.115143,5699.585753
924.365415,7105.977043,5822.325785,7920.203579
924.365744,6365.771101,6511.811733,9770.718434
924.366074,4145.153275,6741.640382,10955.047942
924.366403,1332.370696,5132.839837,13101.645173
924.366733,-1110.308913,2834.553343,14359.995275
924.367063,-3552.988522,306.438199,14285.974681
924.367392,-5329.482782,-1532.190996,13175.665768
924.367722,-6069.688724,-3830.477490,11251.130318
924.368051,-6143.709319,-5669.106685,9474.636058
924.368381,-5625.565159,-3677.258390,7698.141797
924.368710,-3182.885551,-1838.629195,6217.729913
924.369040,-148.041188,0.000000,5181.441594
924.369369,2812.782580,2374.896044,5699.585753
924.369699,5181.441594,2757.943793,7698.141797
924.370029,4811.338623,4749.792088,9252.574275
924.370358,2516.700203,6971.469032,9326.594869
924.370688,148.041188,6205.373534,10140.821405
924.371017,-1480.411884,2528.115143,11399.171507
924.371347,-2812.782580,-306.438199,13027.624579
924.371676,-5181.441594,-2145.067394,13249.686362
924.372006,-6957.935855,-3064.381992,11843.295072
924.372336,-7179.997637,-3753.867940,10732.986159
924.372665,-6291.750507,-3753.867940,9474.636058
924.372995,-3775.050304,-2528.115143,7624.121203
924.373324,0.000000,-1149.143247,5477.523971
924.373654,2960.823768,1302.362347,4885.359217
924.373983,5255.462188,3447.429741,6143.709319
924.374313,6217.729913,4979.620737,8216.285956
924.374643,5477.523971,5362.668486,9548.656652
924.374972,3627.009116,6435.202183,10288.862594
924.375302,1480.411884,4136.915689,11843.295072
924.375631,-1184.329507,1378.971896,13101.645173
924.375961,-4515.256246,-306.438199,13767.830521
924.376290,-6957.935855,-1915.238745,12953.603985
924.376620,-7772.162391,-2987.772442,11843.295072
924.376949,-8216.285956,-3677.258390,9918.759623
924.377279,-7105.977043,-2451.505594,7698.141797
924.377609,-4219.173869,-2451.505594,5625.565159
924.377938,-666.185348,-995.924147,4885.359217
924.378268,2590.720797,1685.410096,5847.626942
924.378597,3552.988522,3677.258390,7550.100608
924.378927,3256.906145,5822.325785,9030.512492
924.379256,2146.597232,6435.202183,8956.491898
924.379586,1702.473667,5592.497135,10214.842000
924.379916,888.247130,3677.258390,10732.986159
924.380245,-1110.308913,1072.533697,10510.924376
924.380575,-3849.070898,-2681.334243,12435.459826
924.380904,-6439.791695,-3140.991542,13471.748144
924.381234,-8512.368333,-2145.067394,13767.830521
924.381563,-8512.368333,-2528.115143,12213.398043
924.381893,-6217.729913,-1608.800546,8882.471304
924.382223,-2146.597232,-919.314598,6513.812290
924.382552,3108.864956,-1149.143247,5107.421000
924.382882,6661.853478,766.095498,5329.482782
924.383211,7402.059420,4519.963438,6587.832884
924.383541,6291.750507,5975.544884,8438.347739
924.383870,4367.215058,6128.763984,10288.862594
924.384200,1776.494261,5515.887586,12139.377449
924.384530,-1184.329507,3294.210641,13027.624579
924.384859,-3849.070898,0.000000,13397.727550
924.385189,-5773.606348,-995.924147,12879.583391
924.385518,-6809.894666,-3294.210641,11547.212695
924.385848,-7031.956449,-4366.744339,9696.697840
924.386177,-6365.771101,-2987.772442,7179.997637
924.386507,-3923.091493,-1915.238745,5255.462188
924.386836,0.000000,0.000000,4811.338623
924.387166,3034.844362,1532.190996,5699.585753
924.387496,4589.276840,4213.525239,7402.059420
924.387825,4663.297435,6052.154434,8512.368333
924.388155,3775.050304,6741.640382,9252.574275
924.388484,2072.576638,6818.249932,9548.656652
924.388814,370.102971,2681.334243,10510.924376
924.389143,-1850.514855,-1991.848295,12731.542202
924.389473,-5107.421000,-2374.896044,14359.995275
924.389803,-8438.347739,-1608.800546,13915.871710
924.390132,-8364.327145,-2757.943793,12287.418637
924.390462,-6217.729913,-3140.991542,10362.883188
924.390791,-3182.885551,-2911.162892,7105.977043
924.391121,592.164754,-1991.848295,4663.297435
924.391450,4885.359217,-306.438199,4219.173869
924.391780,7031.956449,4749.792088,5625.565159
924.392110,7031.956449,6665.030833,7772.162391
924.392439,5551.544565,6435.202183,9844.739029
924.392769,2442.679609,7584.345430,10436.903782
924.393098,-222.061783,5975.544884,11325.150913
924.393428,-2738.761985,1608.800546,12583.501014
924.393757,-5551.544565,-1838.629195,14211.954086
924.394087,-8290.306550,-3140.991542,14656.077652
924.394416,-9474.636058,-4979.620737,12731.542202
924.394746,-9474.636058,-4903.011187,10658.965565
924.395076,-7402.059420,-2911.162892,8216.285956
924.395405,-3701.029710,-1991.848295,6217.729913
924.395735,1258.350101,-612.876398,3849.070898
924.396064,5625.565159,2451.505594,4071.132681
924.396394,7698.141797,4903.011187,5625.565159
924.396723,7179.997637,6358.592633,7624.121203
924.397053,4589.276840,7507.735880,8956.491898
924.397383,1406.391290,6435.202183,9992.780217
924.397712,-518.144159,2987.772442,11399.171507
924.398042,-2960.823768,0.000000,13397.727550
924.398371,-5477.523971,-1991.848295,14508.036463
924.398701,-7846.182985,-3600.648841,13619.789333
924.399030,-8438.347739,-4979.620737,12139.377449
924.399360,-7031.956449,-3753.867940,9992.780217
924.399690,-3923.091493,-2298.286494,8068.244768
924.400019,-888.247130,-306.438199,6291.750507
924.400349,2886.803174,1455.581446,4885.359217
924.400678,5847.626942,3753.867940,5699.585753
924.401008,6957.935855,5822.325785,7179.997637
924.401337,6217.729913,5745.716235,9178.553681
924.401667,3478.967927,6052.154434,9548.656652
924.401997,666.185348,3677.258390,10881.027347
924.402326,-1628.453072,76.609550,12953.603985
924.402656,-4145.153275,-1608.800546,14730.098246
924.402985,-6883.915261,-2221.676944,14285.974681
924.403315,-7698.141797,-3064.381992,13175.665768
924.403644,-7920.203579,-3217.601092,11621.233289
924.403974,-5921.647536,-2221.676944,8882.471304
924.404303,-2738.761985,-1149.143247,5921.647536
924.404633,1554.432478,0.000000,3182.885551
924.404963,5625.565159,1915.238745,4219.173869
924.405292,6809.894666,3524.039291,6587.832884
924.405622,5847.626942,5745.716235,8364.327145
924.405951,3108.864956,7124.688131,7994.224174
924.406281,444.123565,5209.449386,8956.491898
924.406610,-814.226536,3294.210641,9918.759623
924.406940,-3478.967927,766.095498,11029.068536
924.407270,-5255.462188,-3524.039291,13027.624579
924.407599,-7105.977043,-4903.011187,14285.974681
924.407929,-10140.821405,-2757.943793,14211.954086
924.408258,-10510.924376,-1838.629195,12213.398043
924.408588,-7254.018232,-2068.457845,10288.862594
924.408917,-2590.720797,-383.047749,6957.935855
924.409247,3330.926739,0.000000,4515.256246
924.409577,7698.141797,76.609550,4071.132681
924.409906,9030.512492,3370.820191,4959.379811
924.410236,7550.100608,5592.497135,7994.224174
924.410565,3997.112087,6128.763984,10288.862594
924.410895,1258.350101,6435.202183,11621.233289
924.411224,-1628.453072,3447.429741,13471.748144
924.411554,-3997.112087,76.609550,15026.180623
924.411883,-6513.812290,-1225.752797,14952.160028
924.412213,-7550.100608,-2834.553343,13397.727550
924.412543,-7476.080014,-4213.525239,11473.192101
924.412872,-6661.853478,-3217.601092,8660.409521
924.413202,-3923.091493,-1915.238745,5921.647536
924.413531,814.226536,-383.047749,4219.173869
924.413861,4663.297435,1302.362347,4737.318029
924.414190,6143.709319,4136.915689,5773.606348
924.414520,5625.565159,6052.154434,7179.997637
924.414850,3997.112087,6665.030833,8512.368333
924.415179,1480.411884,6128.763984,8956.491898
924.415509,-888.247130,3140.991542,9918.759623
924.415838,-3108.864956,-536.266849,12583.501014
924.416168,-5699.585753,-2221.676944,14730.098246
924.416497,-8142.265362,-2145.067394,14582.057057
924.416827,-8660.409521,-2451.505594,12361.439231
924.417157,-7031.956449,-2987.772442,9918.759623
924.417486,-3627.009116,-2145.067394,7328.038826
924.417816,518.144159,-689.485948,5033.400406
924.418145,4737.318029,536.266849,3627.009116
924.418475,7550.100608,3600.648841,4885.359217
924.418804,7698.141797,6358.592633,7328.038826
924.419134,5847.626942,6894.859482,9326.594869
924.419464,3108.864956,6741.640382,10066.800811
924.419793,962.267725,4213.525239,11547.212695
924.420123,-1554.432478,995.924147,13545.768739
924.420452,-4811.338623,-153.219100,14582.057057
924.420782,-7550.100608,-1915.238745,14211.954086
924.421111,-8142.265362,-3677.258390,12583.501014
924.421441,-7846.182985,-3677.258390,10955.047942
924.421770,-6069.688724,-2145.067394,8438.347739
924.422100,-3256.906145,-1455.581446,5921.647536
924.422430,888.247130,-306.438199,4293.194464
924.422759,3627.009116,1685.410096,5329.482782
924.423089,4959.379811,3753.867940,7624.121203
924.423418,4441.235652,5822.325785,8882.471304
924.423748,2516.700203,6588.421283,8956.491898
924.424077,814.226536,5209.449386,10066.800811
924.424407,-888.247130,2987.772442,10584.944971
924.424737,-2442.679609,612.876398,11547.212695
924.425066,-4515.256246,-3064.381992,13397.727550
924.425396,-6957.935855,-3447.429741,14211.954086
924.425725,-8808.450710,-2604.724693,13323.706956
924.426055,-7624.121203,-2681.334243,11177.109724
924.426384,-4515.256246,-1455.581446,8068.244768
924.426714,-444.123565,-383.047749,5773.606348
924.427044,4145.153275,-229.828649,4219.173869
924.427373,7698.141797,842.705048,4515.256246
924.427703,7920.203579,4749.792088,6291.750507
924.428032,5995.668130,6205.373534,8734.430116
924.428362,3627.009116,5745.716235,9992.780217
924.428691,1110.308913,4366.744339,11843.295072
924.429021,-1998.556043,1378.971896,13175.665768
924.429351,-4737.318029,-229.828649,14137.933492
924.429680,-6735.874072,-1072.533697,13915.871710
924.430010,-7402.059420,-3064.381992,12805.562797
924.430339,-7624.121203,-3753.867940,10658.965565
924.430669,-6439.791695,-2834.553343,7772.162391
924.430998,-2886.803174,-2145.067394,5181.441594
924.431328,740.205942,-766.095498,4589.276840
924.431657,3775.050304,1915.238745,5477.523971
924.431987,4885.359217,4213.525239,7254.018232
924.432317,4663.297435,5439.278036,7994.224174
924.432646,3552.988522,6894.859482,9030.512492
924.432976,1554.432478,5745.716235,9548.656652
924.433305,-296.082377,2528.115143,10362.883188
924.433635,-2812.782580,-1378.971896,12879.583391
924.433964,-5921.647536,-3064.381992,15248.242405
924.434294,-9030.512492,-2068.457845,15396.283594
924.434624,-9548.656652,-1991.848295,13471.748144
924.434953,-7328.038826,-2681.334243,11547.212695
924.435283,-4145.153275,-1838.629195,7994.224174
924.435612,518.144159,-1378.971896,4737.318029
924.435942,5255.462188,-306.438199,2812.782580
924.436271,7920.203579,2604.724693,4145.153275
924.436601,7402.059420,6281.983084,6735.874072
924.436931,5107.421000,6588.421283,9474.636058
924.437260,2590.720797,6971.469032,10066.800811
924.437590,148.041188,4673.182538,11547.212695
924.437919,-1850.514855,689.485948,13767.830521
924.438249,-4737.318029,-612.876398,14656.077652
924.438578,-7476.080014,-1762.019645,14063.912898
924.438908,-8808.450710,-4060.306139,11991.336260
924.439237,-8734.430116,-3370.820191,9844.739029
924.439567,-6587.832884,-1685.410096,7402.059420
924.439897,-2516.700203,-1685.410096,4811.338623
924.440226,1702.473667,-995.924147,3923.091493
924.440556,4219.173869,1991.848295,4959.379811
924.440885,5551.544565,4443.353888,7031.956449
924.441215,4589.276840,6205.373534,8216.285956
924.441544,2590.720797,6971.469032,8956.491898
924.441874,1036.288319,5822.325785,10362.883188
924.442204,-148.041188,2221.676944,11029.068536
924.442533,-2294.638420,-2221.676944,13471.748144
924.442863,-5329.482782,-3217.601092,15174.221811
924.443192,-8586.388927,-1762.019645,14285.974681
924.443522,-8586.388927,-2374.896044,12213.398043
924.443851,-5403.503377,-2987.772442,10807.006753
924.444181,-2146.597232,-1302.362347,6661.853478
924.444510,2294.638420,-919.314598,3775.050304
924.444840,6957.935855,0.000000,3182.885551
924.445169,8364.327145,4749.792088,4959.379811
924.445499,7105.977043,7431.126331,8068.244768
924.445828,4071.132681,6818.249932,9844.739029
924.446158,1184.329507,7124.688131,10584.944971
924.446487,-1702.473667,4213.525239,11695.253884
924.446817,-3108.864956,-766.095498,13989.892304
924.447146,-5847.626942,-2298.286494,15322.262999
924.447476,-8586.388927,-3140.991542,14285.974681
924.447805,-9326.594869,-5439.278036,12213.398043
924.448135,-8438.347739,-4213.525239,10362.883188
924.448464,-5699.585753,-1685.410096,7550.100608
924.448794,-1184.329507,-1455.581446,4737.318029
924.449123,3182.885551,-306.438199,3256.906145
924.449453,6587.832884,3830.477490,4293.194464
924.449782,8068.244768,5209.449386,7254.018232
924.450112,6587.832884,6511.811733,9030.512492
924.450441,3330.926739,9269.755526,9918.759623
924.450771,148.041188,6588.421283,10362.883188
924.451100,-1258.350101,2528.115143,11251.130318
924.451430,-2738.761985,-766.095498,13175.665768
924.451759,-5255.462188,-3524.039291,14211.954086
924.452089,-8142.265362,-4519.963438,13397.727550
924.452418,-9474.636058,-3524.039291,11843.295072
924.452748,-7846.182985,-2451.505594,9918.759623
924.453077,-4811.338623,-1838.629195,7254.018232
924.453407,-592.164754,-919.314598,5033.400406
924.453736,3849.070898,689.485948,4219.173869
924.454066,6513.812290,3600.648841,6143.709319
924.454395,6143.709319,6128.763984,7846.182985
924.454725,4589.276840,6971.469032,9326.594869
924.455054,2072.576638,6281.983084,10288.862594
924.455383,148.041188,4290.134789,11177.109724
924.455713,-1406.391290,229.828649,12805.562797
924.456042,-3849.070898,-2221.676944,13915.871710
924.456372,-6365.771101,-2757.943793,13471.748144
924.456701,-7846.182985,-3907.087040,12805.562797
924.457031,-7550.100608,-3294.210641,11473.192101
924.457360,-5773.606348,-1762.019645,8290.306550
924.457690,-1998.556043,-1225.752797,5477.523971
924.458019,2146.597232,-229.828649,4219.173869
924.458349,5255.462188,2145.067394,4885.359217
924.458678,6809.894666,4519.963438,7328.038826
924.459008,5847.626942,5592.497135,8808.450710
924.459337,3552.988522,7277.907231,9104.533087
924.459667,518.144159,5592.497135,9992.780217
924.459996,-1258.350101,2374.896044,11473.192101
924.460326,-3108.864956,-766.095498,13249.686362
924.460655,-6069.688724,-2987.772442,14211.954086
924.460985,-7476.080014,-3447.429741,13027.624579
924.461314,-8512.368333,-3983.696590,11547.212695
924.461644,-6957.935855,-3753.867940,9992.780217
924.461973,-4515.256246,-2911.162892,7624.121203
924.462303,-1184.329507,-919.314598,5255.462188
924.462632,3256.906145,689.485948,4145.153275
924.462962,6143.709319,3064.381992,5921.647536
924.463291,7105.977043,5209.449386,8142.265362
924.463621,5699.585753,6665.030833,9918.759623
924.463950,3256.906145,7048.078582,10510.924376
924.464280,814.226536,5362.668486,10140.821405
924.464609,-1406.391290,1838.629195,12287.418637
924.464939,-4071.132681,-1378.971896,14508.036463
924.465268,-7031.956449,-2068.457845,14063.912898
924.465598,-8882.471304,-3983.696590,12287.418637
924.465927,-8438.347739,-3753.867940,10066.800811
924.466257,-6661.853478,-3600.648841,7328.038826
924.466586,-3108.864956,-2757.943793,5625.565159
924.466916,666.185348,-1302.362347,4367.215058
924.467245,3627.009116,1762.019645,5033.400406
924.467575,5329.482782,4979.620737,7328.038826
924.467904,5033.400406,6435.202183,8882.471304
924.468234,2886.803174,7507.735880,9622.677246
924.468563,962.267725,6281.983084,10658.965565
924.468893,-592.164754,3524.039291,11029.068536
924.469222,-2664.741391,459.657299,12657.521608
924.469552,-5181.441594,-2374.896044,13989.892304
924.469881,-7402.059420,-2987.772442,13693.809927
924.470211,-8882.471304,-3524.039291,12287.418637
924.470540,-7402.059420,-3524.039291,10362.883188
924.470870,-4441.235652,-2451.505594,7698.141797
924.471199,-148.041188,-995.924147,5477.523971
924.471529,4145.153275,689.485948,4367.215058
924.471858,7105.977043,3217.601092,5403.503377
924.472188,7624.121203,6052.154434,7550.100608
924.472517,6439.791695,6971.469032,9104.533087
924.472847,3552.988522,7431.126331,10066.800811
924.473176,1406.391290,5515.887586,10955.047942
924.473506,-1110.308913,1532.190996,12953.603985
924.473835,-4219.173869,-612.876398,13841.851115
924.474165,-6513.812290,-1532.190996,13397.727550
924.474494,-7698.141797,-3753.867940,11991.336260
924.474824,-8290.306550,-3983.696590,10140.821405
924.475153,-6809.894666,-2604.724693,7846.182985
924.475483,-3627.009116,-2068.457845,5699.585753
924.475812,370.102971,-689.485948,4441.235652
924.476142,3775.050304,2528.115143,5551.544565
924.476471,5329.482782,4903.011187,7550.100608
924.476800,4959.379811,5745.716235,7994.224174
924.477130,3256.906145,6894.859482,9030.512492
924.477459,1184.329507,5898.935335,9844.739029
924.477789,-592.164754,3370.820191,11251.130318
924.478118,-2294.638420,153.219100,13027.624579
924.478448,-4737.318029,-2145.067394,13323.706956
924.478777,-6439.791695,-2911.162892,12731.542202
924.479107,-7179.997637,-4136.915689,11695.253884
924.479436,-5921.647536,-3294.210641,10584.944971
924.479766,-3701.029710,-2451.505594,8808.450710
924.480095,-296.082377,-229.828649,6587.832884
924.480425,3775.050304,1072.533697,5625.565159
924.480754,6439.791695,3217.601092,6143.709319
924.481084,6809.894666,4979.620737,7846.182985
924.481413,5403.503377,5822.325785,9474.636058
924.481743,2960.823768,6281.983084,10658.965565
924.482072,148.041188,4443.353888,11695.253884
924.482402,-2590.720797,995.924147,12879.583391
924.482731,-5403.503377,-842.705048,13545.768739
924.483061,-7031.956449,-3217.601092,13027.624579
924.483390,-7550.100608,-5056.230287,11769.274478
924.483720,-7624.121203,-4596.572988,10140.821405
