#time,accel_x,accel_y,accel_z
981.897800,-888.247130,842.705048,9696.697840
981.898130,-962.267725,1532.190996,9474.636058
981.898460,-888.247130,842.705048,9548.656652
981.898789,-1110.308913,689.485948,9474.636058
981.899119,-1110.308913,919.314598,9474.636058
981.899448,-1110.308913,919.314598,9548.656652
981.899778,-1184.329507,919.314598,9474.636058
981.900107,-814.226536,766.095498,9400.615463
981.900437,-1110.308913,1225.752797,9400.615463
981.900766,-1036.288319,1072.533697,9474.636058
981.901096,-1036.288319,995.924147,9474.636058
981.901425,-1258.350101,919.314598,9474.636058
981.901755,-740.205942,919.314598,9400.615463
981.902084,-962.267725,995.924147,9474.636058
981.902414,-962.267725,919.314598,9548.656652
981.902744,-1110.308913,842.705048,9474.636058
981.903073,-1184.329507,689.485948,9548.656652
981.903403,-962.267725,766.095498,9326.594869
981.903732,-962.267725,766.095498,9326.594869
981.904062,-1184.329507,842.705048,9474.636058
981.904391,-740.205942,919.314598,9622.677246
981.904721,-1332.370696,842.705048,9548.656652
981.905050,-1036.288319,842.705048,9326.594869
981.905380,-888.247130,1072.533697,9696.697840
981.905709,-888.247130,1225.752797,9844.739029
981.906039,-1110.308913,766.095498,9548.656652
981.906368,-1110.308913,689.485948,9696.697840
981.906698,-1258.350101,766.095498,9622.677246
981.907028,-814.226536,766.095498,9770.718434
981.907357,-888.247130,995.924147,9770.718434
981.907687,-1258.350101,766.095498,9548.656652
981.908016,-1184.329507,1302.362347,9474.636058
981.908346,-1184.329507,919.314598,9548.656652
981.908675,-962.267725,766.095498,9400.615463
981.909005,-962.267725,842.705048,9252.574275
981.909334,-1110.308913,842.705048,9474.636058
981.909664,-1110.308913,919.314598,9400.615463
981.909993,-1110.308913,842.705048,9548.656652
981.910323,-814.226536,1149.143247,9474.636058
981.910652,-1110.308913,766.095498,8882.471304
981.910982,-1036.288319,1072.533697,9474.636058
981.911312,-1036.288319,766.095498,9400.615463
981.911641,-1258.350101,689.485948,9326.594869
981.911971,-814.226536,995.924147,9474.636058
981.912300,-1332.370696,842.705048,9326.594869
981.912630,-1110.308913,995.924147,9548.656652
981.912959,-1036.288319,842.705048,9326.594869
981.913289,-1184.329507,919.314598,9474.636058
981.913618,-1110.308913,842.705048,9400.615463
981.913948,-1332.370696,919.314598,9474.636058
981.914277,-814.226536,1225.752797,9474.636058
981.914607,-1036.288319,919.314598,9548.656652
981.914936,-888.247130,919.314598,9474.636058
981.915266,-1110.308913,766.095498,9474.636058
981.915595,-1332.370696,1072.533697,9326.594869
981.915925,-740.205942,995.924147,9252.574275
981.916255,-888.247130,1072.533697,9844.739029
981.916584,-962.267725,995.924147,9696.697840
981.916914,-962.267725,995.924147,9770.718434
981.917243,-1184.329507,766.095498,9326.594869
981.917573,-1110.308913,766.095498,9548.656652
981.917902,-1036.288319,689.485948,9548.656652
981.918232,-814.226536,995.924147,9622.677246
981.918561,-962.267725,766.095498,9622.677246
981.918891,-962.267725,842.705048,9548.656652
981.919220,-1110.308913,1072.533697,9622.677246
981.919550,-962.267725,536.266849,9474.636058
981.919879,-1110.308913,766.095498,9548.656652
981.920209,-1110.308913,919.314598,9474.636058
981.920539,-1110.308913,689.485948,9474.636058
981.920868,-888.247130,1149.143247,9400.615463
981.921198,-888.247130,1149.143247,9400.615463
981.921527,-518.144159,842.705048,8956.491898
981.921857,-148.041188,842.705048,8882.471304
981.922186,814.226536,612.876398,9326.594869
981.922516,1110.308913,612.876398,9252.574275
981.922845,814.226536,842.705048,9104.533087
981.923175,296.082377,459.657299,9622.677246
981.923504,0.000000,766.095498,10140.821405
981.923834,-592.164754,1072.533697,10436.903782
981.924163,-888.247130,689.485948,10436.903782
981.924493,-296.082377,536.266849,9770.718434
981.924823,370.102971,-153.219100,9400.615463
981.925152,1258.350101,0.000000,9178.553681
981.925482,2072.576638,153.219100,8808.450710
981.925811,3108.864956,689.485948,8586.388927
981.926141,3404.947333,1072.533697,8808.450710
981.926470,3849.070898,1915.238745,9400.615463
981.926800,3404.947333,2145.067394,9696.697840
981.927129,3108.864956,1302.362347,10288.862594
981.927459,2220.617826,1149.143247,10510.924376
981.927788,1628.453072,995.924147,10584.944971
981.928118,1110.308913,995.924147,10807.006753
981.928447,1332.370696,0.000000,10881.027347
981.928777,1776.494261,-383.047749,10140.821405
981.929107,2368.659014,-306.438199,9400.615463
981.929436,3404.947333,-229.828649,9030.512492
981.929766,4589.276840,689.485948,9030.512492
981.930095,5033.400406,1532.190996,8956.491898
981.930425,4071.132681,2681.334243,9548.656652
981.930754,2960.823768,2987.772442,10288.862594
981.931084,1406.391290,2987.772442,10584.944971
981.931413,-1110.308913,3217.601092,10214.842000
981.931743,-2072.576638,1838.629195,9474.636058
981.932072,-1850.514855,306.438199,8586.388927
981.932402,-222.061783,-1225.752797,7254.018232
981.932731,1110.308913,-1455.581446,7031.956449
981.933061,2664.741391,-1302.362347,6587.832884
981.933391,3701.029710,-536.266849,7105.977043
981.933720,4071.132681,1302.362347,8290.306550
981.934050,2886.803174,3753.867940,9844.739029
981.934379,1850.514855,4673.182538,11547.212695
981.934709,666.185348,3830.477490,12139.377449
981.935038,-222.061783,2911.162892,12583.501014
981.935368,-962.267725,383.047749,12139.377449
981.935697,-1924.535449,-1378.971896,11399.171507
981.936027,-1480.411884,-2451.505594,10658.965565
981.936356,-444.123565,-2681.334243,9326.594869
981.936686,962.267725,-2298.286494,8512.368333
981.937015,2960.823768,-1149.143247,7698.141797
981.937345,4663.297435,-383.047749,7624.121203
981.937675,5107.421000,1685.410096,7476.080014
981.938004,5107.421000,3064.381992,8142.265362
981.938334,4663.297435,4213.525239,9178.553681
981.938663,3997.112087,4443.353888,9918.759623
981.938993,3256.906145,3217.601092,11177.109724
981.939322,1702.473667,2298.286494,11473.192101
981.939652,518.144159,766.095498,11177.109724
981.939981,-518.144159,-536.266849,10510.924376
981.940311,-740.205942,-1838.629195,10510.924376
981.940640,-1110.308913,-1762.019645,10214.842000
981.940970,-666.185348,-1302.362347,10288.862594
981.941299,0.000000,-306.438199,9622.677246
981.941629,962.267725,229.828649,8956.491898
981.941958,2294.638420,306.438199,8512.368333
981.942288,3256.906145,1225.752797,8142.265362
981.942618,4367.215058,1225.752797,8364.327145
981.942947,4737.318029,842.705048,8216.285956
981.943277,4589.276840,766.095498,8808.450710
981.943606,3997.112087,1149.143247,9622.677246
981.943936,2664.741391,1608.800546,10066.800811
981.944265,2146.597232,1838.629195,10510.924376
981.944595,2072.576638,1532.190996,10658.965565
981.944924,2072.576638,1685.410096,10658.965565
981.945254,2146.597232,1915.238745,10214.842000
981.945583,2664.741391,1685.410096,9104.533087
981.945913,2886.803174,995.924147,8068.244768
981.946242,3034.844362,919.314598,7846.182985
981.946572,2516.700203,995.924147,8364.327145
981.946902,1406.391290,1455.581446,9030.512492
981.947231,74.020594,1225.752797,9030.512492
981.947561,-592.164754,459.657299,9770.718434
981.947890,-1480.411884,459.657299,10658.965565
981.948220,-1702.473667,-306.438199,11325.150913
981.948549,-2146.597232,-842.705048,11399.171507
981.948879,-1998.556043,-536.266849,10955.047942
981.949208,-962.267725,153.219100,10066.800811
981.949538,814.226536,0.000000,9030.512492
981.949867,3256.906145,689.485948,8216.285956
981.950197,5847.626942,1685.410096,7698.141797
981.950526,8512.368333,2451.505594,7920.203579
981.950856,9474.636058,3447.429741,8586.388927
981.951186,8734.430116,4596.572988,9400.615463
981.951515,6735.874072,5286.058936,10436.903782
981.951845,3997.112087,4519.963438,11695.253884
981.952174,1110.308913,3140.991542,13101.645173
981.952504,-2146.597232,1149.143247,13915.871710
981.952833,-5477.523971,0.000000,13175.665768
981.953163,-8142.265362,-2068.457845,11325.150913
981.953492,-7846.182985,-3064.381992,9178.553681
981.953822,-4959.379811,-2987.772442,5847.626942
981.954151,148.041188,-3907.087040,3108.864956
981.954481,5477.523971,-3753.867940,1850.514855
981.954810,8882.471304,-1532.190996,2738.761985
981.955140,8586.388927,3217.601092,5033.400406
981.955470,7179.997637,6741.640382,8068.244768
981.955799,5033.400406,8963.317327,11325.150913
981.956129,2072.576638,9882.631924,15544.324782
981.956458,-2368.659014,7967.393179,16284.530724
981.956788,-6513.812290,4136.915689,14804.118840
981.957117,-8216.285956,-1608.800546,12953.603985
981.957447,-7624.121203,-5362.668486,12213.398043
981.957776,-4959.379811,-6435.202183,10807.006753
981.958106,-1924.535449,-6511.811733,8068.244768
981.958435,2516.700203,-5515.887586,4811.338623
981.958765,7105.977043,-2451.505594,2812.782580
981.959094,11325.150913,-689.485948,4367.215058
981.959424,12435.459826,1455.581446,7994.224174
981.959754,7994.224174,7048.078582,11399.171507
981.960083,1184.329507,10342.289223,14137.933492
981.960413,-3849.070898,8580.269578,16210.510130
981.960742,-7402.059420,4979.620737,15988.448347
981.961072,-7179.997637,536.266849,13323.706956
981.961401,-5625.565159,-5592.497135,8068.244768
981.961731,-2368.659014,-9193.145976,4515.256246
981.962060,1332.370696,-8580.269578,4219.173869
981.962390,2664.741391,-4519.963438,4441.235652
981.962719,2220.617826,1072.533697,4589.276840
981.963049,1776.494261,2757.943793,7105.977043
981.963378,962.267725,6128.763984,11547.212695
981.963708,-1776.494261,9039.926876,14730.098246
981.964038,-5403.503377,8503.660028,15692.365970
981.964367,-7698.141797,4979.620737,14508.036463
981.964697,-7772.162391,-153.219100,12139.377449
981.965026,-5773.606348,-5898.935335,9252.574275
981.965356,-2590.720797,-8580.269578,7624.121203
981.965685,0.000000,-7814.174080,5033.400406
981.966015,2220.617826,-6281.983084,4515.256246
981.966344,4219.173869,-3140.991542,6143.709319
981.966674,3775.050304,2528.115143,7476.080014
981.967003,3256.906145,6358.592633,8438.347739
981.967333,2664.741391,7814.174080,10436.903782
981.967662,1036.288319,8427.050478,12583.501014
981.967992,370.102971,6894.859482,13545.768739
981.968321,-1184.329507,2451.505594,12879.583391
981.968651,-2072.576638,76.609550,11251.130318
981.968981,-3775.050304,-3140.991542,10510.924376
981.969310,-5329.482782,-4366.744339,11251.130318
981.969640,-6957.935855,-3140.991542,10510.924376
981.969969,-7105.977043,-1685.410096,8068.244768
981.970299,-4441.235652,-766.095498,7031.956449
981.970628,0.000000,1608.800546,7476.080014
981.970958,2738.761985,2987.772442,7328.038826
981.971288,3997.112087,3140.991542,6439.791695
981.971617,3701.029710,4290.134789,7402.059420
981.971947,3478.967927,5669.106685,10510.924376
981.972276,592.164754,5745.716235,12879.583391
981.972606,-3330.926739,3983.696590,12435.459826
981.972936,-6291.750507,459.657299,11103.089130
981.973265,-5773.606348,-1455.581446,10584.944971
981.973595,-3330.926739,-1915.238745,10066.800811
981.973925,-888.247130,-1838.629195,8586.388927
981.974254,1110.308913,-1532.190996,6513.812290
981.974584,2220.617826,383.047749,5773.606348
981.974913,3701.029710,3907.087040,7105.977043
981.975243,4293.194464,5439.278036,8438.347739
981.975573,2960.823768,7201.297681,9474.636058
981.975902,0.000000,7124.688131,10732.986159
981.976232,-3108.864956,5439.278036,11843.295072
981.976561,-4737.318029,2987.772442,12657.521608
981.976891,-5403.503377,306.438199,11547.212695
981.977221,-5329.482782,-2068.457845,9326.594869
981.977550,-4737.318029,-3983.696590,7476.080014
981.977880,-1924.535449,-4060.306139,7105.977043
981.978209,592.164754,-2987.772442,7179.997637
981.978539,1628.453072,-536.266849,7920.203579
981.978869,1406.391290,1838.629195,8290.306550
981.979198,-518.144159,4903.011187,9030.512492
981.979528,-444.123565,5745.716235,10510.924376
981.979857,296.082377,4519.963438,11177.109724
981.980187,814.226536,2145.067394,11473.192101
981.980517,1184.329507,0.000000,10362.883188
981.980846,1036.288319,-1532.190996,8956.491898
981.981176,1184.329507,-2068.457845,9178.553681
981.981505,1184.329507,-1915.238745,10140.821405
981.981835,0.000000,-1302.362347,11399.171507
981.982165,-2368.659014,1072.533697,10955.047942
981.982494,-3775.050304,2068.457845,10288.862594
981.982824,-2220.617826,1149.143247,10881.027347
981.983154,-592.164754,383.047749,10436.903782
981.983483,-740.205942,-383.047749,8808.450710
981.983813,-1554.432478,-1378.971896,7698.141797
981.984142,-1036.288319,-1915.238745,7846.182985
981.984472,0.000000,-1302.362347,9252.574275
981.984802,-1628.453072,-1072.533697,10066.800811
981.985131,-3404.947333,-1302.362347,9992.780217
981.985461,-4515.256246,-919.314598,9696.697840
981.985790,-3552.988522,383.047749,10362.883188
981.986120,-2146.597232,1838.629195,10436.903782
981.986450,-518.144159,1685.410096,9400.615463
981.986779,444.123565,0.000000,7994.224174
981.987109,1332.370696,536.266849,7920.203579
981.987438,2220.617826,1991.848295,9030.512492
981.987768,2516.700203,1532.190996,10140.821405
981.988098,740.205942,1149.143247,11769.274478
981.988427,-3182.885551,1915.238745,12287.418637
981.988757,-6513.812290,2987.772442,12287.418637
981.989086,-5921.647536,1991.848295,12065.356855
981.989416,-3627.009116,0.000000,9992.780217
981.989746,-2664.741391,-1762.019645,8290.306550
981.990075,-1554.432478,-2451.505594,6883.915261
981.990405,148.041188,-1455.581446,6735.874072
981.990734,1776.494261,689.485948,7402.059420
981.991064,1554.432478,3217.601092,8734.430116
981.991394,-222.061783,5515.887586,9548.656652
981.991723,-1998.556043,5056.230287,9548.656652
981.992053,-1702.473667,4290.134789,9622.677246
981.992383,-370.102971,4290.134789,9400.615463
981.992712,148.041188,2987.772442,8956.491898
981.993042,222.061783,842.705048,8660.409521
981.993371,-888.247130,383.047749,8660.409521
981.993701,-740.205942,1685.410096,9548.656652
981.994031,-222.061783,2221.676944,10510.924376
981.994360,-740.205942,2987.772442,10955.047942
981.994690,-1924.535449,3217.601092,9622.677246
981.995019,-2368.659014,2757.943793,7994.224174
981.995349,-888.247130,2068.457845,8660.409521
981.995679,296.082377,1225.752797,9252.574275
981.996008,370.102971,0.000000,9548.656652
981.996338,-518.144159,306.438199,8734.430116
981.996667,0.000000,766.095498,8142.265362
981.996997,2664.741391,76.609550,8068.244768
981.997327,3775.050304,-383.047749,8586.388927
981.997656,2886.803174,459.657299,9326.594869
981.997986,518.144159,1991.848295,10066.800811
981.998315,-1184.329507,3447.429741,11251.130318
981.998645,-1332.370696,4519.963438,11695.253884
981.998975,-1036.288319,2451.505594,11325.150913
981.999304,-888.247130,0.000000,10362.883188
981.999634,-592.164754,-1685.410096,9104.533087
981.999963,740.205942,-1225.752797,8512.368333
982.000293,1258.350101,-995.924147,8364.327145
982.000623,-962.267725,-1378.971896,8438.347739
982.000952,-3627.009116,-1072.533697,9030.512492
982.001282,-5107.421000,0.000000,10214.842000
982.001611,-4293.194464,766.095498,11843.295072
982.001941,-2368.659014,1302.362347,11695.253884
982.002271,-1406.391290,-459.657299,10362.883188
982.002600,-1258.350101,-2298.286494,8068.244768
982.002930,-666.185348,-3217.601092,7550.100608
982.003260,296.082377,-1838.629195,8734.430116
982.003589,-740.205942,0.000000,10288.862594
982.003919,-3256.906145,-153.219100,10955.047942
982.004248,-5625.565159,766.095498,11251.130318
982.004578,-4959.379811,229.828649,10807.006753
982.004908,-2220.617826,-536.266849,10584.944971
982.005237,-148.041188,-459.657299,9844.739029
982.005567,444.123565,-1302.362347,8068.244768
982.005896,222.061783,-842.705048,7550.100608
982.006226,888.247130,153.219100,8586.388927
982.006556,1184.329507,1149.143247,10362.883188
982.006885,-370.102971,2681.334243,11695.253884
982.007215,-3330.926739,2681.334243,11695.253884
982.007544,-4589.276840,1991.848295,11103.089130
982.007874,-4219.173869,1302.362347,10584.944971
982.008204,-3256.906145,153.219100,9548.656652
982.008533,-2442.679609,-919.314598,8586.388927
982.008863,-1924.535449,-1532.190996,7846.182985
982.009192,-888.247130,-306.438199,7254.018232
982.009522,518.144159,612.876398,7550.100608
982.009852,962.267725,1455.581446,8438.347739
982.010181,0.000000,3140.991542,8956.491898
982.010511,-1332.370696,4903.011187,9918.759623
982.010840,-2146.597232,4826.401637,10362.883188
982.011170,-1184.329507,5286.058936,10658.965565
982.011500,-370.102971,3600.648841,9400.615463
982.011829,74.020594,1532.190996,8512.368333
982.012159,148.041188,536.266849,7994.224174
982.012489,1850.514855,1608.800546,8290.306550
982.012818,2146.597232,1915.238745,8956.491898
982.013148,1332.370696,2298.286494,9844.739029
982.013477,-666.185348,3524.039291,9770.718434
982.013807,-2368.659014,3907.087040,9548.656652
982.014137,-1702.473667,3600.648841,10362.883188
982.014466,-888.247130,3140.991542,10436.903782
982.014796,-592.164754,1685.410096,9992.780217
982.015125,-592.164754,-459.657299,9252.574275
982.015455,-222.061783,-459.657299,8512.368333
982.015785,740.205942,0.000000,7994.224174
982.016114,1924.535449,-612.876398,8142.265362
982.016444,962.267725,306.438199,9178.553681
982.016773,-370.102971,1225.752797,9770.718434
982.017103,-1480.411884,2987.772442,10288.862594
982.017433,-592.164754,2528.115143,10658.965565
982.017762,0.000000,1838.629195,10510.924376
982.018092,-296.082377,842.705048,9400.615463
982.018421,-444.123565,-919.314598,8808.450710
982.018751,0.000000,-842.705048,8808.450710
982.019081,370.102971,-383.047749,9178.553681
982.019410,-962.267725,-536.266849,9326.594869
982.019740,-2590.720797,-1149.143247,9474.636058
982.020069,-4219.173869,-689.485948,10214.842000
982.020399,-4737.318029,76.609550,11325.150913
982.020729,-3923.091493,612.876398,11399.171507
982.021058,-3256.906145,0.000000,10510.924376
982.021388,-2664.741391,-2221.676944,8882.471304
982.021718,-1628.453072,-3524.039291,8660.409521
982.022047,-444.123565,-2528.115143,8808.450710
982.022377,-518.144159,-1072.533697,9326.594869
982.022706,-1776.494261,-766.095498,10362.883188
982.023036,-3478.967927,-536.266849,11029.068536
982.023366,-4663.297435,1302.362347,11621.233289
982.023695,-3256.906145,1685.410096,10732.986159
982.024025,-1184.329507,306.438199,9770.718434
982.024354,74.020594,-919.314598,8734.430116
982.024684,-296.082377,-612.876398,7698.141797
982.025014,74.020594,-766.095498,8364.327145
982.025343,296.082377,383.047749,9844.739029
982.025673,-814.226536,1149.143247,11251.130318
982.026002,-3701.029710,1455.581446,11695.253884
982.026332,-4811.338623,1915.238745,11029.068536
982.026662,-4441.235652,1302.362347,11103.089130
982.026991,-2886.803174,766.095498,10584.944971
982.027321,-1924.535449,612.876398,9178.553681
982.027650,-1702.473667,76.609550,7846.182985
982.027980,-444.123565,0.000000,7179.997637
982.028310,1184.329507,1455.581446,8068.244768
982.028639,2368.659014,2451.505594,8068.244768
982.028969,1702.473667,2451.505594,8364.327145
982.029298,-444.123565,3294.210641,8808.450710
982.029628,-2146.597232,4826.401637,9400.615463
982.029958,-1554.432478,3983.696590,10066.800811
982.030287,-444.123565,3447.429741,9844.739029
982.030617,-444.123565,2604.724693,9030.512492
982.030946,-296.082377,1225.752797,7624.121203
982.031276,888.247130,1225.752797,8068.244768
982.031606,2812.782580,1608.800546,9104.533087
982.031935,1998.556043,3447.429741,9622.677246
982.032265,-444.123565,4213.525239,9104.533087
982.032595,-2368.659014,3524.039291,9252.574275
982.032924,-1776.494261,2834.553343,10584.944971
982.033254,-666.185348,1685.410096,11843.295072
982.033583,-1406.391290,2145.067394,10436.903782
982.033913,-1332.370696,919.314598,8438.347739
982.034243,0.000000,-459.657299,7179.997637
982.034572,2368.659014,-1149.143247,7476.080014
982.034902,3034.844362,-306.438199,8216.285956
982.035231,1480.411884,689.485948,8290.306550
982.035561,-1184.329507,2451.505594,9548.656652
982.035891,-2516.700203,4290.134789,11399.171507
982.036220,-1850.514855,3677.258390,12287.418637
982.036550,-1184.329507,1915.238745,11843.295072
982.036879,-1332.370696,0.000000,9474.636058
982.037209,-1406.391290,-919.314598,7846.182985
982.037539,0.000000,-1532.190996,8068.244768
982.037868,962.267725,-1915.238745,9178.553681
982.038198,74.020594,-1302.362347,10362.883188
982.038527,-2368.659014,-153.219100,10288.862594
982.038857,-4589.276840,612.876398,10362.883188
982.039187,-5255.462188,1072.533697,11325.150913
982.039516,-5181.441594,536.266849,11177.109724
982.039846,-4959.379811,-612.876398,10436.903782
982.040175,-4737.318029,-2451.505594,9252.574275
982.040505,-3627.009116,-3370.820191,8438.347739
982.040835,-1776.494261,-3294.210641,8142.265362
982.041164,-518.144159,-3600.648841,8660.409521
982.041494,-888.247130,-2757.943793,9548.656652
982.041824,-2220.617826,-1608.800546,10510.924376
982.042153,-2590.720797,1302.362347,11695.253884
982.042483,-2146.597232,2757.943793,11917.315666
982.042812,-1258.350101,2451.505594,11473.192101
982.043142,0.000000,1532.190996,9770.718434
982.043472,1036.288319,0.000000,8068.244768
982.043801,2442.679609,-1378.971896,7994.224174
982.044131,2220.617826,-306.438199,8734.430116
982.044460,-296.082377,0.000000,10140.821405
982.044790,-3404.947333,383.047749,11325.150913
982.045120,-5773.606348,1302.362347,11621.233289
982.045449,-5773.606348,1915.238745,11399.171507
982.045779,-4071.132681,1991.848295,10362.883188
982.046108,-2442.679609,0.000000,8512.368333
982.046438,-1480.411884,-536.266849,7031.956449
982.046768,-222.061783,-689.485948,6883.915261
982.047097,1406.391290,612.876398,8216.285956
982.047427,1184.329507,3064.381992,9104.533087
982.047756,0.000000,4136.915689,9326.594869
982.048086,-1776.494261,3983.696590,9400.615463
982.048416,-1480.411884,3677.258390,9696.697840
982.048745,222.061783,3753.867940,10510.924376
982.049075,1480.411884,4060.306139,10584.944971
982.049404,1332.370696,2221.676944,8734.430116
982.049734,888.247130,1608.800546,7624.121203
982.050064,1776.494261,1991.848295,7994.224174
982.050393,2442.679609,3140.991542,8660.409521
982.050723,2664.741391,4136.915689,9326.594869
982.051053,888.247130,3753.867940,9030.512492
982.051382,-1110.308913,2911.162892,9548.656652
982.051712,-2220.617826,2145.067394,10807.006753
982.052041,-2664.741391,2604.724693,11621.233289
982.052371,-3108.864956,2528.115143,10214.842000
982.052701,-2516.700203,1149.143247,8068.244768
982.053030,-814.226536,-383.047749,7105.977043
982.053360,2072.576638,-1302.362347,7179.997637
982.053689,2738.761985,-689.485948,7920.203579
982.054019,814.226536,1455.581446,8734.430116
982.054349,-2146.597232,3677.258390,9770.718434
982.054678,-3849.070898,4290.134789,10658.965565
982.055008,-3108.864956,2834.553343,11769.274478
982.055337,-1776.494261,1455.581446,11621.233289
982.055667,-740.205942,0.000000,9992.780217
982.055997,-148.041188,-689.485948,8438.347739
982.056326,0.000000,-995.924147,7105.977043
982.056656,518.144159,-1532.190996,8216.285956
982.056985,222.061783,-1378.971896,9622.677246
982.057315,-1702.473667,153.219100,11399.171507
982.057645,-3997.112087,1149.143247,11695.253884
982.057974,-4515.256246,1762.019645,11843.295072
982.058304,-4071.132681,689.485948,11843.295072
982.058633,-3182.885551,-919.314598,11251.130318
982.058963,-2368.659014,-2145.067394,9548.656652
982.059293,-1776.494261,-2911.162892,8068.244768
982.059622,-370.102971,-2221.676944,8290.306550
982.059952,-370.102971,-1991.848295,8882.471304
982.060282,-1702.473667,-1608.800546,9844.739029
982.060611,-3182.885551,-459.657299,10140.821405
982.060941,-3997.112087,1149.143247,10436.903782
982.061270,-3330.926739,1991.848295,10436.903782
982.061600,-1924.535449,1455.581446,9844.739029
982.061930,-1110.308913,-383.047749,8956.491898
982.062259,-370.102971,-1608.800546,7698.141797
982.062589,74.020594,-1149.143247,7624.121203
982.062918,1184.329507,0.000000,8660.409521
982.063248,444.123565,0.000000,9918.759623
982.063578,-2516.700203,153.219100,11177.109724
982.063907,-4959.379811,1915.238745,11103.089130
982.064237,-4959.379811,2451.505594,10807.006753
982.064566,-2368.659014,1991.848295,10732.986159
982.064896,-962.267725,459.657299,9548.656652
982.065226,-296.082377,-842.705048,7920.203579
982.065555,74.020594,-995.924147,7105.977043
982.065885,1480.411884,842.705048,7624.121203
982.066214,1850.514855,2604.724693,9104.533087
982.066544,296.082377,3907.087040,9918.759623
982.066874,-1406.391290,3600.648841,9844.739029
982.067203,-2146.597232,3217.601092,9474.636058
982.067533,-1628.453072,3140.991542,10732.986159
982.067862,-888.247130,3600.648841,10807.006753
982.068192,-1036.288319,2834.553343,9770.718434
982.068522,-1184.329507,689.485948,8882.471304
982.068850,74.020594,1072.533697,7994.224174
982.069180,2072.576638,2374.896044,8438.347739
982.069509,2738.761985,2298.286494,8364.327145
982.069839,1332.370696,3064.381992,8586.388927
982.070168,-1628.453072,3677.258390,9030.512492
982.070498,-1702.473667,4060.306139,10214.842000
982.070827,-1554.432478,4443.353888,10955.047942
982.071157,-1406.391290,3447.429741,10066.800811
982.071486,-1332.370696,1915.238745,8290.306550
982.071816,-444.123565,0.000000,7105.977043
982.072145,1924.535449,-842.705048,7772.162391
982.072475,1406.391290,536.266849,8438.347739
982.072804,-444.123565,1302.362347,9030.512492
982.073134,-2960.823768,2528.115143,9992.780217
982.073463,-4145.153275,2987.772442,10362.883188
982.073793,-3256.906145,2451.505594,10436.903782
982.074122,-1258.350101,1685.410096,10214.842000
982.074452,0.000000,306.438199,9104.533087
982.074781,666.185348,-153.219100,7698.141797
982.075111,962.267725,-842.705048,7550.100608
982.075440,1406.391290,0.000000,8438.347739
982.075770,370.102971,842.705048,9474.636058
982.076099,-2590.720797,1149.143247,10436.903782
982.076429,-5107.421000,919.314598,11177.109724
982.076758,-5181.441594,383.047749,11621.233289
982.077088,-4219.173869,-689.485948,11917.315666
982.077417,-3108.864956,-1838.629195,11325.150913
982.077747,-2738.761985,-2757.943793,9992.780217
982.078077,-1554.432478,-2987.772442,8808.450710
982.078406,370.102971,-2604.724693,8808.450710
982.078736,1554.432478,-1685.410096,9474.636058
982.079065,1184.329507,-459.657299,10584.944971
982.079395,-666.185348,459.657299,11103.089130
982.079724,-2368.659014,1532.190996,10955.047942
982.080054,-2146.597232,1532.190996,11029.068536
982.080383,-1258.350101,766.095498,10732.986159
982.080713,-888.247130,0.000000,9474.636058
982.081042,-1332.370696,-2068.457845,6957.935855
982.081372,-148.041188,-2451.505594,7550.100608
982.081701,814.226536,-1685.410096,8586.388927
982.082031,0.000000,-766.095498,9474.636058
982.082360,-2368.659014,919.314598,10288.862594
982.082690,-4959.379811,1455.581446,9992.780217
982.083019,-4589.276840,2145.067394,11251.130318
982.083349,-3330.926739,1685.410096,11325.150913
982.083678,-1628.453072,995.924147,10362.883188
982.084008,-1184.329507,-153.219100,8438.347739
982.084337,0.000000,-536.266849,7105.977043
982.084667,1184.329507,0.000000,7698.141797
982.084996,1850.514855,1072.533697,8956.491898
982.085326,740.205942,2221.676944,9696.697840
982.085655,-1036.288319,2681.334243,9918.759623
982.085985,-1850.514855,3600.648841,10214.842000
982.086314,-1332.370696,3600.648841,10881.027347
982.086644,-740.205942,3524.039291,10807.006753
982.086973,-444.123565,2451.505594,9400.615463
982.087303,0.000000,1149.143247,8068.244768
982.087632,1184.329507,1149.143247,7846.182985
982.087962,2072.576638,1762.019645,8808.450710
982.088291,2072.576638,1915.238745,8660.409521
982.088621,370.102971,2528.115143,9252.574275
982.088950,-1776.494261,3217.601092,9918.759623
982.089280,-2738.761985,4519.963438,10955.047942
982.089609,-2220.617826,4596.572988,11103.089130
982.089939,-1110.308913,2604.724693,10362.883188
982.090268,-814.226536,1302.362347,8734.430116
982.090598,-370.102971,0.000000,7476.080014
982.090927,962.267725,0.000000,7698.141797
982.091257,1776.494261,1149.143247,8586.388927
982.091586,592.164754,1225.752797,8734.430116
982.091916,-1924.535449,2528.115143,9474.636058
982.092245,-3182.885551,2987.772442,9548.656652
982.092575,-1924.535449,2451.505594,10140.821405
982.092904,-1110.308913,2145.067394,10066.800811
982.093234,0.000000,919.314598,9252.574275
982.093563,0.000000,0.000000,8068.244768
982.093893,148.041188,-459.657299,7550.100608
982.094222,1554.432478,76.609550,8586.388927
982.094552,1628.453072,919.314598,9474.636058
982.094881,296.082377,1225.752797,10732.986159
982.095211,-1998.556043,1225.752797,10955.047942
982.095540,-3552.988522,1455.581446,11103.089130
982.095870,-3478.967927,1685.410096,11399.171507
982.096199,-2590.720797,459.657299,11695.253884
982.096529,-2220.617826,-1838.629195,10510.924376
982.096858,-2072.576638,-2068.457845,9030.512492
982.097188,-1258.350101,-2451.505594,8364.327145
982.097517,0.000000,-2451.505594,9030.512492
982.097847,-814.226536,-1685.410096,9548.656652
982.098176,-2368.659014,-995.924147,9474.636058
982.098506,-3701.029710,-229.828649,9918.759623
982.098835,-3330.926739,689.485948,10658.965565
982.099165,-2294.638420,1072.533697,10807.006753
982.099494,-1554.432478,0.000000,10066.800811
982.099824,-962.267725,-689.485948,8734.430116
982.100153,-222.061783,-1072.533697,7772.162391
982.100483,1406.391290,-1149.143247,8660.409521
982.100812,1258.350101,-459.657299,10214.842000
982.101142,-740.205942,0.000000,10807.006753
982.101471,-3552.988522,536.266849,10807.006753
982.101801,-4367.215058,1838.629195,11251.130318
982.102131,-3330.926739,1915.238745,10658.965565
982.102460,-1628.453072,459.657299,9844.739029
982.102790,-740.205942,-919.314598,8438.347739
982.103119,-296.082377,-1455.581446,7105.977043
982.103449,592.164754,-536.266849,7698.141797
982.103778,1702.473667,766.095498,9474.636058
982.104108,0.000000,1991.848295,10881.027347
982.104437,-2516.700203,3217.601092,11103.089130
982.104767,-3997.112087,2681.334243,10362.883188
982.105096,-2442.679609,2374.896044,10436.903782
982.105426,-962.267725,1991.848295,10140.821405
982.105755,0.000000,766.095498,9178.553681
982.106085,370.102971,-229.828649,7846.182985
982.106414,740.205942,766.095498,7328.038826
982.106744,2294.638420,1532.190996,8142.265362
982.107073,3034.844362,2681.334243,9030.512492
982.107403,2072.576638,3447.429741,9992.780217
982.107732,-296.082377,3677.258390,9696.697840
982.108062,-1332.370696,4136.915689,10066.800811
982.108391,-1184.329507,4290.134789,11029.068536
982.108721,-444.123565,2987.772442,10436.903782
982.109050,-592.164754,1762.019645,9104.533087
982.109380,-444.123565,459.657299,7624.121203
982.109709,1036.288319,0.000000,7402.059420
982.110039,1998.556043,153.219100,8068.244768
982.110368,740.205942,995.924147,8512.368333
982.110698,-962.267725,2221.676944,9474.636058
982.111027,-3108.864956,3524.039291,10066.800811
982.111357,-2516.700203,4443.353888,10362.883188
982.111686,-1036.288319,3370.820191,10140.821405
982.112016,-518.144159,1149.143247,8660.409521
982.112345,-518.144159,-153.219100,7031.956449
982.112675,-666.185348,-459.657299,7105.977043
982.113004,-148.041188,0.000000,8216.285956
982.113334,0.000000,612.876398,9992.780217
982.113663,-1628.453072,842.705048,11103.089130
982.113993,-3034.844362,612.876398,11325.150913
982.114322,-3923.091493,1225.752797,10955.047942
982.114652,-2220.617826,1455.581446,11177.109724
982.114981,-370.102971,536.266849,11029.068536
982.115311,148.041188,-383.047749,10436.903782
982.115640,0.000000,-612.876398,9474.636058
982.115970,814.226536,-383.047749,8882.471304
982.116299,1702.473667,-459.657299,9178.553681
982.116629,1184.329507,76.609550,9844.739029
982.116958,-962.267725,0.000000,10066.800811
982.117288,-2960.823768,-153.219100,10510.924376
982.117617,-3108.864956,1072.533697,11473.192101
982.117947,-3034.844362,689.485948,10881.027347
982.118276,-2812.782580,-459.657299,9696.697840
982.118606,-2960.823768,-2145.067394,8216.285956
982.118935,-2442.679609,-2298.286494,7920.203579
982.119265,-74.020594,-1225.752797,8512.368333
982.119594,0.000000,0.000000,8882.471304
982.119924,-1184.329507,153.219100,9326.594869
982.120253,-3627.009116,459.657299,9474.636058
982.120583,-4737.318029,1225.752797,9918.759623
982.120912,-3552.988522,1455.581446,11251.130318
982.121242,-2220.617826,1838.629195,11251.130318
982.121571,-1702.473667,229.828649,9770.718434
982.121901,-814.226536,-919.314598,7994.224174
982.122230,740.205942,-1608.800546,7772.162391
982.122560,2146.597232,-612.876398,8882.471304
982.122889,1258.350101,383.047749,9474.636058
982.123219,-740.205942,2068.457845,9844.739029
982.123548,-2442.679609,2834.553343,10288.862594
982.123878,-1924.535449,2911.162892,11251.130318
982.124207,-814.226536,2374.896044,10955.047942
982.124537,-370.102971,1378.971896,9474.636058
982.124866,-814.226536,76.609550,7772.162391
982.125196,0.000000,153.219100,7624.121203
982.125525,1036.288319,229.828649,8438.347739
982.125855,1628.453072,612.876398,9548.656652
982.126185,0.000000,2681.334243,10214.842000
982.126514,-2368.659014,3370.820191,10214.842000
982.126844,-2886.803174,3907.087040,10140.821405
982.127173,-1924.535449,3140.991542,10807.006753
982.127503,-1406.391290,2451.505594,10214.842000
982.127832,-1258.350101,1302.362347,9030.512492
982.128162,-962.267725,0.000000,7920.203579
982.128491,592.164754,536.266849,7402.059420
982.128821,1554.432478,1302.362347,7920.203579
982.129150,1258.350101,1225.752797,8142.265362
982.129480,74.020594,1991.848295,9252.574275
982.129809,-1258.350101,3294.210641,10066.800811
982.130139,-2072.576638,4136.915689,10362.883188
982.130468,-1480.411884,4136.915689,9622.677246
982.130798,-518.144159,1915.238745,8808.450710
982.131127,296.082377,612.876398,7920.203579
982.131457,1258.350101,536.266849,7550.100608
982.131786,2368.659014,306.438199,7550.100608
982.132116,2368.659014,842.705048,8956.491898
982.132445,-592.164754,1762.019645,9770.718434
982.132775,-2886.803174,2681.334243,11029.068536
982.133104,-4071.132681,2451.505594,11547.212695
982.133434,-3552.988522,2604.724693,11399.171507
982.133763,-2664.741391,1302.362347,10881.027347
982.134093,-1850.514855,-1302.362347,9474.636058
982.134422,-1332.370696,-2451.505594,8290.306550
982.134752,0.000000,-1838.629195,8216.285956
982.135081,814.226536,-1378.971896,8956.491898
982.135411,0.000000,-306.438199,10066.800811
982.135740,-1480.411884,0.000000,10288.862594
982.136070,-2664.741391,153.219100,10955.047942
982.136399,-2368.659014,842.705048,11103.089130
982.136729,-1406.391290,1378.971896,11547.212695
982.137058,-666.185348,766.095498,10362.883188
982.137388,-740.205942,-1072.533697,8586.388927
982.137717,-148.041188,-2068.457845,7550.100608
982.138047,1036.288319,-1915.238745,8438.347739
982.138376,1258.350101,-536.266849,10066.800811
982.138706,-888.247130,689.485948,9918.759623
982.139035,-3627.009116,459.657299,9918.759623
982.139365,-4737.318029,459.657299,9992.780217
982.139694,-4219.173869,536.266849,10807.006753
982.140024,-3034.844362,306.438199,10584.944971
982.140353,-2294.638420,-919.314598,9400.615463
982.140683,-2220.617826,-2068.457845,8068.244768
982.141012,-1776.494261,-1838.629195,8438.347739
982.141342,-592.164754,-689.485948,9474.636058
982.141671,-592.164754,459.657299,10140.821405
982.142001,-2294.638420,1225.752797,9770.718434
982.142330,-3256.906145,1455.581446,9548.656652
982.142660,-2516.700203,1838.629195,10436.903782
982.142989,-888.247130,1532.190996,10807.006753
982.143319,-592.164754,995.924147,9696.697840
982.143648,0.000000,919.314598,8364.327145
982.143978,666.185348,842.705048,7624.121203
982.144307,2368.659014,536.266849,8660.409521
982.144637,2368.659014,1762.019645,9252.574275
982.144966,666.185348,2145.067394,9400.615463
982.145296,-1480.411884,3064.381992,10362.883188
982.145625,-2442.679609,4519.963438,11399.171507
982.145955,-2886.803174,4213.525239,11621.233289
982.146284,-2590.720797,2451.505594,11325.150913
982.146614,-2368.659014,1455.581446,9696.697840
982.146943,-1258.350101,1072.533697,8068.244768
982.147273,1036.288319,0.000000,7105.977043
982.147602,2516.700203,-383.047749,7994.224174
982.147932,1850.514855,1455.581446,8660.409521
982.148261,-962.267725,3524.039291,8438.347739
982.148591,-2664.741391,4596.572988,8364.327145
982.148920,-2516.700203,4903.011187,9178.553681
982.149250,-1480.411884,3983.696590,9252.574275
982.149580,-888.247130,2298.286494,8882.471304
982.149909,0.000000,689.485948,8216.285956
982.150239,444.123565,383.047749,8216.285956
982.150568,1036.288319,1149.143247,8660.409521
982.150898,666.185348,995.924147,9030.512492
982.151227,444.123565,1532.190996,10362.883188
982.151557,-814.226536,2221.676944,10955.047942
982.151886,-2146.597232,3064.381992,11325.150913
982.152216,-2146.597232,2987.772442,11547.212695
982.152545,-1332.370696,2451.505594,10955.047942
982.152875,-296.082377,76.609550,9030.512492
982.153204,0.000000,-1378.971896,7254.018232
982.153534,962.267725,-1685.410096,6439.791695
982.153863,2294.638420,-1072.533697,7624.121203
982.154193,1406.391290,-536.266849,9030.512492
982.154522,-740.205942,995.924147,10584.944971
982.154852,-3552.988522,1915.238745,11029.068536
982.155181,-4515.256246,2374.896044,11843.295072
982.155511,-3849.070898,1685.410096,12435.459826
982.155840,-2960.823768,536.266849,11399.171507
982.156170,-2294.638420,-1685.410096,9178.553681
982.156499,-1036.288319,-2987.772442,8068.244768
982.156829,-148.041188,-1838.629195,8660.409521
982.157158,0.000000,-689.485948,9474.636058
982.157488,-888.247130,-229.828649,10066.800811
982.157817,-2812.782580,153.219100,9548.656652
982.158147,-4293.194464,1225.752797,9696.697840
982.158476,-2812.782580,995.924147,10955.047942
982.158806,-1554.432478,612.876398,11695.253884
982.159135,-1850.514855,383.047749,9992.780217
982.159465,-2146.597232,-919.314598,8364.327145
982.159794,-888.247130,-2374.896044,7476.080014
982.160124,370.102971,-2068.457845,8808.450710
982.160453,0.000000,-919.314598,9992.780217
982.160783,-1850.514855,383.047749,10140.821405
982.161112,-3701.029710,1225.752797,10066.800811
982.161442,-3552.988522,1225.752797,10214.842000
982.161771,-2294.638420,1378.971896,10732.986159
982.162101,-1110.308913,1302.362347,9844.739029
982.162430,-962.267725,229.828649,8216.285956
982.162760,-518.144159,-229.828649,7476.080014
982.163089,1184.329507,919.314598,8290.306550
982.163419,1628.453072,1608.800546,9030.512492
982.163748,370.102971,1608.800546,9400.615463
982.164078,-2146.597232,2604.724693,9696.697840
982.164407,-3923.091493,3294.210641,9770.718434
982.164737,-3256.906145,2374.896044,10510.924376
982.165066,-1924.535449,2221.676944,10732.986159
982.165396,-2072.576638,1685.410096,9918.759623
982.165725,-1628.453072,689.485948,8734.430116
982.166055,148.041188,-383.047749,8660.409521
982.166384,1628.453072,306.438199,9400.615463
982.166714,1110.308913,1225.752797,9474.636058
982.167043,-296.082377,1991.848295,9770.718434
982.167373,-1702.473667,3370.820191,10214.842000
982.167702,-1628.453072,3753.867940,10584.944971
982.168032,-370.102971,3677.258390,10214.842000
982.168361,518.144159,3370.820191,8438.347739
982.168691,1480.411884,2068.457845,7254.018232
982.169020,1554.432478,1149.143247,6587.832884
982.169350,2220.617826,1608.800546,7624.121203
982.169679,2072.576638,2145.067394,9030.512492
982.170009,666.185348,2911.162892,9770.718434
982.170338,-1480.411884,3217.601092,9918.759623
982.170668,-3478.967927,2757.943793,10214.842000
982.170997,-3182.885551,2298.286494,11177.109724
982.171327,-2664.741391,1762.019645,11177.109724
982.171656,-2220.617826,612.876398,9918.759623
982.171986,-1332.370696,-306.438199,8512.368333
982.172315,0.000000,-1302.362347,7698.141797
982.172645,1036.288319,-1072.533697,7994.224174
982.172974,1110.308913,-383.047749,8364.327145
982.173304,74.020594,1149.143247,8956.491898
982.173633,-1184.329507,2298.286494,9622.677246
982.173963,-1702.473667,2298.286494,9992.780217
982.174293,-1110.308913,2374.896044,10807.006753
982.174622,-962.267725,1838.629195,10732.986159
982.174952,-740.205942,0.000000,9622.677246
982.175281,-518.144159,-1149.143247,8438.347739
982.175611,592.164754,-1608.800546,8660.409521
982.175940,1480.411884,-1532.190996,10066.800811
982.176270,-666.185348,-689.485948,10362.883188
982.176599,-3034.844362,76.609550,10362.883188
982.176929,-4885.359217,842.705048,10732.986159
982.177258,-4663.297435,842.705048,11843.295072
982.177588,-4145.153275,383.047749,12213.398043
982.177917,-3701.029710,-766.095498,10881.027347
982.178247,-3256.906145,-2374.896044,8956.491898
982.178576,-2516.700203,-2757.943793,8290.306550
982.178906,-1480.411884,-2145.067394,8734.430116
982.179235,-814.226536,-1991.848295,9474.636058
982.179565,-1924.535449,-766.095498,9474.636058
982.179894,-3478.967927,76.609550,9548.656652
982.180224,-3330.926739,1608.800546,10214.842000
982.180553,-2072.576638,1991.848295,10584.944971
982.180883,-814.226536,1072.533697,9918.759623
982.181212,0.000000,536.266849,8882.471304
982.181542,74.020594,536.266849,7920.203579
982.181871,1036.288319,919.314598,8660.409521
982.182201,1850.514855,1532.190996,9474.636058
982.182530,444.123565,1991.848295,9992.780217
982.182860,-1776.494261,2911.162892,9622.677246
982.183189,-2664.741391,2528.115143,9696.697840
982.183519,-2368.659014,1991.848295,10362.883188
982.183848,-1998.556043,1991.848295,10362.883188
982.184178,-2664.741391,1838.629195,8364.327145
982.184507,-2886.803174,0.000000,7179.997637
982.184837,-2146.597232,-919.314598,7920.203579
982.185166,-962.267725,-459.657299,9474.636058
982.185496,-1406.391290,766.095498,10362.883188
982.185825,-1924.535449,612.876398,10436.903782
982.186155,-2220.617826,1532.190996,9548.656652
982.186484,-1258.350101,2298.286494,9844.739029
982.186814,444.123565,2911.162892,9844.739029
982.187143,2220.617826,3600.648841,9252.574275
982.187473,3256.906145,3524.039291,8364.327145
982.187802,3404.947333,3600.648841,6957.935855
982.188132,4663.297435,3907.087040,8068.244768
982.188461,4737.318029,2834.553343,9400.615463
982.188791,2516.700203,2604.724693,10214.842000
982.189120,-1110.308913,2757.943793,10362.883188
982.189450,-3404.947333,2604.724693,10881.027347
982.189779,-3997.112087,2374.896044,11473.192101
982.190109,-3404.947333,1225.752797,11177.109724
982.190438,-2960.823768,-153.219100,9252.574275
982.190768,-2146.597232,-1608.800546,7105.977043
982.191097,-370.102971,-1225.752797,6735.874072
982.191427,1332.370696,-229.828649,7698.141797
982.191756,814.226536,842.705048,8808.450710
982.192086,-1332.370696,2221.676944,9622.677246
982.192415,-3478.967927,2757.943793,10288.862594
982.192745,-3849.070898,2987.772442,10881.027347
982.193074,-2664.741391,2757.943793,11251.130318
982.193404,-1480.411884,1302.362347,10362.883188
982.193733,-666.185348,-1762.019645,8734.430116
982.194063,-518.144159,-2068.457845,7624.121203
982.194392,296.082377,-995.924147,8364.327145
982.194722,1036.288319,-153.219100,9400.615463
982.195051,222.061783,612.876398,9918.759623
982.195381,-2146.597232,1532.190996,10658.965565
982.195710,-2886.803174,1149.143247,11399.171507
982.196040,-2886.803174,995.924147,11843.295072
982.196369,-3034.844362,383.047749,11769.274478
982.196699,-3552.988522,-1455.581446,10066.800811
982.197028,-3182.885551,-3140.991542,8882.471304
982.197358,-2368.659014,-3447.429741,8364.327145
982.197687,-814.226536,-2987.772442,8660.409521
982.198017,-296.082377,-2221.676944,9474.636058
982.198346,-1110.308913,-1225.752797,9844.739029
982.198676,-2812.782580,383.047749,10214.842000
982.199005,-3256.906145,2145.067394,10732.986159
982.199335,-2368.659014,2681.334243,10732.986159
982.199664,-1554.432478,1532.190996,9918.759623
982.199994,-148.041188,-153.219100,9104.533087
982.200323,222.061783,-1608.800546,8438.347739
982.200653,962.267725,-612.876398,8586.388927
982.200982,1258.350101,-306.438199,8808.450710
982.201312,148.041188,536.266849,9474.636058
982.201642,-1480.411884,1455.581446,9474.636058
982.201971,-2886.803174,919.314598,9770.718434
982.202301,-2442.679609,995.924147,11399.171507
982.202630,-1850.514855,1838.629195,12287.418637
982.202960,-1998.556043,2374.896044,11251.130318
982.203289,-1702.473667,536.266849,8734.430116
982.203619,0.000000,-689.485948,7254.018232
982.203948,2146.597232,-153.219100,7698.141797
982.204278,3034.844362,459.657299,8586.388927
982.204607,1776.494261,1149.143247,9104.533087
982.204937,-962.267725,2987.772442,9326.594869
982.205266,-2442.679609,4673.182538,9918.759623
982.205596,-1184.329507,4443.353888,10955.047942
982.205925,-814.226536,4136.915689,10288.862594
982.206255,-296.082377,3064.381992,8660.409521
982.206584,370.102971,1378.971896,7698.141797
982.206914,1332.370696,1149.143247,7328.038826
982.207243,1776.494261,1608.800546,8438.347739
982.207573,296.082377,1532.190996,9770.718434
982.207902,-2368.659014,2451.505594,10584.944971
982.208232,-4441.235652,3600.648841,10955.047942
982.208561,-4219.173869,3294.210641,11177.109724
982.208891,-1924.535449,2757.943793,10955.047942
982.209220,-518.144159,1991.848295,9030.512492
982.209550,592.164754,0.000000,7105.977043
982.209879,1480.411884,-383.047749,6143.709319
982.210209,2442.679609,1532.190996,7105.977043
982.210538,2368.659014,2298.286494,8808.450710
982.210868,370.102971,2987.772442,10288.862594
982.211197,-2960.823768,4213.525239,10881.027347
982.211527,-3849.070898,3294.210641,11029.068536
982.211856,-2442.679609,2298.286494,11103.089130
982.212186,-1480.411884,1455.581446,9770.718434
982.212515,-1554.432478,-689.485948,8216.285956
982.212845,-1628.453072,-2221.676944,7476.080014
982.213174,-888.247130,-1378.971896,8068.244768
982.213504,-666.185348,-536.266849,8882.471304
982.213833,-1480.411884,0.000000,10584.944971
982.214163,-2886.803174,536.266849,11103.089130
982.214492,-3923.091493,689.485948,11621.233289
982.214822,-3701.029710,0.000000,11621.233289
982.215151,-3182.885551,153.219100,12065.356855
982.215481,-2886.803174,229.828649,11325.150913
982.215810,-2220.617826,-1455.581446,9622.677246
982.216140,-1184.329507,-3140.991542,8290.306550
982.216469,1406.391290,-1915.238745,8660.409521
982.216799,2368.659014,-1302.362347,9030.512492
982.217128,962.267725,-842.705048,9252.574275
982.217458,-1628.453072,842.705048,9474.636058
982.217787,-2960.823768,1838.629195,10066.800811
982.218117,-2146.597232,1532.190996,11325.150913
982.218446,-1480.411884,919.314598,10584.944971
982.218776,-1776.494261,-383.047749,9030.512492
982.219105,-962.267725,-2068.457845,7328.038826
982.219435,888.247130,-1532.190996,7624.121203
982.219764,2072.576638,-1915.238745,9474.636058
982.220094,740.205942,-536.266849,10807.006753
982.220423,-2886.803174,1225.752797,10732.986159
982.220753,-5403.503377,2451.505594,10140.821405
982.221082,-4885.359217,2298.286494,9474.636058
982.221412,-2738.761985,766.095498,10288.862594
982.221741,-1332.370696,306.438199,9992.780217
982.222071,-814.226536,-1225.752797,8438.347739
982.222400,0.000000,-1378.971896,7402.059420
982.222730,1480.411884,-536.266849,8438.347739
982.223059,2516.700203,459.657299,9918.759623
982.223389,1332.370696,1149.143247,10807.006753
982.223718,-962.267725,2681.334243,11325.150913
982.224048,-1924.535449,4290.134789,11547.212695
982.224377,-814.226536,5132.839837,11547.212695
982.224707,148.041188,3907.087040,10140.821405
982.225036,888.247130,1378.971896,8142.265362
982.225366,1332.370696,536.266849,6661.853478
982.225695,2146.597232,842.705048,6809.894666
982.226025,2368.659014,1455.581446,8512.368333
982.226354,740.205942,2451.505594,9622.677246
982.226684,-2072.576638,2911.162892,9992.780217
982.227013,-4145.153275,3447.429741,10214.842000
982.227343,-3627.009116,3600.648841,11103.089130
982.227672,-2590.720797,4060.306139,11103.089130
982.228002,-1776.494261,2604.724693,9770.718434
982.228331,-962.267725,612.876398,7920.203579
982.228661,-666.185348,536.266849,7031.956449
982.228991,1110.308913,995.924147,7698.141797
982.229320,1110.308913,1378.971896,8734.430116
982.229650,-740.205942,2298.286494,9622.677246
982.229979,-2664.741391,3600.648841,9622.677246
982.230309,-3478.967927,3140.991542,9696.697840
982.230638,-2294.638420,2911.162892,9696.697840
982.230968,-1184.329507,2451.505594,9326.594869
982.231297,-888.247130,459.657299,8142.265362
982.231627,-888.247130,-689.485948,6957.935855
982.231956,148.041188,459.657299,7698.141797
982.232286,962.267725,919.314598,9326.594869
982.232615,148.041188,1225.752797,10362.883188
982.232945,-2220.617826,1685.410096,10658.965565
982.233274,-3627.009116,766.095498,11547.212695
982.233604,-3404.947333,383.047749,12435.459826
982.233933,-3404.947333,919.314598,12361.439231
982.234263,-3478.967927,0.000000,11769.274478
982.234592,-2960.823768,-1455.581446,10140.821405
982.234922,-1702.473667,-2528.115143,8586.388927
982.235251,444.123565,-2604.724693,8364.327145
982.235581,1480.411884,-1991.848295,8438.347739
982.235910,370.102971,-689.485948,9104.533087
982.236240,-1702.473667,76.609550,9770.718434
982.236569,-3256.906145,1455.581446,10288.862594
982.236899,-2442.679609,2451.505594,11251.130318
982.237228,-1406.391290,1762.019645,10436.903782
982.237558,-888.247130,-536.266849,9400.615463
982.237887,-296.082377,-1915.238745,8512.368333
982.238217,222.061783,-2221.676944,8290.306550
982.238546,1184.329507,-1225.752797,8882.471304
982.238876,592.164754,-1915.238745,9992.780217
982.239205,-1480.411884,-306.438199,11621.233289
982.239535,-3775.050304,919.314598,11695.253884
982.239864,-3849.070898,1838.629195,11473.192101
982.240194,-2072.576638,1378.971896,10955.047942
982.240523,-148.041188,153.219100,9770.718434
982.240853,1258.350101,-536.266849,7698.141797
982.241182,1850.514855,-1149.143247,6365.771101
982.241512,3182.885551,-995.924147,6735.874072
982.241841,3182.885551,459.657299,8882.471304
982.242171,740.205942,1915.238745,10436.903782
982.242500,-2072.576638,3677.258390,11103.089130
982.242830,-3775.050304,3677.258390,11177.109724
982.243159,-2442.679609,3217.601092,11547.212695
982.243489,-518.144159,2068.457845,10881.027347
982.243818,0.000000,383.047749,9178.553681
982.244148,-222.061783,306.438199,7031.956449
982.244477,518.144159,689.485948,7031.956449
982.244807,1702.473667,1302.362347,8142.265362
982.245136,1702.473667,2145.067394,9918.759623
982.245466,-444.123565,2834.553343,10510.924376
982.245795,-2590.720797,3370.820191,10436.903782
982.246125,-2812.782580,4213.525239,10214.842000
982.246454,-1480.411884,3753.867940,11029.068536
982.246784,-518.144159,2451.505594,9622.677246
982.247113,-370.102971,766.095498,8142.265362
982.247443,148.041188,689.485948,6957.935855
982.247772,1924.535449,1378.971896,7846.182985
982.248102,2368.659014,1685.410096,9178.553681
982.248431,74.020594,2221.676944,9622.677246
982.248761,-3182.885551,3064.381992,9696.697840
982.249090,-3849.070898,3830.477490,10140.821405
982.249420,-2812.782580,3907.087040,10288.862594
982.249749,-2220.617826,2681.334243,9918.759623
982.250079,-1776.494261,1072.533697,8364.327145
982.250408,-1332.370696,-689.485948,6735.874072
982.250738,-222.061783,-612.876398,7402.059420
982.251067,740.205942,612.876398,8364.327145
982.251397,0.000000,1225.752797,9030.512492
982.251726,-1998.556043,612.876398,10066.800811
982.252056,-4071.132681,689.485948,11621.233289
982.252385,-4145.153275,1991.848295,13249.686362
982.252715,-3182.885551,2834.553343,12953.603985
982.253044,-2146.597232,1072.533697,11621.233289
982.253374,-1554.432478,-766.095498,8956.491898
982.253703,-222.061783,-1915.238745,7179.997637
982.254033,1998.556043,-2528.115143,7105.977043
982.254362,3256.906145,-842.705048,7920.203579
982.254692,1258.350101,612.876398,8586.388927
982.255021,-1258.350101,1149.143247,9844.739029
982.255351,-2960.823768,1608.800546,10881.027347
982.255680,-3108.864956,2451.505594,11695.253884
982.256010,-2368.659014,1838.629195,11029.068536
982.256339,-1850.514855,-1378.971896,9770.718434
982.256669,-1036.288319,-2911.162892,8586.388927
982.256999,-592.164754,-2834.553343,8660.409521
982.257328,74.020594,-2298.286494,9104.533087
982.257658,-740.205942,-919.314598,9326.594869
982.257987,-2812.782580,383.047749,9326.594869
982.258317,-4367.215058,766.095498,9400.615463
982.258646,-4219.173869,536.266849,10584.944971
982.258976,-2738.761985,1149.143247,11251.130318
982.259305,-1258.350101,919.314598,10510.924376
982.259635,-740.205942,-919.314598,8660.409521
982.259964,0.000000,-1532.190996,7920.203579
982.260294,1258.350101,-1762.019645,8586.388927
982.260623,2220.617826,-612.876398,9844.739029
982.260953,1480.411884,153.219100,10955.047942
982.261282,-666.185348,2298.286494,11621.233289
982.261612,-1924.535449,3140.991542,11029.068536
982.261941,-1110.308913,2604.724693,10807.006753
982.262271,370.102971,2221.676944,9992.780217
982.262600,1184.329507,1302.362347,8586.388927
982.262930,1110.308913,689.485948,7105.977043
982.263259,1480.411884,689.485948,6957.935855
982.263589,1702.473667,1225.752797,7772.162391
982.263918,814.226536,1302.362347,9474.636058
982.264248,-1628.453072,1532.190996,10510.924376
982.264577,-4293.194464,2911.162892,10807.006753
982.264907,-4663.297435,2757.943793,11177.109724
982.265236,-3552.988522,2374.896044,11399.171507
982.265566,-2368.659014,1915.238745,10510.924376
982.265895,-1776.494261,766.095498,8808.450710
982.266225,-962.267725,459.657299,7624.121203
982.266554,962.267725,1225.752797,8068.244768
982.266884,1776.494261,1608.800546,8512.368333
982.267213,666.185348,2834.553343,8956.491898
982.267543,-1406.391290,3294.210641,8216.285956
982.267872,-2220.617826,3447.429741,8290.306550
982.268202,-1110.308913,3907.087040,9474.636058
982.268531,-222.061783,4213.525239,9548.656652
982.268861,0.000000,2221.676944,7846.182985
982.269190,0.000000,306.438199,6661.853478
982.269520,148.041188,306.438199,7179.997637
982.269849,1258.350101,1072.533697,9252.574275
982.270179,814.226536,1378.971896,11177.109724
982.270508,-1628.453072,1378.971896,11399.171507
982.270838,-4145.153275,1915.238745,11769.274478
982.271167,-4663.297435,1608.800546,12435.459826
982.271497,-3997.112087,2145.067394,12509.480420
982.271826,-2812.782580,919.314598,11103.089130
982.272156,-1702.473667,-1378.971896,8586.388927
982.272485,-814.226536,-1685.410096,6735.874072
982.272815,1184.329507,-1685.410096,7105.977043
982.273145,2220.617826,-1378.971896,8216.285956
982.273474,592.164754,0.000000,9104.533087
982.273804,-1924.535449,1455.581446,10066.800811
982.274134,-3478.967927,1991.848295,11251.130318
982.274463,-3108.864956,2757.943793,12213.398043
982.274793,-2368.659014,1915.238745,11547.212695
982.275123,-1776.494261,-153.219100,9622.677246
982.275453,-1036.288319,-2374.896044,8068.244768
982.275782,740.205942,-2451.505594,7624.121203
982.276112,1184.329507,-1915.238745,9104.533087
982.276442,666.185348,-612.876398,10288.862594
982.276771,-1776.494261,536.266849,10955.047942
982.277101,-4293.194464,766.095498,10955.047942
982.277431,-4441.235652,536.266849,10732.986159
982.277761,-2368.659014,612.876398,10510.924376
982.278090,-740.205942,-153.219100,9474.636058
982.278420,-518.144159,-2221.676944,7254.018232
982.278750,-148.041188,-2451.505594,6883.915261
982.279080,814.226536,-1378.971896,7994.224174
982.279409,518.144159,-229.828649,9918.759623
982.279739,-740.205942,1455.581446,11029.068536
982.280069,-2516.700203,1838.629195,11251.130318
982.280398,-2960.823768,1378.971896,10955.047942
982.280728,-2368.659014,1455.581446,11251.130318
982.281058,-1110.308913,1455.581446,10658.965565
982.281388,-592.164754,1378.971896,9104.533087
982.281717,-592.164754,229.828649,7772.162391
982.282047,222.061783,0.000000,7476.080014
982.282377,1776.494261,612.876398,8290.306550
982.282706,2072.576638,842.705048,9252.574275
982.283036,740.205942,1072.533697,10510.924376
982.283366,-2368.659014,2757.943793,11177.109724
982.283696,-3923.091493,3677.258390,10658.965565
982.284025,-2368.659014,2911.162892,11029.068536
982.284355,-296.082377,2451.505594,11177.109724
982.284685,222.061783,1915.238745,8956.491898
982.285015,740.205942,153.219100,7031.956449
982.285344,1998.556043,153.219100,6883.915261
982.285674,2072.576638,1302.362347,8068.244768
982.286004,370.102971,2604.724693,9844.739029
982.286333,-2072.576638,4443.353888,10362.883188
982.286663,-3330.926739,4060.306139,9770.718434
982.286993,-2886.803174,3370.820191,9326.594869
982.287323,-1924.535449,2681.334243,9400.615463
982.287652,-1036.288319,1455.581446,8660.409521
982.287982,-1332.370696,766.095498,6735.874072
982.288312,-444.123565,306.438199,7476.080014
982.288641,444.123565,1378.971896,8364.327145
982.288971,666.185348,1455.581446,9770.718434
982.289301,-962.267725,1149.143247,10362.883188
982.289631,-2960.823768,1532.190996,10510.924376
982.289960,-3701.029710,2298.286494,11325.150913
982.290290,-2294.638420,2987.772442,12065.356855
982.290620,-1184.329507,1915.238745,10807.006753
982.290950,-592.164754,0.000000,8216.285956
982.291279,0.000000,-842.705048,6291.750507
982.291609,1850.514855,-766.095498,6143.709319
982.291939,3182.885551,229.828649,8660.409521
982.292268,1258.350101,1149.143247,10214.842000
982.292598,-2294.638420,1915.238745,10881.027347
982.292928,-4515.256246,2298.286494,11251.130318
982.293258,-5033.400406,1991.848295,11843.295072
982.293587,-3923.091493,1762.019645,11991.336260
982.293917,-2590.720797,-766.095498,10658.965565
982.294247,-1776.494261,-3064.381992,8512.368333
982.294577,-814.226536,-3064.381992,7846.182985
982.294906,-222.061783,-1838.629195,7920.203579
982.295236,-148.041188,-842.705048,8364.327145
982.295566,-1924.535449,1378.971896,8956.491898
982.295895,-4145.153275,1915.238745,8660.409521
982.296225,-4441.235652,612.876398,10436.903782
982.296555,-3256.906145,612.876398,11843.295072
982.296885,-2664.741391,1378.971896,11621.233289
982.297214,-2590.720797,-1072.533697,9844.739029
982.297544,-1258.350101,-3064.381992,8660.409521
982.297874,666.185348,-3064.381992,8586.388927
982.298203,2294.638420,-2451.505594,9696.697840
982.298533,1628.453072,-766.095498,10362.883188
982.298863,-814.226536,1915.238745,10584.944971
982.299193,-2294.638420,2834.553343,11029.068536
982.299522,-1628.453072,2451.505594,11177.109724
982.299852,-370.102971,2681.334243,10066.800811
982.300182,592.164754,1302.362347,8882.471304
982.300512,962.267725,-459.657299,7031.956449
982.300841,814.226536,0.000000,6735.874072
982.301171,1406.391290,383.047749,8142.265362
982.301501,1184.329507,459.657299,9622.677246
982.301830,-1480.411884,1532.190996,10584.944971
982.302160,-4145.153275,1991.848295,11473.192101
982.302490,-5625.565159,2451.505594,12139.377449
982.302820,-4737.318029,2604.724693,12657.521608
982.303149,-3034.844362,2221.676944,11547.212695
982.303479,-2146.597232,689.485948,9622.677246
982.303809,-370.102971,306.438199,7402.059420
982.304138,1258.350101,459.657299,6069.688724
982.304468,3182.885551,612.876398,7105.977043
982.304798,3108.864956,2451.505594,7994.224174
982.305128,740.205942,3907.087040,8142.265362
982.305457,-888.247130,4903.011187,9326.594869
982.305787,-1110.308913,4673.182538,9696.697840
982.306117,-666.185348,4903.011187,10955.047942
982.306447,-666.185348,3064.381992,9918.759623
982.306776,-888.247130,1302.362347,8290.306550
982.307106,-666.185348,766.095498,7698.141797
982.307436,296.082377,76.609550,8438.347739
982.307765,0.000000,229.828649,9252.574275
982.308095,-1628.453072,995.924147,9622.677246
982.308425,-3182.885551,1302.362347,9992.780217
982.308755,-3923.091493,1915.238745,10510.924376
982.309084,-3256.906145,2911.162892,11029.068536
982.309414,-2072.576638,2757.943793,10362.883188
982.309744,-888.247130,842.705048,8512.368333
982.310073,222.061783,-383.047749,6661.853478
982.310403,1332.370696,-536.266849,7105.977043
982.310733,2072.576638,-995.924147,8068.244768
982.311063,814.226536,306.438199,10214.842000
982.311392,-2368.659014,2068.457845,11473.192101
982.311722,-4737.318029,2068.457845,12361.439231
982.312052,-4811.338623,2221.676944,12435.459826
982.312382,-3849.070898,1838.629195,11177.109724
982.312711,-2738.761985,-689.485948,9548.656652
982.313041,-1776.494261,-2145.067394,8142.265362
982.313371,-814.226536,-1991.848295,7476.080014
982.313700,148.041188,-1455.581446,8068.244768
982.314030,222.061783,-919.314598,8882.471304
982.314360,-888.247130,0.000000,9474.636058
982.314690,-3108.864956,459.657299,9548.656652
982.315019,-3775.050304,459.657299,9770.718434
982.315349,-2812.782580,1149.143247,10881.027347
982.315679,-1332.370696,459.657299,11695.253884
982.316008,-1258.350101,-229.828649,10658.965565
982.316338,-1554.432478,-1608.800546,9104.533087
982.316668,-740.205942,-1378.971896,8882.471304
982.316998,740.205942,-1608.800546,9844.739029
982.317327,666.185348,-536.266849,10436.903782
982.317657,-962.267725,766.095498,10214.842000
982.317987,-2442.679609,689.485948,9474.636058
982.318317,-2294.638420,1225.752797,9918.759623
982.318646,-1184.329507,1378.971896,10510.924376
982.318976,-518.144159,995.924147,9844.739029
982.319306,-814.226536,383.047749,8068.244768
982.319635,-370.102971,306.438199,7105.977043
982.319965,1628.453072,-383.047749,8512.368333
982.320295,1776.494261,459.657299,9770.718434
982.320625,222.061783,1762.019645,10436.903782
982.320954,-2072.576638,2145.067394,10510.924376
982.321284,-3034.844362,2068.457845,10584.944971
982.321614,-2146.597232,2987.772442,11103.089130
982.321944,-814.226536,2374.896044,10955.047942
982.322273,0.000000,1149.143247,9400.615463
982.322603,222.061783,919.314598,7698.141797
982.322933,1776.494261,1149.143247,7031.956449
982.323262,3256.906145,1072.533697,8216.285956
982.323592,2368.659014,1532.190996,8734.430116
982.323922,-592.164754,3524.039291,9400.615463
982.324252,-2960.823768,4366.744339,9918.759623
982.324581,-3256.906145,4519.963438,10732.986159
982.324911,-2812.782580,4596.572988,10658.965565
982.325241,-2072.576638,2681.334243,9548.656652
982.325570,-1702.473667,0.000000,8068.244768
982.325900,-1036.288319,153.219100,7105.977043
982.326230,0.000000,612.876398,7624.121203
982.326560,518.144159,689.485948,8734.430116
982.326889,-666.185348,1532.190996,9474.636058
982.327219,-2738.761985,2451.505594,9770.718434
982.327549,-3330.926739,3140.991542,10288.862594
982.327879,-2368.659014,3907.087040,9844.739029
982.328208,-888.247130,2604.724693,9400.615463
982.328538,222.061783,229.828649,8882.471304
982.328868,148.041188,229.828649,7772.162391
982.329197,222.061783,612.876398,8142.265362
982.329527,1258.350101,76.609550,9770.718434
982.329857,222.061783,536.266849,11103.089130
982.330187,-2516.700203,1225.752797,11251.130318
982.330516,-4293.194464,536.266849,11621.233289
982.330846,-3775.050304,1225.752797,11991.336260
982.331176,-2812.782580,1915.238745,11103.089130
982.331505,-1998.556043,459.657299,8956.491898
982.331835,-1036.288319,-1149.143247,6143.709319
982.332165,-222.061783,-1532.190996,5033.400406
982.332495,444.123565,-1991.848295,7476.080014
982.332824,0.000000,-459.657299,10214.842000
982.333154,-2516.700203,1608.800546,11251.130318
982.333484,-4515.256246,842.705048,11325.150913
982.333814,-5181.441594,-306.438199,11547.212695
982.334143,-3404.947333,-306.438199,12287.418637
982.334473,-1480.411884,-1378.971896,11769.274478
982.334803,-370.102971,-2451.505594,10362.883188
982.335132,-740.205942,-1225.752797,8956.491898
982.335462,814.226536,0.000000,8586.388927
982.335792,2664.741391,-1149.143247,9104.533087
982.336122,2664.741391,-383.047749,9030.512492
982.336451,1036.288319,766.095498,8808.450710
982.336781,-1184.329507,995.924147,9252.574275
982.337111,-1850.514855,2298.286494,10140.821405
982.337440,-1850.514855,2681.334243,10658.965565
982.337770,-1998.556043,1149.143247,9326.594869
982.338100,-1628.453072,-612.876398,8142.265362
982.338430,-666.185348,-1072.533697,7772.162391
982.338759,518.144159,-995.924147,8068.244768
982.339089,1110.308913,-459.657299,9548.656652
982.339419,-888.247130,536.266849,10732.986159
982.339749,-3404.947333,1455.581446,12287.418637
982.340078,-5033.400406,2834.553343,12953.603985
982.340408,-4367.215058,3294.210641,12731.542202
982.340738,-2812.782580,2681.334243,10658.965565
982.341067,-444.123565,0.000000,8364.327145
982.341397,1258.350101,-919.314598,6513.812290
982.341727,3404.947333,0.000000,6291.750507
982.342057,4145.153275,766.095498,7328.038826
982.342386,3108.864956,2681.334243,8808.450710
982.342716,962.267725,4826.401637,9992.780217
982.343046,-1702.473667,5132.839837,10362.883188
982.343375,-1998.556043,4903.011187,11325.150913
982.343705,-1332.370696,4443.353888,11547.212695
982.344035,-1554.432478,2451.505594,9770.718434
982.344365,-2146.597232,536.266849,7698.141797
982.344694,-1924.535449,-229.828649,7328.038826
982.345024,-814.226536,-306.438199,7994.224174
982.345354,-148.041188,612.876398,8956.491898
982.345684,-962.267725,1455.581446,9548.656652
982.346013,-2368.659014,2221.676944,9844.739029
982.346343,-3478.967927,3370.820191,9622.677246
982.346673,-2294.638420,4060.306139,9548.656652
982.347002,-740.205942,3140.991542,9474.636058
982.347332,-222.061783,1762.019645,8512.368333
982.347662,-370.102971,689.485948,7105.977043
982.347992,1036.288319,-229.828649,7698.141797
982.348321,1406.391290,76.609550,9178.553681
982.348651,444.123565,1072.533697,10362.883188
982.348981,-1924.535449,1608.800546,11325.150913
982.349310,-3478.967927,1762.019645,11177.109724
982.349640,-4145.153275,1915.238745,10732.986159
982.349970,-3034.844362,1915.238745,10955.047942
982.350300,-1850.514855,995.924147,9992.780217
982.350629,-1184.329507,-306.438199,8290.306550
982.350959,-518.144159,-1302.362347,7105.977043
982.351289,444.123565,-1378.971896,6957.935855
982.351619,1036.288319,-1072.533697,8438.347739
982.351948,0.000000,-153.219100,10140.821405
982.352278,-2368.659014,229.828649,11103.089130
982.352608,-3997.112087,689.485948,11843.295072
982.352937,-3404.947333,1072.533697,12361.439231
982.353267,-2590.720797,459.657299,11991.336260
982.353597,-2220.617826,-612.876398,10658.965565
982.353927,-962.267725,-1685.410096,9104.533087
982.354256,296.082377,-1915.238745,8068.244768
982.354586,1554.432478,-1072.533697,8734.430116
982.354916,1480.411884,-612.876398,8956.491898
982.355246,-814.226536,229.828649,9696.697840
982.355575,-2960.823768,1072.533697,10362.883188
982.355905,-3552.988522,1991.848295,10510.924376
982.356235,-2516.700203,2451.505594,10214.842000
982.356564,-1480.411884,842.705048,9178.553681
982.356894,-666.185348,-1072.533697,7846.182985
982.357224,-370.102971,-1608.800546,7031.956449
982.357554,1110.308913,-1455.581446,7846.182985
982.357883,1406.391290,-306.438199,9474.636058
982.358213,0.000000,766.095498,10510.924376
982.358543,-2368.659014,1685.410096,11325.150913
982.358872,-3552.988522,2221.676944,11325.150913
982.359202,-2072.576638,2451.505594,11177.109724
982.359532,-592.164754,1991.848295,11029.068536
982.359862,148.041188,1149.143247,9474.636058
982.360191,370.102971,76.609550,7254.018232
982.360521,1184.329507,306.438199,6957.935855
982.360851,2886.803174,766.095498,8216.285956
982.361181,2146.597232,2145.067394,9992.780217
982.361510,-518.144159,2757.943793,10288.862594
982.361840,-3108.864956,3524.039291,9918.759623
982.362170,-3923.091493,3294.210641,10881.027347
982.362499,-2960.823768,3447.429741,11621.233289
982.362829,-1998.556043,2604.724693,10436.903782
982.363159,-1480.411884,1072.533697,8216.285956
982.363489,-444.123565,383.047749,6439.791695
982.363818,1184.329507,153.219100,6883.915261
982.364148,1924.535449,842.705048,8216.285956
982.364478,888.247130,1532.190996,9252.574275
982.364807,-1776.494261,3140.991542,9696.697840
982.365137,-3330.926739,4826.401637,10140.821405
982.365467,-2294.638420,3600.648841,10362.883188
982.365797,-1036.288319,2451.505594,10584.944971
982.366126,-296.082377,1608.800546,9326.594869
982.366456,148.041188,306.438199,7920.203579
982.366786,1110.308913,536.266849,7772.162391
982.367116,2294.638420,383.047749,9252.574275
982.367445,888.247130,1532.190996,9770.718434
982.367775,-1998.556043,2681.334243,9548.656652
982.368105,-3849.070898,2681.334243,9252.574275
982.368434,-3775.050304,1991.848295,9992.780217
982.368764,-3034.844362,1302.362347,9992.780217
982.369094,-2812.782580,689.485948,9548.656652
982.369424,-2368.659014,-1072.533697,8216.285956
982.369753,-1702.473667,-2298.286494,7402.059420
982.370083,222.061783,-1532.190996,8142.265362
982.370413,1258.350101,-919.314598,9548.656652
982.370742,1184.329507,-842.705048,10807.006753
982.371072,-1258.350101,766.095498,12065.356855
982.371402,-3256.906145,2221.676944,12509.480420
982.371732,-3034.844362,2604.724693,12731.542202
982.372061,-1776.494261,2374.896044,12287.418637
982.372391,-296.082377,306.438199,10066.800811
982.372721,592.164754,-1915.238745,7920.203579
982.373051,1406.391290,-2987.772442,7031.956449
982.373380,2146.597232,-1762.019645,7994.224174
982.373710,740.205942,-536.266849,8660.409521
982.374040,-1776.494261,153.219100,10288.862594
982.374369,-4441.235652,1072.533697,10362.883188
982.374699,-5107.421000,2374.896044,10584.944971
982.375029,-3552.988522,1225.752797,10362.883188
982.375359,-1850.514855,0.000000,9696.697840
982.375688,-1480.411884,-919.314598,8216.285956
982.376018,-666.185348,-1991.848295,7624.121203
982.376348,-370.102971,-1072.533697,7698.141797
982.376678,592.164754,76.609550,9326.594869
982.377007,148.041188,689.485948,10955.047942
982.377337,-1776.494261,1072.533697,11251.130318
982.377667,-2664.741391,2451.505594,10732.986159
982.377996,-2220.617826,1838.629195,10955.047942
982.378326,-740.205942,1532.190996,10807.006753
982.378656,-370.102971,1915.238745,9548.656652
982.378986,296.082377,306.438199,7846.182985
982.379315,1776.494261,536.266849,7031.956449
982.379645,2812.782580,689.485948,7550.100608
982.379975,2590.720797,1378.971896,9326.594869
982.380305,0.000000,1838.629195,10214.842000
982.380634,-2960.823768,3064.381992,10807.006753
982.380964,-4441.235652,3524.039291,11177.109724
982.381294,-3552.988522,3524.039291,11695.253884
982.381623,-2294.638420,2374.896044,10658.965565
982.381953,-1406.391290,919.314598,8734.430116
982.382283,-666.185348,-306.438199,6809.894666
982.382613,1036.288319,-229.828649,6661.853478
982.382942,2294.638420,919.314598,7994.224174
982.383272,888.247130,1532.190996,9622.677246
982.383602,-2146.597232,3447.429741,10510.924376
982.383932,-3923.091493,4213.525239,10881.027347
982.384261,-2738.761985,3677.258390,10955.047942
982.384591,-740.205942,3370.820191,10140.821405
982.384921,0.000000,1378.971896,9474.636058
982.385250,296.082377,153.219100,7920.203579
982.385580,518.144159,229.828649,7179.997637
982.385910,1406.391290,842.705048,8068.244768
982.386240,1332.370696,1838.629195,8808.450710
982.386569,-296.082377,1991.848295,9992.780217
982.386899,-2294.638420,2298.286494,9918.759623
982.387229,-3108.864956,2528.115143,9844.739029
982.387559,-2294.638420,2528.115143,9918.759623
982.387888,-1332.370696,1225.752797,9474.636058
982.388218,-1036.288319,-383.047749,7846.182985
982.388548,-740.205942,-1302.362347,6957.935855
982.388877,518.144159,-1378.971896,7476.080014
982.389207,1776.494261,-1225.752797,9400.615463
982.389537,444.123565,-306.438199,10584.944971
982.389867,-2294.638420,536.266849,11325.150913
982.390196,-3701.029710,842.705048,12139.377449
982.390526,-3330.926739,1915.238745,12731.542202
982.390856,-1998.556043,1532.190996,12361.439231
982.391186,-1332.370696,229.828649,10955.047942
982.391515,-370.102971,-1455.581446,8808.450710
982.391845,592.164754,-1991.848295,8512.368333
982.392175,1332.370696,-1378.971896,8808.450710
982.392504,962.267725,-612.876398,9252.574275
982.392834,-962.267725,0.000000,9178.553681
982.393164,-2812.782580,766.095498,9622.677246
982.393494,-3701.029710,689.485948,10066.800811
982.393823,-2812.782580,1455.581446,10881.027347
982.394153,-2442.679609,612.876398,9992.780217
982.394483,-2442.679609,-612.876398,8956.491898
982.394813,-2368.659014,-1532.190996,8068.244768
982.395142,148.041188,-919.314598,7994.224174
982.395472,1850.514855,-842.705048,8956.491898
982.395802,1184.329507,-536.266849,9622.677246
982.396131,-962.267725,229.828649,10214.842000
982.396461,-2886.803174,1455.581446,11029.068536
982.396791,-3108.864956,2528.115143,11769.274478
982.397121,-2072.576638,2604.724693,11473.192101
982.397450,-1258.350101,1532.190996,10288.862594
982.397780,0.000000,0.000000,8068.244768
982.398110,1036.288319,-1149.143247,7105.977043
982.398440,2072.576638,-766.095498,7698.141797
982.398769,1406.391290,842.705048,8438.347739
982.399099,-740.205942,2221.676944,10288.862594
982.399429,-3552.988522,3064.381992,11103.089130
982.399758,-4811.338623,3677.258390,11325.150913
982.400088,-3849.070898,3830.477490,10584.944971
982.400418,-2516.700203,1991.848295,8808.450710
982.400748,-888.247130,766.095498,7698.141797
982.401077,-148.041188,0.000000,7105.977043
982.401407,888.247130,383.047749,7402.059420
982.401737,2072.576638,459.657299,8512.368333
982.402067,1036.288319,1072.533697,9474.636058
982.402396,-1036.288319,2757.943793,10436.903782
982.402726,-2146.597232,3753.867940,11399.171507
982.403056,-1702.473667,2987.772442,12065.356855
982.403385,-518.144159,3524.039291,11769.274478
982.403715,-592.164754,3753.867940,9474.636058
982.404045,-296.082377,1685.410096,6735.874072
982.404375,814.226536,842.705048,5699.585753
982.404704,1554.432478,612.876398,6735.874072
982.405034,814.226536,383.047749,8586.388927
982.405364,-1850.514855,1991.848295,10288.862594
982.405693,-4663.297435,2528.115143,10214.842000
982.406023,-5847.626942,2374.896044,10362.883188
982.406353,-4515.256246,1302.362347,10510.924376
982.406683,-2590.720797,689.485948,9622.677246
982.407012,-1036.288319,-306.438199,8290.306550
982.407342,0.000000,-995.924147,7476.080014
982.407672,666.185348,0.000000,7624.121203
982.408002,1850.514855,459.657299,8586.388927
982.408331,1554.432478,536.266849,9992.780217
982.408661,444.123565,1378.971896,10955.047942
982.408991,-1258.350101,1838.629195,11325.150913
982.409320,-1554.432478,1915.238745,11621.233289
982.409650,-1184.329507,1378.971896,11843.295072
982.409980,-962.267725,229.828649,11251.130318
982.410310,-814.226536,-995.924147,9770.718434
982.410639,-814.226536,-1378.971896,8364.327145
982.410969,518.144159,-1225.752797,8216.285956
982.411299,666.185348,-1532.190996,9104.533087
982.411629,-1036.288319,-842.705048,10362.883188
982.411958,-3627.009116,459.657299,10732.986159
982.412288,-5403.503377,1378.971896,11103.089130
982.412618,-4885.359217,1991.848295,11029.068536
982.412947,-3627.009116,1302.362347,10288.862594
982.413277,-2590.720797,-1302.362347,8660.409521
982.413607,-1406.391290,-2604.724693,7105.977043
982.413937,444.123565,-1991.848295,7179.997637
982.414266,1776.494261,-1149.143247,8142.265362
982.414596,1036.288319,-612.876398,9992.780217
982.414926,-1628.453072,1149.143247,10881.027347
982.415256,-3182.885551,2451.505594,11251.130318
982.415585,-2368.659014,2451.505594,11695.253884
982.415915,-888.247130,2451.505594,11621.233289
982.416245,-444.123565,1915.238745,10214.842000
982.416574,-296.082377,-229.828649,8586.388927
982.416904,370.102971,-995.924147,7105.977043
982.417234,1406.391290,0.000000,8068.244768
982.417564,1332.370696,689.485948,9548.656652
982.417893,-518.144159,1225.752797,10288.862594
982.418223,-3182.885551,1532.190996,9918.759623
982.418553,-4367.215058,2298.286494,10066.800811
982.418883,-3478.967927,2604.724693,10288.862594
982.419212,-2146.597232,2298.286494,9992.780217
982.419542,-1776.494261,1378.971896,8290.306550
982.419872,-1628.453072,536.266849,6957.935855
982.420201,0.000000,689.485948,7328.038826
982.420531,2072.576638,995.924147,8660.409521
982.420861,1776.494261,1915.238745,9622.677246
982.421191,-370.102971,2528.115143,10140.821405
982.421520,-2294.638420,2528.115143,10658.965565
982.421850,-2516.700203,3524.039291,11473.192101
982.422180,-1702.473667,3983.696590,11695.253884
982.422510,-888.247130,2681.334243,10510.924376
982.422839,-518.144159,1378.971896,8660.409521
982.423169,666.185348,229.828649,7105.977043
982.423499,1998.556043,-306.438199,6957.935855
982.423828,2368.659014,383.047749,8068.244768
982.424158,296.082377,1455.581446,9178.553681
982.424488,-2442.679609,3217.601092,9770.718434
982.424818,-4293.194464,3294.210641,9548.656652
982.425147,-2516.700203,2911.162892,10436.903782
982.425477,-1702.473667,1685.410096,10510.924376
982.425807,-1332.370696,766.095498,8660.409521
982.426137,-1406.391290,-536.266849,7254.018232
982.426466,-222.061783,-1225.752797,7254.018232
982.426796,1036.288319,-689.485948,8438.347739
982.427126,296.082377,76.609550,9844.739029
982.427455,-1628.453072,842.705048,11177.109724
982.427785,-2960.823768,1532.190996,11695.253884
982.428115,-2886.803174,1915.238745,11621.233289
982.428445,-1776.494261,1225.752797,11843.295072
982.428774,-888.247130,1302.362347,11103.089130
982.429104,-592.164754,76.609550,9030.512492
982.429434,666.185348,-1608.800546,7846.182985
982.429764,2146.597232,-1149.143247,8068.244768
982.430093,2368.659014,-459.657299,9770.718434
982.430423,0.000000,-612.876398,9474.636058
982.430753,-2960.823768,306.438199,10214.842000
982.431082,-4515.256246,1608.800546,11177.109724
982.431412,-3997.112087,1685.410096,11251.130318
982.431742,-2664.741391,919.314598,10288.862594
982.432072,-1628.453072,-536.266849,8586.388927
982.432401,-962.267725,-2451.505594,7402.059420
982.432731,-222.061783,-1915.238745,7179.997637
982.433061,370.102971,-919.314598,8364.327145
982.433391,-148.041188,-153.219100,10066.800811
982.433720,-2442.679609,919.314598,11029.068536
982.434050,-4145.153275,2451.505594,11251.130318
982.434380,-3997.112087,1685.410096,11103.089130
982.434709,-2294.638420,1072.533697,10584.944971
982.435039,-814.226536,0.000000,9474.636058
982.435369,-74.020594,-306.438199,8364.327145
982.435699,370.102971,-689.485948,7920.203579
982.436028,814.226536,383.047749,8586.388927
982.436358,962.267725,766.095498,9844.739029
982.436688,-518.144159,1838.629195,11103.089130
982.437018,-2368.659014,2911.162892,11177.109724
982.437347,-3997.112087,2298.286494,10510.924376
982.437677,-3034.844362,2451.505594,10510.924376
982.438007,-1850.514855,2145.067394,9844.739029
982.438336,-1110.308913,766.095498,8290.306550
982.438666,-962.267725,153.219100,6439.791695
982.438996,222.061783,459.657299,6143.709319
982.439326,2368.659014,919.314598,7772.162391
982.439655,2368.659014,1378.971896,9696.697840
982.439985,74.020594,2374.896044,10881.027347
982.440315,-3108.864956,3677.258390,11029.068536
982.440645,-3701.029710,4673.182538,11325.150913
982.440974,-3034.844362,4366.744339,11251.130318
982.441304,-1554.432478,2757.943793,9770.718434
982.441634,-888.247130,-153.219100,8290.306550
982.441963,74.020594,-1225.752797,7402.059420
982.442293,1184.329507,-383.047749,7846.182985
982.442623,1258.350101,306.438199,9326.594869
982.442953,-148.041188,1762.019645,9992.780217
982.443282,-1628.453072,2298.286494,10362.883188
982.443612,-2590.720797,2911.162892,9918.759623
982.443942,-1924.535449,3064.381992,9992.780217
982.444272,-296.082377,2757.943793,9844.739029
982.444601,0.000000,1685.410096,8512.368333
982.444931,74.020594,0.000000,7476.080014
982.445261,962.267725,-306.438199,7105.977043
982.445590,1998.556043,153.219100,7994.224174
982.445920,1184.329507,153.219100,9696.697840
982.446250,-666.185348,766.095498,11325.150913
982.446580,-3552.988522,1762.019645,11991.336260
982.446909,-4589.276840,2451.505594,11843.295072
982.447239,-3552.988522,1762.019645,11843.295072
982.447569,-2220.617826,919.314598,11177.109724
982.447899,-962.267725,-459.657299,8734.430116
982.448228,-296.082377,-2374.896044,7105.977043
982.448558,1110.308913,-2145.067394,7179.997637
982.448888,1998.556043,-842.705048,9104.533087
982.449217,444.123565,383.047749,10510.924376
982.449547,-2590.720797,1915.238745,11103.089130
982.449877,-4959.379811,1991.848295,11103.089130
982.450207,-4293.194464,2221.676944,11251.130318
982.450536,-2516.700203,1378.971896,10807.006753
982.450866,-1480.411884,-612.876398,9844.739029
982.451196,-1110.308913,-1302.362347,7476.080014
982.451526,-666.185348,-1608.800546,7105.977043
982.451855,814.226536,-1378.971896,7550.100608
982.452185,814.226536,0.000000,9252.574275
982.452515,-1258.350101,1149.143247,9992.780217
982.452844,-3552.988522,1762.019645,9844.739029
982.453174,-3552.988522,2145.067394,10658.965565
982.453504,-2368.659014,2068.457845,11103.089130
982.453834,-1480.411884,1225.752797,10658.965565
982.454163,-1554.432478,-306.438199,9252.574275
982.454493,-1406.391290,-536.266849,8142.265362
982.454823,0.000000,-383.047749,8660.409521
982.455152,1184.329507,-919.314598,9474.636058
982.455482,222.061783,306.438199,10510.924376
982.455812,-2664.741391,1455.581446,10658.965565
982.456142,-3923.091493,2145.067394,10436.903782
982.456471,-3552.988522,2757.943793,10362.883188
982.456801,-1628.453072,2834.553343,9844.739029
982.457131,-740.205942,1378.971896,8512.368333
982.457461,74.020594,-306.438199,7402.059420
982.457790,888.247130,306.438199,6587.832884
982.458120,2368.659014,536.266849,7920.203579
982.458450,2146.597232,1302.362347,9474.636058
982.458779,-296.082377,2528.115143,10955.047942
982.459109,-3108.864956,2987.772442,11177.109724
982.459439,-3923.091493,3217.601092,11399.171507
982.459769,-2664.741391,2528.115143,11843.295072
982.460098,-1110.308913,2528.115143,10807.006753
982.460428,-740.205942,306.438199,8586.388927
982.460758,0.000000,-536.266849,7105.977043
982.461088,1924.535449,153.219100,7105.977043
982.461417,2516.700203,612.876398,7550.100608
982.461747,1776.494261,1455.581446,8808.450710
982.462077,-888.247130,2911.162892,9104.533087
982.462406,-2516.700203,3447.429741,9992.780217
982.462736,-2368.659014,3370.820191,10510.924376
982.463066,-1628.453072,2834.553343,10140.821405
982.463396,-1110.308913,1149.143247,9252.574275
982.463725,-1110.308913,0.000000,8068.244768
982.464055,-444.123565,-612.876398,8142.265362
982.464385,740.205942,153.219100,8956.491898
982.464715,740.205942,0.000000,9474.636058
982.465044,-814.226536,459.657299,10510.924376
982.465374,-2960.823768,2221.676944,11177.109724
982.465704,-3701.029710,2298.286494,11325.150913
982.466033,-2960.823768,2221.676944,11029.068536
982.466363,-1776.494261,1685.410096,10510.924376
982.466693,-740.205942,0.000000,8956.491898
982.467023,74.020594,-1762.019645,7476.080014
982.467352,888.247130,-1991.848295,7550.100608
982.467682,1702.473667,-229.828649,8808.450710
982.468012,444.123565,229.828649,9770.718434
982.468342,-1924.535449,1532.190996,10362.883188
982.468671,-2886.803174,1915.238745,11103.089130
982.469001,-3330.926739,1455.581446,11103.089130
982.469331,-2664.741391,1915.238745,10955.047942
982.469660,-1998.556043,689.485948,9844.739029
982.469990,-1776.494261,-1532.190996,8734.430116
982.470320,-1702.473667,-1685.410096,8142.265362
982.470650,0.000000,-766.095498,8364.327145
982.470979,1406.391290,-536.266849,9326.594869
982.471309,-148.041188,-459.657299,9622.677246
982.471638,-2368.659014,459.657299,9918.759623
982.471968,-3478.967927,1455.581446,10584.944971
982.472298,-2738.761985,1608.800546,11177.109724
982.472627,-1702.473667,1608.800546,10807.006753
982.472957,-1184.329507,919.314598,9992.780217
982.473286,-370.102971,-689.485948,8586.388927
982.473616,666.185348,-1225.752797,8290.306550
982.473946,1258.350101,-383.047749,9104.533087
982.474275,444.123565,842.705048,9474.636058
982.474605,-1332.370696,1225.752797,10584.944971
982.474934,-3182.885551,2221.676944,10362.883188
982.475264,-3108.864956,2604.724693,10066.800811
982.475594,-1776.494261,2374.896044,9400.615463
982.475923,-296.082377,2068.457845,7772.162391
982.476253,518.144159,459.657299,7179.997637
982.476582,222.061783,0.000000,7105.977043
982.476912,1332.370696,1149.143247,8290.306550
982.477242,1332.370696,1072.533697,9696.697840
982.477571,-518.144159,689.485948,10955.047942
982.477901,-3701.029710,919.314598,12139.377449
982.478230,-5403.503377,2298.286494,12583.501014
982.478560,-3701.029710,2451.505594,12953.603985
982.478890,-1332.370696,1378.971896,11843.295072
982.479219,0.000000,919.314598,8660.409521
982.479549,814.226536,0.000000,5921.647536
982.479878,2368.659014,-153.219100,5255.462188
982.480208,3701.029710,1762.019645,6439.791695
982.480538,2442.679609,3140.991542,8956.491898
982.480867,-888.247130,3370.820191,10807.006753
982.481197,-4885.359217,4596.572988,11251.130318
982.481526,-5477.523971,3370.820191,11843.295072
982.481856,-3701.029710,1991.848295,11991.336260
982.482186,-2368.659014,306.438199,10732.986159
982.482515,-1924.535449,-1149.143247,8068.244768
982.482845,-518.144159,-2298.286494,6217.729913
982.483174,1258.350101,-1225.752797,7105.977043
982.483504,2442.679609,1302.362347,8808.450710
982.483834,1184.329507,2068.457845,9770.718434
982.484163,-1110.308913,2834.553343,9770.718434
982.484493,-2294.638420,3983.696590,9104.533087
982.484822,-1036.288319,3600.648841,10362.883188
982.485152,296.082377,1991.848295,11029.068536
982.485482,0.000000,689.485948,9770.718434
982.485811,-444.123565,-842.705048,8068.244768
982.486141,0.000000,-1225.752797,7846.182985
982.486470,1036.288319,-536.266849,9326.594869
982.486800,296.082377,0.000000,10658.965565
982.487130,-2072.576638,306.438199,10955.047942
982.487459,-3849.070898,1225.752797,10881.027347
982.487789,-4071.132681,1991.848295,11177.109724
982.488118,-2368.659014,1915.238745,10881.027347
982.488448,-1628.453072,1685.410096,9326.594869
982.488778,-1480.411884,-766.095498,7328.038826
982.489107,-296.082377,-2068.457845,6513.812290
982.489437,740.205942,-1149.143247,7402.059420
982.489766,1924.535449,-842.705048,8956.491898
982.490096,444.123565,-459.657299,10140.821405
982.490426,-2812.782580,1302.362347,11325.150913
982.490755,-4515.256246,2451.505594,12065.356855
982.491085,-2960.823768,2528.115143,12879.583391
982.491414,-1110.308913,2145.067394,12731.542202
982.491744,-518.144159,612.876398,10584.944971
982.492074,-814.226536,-1225.752797,8216.285956
982.492403,148.041188,-1762.019645,7254.018232
982.492733,1406.391290,-1532.190996,7920.203579
982.493062,1036.288319,-229.828649,9622.677246
982.493392,-1332.370696,995.924147,9770.718434
982.493722,-3849.070898,1532.190996,9400.615463
982.494051,-3997.112087,1838.629195,9252.574275
982.494381,-2072.576638,1991.848295,9326.594869
982.494710,-666.185348,1532.190996,8734.430116
982.495040,-296.082377,306.438199,7624.121203
982.495370,-222.061783,229.828649,7179.997637
982.495699,296.082377,229.828649,7846.182985
982.496029,1036.288319,536.266849,9622.677246
982.496358,-518.144159,995.924147,11029.068536
982.496688,-3256.906145,1378.971896,11547.212695
982.497018,-4811.338623,1608.800546,11991.336260
982.497347,-4367.215058,2068.457845,11991.336260
982.497677,-2368.659014,2145.067394,11103.089130
982.498007,-962.267725,536.266849,8882.471304
982.498336,740.205942,-766.095498,7179.997637
982.498666,2294.638420,0.000000,6809.894666
982.498995,3330.926739,1378.971896,7105.977043
982.499325,2664.741391,1991.848295,8068.244768
982.499655,518.144159,2987.772442,9474.636058
982.499984,-1924.535449,3524.039291,10955.047942
982.500314,-2960.823768,3753.867940,11399.171507
982.500643,-2664.741391,3217.601092,11399.171507
982.500973,-1776.494261,1455.581446,10658.965565
982.501303,-1480.411884,-229.828649,9030.512492
982.501632,-1110.308913,-1378.971896,7846.182985
982.501962,518.144159,-229.828649,7846.182985
982.502291,1850.514855,612.876398,8734.430116
982.502621,666.185348,1608.800546,9622.677246
982.502951,-1554.432478,2528.115143,10140.821405
982.503280,-2886.803174,2987.772442,10807.006753
982.503610,-2812.782580,3753.867940,11029.068536
982.503939,-1702.473667,3907.087040,10436.903782
982.504269,-962.267725,1762.019645,9474.636058
982.504599,-296.082377,-306.438199,6957.935855
982.504928,814.226536,-2068.457845,6661.853478
982.505258,2146.597232,-1608.800546,7994.224174
982.505587,1332.370696,153.219100,9622.677246
982.505917,-592.164754,1532.190996,10658.965565
982.506247,-3552.988522,2068.457845,10584.944971
982.506576,-4589.276840,3294.210641,10510.924376
982.506906,-2960.823768,2834.553343,10732.986159
982.507235,-888.247130,1532.190996,9992.780217
982.507565,0.000000,0.000000,8068.244768
982.507895,-444.123565,-995.924147,6957.935855
982.508224,0.000000,-1455.581446,7624.121203
982.508554,222.061783,-919.314598,9474.636058
982.508883,-1702.473667,0.000000,11029.068536
982.509213,-4959.379811,1532.190996,11917.315666
982.509543,-7402.059420,2145.067394,11991.336260
982.509872,-6883.915261,1302.362347,12583.501014
982.510202,-5033.400406,612.876398,11843.295072
982.510531,-3849.070898,-306.438199,9474.636058
982.510861,-2664.741391,-1072.533697,7105.977043
982.511191,-1110.308913,-2451.505594,6069.688724
982.511520,148.041188,-1455.581446,6883.915261
982.511850,518.144159,229.828649,8438.347739
982.512179,-1258.350101,1302.362347,9696.697840
982.512509,-3849.070898,2068.457845,10288.862594
982.512839,-5625.565159,2757.943793,10955.047942
982.513168,-5995.668130,2681.334243,11991.336260
982.513498,-5255.462188,1455.581446,11177.109724
982.513827,-4663.297435,-383.047749,9178.553681
982.514157,-3775.050304,-1915.238745,8364.327145
982.514487,-2146.597232,-1991.848295,7476.080014
982.514816,-592.164754,-1302.362347,7772.162391
982.515146,518.144159,-229.828649,8142.265362
982.515475,-222.061783,0.000000,9622.677246
982.515805,-2442.679609,1608.800546,11843.295072
982.516135,-5107.421000,4366.744339,12953.603985
982.516464,-7402.059420,4979.620737,11547.212695
982.516794,-7179.997637,3524.039291,10658.965565
982.517123,-6069.688724,1378.971896,8808.450710
982.517453,-3775.050304,-2451.505594,7476.080014
982.517783,-1924.535449,-3370.820191,6735.874072
982.518112,-1036.288319,-1225.752797,6735.874072
982.518442,0.000000,1455.581446,7476.080014
982.518771,814.226536,2221.676944,8882.471304
982.519101,666.185348,4213.525239,10362.883188
982.519431,-1258.350101,5898.935335,10584.944971
982.519760,-3627.009116,4060.306139,12139.377449
982.520090,-5995.668130,4749.792088,13545.768739
982.520419,-9104.533087,4903.011187,13249.686362
982.520749,-9030.512492,1455.581446,10732.986159
982.521079,-6143.709319,-1991.848295,7402.059420
982.521408,-2590.720797,-3294.210641,4885.359217
982.521738,444.123565,-4136.915689,3923.091493
982.522067,1628.453072,-2987.772442,4737.318029
982.522397,1702.473667,1915.238745,7105.977043
982.522727,74.020594,6205.373534,9622.677246
982.523056,-2220.617826,7814.174080,12065.356855
982.523386,-4811.338623,8733.488677,12879.583391
982.523715,-8068.244768,5669.106685,13767.830521
982.524045,-9770.718434,2145.067394,13841.851115
982.524375,-10584.944971,229.828649,12805.562797
982.524704,-10288.862594,-1762.019645,10510.924376
982.525034,-8216.285956,-4749.792088,7328.038826
982.525363,-4959.379811,-6052.154434,5255.462188
982.525693,-888.247130,-4903.011187,4515.256246
982.526023,2516.700203,-995.924147,4811.338623
982.526352,3330.926739,2911.162892,6661.853478
982.526682,2294.638420,7048.078582,8808.450710
982.527011,370.102971,9039.926876,11399.171507
982.527341,-2368.659014,7737.564530,13323.706956
982.527671,-5181.441594,5439.278036,13619.789333
982.528000,-8068.244768,0.000000,14211.954086
982.528330,-10584.944971,-3677.258390,14211.954086
982.528659,-12731.542202,-4596.572988,12287.418637
982.528989,-11843.295072,-6588.421283,9178.553681
982.529319,-7328.038826,-7354.516781,6439.791695
982.529648,-2960.823768,-5975.544884,4737.318029
982.529978,1110.308913,-1762.019645,4737.318029
982.530307,3330.926739,1225.752797,5329.482782
982.530637,3034.844362,6358.592633,7402.059420
982.530967,1924.535449,10648.727422,9178.553681
982.531296,-666.185348,9193.145976,11621.233289
982.531626,-3256.906145,6818.249932,13027.624579
982.531955,-6439.791695,3064.381992,12731.542202
982.532285,-9548.656652,-1072.533697,11251.130318
982.532615,-11177.109724,-4979.620737,10807.006753
982.532944,-11473.192101,-7737.564530,10510.924376
982.533274,-9696.697840,-7354.516781,9696.697840
982.533603,-7402.059420,-5132.839837,7846.182985
982.533933,-2960.823768,-2911.162892,6291.750507
982.534263,740.205942,-536.266849,6513.812290
982.534592,2886.803174,2911.162892,8216.285956
982.534922,3404.947333,6894.859482,9622.677246
982.535251,2146.597232,8656.879127,11177.109724
982.535581,0.000000,7124.688131,13471.748144
982.535911,-2812.782580,4903.011187,14804.118840
982.536240,-6661.853478,2604.724693,13767.830521
982.536570,-8216.285956,-383.047749,10732.986159
982.536899,-7550.100608,-4136.915689,7994.224174
982.537229,-5477.523971,-5209.449386,5995.668130
982.537559,-3627.009116,-4290.134789,5699.585753
982.537888,-2516.700203,-1991.848295,5995.668130
982.538218,-1702.473667,1762.019645,6439.791695
982.538547,-1332.370696,5515.887586,7624.121203
982.538877,-1406.391290,8503.660028,9326.594869
982.539207,-2072.576638,8580.269578,10362.883188
982.539536,-4145.153275,6281.983084,11769.274478
982.539866,-5477.523971,3830.477490,12953.603985
982.540195,-7031.956449,1838.629195,12805.562797
982.540525,-8364.327145,306.438199,11843.295072
982.540855,-8586.388927,-1915.238745,9844.739029
982.541184,-7402.059420,-3064.381992,8364.327145
982.541514,-3849.070898,-1378.971896,7402.059420
982.541843,-518.144159,842.705048,6439.791695
982.542173,1406.391290,2068.457845,6291.750507
982.542503,1406.391290,4826.401637,6883.915261
982.542832,592.164754,6894.859482,8290.306550
982.543162,-370.102971,7354.516781,10066.800811
982.543491,-1554.432478,6435.202183,11177.109724
982.543821,-3034.844362,4213.525239,11251.130318
982.544151,-3256.906145,2298.286494,10214.842000
982.544480,-3256.906145,-459.657299,9918.759623
982.544810,-3256.906145,-1455.581446,9474.636058
982.545139,-3627.009116,-1149.143247,8734.430116
982.545469,-3478.967927,689.485948,8956.491898
982.545799,-3256.906145,3140.991542,9252.574275
982.546128,-2960.823768,3907.087040,9844.739029
982.546458,-2294.638420,4290.134789,10140.821405
982.546787,-1628.453072,5132.839837,10362.883188
982.547117,-1554.432478,4979.620737,10658.965565
982.547447,-1628.453072,4136.915689,11251.130318
982.547776,-1406.391290,2987.772442,10584.944971
982.548106,-1554.432478,2145.067394,9844.739029
982.548435,-1554.432478,1762.019645,9178.553681
982.548765,-1332.370696,1685.410096,9326.594869
982.549095,-518.144159,2451.505594,9770.718434
982.549424,-666.185348,3753.867940,10362.883188
982.549754,-1110.308913,5745.716235,10955.047942
982.550083,-2368.659014,6665.030833,10214.842000
982.550413,-2590.720797,5898.935335,9474.636058
982.550743,-2146.597232,5669.106685,8882.471304
982.551072,-1702.473667,4596.572988,7550.100608
982.551402,-592.164754,2528.115143,6217.729913
982.551731,0.000000,1685.410096,5551.544565
982.552061,0.000000,995.924147,6365.771101
982.552391,-1036.288319,2298.286494,7846.182985
982.552720,-2220.617826,3524.039291,9104.533087
982.553050,-2886.803174,5056.230287,9992.780217
982.553379,-2886.803174,5209.449386,10288.862594
982.553709,-2812.782580,6052.154434,11177.109724
982.554039,-2072.576638,5822.325785,10881.027347
982.554368,-1036.288319,5132.839837,10288.862594
982.554698,-518.144159,4673.182538,9622.677246
982.555027,-888.247130,3600.648841,9622.677246
982.555357,-962.267725,3830.477490,8882.471304
982.555687,-740.205942,2757.943793,8512.368333
982.556016,0.000000,2757.943793,8438.347739
982.556346,666.185348,2757.943793,8956.491898
982.556675,296.082377,2681.334243,9548.656652
982.557005,-444.123565,3677.258390,10510.924376
982.557335,-1850.514855,5132.839837,11473.192101
982.557664,-2072.576638,5515.887586,11843.295072
982.557994,-1554.432478,5056.230287,12361.439231
982.558323,-1036.288319,4979.620737,11843.295072
982.558653,-814.226536,4673.182538,10658.965565
982.558983,-962.267725,4213.525239,9696.697840
982.559312,-444.123565,4443.353888,9474.636058
982.559642,0.000000,4903.011187,9326.594869
982.559971,-222.061783,4673.182538,7846.182985
982.560301,740.205942,4060.306139,6661.853478
982.560631,592.164754,2528.115143,6069.688724
982.560960,0.000000,1455.581446,6735.874072
982.561290,-1184.329507,1915.238745,8216.285956
982.561619,-2886.803174,3064.381992,9770.718434
982.561949,-3849.070898,4290.134789,10214.842000
982.562279,-3849.070898,3983.696590,10881.027347
982.562608,-2590.720797,3907.087040,11251.130318
982.562938,-1702.473667,4519.963438,10881.027347
982.563267,-1110.308913,5439.278036,9770.718434
982.563597,-370.102971,6435.202183,9030.512492
982.563927,370.102971,5669.106685,9104.533087
982.564256,444.123565,5745.716235,8660.409521
982.564586,-370.102971,4826.401637,7402.059420
982.564915,-1184.329507,3830.477490,6661.853478
982.565245,-1110.308913,2145.067394,5995.668130
982.565575,-1554.432478,995.924147,6291.750507
982.565904,-1406.391290,-229.828649,7550.100608
982.566234,-1850.514855,-229.828649,9178.553681
982.566563,-2294.638420,919.314598,10732.986159
982.566893,-1776.494261,3140.991542,12213.398043
982.567223,-1036.288319,4519.963438,13249.686362
982.567552,-666.185348,5362.668486,13027.624579
982.567882,-592.164754,6128.763984,12953.603985
982.568211,-148.041188,6358.592633,12435.459826
982.568541,0.000000,6358.592633,11251.130318
982.568871,0.000000,5515.887586,9992.780217
982.569200,-1184.329507,3524.039291,8586.388927
982.569530,-1480.411884,2374.896044,8512.368333
982.569859,-2294.638420,2145.067394,7994.224174
982.570189,-2294.638420,1991.848295,8068.244768
982.570519,-2072.576638,1608.800546,7254.018232
982.570848,-1036.288319,1532.190996,7772.162391
982.571178,-296.082377,1685.410096,8734.430116
982.571507,0.000000,2681.334243,10066.800811
982.571837,-740.205942,4596.572988,11029.068536
982.572167,-1702.473667,6894.859482,11103.089130
982.572496,-1850.514855,6665.030833,11029.068536
982.572826,-740.205942,5975.544884,11843.295072
982.573155,-1184.329507,6281.983084,11177.109724
982.573485,-2220.617826,6665.030833,8808.450710
982.573815,-1480.411884,4903.011187,5699.585753
982.574144,296.082377,1838.629195,3552.988522
982.574474,2294.638420,153.219100,3849.070898
982.574804,2368.659014,383.047749,4515.256246
982.575133,1332.370696,1302.362347,5847.626942
982.575463,-740.205942,2298.286494,7846.182985
982.575792,-3330.926739,2911.162892,9770.718434
982.576122,-4737.318029,4213.525239,12879.583391
982.576452,-5477.523971,3677.258390,14878.139434
982.576781,-5403.503377,3907.087040,15100.201217
982.577111,-5107.421000,4213.525239,13693.809927
982.577441,-4441.235652,2911.162892,11103.089130
982.577770,-1998.556043,1608.800546,7476.080014
982.578100,2072.576638,306.438199,5921.647536
982.578429,4959.379811,76.609550,5699.585753
982.578759,5625.565159,1838.629195,5773.606348
982.579089,4071.132681,2681.334243,6883.915261
982.579418,1776.494261,2528.115143,8882.471304
982.579748,-1184.329507,2911.162892,12435.459826
982.580078,-4145.153275,5592.497135,15914.427753
982.580407,-5699.585753,4749.792088,17098.757260
982.580737,-6513.812290,2145.067394,14878.139434
982.581066,-5625.565159,306.438199,10807.006753
982.581396,-2590.720797,-3217.601092,7624.121203
982.581726,444.123565,-4366.744339,5847.626942
982.582055,1628.453072,-2681.334243,4737.318029
982.582385,1776.494261,0.000000,4737.318029
982.582715,1406.391290,1149.143247,5477.523971
982.583044,888.247130,1532.190996,6661.853478
982.583374,-148.041188,2757.943793,9474.636058
982.583703,-2146.597232,2221.676944,11843.295072
982.584033,-4071.132681,2145.067394,12953.603985
982.584363,-4441.235652,1455.581446,13249.686362
982.584692,-3256.906145,-536.266849,12879.583391
982.585022,-1776.494261,-1991.848295,11399.171507
982.585352,-592.164754,-1915.238745,9918.759623
982.585681,296.082377,-842.705048,8216.285956
982.586011,1110.308913,842.705048,8068.244768
982.586341,888.247130,2068.457845,7254.018232
982.586670,740.205942,1685.410096,6143.709319
982.587000,370.102971,76.609550,6513.812290
982.587329,-370.102971,306.438199,7624.121203
982.587659,-1110.308913,-153.219100,9400.615463
982.587989,-1406.391290,-1532.190996,11103.089130
982.588318,-2072.576638,-1225.752797,12361.439231
982.588648,-3108.864956,766.095498,13693.809927
982.588978,-3034.844362,2374.896044,13619.789333
982.589307,-1702.473667,1991.848295,13027.624579
982.589637,-1036.288319,1991.848295,10955.047942
982.589966,-1406.391290,2987.772442,8512.368333
982.590296,-370.102971,1532.190996,7105.977043
982.590626,888.247130,459.657299,7105.977043
982.590955,888.247130,383.047749,7179.997637
982.591285,0.000000,536.266849,7550.100608
982.591615,-1184.329507,1225.752797,8586.388927
982.591944,-1480.411884,2068.457845,10510.924376
982.592274,-1702.473667,2757.943793,11843.295072
982.592603,-1554.432478,3294.210641,12435.459826
982.592933,-2220.617826,4060.306139,11843.295072
982.593263,-2368.659014,4213.525239,10214.842000
982.593592,-1258.350101,3447.429741,7846.182985
982.593922,0.000000,1915.238745,6365.771101
982.594252,1184.329507,459.657299,5107.421000
982.594581,1110.308913,0.000000,5033.400406
982.594911,0.000000,153.219100,5625.565159
982.595240,-1184.329507,1762.019645,7772.162391
982.595570,-1332.370696,1838.629195,9844.739029
982.595900,-3108.864956,2834.553343,11695.253884
982.596229,-4589.276840,4213.525239,12435.459826
982.596559,-4367.215058,3830.477490,12287.418637
982.596889,-2220.617826,2911.162892,11991.336260
982.597218,0.000000,1685.410096,10436.903782
982.597548,740.205942,612.876398,8808.450710
982.597877,1036.288319,0.000000,7698.141797
982.598207,1480.411884,306.438199,8512.368333
982.598537,666.185348,1915.238745,9548.656652
982.598866,-1110.308913,2374.896044,9696.697840
982.599196,-2368.659014,2145.067394,9992.780217
982.599526,-2516.700203,842.705048,9844.739029
982.599855,-1776.494261,-153.219100,9992.780217
982.600185,-1110.308913,-1149.143247,9992.780217
982.600514,-296.082377,-1149.143247,9696.697840
982.600844,-370.102971,-689.485948,9918.759623
982.601174,-666.185348,76.609550,10288.862594
982.601503,-962.267725,1532.190996,10584.944971
982.601833,-740.205942,1225.752797,10658.965565
982.602163,-1036.288319,1149.143247,10288.862594
982.602492,-2294.638420,1532.190996,9178.553681
982.602822,-2146.597232,0.000000,8068.244768
982.603151,-1036.288319,-2068.457845,8068.244768
982.603481,-370.102971,-2298.286494,8660.409521
982.603811,-666.185348,-1072.533697,9548.656652
982.604140,-814.226536,0.000000,9696.697840
982.604470,-666.185348,229.828649,10436.903782
982.604800,-666.185348,689.485948,10955.047942
982.605129,-888.247130,1378.971896,11399.171507
982.605459,-1628.453072,1991.848295,10658.965565
982.605788,-1702.473667,1532.190996,9326.594869
982.606118,-1184.329507,-306.438199,8068.244768
982.606448,-296.082377,-2221.676944,7105.977043
982.606777,370.102971,-2604.724693,7328.038826
982.607107,222.061783,-2068.457845,7920.203579
982.607437,-592.164754,-383.047749,8216.285956
982.607766,-518.144159,612.876398,9548.656652
982.608096,-222.061783,1072.533697,11695.253884
982.608425,-1406.391290,2145.067394,12731.542202
982.608755,-3108.864956,3447.429741,13101.645173
982.609085,-3552.988522,3524.039291,11769.274478
982.609414,-1776.494261,1455.581446,10436.903782
982.609744,-888.247130,-842.705048,9400.615463
982.610074,74.020594,-1302.362347,8882.471304
982.610403,0.000000,-766.095498,8290.306550
982.610733,0.000000,0.000000,8068.244768
982.611062,-148.041188,1225.752797,8660.409521
982.611392,-1332.370696,1915.238745,10140.821405
982.611722,-1924.535449,3370.820191,10807.006753
982.612051,-2368.659014,3600.648841,10288.862594
982.612381,-1554.432478,2757.943793,9326.594869
982.612711,0.000000,1685.410096,8734.430116
982.613040,444.123565,1149.143247,8660.409521
982.613370,740.205942,689.485948,8586.388927
982.613699,222.061783,1378.971896,8142.265362
982.614029,0.000000,2298.286494,8586.388927
982.614359,-592.164754,2681.334243,9252.574275
982.614688,-1332.370696,2987.772442,10140.821405
982.615018,-2516.700203,3370.820191,9622.677246
982.615348,-2516.700203,2834.553343,8956.491898
982.615677,-1480.411884,2298.286494,8216.285956
982.616007,-962.267725,1455.581446,8142.265362
982.616336,0.000000,383.047749,8438.347739
982.616666,-666.185348,919.314598,8956.491898
982.616996,-1332.370696,2681.334243,9474.636058
982.617325,-1406.391290,3140.991542,10436.903782
982.617655,-1628.453072,2987.772442,10510.924376
982.617985,-2294.638420,2528.115143,9622.677246
982.618314,-1998.556043,1225.752797,9104.533087
982.618644,-1332.370696,689.485948,8438.347739
982.618973,-518.144159,919.314598,8068.244768
982.619303,74.020594,153.219100,7846.182985
982.619633,296.082377,-842.705048,7772.162391
982.619962,592.164754,-229.828649,7624.121203
982.620292,370.102971,76.609550,9104.533087
982.620622,444.123565,0.000000,10658.965565
982.620951,-962.267725,842.705048,11769.274478
982.621281,-2516.700203,842.705048,11843.295072
982.621610,-1850.514855,-153.219100,11177.109724
982.621940,-1332.370696,-766.095498,10807.006753
982.622270,-518.144159,-1532.190996,10436.903782
982.622599,-222.061783,-1915.238745,10140.821405
982.622929,-296.082377,-2298.286494,10140.821405
982.623259,-370.102971,-1302.362347,9770.718434
982.623588,-444.123565,0.000000,10658.965565
982.623918,-962.267725,-76.609550,11103.089130
982.624247,-2072.576638,383.047749,11029.068536
982.624577,-2664.741391,153.219100,11029.068536
982.624907,-2516.700203,-689.485948,9770.718434
982.625236,-1184.329507,-1762.019645,9178.553681
982.625566,-518.144159,-3064.381992,8734.430116
982.625896,-444.123565,-2604.724693,8364.327145
982.626225,-592.164754,-2068.457845,8068.244768
982.626555,0.000000,-1302.362347,9104.533087
982.626884,0.000000,306.438199,10288.862594
982.627214,-962.267725,1991.848295,11029.068536
982.627544,-2368.659014,2681.334243,10658.965565
982.627873,-2146.597232,1608.800546,9400.615463
982.628203,-518.144159,536.266849,8808.450710
982.628533,592.164754,-229.828649,8512.368333
982.628862,740.205942,-1072.533697,8142.265362
982.629192,296.082377,0.000000,8660.409521
982.629521,-370.102971,1225.752797,9474.636058
982.629851,-740.205942,2068.457845,10140.821405
982.630181,-1110.308913,2145.067394,10510.924376
982.630510,-1628.453072,2681.334243,10362.883188
982.630840,-1776.494261,2145.067394,9474.636058
982.631170,-1628.453072,1838.629195,8290.306550
982.631499,-518.144159,1608.800546,8364.327145
982.631829,296.082377,919.314598,8586.388927
982.632158,444.123565,1149.143247,8660.409521
982.632488,-296.082377,2374.896044,9030.512492
982.632818,-666.185348,2604.724693,9400.615463
982.633147,-962.267725,2451.505594,10066.800811
982.633477,-1998.556043,2834.553343,10881.027347
982.633807,-2664.741391,3600.648841,10807.006753
982.634136,-3330.926739,3830.477490,9770.718434
982.634466,-1998.556043,2298.286494,9030.512492
982.634795,-1258.350101,1378.971896,8808.450710
982.635125,-518.144159,1072.533697,8882.471304
982.635455,-222.061783,1838.629195,8808.450710
982.635784,148.041188,1838.629195,8290.306550
982.636114,0.000000,2298.286494,8882.471304
982.636444,-296.082377,2604.724693,9992.780217
982.636773,-1554.432478,3370.820191,10288.862594
982.637103,-2072.576638,2604.724693,9474.636058
982.637432,-1036.288319,1149.143247,8068.244768
982.637762,0.000000,612.876398,8142.265362
982.638092,592.164754,-536.266849,8808.450710
982.638421,518.144159,-919.314598,8290.306550
982.638751,-148.041188,-229.828649,7920.203579
982.639081,-148.041188,1149.143247,8808.450710
982.639410,-518.144159,1225.752797,10584.944971
982.639740,-1406.391290,2145.067394,11843.295072
982.640069,-2368.659014,1915.238745,11621.233289
982.640399,-2590.720797,766.095498,10436.903782
982.640729,-2146.597232,0.000000,9252.574275
982.641058,-1036.288319,-1455.581446,9030.512492
982.641388,-592.164754,-2911.162892,9178.553681
982.641718,-1036.288319,-2604.724693,9548.656652
982.642047,-1702.473667,-995.924147,9696.697840
982.642377,-1554.432478,0.000000,10807.006753
982.642706,-1110.308913,0.000000,11399.171507
982.643036,-2368.659014,612.876398,11103.089130
982.643366,-2442.679609,0.000000,10436.903782
982.643695,-1258.350101,-919.314598,9474.636058
982.644025,0.000000,-1608.800546,8956.491898
982.644355,888.247130,-2221.676944,8586.388927
982.644684,814.226536,-2451.505594,8364.327145
982.645014,518.144159,-1149.143247,8956.491898
982.645343,222.061783,383.047749,9770.718434
982.645673,222.061783,1149.143247,10881.027347
982.646003,-518.144159,1072.533697,11103.089130
982.646332,-2146.597232,1455.581446,11177.109724
982.646662,-2590.720797,766.095498,10066.800811
982.646992,-2368.659014,0.000000,8882.471304
982.647321,-1036.288319,-1225.752797,9030.512492
982.647651,-148.041188,-1608.800546,9252.574275
982.647980,-296.082377,-842.705048,9326.594869
982.648310,-888.247130,766.095498,9696.697840
982.648640,-1184.329507,2068.457845,10140.821405
982.648969,-1036.288319,2221.676944,10658.965565
982.649299,-1702.473667,2451.505594,10881.027347
982.649629,-2146.597232,3217.601092,10584.944971
982.649958,-1850.514855,2451.505594,8882.471304
982.650288,-814.226536,1455.581446,8364.327145
982.650618,74.020594,689.485948,8068.244768
982.650947,518.144159,459.657299,8142.265362
982.651277,444.123565,1072.533697,8660.409521
982.651606,0.000000,2834.553343,9178.553681
982.651936,-518.144159,3600.648841,9844.739029
982.652266,-1110.308913,3753.867940,10362.883188
982.652595,-2072.576638,4213.525239,10214.842000
982.652925,-2590.720797,4366.744339,9548.656652
982.653255,-1776.494261,3370.820191,8068.244768
982.653584,-740.205942,1685.410096,7254.018232
982.653914,148.041188,1149.143247,7476.080014
982.654243,-444.123565,1685.410096,7772.162391
982.654573,-1184.329507,2451.505594,7772.162391
982.654903,-888.247130,3140.991542,8808.450710
982.655232,-1036.288319,3600.648841,10140.821405
982.655562,-2294.638420,4136.915689,10732.986159
982.655892,-2738.761985,3370.820191,9770.718434
982.656221,-2146.597232,1685.410096,9178.553681
982.656551,-962.267725,536.266849,8290.306550
982.656880,370.102971,229.828649,8734.430116
982.657210,518.144159,689.485948,9178.553681
982.657540,0.000000,1302.362347,9030.512492
982.657869,0.000000,1455.581446,9030.512492
982.658199,0.000000,1608.800546,10362.883188
982.658529,-962.267725,2911.162892,11029.068536
982.658858,-1924.535449,2451.505594,10955.047942
982.659188,-2368.659014,1072.533697,9696.697840
982.659517,-1554.432478,-689.485948,9104.533087
982.659847,-148.041188,-2068.457845,9400.615463
982.660177,-296.082377,-1608.800546,9400.615463
982.660506,-1036.288319,-1225.752797,9474.636058
982.660836,-1258.350101,-612.876398,9696.697840
982.661166,-370.102971,-153.219100,10732.986159
982.661495,-444.123565,689.485948,11399.171507
982.661825,-1702.473667,383.047749,10584.944971
982.662154,-2294.638420,459.657299,10066.800811
982.662484,-2368.659014,-689.485948,9400.615463
982.662814,-1480.411884,-1762.019645,9474.636058
982.663143,-740.205942,-2221.676944,9770.718434
982.663473,-518.144159,-2451.505594,9326.594869
982.663803,-1036.288319,-1762.019645,8586.388927
982.664132,-888.247130,-1225.752797,9178.553681
982.664462,0.000000,-689.485948,10510.924376
982.664791,-592.164754,0.000000,11325.150913
982.665121,-2220.617826,842.705048,11103.089130
982.665451,-2960.823768,536.266849,10732.986159
982.665780,-2072.576638,306.438199,9992.780217
982.666110,-666.185348,-306.438199,9770.718434
982.666440,222.061783,-1455.581446,9178.553681
982.666769,222.061783,-1302.362347,8216.285956
982.667099,0.000000,0.000000,8438.347739
982.667428,740.205942,1455.581446,9104.533087
982.667758,518.144159,1915.238745,10436.903782
982.668088,-888.247130,3447.429741,10955.047942
982.668417,-1924.535449,3753.867940,10510.924376
982.668747,-1702.473667,3140.991542,9770.718434
982.669077,-814.226536,2451.505594,8586.388927
982.669406,-296.082377,919.314598,8364.327145
982.669736,0.000000,306.438199,8512.368333
982.670065,-370.102971,1225.752797,8734.430116
982.670395,-740.205942,2987.772442,8586.388927
982.670725,-962.267725,3217.601092,9030.512492
982.671054,-1110.308913,4060.306139,9770.718434
982.671384,-2442.679609,4903.011187,10362.883188
982.671714,-2812.782580,5439.278036,9918.759623
982.672043,-2146.597232,4826.401637,8512.368333
982.672373,-1184.329507,3140.991542,7031.956449
982.672702,-296.082377,1762.019645,6957.935855
982.673032,148.041188,1608.800546,8216.285956
982.673362,-148.041188,3294.210641,8364.327145
982.673691,-814.226536,4060.306139,8438.347739
982.674021,-962.267725,3294.210641,9326.594869
982.674351,-1110.308913,3753.867940,10881.027347
982.674680,-1924.535449,4443.353888,11621.233289
982.675010,-2146.597232,3983.696590,9178.553681
982.675339,-1036.288319,1838.629195,7624.121203
982.675669,592.164754,306.438199,8290.306550
982.675999,444.123565,-383.047749,9474.636058
982.676328,-592.164754,1838.629195,9252.574275
982.676658,-1332.370696,1915.238745,9030.512492
982.676988,-1110.308913,1608.800546,9844.739029
982.677317,-1554.432478,2145.067394,11177.109724
982.677647,-2368.659014,1915.238745,11621.233289
982.677977,-2886.803174,536.266849,10140.821405
982.678306,-2294.638420,229.828649,9104.533087
982.678636,-1480.411884,-612.876398,8290.306550
982.678966,-370.102971,-2068.457845,8882.471304
982.679295,0.000000,-2221.676944,9770.718434
982.679625,-666.185348,-229.828649,9474.636058
982.679955,-1036.288319,536.266849,9474.636058
982.680284,-444.123565,-306.438199,10658.965565
982.680614,-814.226536,-919.314598,11029.068536
982.680944,-2220.617826,-383.047749,10807.006753
982.681273,-2442.679609,-689.485948,9400.615463
982.681603,-1406.391290,-1608.800546,9474.636058
982.681933,-740.205942,-2757.943793,9622.677246
982.682262,-666.185348,-2757.943793,9474.636058
982.682592,-814.226536,-2604.724693,9548.656652
982.682922,-444.123565,-1608.800546,9696.697840
982.683251,888.247130,-383.047749,10288.862594
982.683581,592.164754,-153.219100,11029.068536
982.683911,-962.267725,383.047749,11177.109724
982.684240,-2294.638420,995.924147,11473.192101
982.684570,-2368.659014,919.314598,10881.027347
982.684900,-1406.391290,383.047749,9474.636058
982.685229,-740.205942,-1608.800546,8734.430116
982.685559,-74.020594,-3447.429741,8438.347739
982.685889,-444.123565,-2451.505594,8734.430116
982.686218,-888.247130,306.438199,9474.636058
982.686548,-592.164754,2068.457845,10066.800811
982.686878,-1332.370696,2528.115143,10362.883188
982.687207,-2072.576638,3447.429741,10214.842000
982.687537,-1702.473667,2834.553343,9992.780217
982.687867,0.000000,1762.019645,8956.491898
982.688196,370.102971,1915.238745,8660.409521
982.688526,0.000000,1302.362347,8660.409521
982.688856,-666.185348,1608.800546,8734.430116
982.689185,-740.205942,1838.629195,9400.615463
982.689515,-1036.288319,2757.943793,10362.883188
982.689845,-1924.535449,3753.867940,10807.006753
982.690174,-2960.823768,4366.744339,10140.821405
982.690504,-3404.947333,4060.306139,9844.739029
982.690833,-2294.638420,3447.429741,8660.409521
982.691163,-740.205942,2834.553343,7698.141797
982.691493,370.102971,2298.286494,7179.997637
982.691822,222.061783,2145.067394,7402.059420
982.692152,-222.061783,3600.648841,8142.265362
982.692482,-666.185348,4366.744339,8290.306550
982.692811,-444.123565,4213.525239,9474.636058
982.693141,-962.267725,4443.353888,10362.883188
982.693471,-2368.659014,4979.620737,10214.842000
982.693800,-2738.761985,3524.039291,8808.450710
982.694130,-1850.514855,1608.800546,8216.285956
982.694460,-518.144159,995.924147,8586.388927
982.694789,-370.102971,995.924147,9030.512492
982.695119,-1110.308913,1608.800546,9104.533087
982.695449,-1850.514855,1991.848295,8438.347739
982.695778,-1406.391290,1991.848295,9474.636058
982.696108,-1554.432478,2145.067394,9770.718434
982.696438,-1702.473667,2451.505594,10658.965565
982.696767,-2294.638420,1915.238745,10436.903782
982.697097,-1776.494261,995.924147,9548.656652
982.697427,-1258.350101,229.828649,8734.430116
982.697756,-222.061783,-919.314598,9030.512492
982.698086,0.000000,-1149.143247,9696.697840
982.698416,-370.102971,-153.219100,9548.656652
982.698745,-296.082377,689.485948,9474.636058
982.699075,0.000000,-306.438199,10214.842000
982.699405,-592.164754,-383.047749,10658.965565
982.699734,-1776.494261,0.000000,10807.006753
982.700064,-2220.617826,-459.657299,10214.842000
982.700394,-1776.494261,-1532.190996,9474.636058
982.700723,-740.205942,-2681.334243,9030.512492
982.701053,0.000000,-3447.429741,9474.636058
982.701383,-962.267725,-3217.601092,9696.697840
982.701712,-1554.432478,-1685.410096,9696.697840
982.702042,-1184.329507,-842.705048,10658.965565
982.702372,-1406.391290,-1302.362347,11843.295072
982.702701,-2442.679609,-306.438199,11177.109724
982.703031,-3701.029710,76.609550,10807.006753
982.703361,-2738.761985,-1532.190996,9918.759623
982.703690,-1332.370696,-2451.505594,9770.718434
982.704020,-444.123565,-2528.115143,9548.656652
982.704350,-444.123565,-2298.286494,9326.594869
982.704679,-814.226536,-2068.457845,9252.574275
982.705009,-740.205942,-229.828649,9992.780217
982.705339,-592.164754,842.705048,11029.068536
982.705668,-1184.329507,1915.238745,11251.130318
982.705998,-1850.514855,2451.505594,10658.965565
982.706328,-1554.432478,1608.800546,9474.636058
982.706657,-592.164754,306.438199,8142.265362
982.706987,444.123565,-842.705048,7402.059420
982.707316,666.185348,-1072.533697,7846.182985
982.707646,148.041188,536.266849,8586.388927
982.707976,-1258.350101,1991.848295,8882.471304
982.708305,-1406.391290,2834.553343,9992.780217
982.708635,-1702.473667,2757.943793,10658.965565
982.708965,-2516.700203,3294.210641,10510.924376
982.709294,-2738.761985,3370.820191,9918.759623
982.709624,-1628.453072,2911.162892,9474.636058
982.709954,-370.102971,2757.943793,8438.347739
982.710283,0.000000,1991.848295,8068.244768
982.710613,148.041188,2145.067394,8068.244768
982.710943,0.000000,3677.258390,8808.450710
982.711272,-666.185348,4979.620737,9030.512492
982.711602,-1110.308913,4979.620737,9400.615463
982.711932,-1702.473667,4596.572988,9474.636058
982.712261,-2368.659014,3907.087040,9474.636058
982.712591,-2738.761985,2681.334243,8512.368333
982.712921,-2294.638420,2298.286494,7698.141797
982.713250,-740.205942,1225.752797,7624.121203
982.713580,-592.164754,995.924147,8142.265362
982.713910,-1036.288319,1378.971896,8290.306550
982.714239,-962.267725,1838.629195,8734.430116
982.714569,-444.123565,2681.334243,9622.677246
982.714899,-518.144159,3524.039291,10881.027347
982.715228,-1776.494261,4060.306139,10807.006753
982.715558,-2368.659014,2834.553343,10288.862594
982.715888,-1850.514855,1378.971896,9622.677246
982.716217,-888.247130,536.266849,8808.450710
982.716547,296.082377,-459.657299,8882.471304
982.716877,148.041188,-1762.019645,8956.491898
982.717206,-962.267725,-766.095498,9252.574275
982.717536,-1258.350101,-459.657299,9474.636058
982.717866,-1332.370696,-229.828649,10584.944971
982.718195,-1480.411884,229.828649,11325.150913
982.718525,-2812.782580,766.095498,11177.109724
982.718855,-2812.782580,-306.438199,9992.780217
982.719184,-1702.473667,-1762.019645,8808.450710
982.719514,-222.061783,-2834.553343,8364.327145
982.719844,518.144159,-3447.429741,8512.368333
982.720173,0.000000,-2681.334243,9104.533087
982.720503,-1036.288319,-1838.629195,9770.718434
982.720833,-1332.370696,-919.314598,10955.047942
982.721162,-1702.473667,-766.095498,11695.253884
982.721492,-2442.679609,0.000000,11917.315666
982.721822,-2368.659014,-229.828649,11325.150913
982.722151,-2294.638420,-1455.581446,9918.759623
982.722481,-592.164754,-2221.676944,9030.512492
982.722811,740.205942,-2987.772442,8808.450710
982.723140,518.144159,-3140.991542,9104.533087
982.723470,0.000000,-1225.752797,9400.615463
982.723800,-74.020594,306.438199,10732.986159
982.724129,-814.226536,919.314598,10955.047942
982.724459,-1702.473667,1149.143247,10732.986159
982.724788,-2368.659014,612.876398,10140.821405
982.725118,-1924.535449,306.438199,9844.739029
982.725448,-888.247130,-612.876398,8512.368333
982.725777,-296.082377,-1072.533697,7920.203579
982.726107,0.000000,-1915.238745,7994.224174
982.726437,-518.144159,-153.219100,8956.491898
982.726766,-1110.308913,2145.067394,9918.759623
982.727096,-1184.329507,3064.381992,10658.965565
982.727426,-1258.350101,3294.210641,10955.047942
982.727755,-1924.535449,3447.429741,11103.089130
982.728085,-2442.679609,3447.429741,9992.780217
982.728415,-2072.576638,2298.286494,8882.471304
982.728744,-666.185348,1991.848295,8364.327145
982.729074,148.041188,1991.848295,7920.203579
982.729404,-296.082377,1915.238745,8290.306550
982.729733,-740.205942,2681.334243,8512.368333
982.730063,-1036.288319,3753.867940,8734.430116
982.730393,-518.144159,4366.744339,9030.512492
982.730722,-666.185348,4290.134789,9474.636058
982.731052,-2146.597232,4596.572988,9696.697840
