#time,accel_x,accel_y,accel_z
1071.487502,-1036.288319,842.705048,9474.636058
1071.487832,-1110.308913,842.705048,9474.636058
1071.488161,-1036.288319,1149.143247,9474.636058
1071.488491,-1036.288319,766.095498,9474.636058
1071.488821,-1036.288319,76.609550,9252.574275
1071.489151,-1110.308913,766.095498,9474.636058
1071.489480,-1110.308913,1072.533697,9548.656652
1071.489810,-1110.308913,842.705048,9696.697840
1071.490140,-1184.329507,995.924147,9622.677246
1071.490470,-962.267725,919.314598,9474.636058
1071.490799,-962.267725,995.924147,9326.594869
1071.491129,-1110.308913,842.705048,9696.697840
1071.491459,-962.267725,766.095498,9622.677246
1071.491788,-888.247130,612.876398,9696.697840
1071.492118,-666.185348,995.924147,9548.656652
1071.492448,-1184.329507,919.314598,9770.718434
1071.492778,-1184.329507,689.485948,9622.677246
1071.493107,-1110.308913,919.314598,9548.656652
1071.493437,-962.267725,995.924147,9548.656652
1071.493767,-962.267725,919.314598,9548.656652
1071.494097,-962.267725,995.924147,9400.615463
1071.494426,-1036.288319,995.924147,9696.697840
1071.494756,-962.267725,919.314598,9844.739029
1071.495086,-1110.308913,842.705048,9400.615463
1071.495416,-1110.308913,1149.143247,9622.677246
1071.495745,-1332.370696,842.705048,9548.656652
1071.496075,-1110.308913,1149.143247,9770.718434
1071.496405,-1036.288319,995.924147,9474.636058
1071.496735,-1184.329507,919.314598,9474.636058
1071.497064,-888.247130,689.485948,9474.636058
1071.497394,-1036.288319,766.095498,9400.615463
1071.497724,-888.247130,1225.752797,9548.656652
1071.498054,-1184.329507,919.314598,9252.574275
1071.498383,-962.267725,995.924147,9474.636058
1071.498713,-962.267725,995.924147,9548.656652
1071.499043,-1110.308913,1072.533697,9400.615463
1071.499373,-740.205942,1225.752797,9400.615463
1071.499702,-814.226536,842.705048,9474.636058
1071.500032,-1036.288319,842.705048,9400.615463
1071.500362,-1184.329507,842.705048,9474.636058
1071.500692,-814.226536,766.095498,9622.677246
1071.501021,-1036.288319,919.314598,9474.636058
1071.501351,-962.267725,536.266849,9178.553681
1071.501681,-1258.350101,689.485948,9474.636058
1071.502011,-962.267725,919.314598,9474.636058
1071.502340,-1258.350101,689.485948,9696.697840
1071.502670,-1258.350101,1072.533697,9400.615463
1071.503000,-1110.308913,842.705048,9252.574275
1071.503329,-1258.350101,842.705048,9474.636058
1071.503659,-1036.288319,919.314598,9844.739029
1071.503989,-1110.308913,766.095498,9844.739029
1071.504319,-888.247130,766.095498,9622.677246
1071.504648,-666.185348,1149.143247,9474.636058
1071.504978,-1110.308913,689.485948,9474.636058
1071.505308,-962.267725,919.314598,9548.656652
1071.505638,-962.267725,995.924147,9474.636058
1071.505967,-1036.288319,995.924147,9770.718434
1071.506297,-1258.350101,842.705048,9622.677246
1071.506627,-1036.288319,919.314598,9622.677246
1071.506957,-1036.288319,919.314598,9474.636058
1071.507286,-888.247130,1225.752797,9770.718434
1071.507616,-1036.288319,842.705048,9400.615463
1071.507946,-962.267725,689.485948,9474.636058
1071.508276,-592.164754,842.705048,9474.636058
1071.508605,-1110.308913,842.705048,9474.636058
1071.508935,-1110.308913,1149.143247,9548.656652
1071.509265,-888.247130,1149.143247,9400.615463
1071.509595,-1184.329507,995.924147,9252.574275
1071.509924,-740.205942,995.924147,9474.636058
1071.510254,-962.267725,919.314598,9622.677246
1071.510584,-888.247130,919.314598,9252.574275
1071.510914,-148.041188,842.705048,8882.471304
1071.511243,740.205942,612.876398,9104.533087
1071.511573,1184.329507,766.095498,9474.636058
1071.511903,962.267725,306.438199,9326.594869
1071.512233,296.082377,612.876398,9622.677246
1071.512562,-296.082377,1149.143247,10362.883188
1071.512892,-518.144159,1072.533697,10510.924376
1071.513222,-666.185348,919.314598,10658.965565
1071.513552,-222.061783,153.219100,9844.739029
1071.513881,296.082377,0.000000,9474.636058
1071.514211,1184.329507,153.219100,9326.594869
1071.514541,1998.556043,153.219100,9178.553681
1071.514871,2738.761985,459.657299,8882.471304
1071.515200,3478.967927,1149.143247,8734.430116
1071.515530,3552.988522,1762.019645,9104.533087
1071.515860,3701.029710,1915.238745,9400.615463
1071.516189,3478.967927,1302.362347,9918.759623
1071.516519,2738.761985,1072.533697,10362.883188
1071.516849,1628.453072,1378.971896,10584.944971
1071.517179,814.226536,612.876398,10881.027347
1071.517508,1258.350101,0.000000,10732.986159
1071.517838,1480.411884,-383.047749,10214.842000
1071.518168,1998.556043,-306.438199,9474.636058
1071.518498,2960.823768,76.609550,8956.491898
1071.518827,3923.091493,766.095498,8882.471304
1071.519157,4145.153275,1455.581446,9178.553681
1071.519487,3849.070898,2451.505594,9622.677246
1071.519817,3034.844362,2911.162892,10140.821405
1071.520146,1258.350101,3140.991542,10214.842000
1071.520476,0.000000,2528.115143,9918.759623
1071.520806,-1554.432478,1991.848295,9474.636058
1071.521136,-1702.473667,536.266849,8956.491898
1071.521465,-518.144159,-459.657299,7550.100608
1071.521795,1110.308913,-1225.752797,6735.874072
1071.522125,2664.741391,-383.047749,5995.668130
1071.522455,4145.153275,-153.219100,6143.709319
1071.522784,4441.235652,1302.362347,7772.162391
1071.523114,3478.967927,3600.648841,9696.697840
1071.523444,2220.617826,5056.230287,11325.150913
1071.523774,740.205942,4749.792088,11991.336260
1071.524103,148.041188,3064.381992,12657.521608
1071.524433,-1332.370696,1149.143247,12361.439231
1071.524763,-1850.514855,-1302.362347,11769.274478
1071.525093,-1776.494261,-2604.724693,11029.068536
1071.525422,-1036.288319,-2757.943793,9474.636058
1071.525752,370.102971,-3064.381992,8734.430116
1071.526082,2220.617826,-1838.629195,8142.265362
1071.526412,3775.050304,-306.438199,7402.059420
1071.526741,4515.256246,1302.362347,7105.977043
1071.527071,4885.359217,2834.553343,8142.265362
1071.527401,4737.318029,3907.087040,9104.533087
1071.527731,4589.276840,4596.572988,10658.965565
1071.528060,2960.823768,3830.477490,11251.130318
1071.528390,2072.576638,2681.334243,11843.295072
1071.528720,740.205942,1302.362347,11621.233289
1071.529049,-222.061783,0.000000,10955.047942
1071.529379,-962.267725,-1302.362347,10658.965565
1071.529709,-1110.308913,-1915.238745,10732.986159
1071.530039,-962.267725,-1838.629195,10658.965565
1071.530368,-592.164754,-842.705048,10436.903782
1071.530698,222.061783,-995.924147,9104.533087
1071.531028,1702.473667,383.047749,7698.141797
1071.531358,3478.967927,689.485948,7698.141797
1071.531687,5107.421000,766.095498,7328.038826
1071.532017,5773.606348,766.095498,7254.018232
1071.532347,5551.544565,1072.533697,8068.244768
1071.532677,5329.482782,1455.581446,9326.594869
1071.533006,3627.009116,2451.505594,10140.821405
1071.533336,2516.700203,2604.724693,10436.903782
1071.533666,2146.597232,2221.676944,10584.944971
1071.533996,1998.556043,1838.629195,10436.903782
1071.534325,1850.514855,1915.238745,10214.842000
1071.534655,2294.638420,1378.971896,9104.533087
1071.534985,2072.576638,306.438199,8586.388927
1071.535315,1998.556043,0.000000,8290.306550
1071.535644,1776.494261,383.047749,8660.409521
1071.535974,1480.411884,689.485948,9030.512492
1071.536304,740.205942,459.657299,10066.800811
1071.536634,-296.082377,0.000000,10214.842000
1071.536963,-1258.350101,153.219100,10807.006753
1071.537293,-962.267725,0.000000,11547.212695
1071.537623,-740.205942,0.000000,11547.212695
1071.537953,-518.144159,459.657299,10955.047942
1071.538282,-296.082377,306.438199,9474.636058
1071.538612,1776.494261,-306.438199,8956.491898
1071.538942,3923.091493,383.047749,8512.368333
1071.539272,5625.565159,2298.286494,8364.327145
1071.539601,7254.018232,3677.258390,7920.203579
1071.539931,8290.306550,2757.943793,8586.388927
1071.540261,7772.162391,3677.258390,9918.759623
1071.540590,5847.626942,4903.011187,10881.027347
1071.540920,3404.947333,4213.525239,11843.295072
1071.541250,888.247130,1838.629195,13249.686362
1071.541580,-2072.576638,383.047749,14137.933492
1071.541909,-5181.441594,-459.657299,13101.645173
1071.542239,-6883.915261,-1608.800546,11547.212695
1071.542569,-6957.935855,-1915.238745,8216.285956
1071.542899,-4441.235652,-1838.629195,3330.926739
1071.543228,962.267725,-3217.601092,296.082377
1071.543558,7624.121203,-4826.401637,1184.329507
1071.543888,9400.615463,-612.876398,4071.132681
1071.544218,7402.059420,5056.230287,6735.874072
1071.544547,5551.544565,7890.783629,9030.512492
1071.544877,4663.297435,8886.707777,11991.336260
1071.545207,2960.823768,8810.098227,13619.789333
1071.545537,-148.041188,4596.572988,14656.077652
1071.545866,-2738.761985,-1302.362347,16210.510130
1071.546196,-4589.276840,-1838.629195,16284.530724
1071.546526,-5699.585753,-1532.190996,13767.830521
1071.546856,-3849.070898,-4213.525239,10955.047942
1071.547185,888.247130,-6128.763984,8290.306550
1071.547515,5847.626942,-5056.230287,4071.132681
1071.547845,10955.047942,-3140.991542,1332.370696
1071.548175,14211.954086,-1072.533697,3182.885551
1071.548504,13471.748144,3677.258390,7254.018232
1071.548834,7772.162391,7890.783629,11251.130318
1071.549164,1406.391290,8427.050478,13471.748144
1071.549494,-2738.761985,8273.831378,13989.892304
1071.549823,-3034.844362,4213.525239,14211.954086
1071.550153,-1924.535449,-995.924147,12953.603985
1071.550483,-1554.432478,-4903.011187,9548.656652
1071.550813,-370.102971,-7277.907231,5773.606348
1071.551142,1258.350101,-6818.249932,4589.276840
1071.551472,1480.411884,-4060.306139,7105.977043
1071.551802,592.164754,689.485948,9474.636058
1071.552132,-444.123565,3830.477490,10510.924376
1071.552461,888.247130,5209.449386,10584.944971
1071.552791,3182.885551,4673.182538,11695.253884
1071.553121,4145.153275,2145.067394,12509.480420
1071.553450,2738.761985,383.047749,11621.233289
1071.553780,148.041188,-1762.019645,11399.171507
1071.554110,-1924.535449,-919.314598,11177.109724
1071.554440,-2368.659014,0.000000,10066.800811
1071.554769,-962.267725,-2298.286494,6735.874072
1071.555099,3034.844362,-4903.011187,4367.215058
1071.555429,7254.018232,-3907.087040,4441.235652
1071.555759,10881.027347,306.438199,5625.565159
1071.556088,11473.192101,3753.867940,7031.956449
1071.556418,8734.430116,6052.154434,8438.347739
1071.556748,4441.235652,7507.735880,10881.027347
1071.557078,740.205942,7890.783629,14137.933492
1071.557407,-1184.329507,5439.278036,17172.777854
1071.557737,-2664.741391,2221.676944,17394.839637
1071.558067,-5625.565159,-1378.971896,13989.892304
1071.558397,-7772.162391,-5132.839837,10584.944971
1071.558726,-6957.935855,-6971.469032,9992.780217
1071.559056,-5107.421000,-5898.935335,9252.574275
1071.559386,-4071.132681,-2911.162892,6217.729913
1071.559715,-740.205942,-536.266849,1924.535449
1071.560045,5329.482782,76.609550,1332.370696
1071.560374,12065.356855,612.876398,4515.256246
1071.560704,13545.768739,4826.401637,7550.100608
1071.561034,11251.130318,9499.584175,8808.450710
1071.561363,7550.100608,11261.603821,10436.903782
1071.561693,4737.318029,10342.289223,13619.789333
1071.562022,2146.597232,7277.907231,15470.304188
1071.562352,814.226536,2604.724693,15766.386565
1071.562682,-444.123565,-2374.896044,13989.892304
1071.563011,-3108.864956,-2221.676944,12139.377449
1071.563341,-5255.462188,-3447.429741,11325.150913
1071.563670,-6069.688724,-4213.525239,11547.212695
1071.564000,-5847.626942,-766.095498,9030.512492
1071.564330,-3182.885551,766.095498,4589.276840
1071.564659,3182.885551,0.000000,148.041188
1071.564989,10140.821405,0.000000,-814.226536
1071.565318,13323.706956,76.609550,1924.535449
1071.565648,9844.739029,2528.115143,6217.729913
1071.565978,3330.926739,7890.783629,10510.924376
1071.566307,-296.082377,11644.651570,12731.542202
1071.566637,-740.205942,7737.564530,14508.036463
1071.566966,-1554.432478,1838.629195,15692.365970
1071.567296,-2960.823768,-3294.210641,15766.386565
1071.567625,-4441.235652,-7124.688131,13693.809927
1071.567955,-7624.121203,-5362.668486,11029.068536
1071.568285,-8956.491898,-2068.457845,10066.800811
1071.568614,-6217.729913,-2068.457845,9104.533087
1071.568944,0.000000,-3217.601092,7105.977043
1071.569273,5773.606348,-3907.087040,5847.626942
1071.569603,8734.430116,-919.314598,5773.606348
1071.569933,7179.997637,4213.525239,5033.400406
1071.570262,4145.153275,6205.373534,8438.347739
1071.570592,2516.700203,6665.030833,14211.954086
1071.570921,2220.617826,7660.954980,16950.716072
1071.571251,518.144159,5132.839837,15026.180623
1071.571581,-4293.194464,0.000000,13101.645173
1071.571910,-9770.718434,-1455.581446,10362.883188
1071.572240,-10955.047942,-2757.943793,8734.430116
1071.572569,-7179.997637,-7584.345430,9178.553681
1071.572899,-3478.967927,-7431.126331,8734.430116
1071.573229,-3256.906145,-3370.820191,6957.935855
1071.573558,-2516.700203,-689.485948,5255.462188
1071.573888,814.226536,-1378.971896,4737.318029
1071.574217,3478.967927,842.705048,7105.977043
1071.574547,4071.132681,5592.497135,11177.109724
1071.574877,4367.215058,10035.851024,14063.912898
1071.575206,2738.761985,8580.269578,15174.221811
1071.575536,-740.205942,5515.887586,13397.727550
1071.575865,-4737.318029,3294.210641,8808.450710
1071.576195,-4663.297435,-459.657299,6661.853478
1071.576525,-1850.514855,-3217.601092,7402.059420
1071.576854,0.000000,-3370.820191,7698.141797
1071.577184,592.164754,-3064.381992,5403.503377
1071.577513,962.267725,-3830.477490,3627.009116
1071.577843,1110.308913,-2298.286494,2960.823768
1071.578173,1998.556043,2528.115143,4885.359217
1071.578502,2960.823768,4596.572988,10362.883188
1071.578832,3330.926739,7354.516781,14656.077652
1071.579161,1406.391290,8810.098227,14285.974681
1071.579491,-2516.700203,5132.839837,13101.645173
1071.579821,-4737.318029,1072.533697,13989.892304
1071.580150,-7105.977043,383.047749,14063.912898
1071.580480,-9252.574275,0.000000,11769.274478
1071.580809,-8734.430116,-3447.429741,8142.265362
1071.581139,-3256.906145,-6128.763984,5477.523971
1071.581469,3256.906145,-7124.688131,4885.359217
1071.581798,5477.523971,-5669.106685,4589.276840
1071.582128,4515.256246,153.219100,4441.235652
1071.582457,3034.844362,7277.907231,6883.915261
1071.582787,4219.173869,8810.098227,12435.459826
1071.583117,4441.235652,9116.536426,17024.736666
1071.583446,518.144159,9039.926876,17838.963202
1071.583776,-3923.091493,5822.325785,15100.201217
1071.584105,-7105.977043,2374.896044,12731.542202
1071.584435,-8068.244768,-1072.533697,11843.295072
1071.584764,-6439.791695,-5898.935335,10288.862594
1071.585094,-3997.112087,-8580.269578,7179.997637
1071.585424,-2146.597232,-7124.688131,5773.606348
1071.585753,74.020594,-3983.696590,3775.050304
1071.586083,2664.741391,-842.705048,2886.803174
1071.586412,5403.503377,2145.067394,4885.359217
1071.586742,6957.935855,5669.106685,8660.409521
1071.587072,6217.729913,9959.241474,11769.274478
1071.587401,2590.720797,10418.898773,14359.995275
1071.587731,-3775.050304,8120.612279,14508.036463
1071.588060,-9326.594869,5286.058936,12435.459826
1071.588390,-9844.739029,76.609550,10955.047942
1071.588720,-5921.647536,-6128.763984,9770.718434
1071.589049,-3256.906145,-8580.269578,6217.729913
1071.589379,-1998.556043,-8733.488677,3627.009116
1071.589708,-1036.288319,-7814.174080,2220.617826
1071.590038,1702.473667,-3983.696590,2886.803174
1071.590368,4885.359217,1149.143247,6069.688724
1071.590697,6661.853478,6128.763984,10510.924376
1071.591027,6291.750507,10418.898773,13767.830521
1071.591356,2294.638420,10648.727422,14582.057057
1071.591686,-2664.741391,7737.564530,13619.789333
1071.592016,-5921.647536,2834.553343,14952.160028
1071.592345,-6957.935855,383.047749,15692.365970
1071.592675,-7402.059420,-2451.505594,11843.295072
1071.593004,-6365.771101,-7660.954980,7179.997637
1071.593334,-2590.720797,-11184.994271,4589.276840
1071.593664,1628.453072,-9269.755526,2442.679609
1071.593993,4737.318029,-4673.182538,1258.350101
1071.594323,5625.565159,-612.876398,4811.338623
1071.594652,4145.153275,6205.373534,11103.089130
1071.594982,2368.659014,11951.089769,16432.571912
1071.595312,-1702.473667,11184.994271,19541.436869
1071.595641,-7031.956449,9039.926876,17912.983796
1071.595971,-10881.027347,7507.735880,15470.304188
1071.596300,-10066.800811,-1302.362347,15248.242405
1071.596630,-6661.853478,-6971.469032,13101.645173
1071.596960,-4515.256246,-8733.488677,6217.729913
1071.597289,-1554.432478,-11261.603821,2072.576638
1071.597619,1776.494261,-9116.536426,2368.659014
1071.597948,4811.338623,-1302.362347,3775.050304
1071.598278,7846.182985,4596.572988,4663.297435
1071.598608,9104.533087,7354.516781,6143.709319
1071.598937,8882.471304,12563.966167,9326.594869
1071.599267,6365.771101,14019.547613,13767.830521
1071.599596,1332.370696,11261.603821,15692.365970
1071.599926,-5477.523971,8733.488677,14656.077652
1071.600256,-10584.944971,5286.058936,12509.480420
1071.600585,-9104.533087,-2451.505594,10732.986159
1071.600915,-5477.523971,-9116.536426,7624.121203
1071.601244,-2294.638420,-10955.165621,4219.173869
1071.601574,-2072.576638,-10112.460574,222.061783
1071.601903,148.041188,-5439.278036,-666.185348
1071.602233,4219.173869,-536.266849,3404.947333
1071.602563,6735.874072,3830.477490,8068.244768
1071.602892,4885.359217,9806.022374,11325.150913
1071.603222,1332.370696,12563.966167,12953.603985
1071.603551,-2368.659014,9499.584175,14656.077652
1071.603881,-5403.503377,4366.744339,16876.695478
1071.604211,-8956.491898,3064.381992,16580.613101
1071.604540,-8956.491898,-1149.143247,12731.542202
1071.604870,-5625.565159,-8503.660028,7698.141797
1071.605199,-1258.350101,-12027.699319,5625.565159
1071.605529,1036.288319,-11491.432470,4811.338623
1071.605859,2960.823768,-6435.202183,2886.803174
1071.606188,5477.523971,0.000000,3404.947333
1071.606518,7624.121203,4749.792088,8364.327145
1071.606847,7402.059420,9652.803275,14508.036463
1071.607177,2516.700203,10725.336972,19171.333898
1071.607507,-4367.215058,10189.070123,19985.560434
1071.607836,-9622.677246,8656.879127,18135.045579
1071.608166,-11473.192101,5132.839837,15914.427753
1071.608495,-8290.306550,-3370.820191,13619.789333
1071.608825,-5107.421000,-12870.404366,9474.636058
1071.609155,-3552.988522,-13942.938064,4071.132681
1071.609484,-2442.679609,-11261.603821,888.247130
1071.609814,1184.329507,-4979.620737,518.144159
1071.610143,4663.297435,1225.752797,2812.782580
1071.610473,6291.750507,3370.820191,6439.791695
1071.610803,6291.750507,8656.879127,11029.068536
1071.611132,3552.988522,12793.794817,14508.036463
1071.611462,-2146.597232,14555.814462,16580.613101
1071.611791,-8512.368333,12104.308868,15766.386565
1071.612121,-12065.356855,6894.859482,13545.768739
1071.612451,-7846.182985,-2298.286494,10362.883188
1071.612780,-1776.494261,-10189.070123,6661.853478
1071.613110,518.144159,-10725.336972,2146.597232
1071.613439,666.185348,-9116.536426,-888.247130
1071.613769,2220.617826,-6741.640382,-74.020594
1071.614099,4959.379811,689.485948,3627.009116
1071.614428,6365.771101,6894.859482,7476.080014
1071.614758,5847.626942,10955.165621,10732.986159
1071.615087,2886.803174,13176.842566,13471.748144
1071.615417,-2368.659014,12257.527968,14285.974681
1071.615747,-6365.771101,7277.907231,14656.077652
1071.616076,-9030.512492,2298.286494,14211.954086
1071.616406,-8068.244768,-1532.190996,13397.727550
1071.616735,-6735.874072,-7048.078582,10436.903782
1071.617065,-5329.482782,-9806.022374,5699.585753
1071.617395,-3034.844362,-11338.213370,2664.741391
1071.617724,814.226536,-9116.536426,2368.659014
1071.618054,4367.215058,-1838.629195,4959.379811
1071.618383,5699.585753,4596.572988,8660.409521
1071.618713,4959.379811,10035.851024,13767.830521
1071.619042,2294.638420,11414.822920,17690.922014
1071.619372,-3108.864956,11797.870669,18875.251521
1071.619702,-6587.832884,8503.660028,17098.757260
1071.620031,-7624.121203,3447.429741,15988.448347
1071.620361,-6217.729913,-1608.800546,14211.954086
1071.620690,-3627.009116,-6894.859482,10436.903782
1071.621020,-1110.308913,-11874.480219,5995.668130
1071.621350,592.164754,-11261.603821,2368.659014
1071.621679,1406.391290,-5669.106685,1184.329507
1071.622009,3627.009116,153.219100,3775.050304
1071.622338,5625.565159,4290.134789,7550.100608
1071.622668,5773.606348,7967.393179,11177.109724
1071.622998,2664.741391,11874.480219,13471.748144
1071.623327,-3034.844362,12257.527968,14434.015869
1071.623657,-6883.915261,9576.193725,13767.830521
1071.623986,-9178.553681,4673.182538,12879.583391
1071.624316,-8216.285956,-1685.410096,10732.986159
1071.624646,-5551.544565,-7048.078582,6809.894666
1071.624975,-1776.494261,-10265.679673,3627.009116
1071.625305,0.000000,-9729.412825,666.185348
1071.625634,1850.514855,-5286.058936,-518.144159
1071.625964,4219.173869,-689.485948,2812.782580
1071.626294,6143.709319,4673.182538,6809.894666
1071.626623,5699.585753,9346.365076,10066.800811
1071.626953,2812.782580,11568.042020,13397.727550
1071.627282,-2072.576638,12104.308868,14878.139434
1071.627612,-6143.709319,7737.564530,14656.077652
1071.627942,-8068.244768,1915.238745,14656.077652
1071.628271,-7105.977043,-2451.505594,13323.706956
1071.628601,-5551.544565,-6281.983084,9474.636058
1071.628930,-3478.967927,-10418.898773,5551.544565
1071.629260,-1258.350101,-11568.042020,3849.070898
1071.629590,1628.453072,-8120.612279,3330.926739
1071.629919,4737.318029,-2374.896044,5847.626942
1071.630249,6661.853478,2834.553343,9770.718434
1071.630578,5477.523971,9806.022374,13101.645173
1071.630908,1850.514855,11874.480219,15396.283594
1071.631238,-3034.844362,9806.022374,17098.757260
1071.631567,-6365.771101,8044.002729,17542.880825
1071.631897,-8438.347739,4060.306139,16802.674883
1071.632226,-6735.874072,-2221.676944,14211.954086
1071.632556,-4737.318029,-7584.345430,10140.821405
1071.632886,-2294.638420,-11261.603821,6439.791695
1071.633215,-666.185348,-10878.556072,3552.988522
1071.633545,1998.556043,-4903.011187,962.267725
1071.633874,5329.482782,842.705048,2960.823768
1071.634204,7550.100608,3447.429741,8142.265362
1071.634534,5773.606348,9193.145976,12731.542202
1071.634863,222.061783,13559.890315,15396.283594
1071.635193,-4885.359217,13176.842566,14285.974681
1071.635522,-7328.038826,9422.974625,13323.706956
1071.635852,-7402.059420,2298.286494,13915.871710
1071.636182,-5477.523971,-4443.353888,11843.295072
1071.636511,-3923.091493,-7507.735880,6143.709319
1071.636841,-1184.329507,-9116.536426,1036.288319
1071.637170,1184.329507,-8427.050478,-814.226536
1071.637500,4219.173869,-4596.572988,148.041188
1071.637829,6069.688724,459.657299,4441.235652
1071.638159,6809.894666,5209.449386,8142.265362
1071.638489,4441.235652,13023.623466,10807.006753
1071.638818,740.205942,15321.909960,12435.459826
1071.639148,-3478.967927,10112.460574,13397.727550
1071.639477,-7254.018232,4443.353888,14730.098246
1071.639807,-9474.636058,766.095498,15544.324782
1071.640137,-8586.388927,-2145.067394,12583.501014
1071.640466,-7476.080014,-5745.716235,6587.832884
1071.640796,-5625.565159,-10878.556072,3404.947333
1071.641125,-2812.782580,-12870.404366,2516.700203
1071.641455,814.226536,-6588.421283,2960.823768
1071.641785,4219.173869,-229.828649,4959.379811
1071.642114,4959.379811,6128.763984,9252.574275
1071.642444,3256.906145,10265.679673,12805.562797
1071.642773,1036.288319,9346.365076,17394.839637
1071.643103,-2294.638420,7201.297681,18135.045579
1071.643433,-5773.606348,6665.030833,17024.736666
1071.643762,-8586.388927,4443.353888,15914.427753
1071.644092,-6365.771101,-2451.505594,14730.098246
1071.644421,-3701.029710,-10112.460574,11177.109724
1071.644751,-888.247130,-12717.185267,6661.853478
1071.645081,740.205942,-8963.317327,3478.967927
1071.645410,3108.864956,-3830.477490,3182.885551
1071.645740,5181.441594,766.095498,6513.812290
1071.646069,6069.688724,4903.011187,9622.677246
1071.646399,5181.441594,9576.193725,11991.336260
1071.646729,1850.514855,11184.994271,13471.748144
1071.647058,-2886.803174,11874.480219,14063.912898
1071.647388,-7402.059420,8120.612279,13619.789333
1071.647717,-9548.656652,1532.190996,13175.665768
1071.648047,-7994.224174,-4903.011187,10510.924376
1071.648377,-4589.276840,-7201.297681,5625.565159
1071.648706,-1998.556043,-9346.365076,2442.679609
1071.649036,518.144159,-8350.440928,1406.391290
1071.649365,3478.967927,-3217.601092,814.226536
1071.649695,6439.791695,0.000000,3256.906145
1071.650025,7698.141797,5822.325785,7550.100608
1071.650354,5847.626942,14096.157163,11177.109724
1071.650684,2368.659014,14938.862211,12805.562797
1071.651013,-2368.659014,9269.755526,14211.954086
1071.651343,-6365.771101,3907.087040,15544.324782
1071.651673,-8216.285956,2068.457845,14804.118840
1071.652002,-7772.162391,-1838.629195,11251.130318
1071.652332,-5477.523971,-6894.859482,6587.832884
1071.652661,-2738.761985,-9959.241474,2590.720797
1071.652991,592.164754,-12257.527968,740.205942
1071.653321,4441.235652,-7354.516781,2368.659014
1071.653650,5329.482782,919.314598,6883.915261
1071.653980,4071.132681,8886.707777,10807.006753
1071.654309,1702.473667,13483.280765,13693.809927
1071.654639,-814.226536,11721.261119,15766.386565
1071.654968,-3923.091493,7814.174080,16580.613101
1071.655298,-7105.977043,4519.963438,15692.365970
1071.655628,-8734.430116,1225.752797,14730.098246
1071.655957,-8660.409521,-3600.648841,12731.542202
1071.656287,-6809.894666,-9729.412825,9770.718434
1071.656616,-3775.050304,-12563.966167,5995.668130
1071.656946,-1258.350101,-10112.460574,3849.070898
1071.657276,1998.556043,-2221.676944,2886.803174
1071.657605,5107.421000,2298.286494,6735.874072
1071.657935,7105.977043,4443.353888,11621.233289
1071.658264,4885.359217,10572.117872,14730.098246
1071.658594,0.000000,13406.671215,15766.386565
1071.658924,-4145.153275,11261.603821,14730.098246
1071.659253,-6661.853478,4443.353888,16358.551318
1071.659583,-7772.162391,459.657299,15174.221811
1071.659912,-6957.935855,-3524.039291,10214.842000
1071.660242,-3330.926739,-9806.022374,3701.029710
1071.660571,-222.061783,-9729.412825,-74.020594
1071.660901,2664.741391,-8656.879127,-1110.308913
1071.661231,6291.750507,-5439.278036,1184.329507
1071.661560,7031.956449,1149.143247,4737.318029
1071.661890,6291.750507,10112.460574,8734.430116
1071.662219,4885.359217,16011.395908,11769.274478
1071.662549,1924.535449,14479.204912,13397.727550
1071.662878,-1776.494261,10955.165621,12657.521608
1071.663208,-4589.276840,919.314598,15988.448347
1071.663538,-7254.018232,-766.095498,14952.160028
1071.663867,-11473.192101,1532.190996,9474.636058
1071.664197,-9696.697840,-7201.297681,5773.606348
1071.664526,-5329.482782,-12870.404366,3627.009116
1071.664856,-2146.597232,-11414.822920,666.185348
1071.665185,3256.906145,-8656.879127,1776.494261
1071.665515,6809.894666,-2911.162892,7179.997637
1071.665845,5995.668130,9346.365076,12065.356855
1071.666174,3108.864956,14862.252661,12731.542202
1071.666504,1110.308913,8120.612279,12953.603985
1071.666833,-2146.597232,8273.831378,14434.015869
1071.667163,-4219.173869,7277.907231,18357.107362
1071.667492,-5773.606348,-229.828649,18727.210333
1071.667822,-7105.977043,-1762.019645,13101.645173
1071.668152,-6587.832884,-7048.078582,7994.224174
1071.668481,-2590.720797,-13483.280765,4663.297435
1071.668811,814.226536,-11797.870669,4071.132681
1071.669140,3997.112087,-5592.497135,6439.791695
1071.669470,5107.421000,2451.505594,8956.491898
1071.669799,3997.112087,8886.707777,11103.089130
1071.670129,3330.926739,12257.527968,13619.789333
1071.670459,814.226536,11184.994271,15026.180623
1071.670788,-4441.235652,11491.432470,14434.015869
1071.671118,-7402.059420,7507.735880,12583.501014
1071.671447,-7994.224174,0.000000,12509.480420
1071.671777,-7772.162391,-4673.182538,9918.759623
1071.672106,-6365.771101,-8580.269578,6587.832884
1071.672436,-4293.194464,-12180.918418,3108.864956
1071.672766,-1480.411884,-8580.269578,888.247130
1071.673095,2738.761985,-3370.820191,1480.411884
1071.673425,6365.771101,766.095498,5921.647536
1071.673754,7920.203579,8197.221829,8512.368333
1071.674084,6661.853478,14172.766713,9548.656652
1071.674413,4071.132681,13789.718964,10955.047942
1071.674743,0.000000,10342.289223,13693.809927
1071.675073,-3923.091493,7584.345430,16506.592507
1071.675402,-6513.812290,4060.306139,14878.139434
1071.675732,-7105.977043,-1608.800546,10214.842000
1071.676061,-5181.441594,-6588.421283,5329.482782
1071.676391,-1850.514855,-9806.022374,2146.597232
1071.676721,1554.432478,-11491.432470,-0.000000
1071.677050,3775.050304,-7507.735880,1036.288319
1071.677380,5033.400406,612.876398,6587.832884
1071.677709,4737.318029,8810.098227,11991.336260
1071.678039,2072.576638,13023.623466,13841.851115
1071.678368,-1702.473667,12257.527968,13397.727550
1071.678698,-4959.379811,7277.907231,14730.098246
1071.679028,-5699.585753,1455.581446,17690.922014
1071.679357,-7254.018232,153.219100,16728.654289
1071.679687,-8956.491898,-2911.162892,11473.192101
1071.680016,-7920.203579,-9499.584175,5699.585753
1071.680346,-4071.132681,-13023.623466,3330.926739
1071.680675,1036.288319,-11568.042020,3923.091493
1071.681005,4737.318029,-6971.469032,6735.874072
1071.681335,5033.400406,1838.629195,10436.903782
1071.681664,3849.070898,11108.384721,13693.809927
1071.681994,3997.112087,13406.671215,14508.036463
1071.682323,1776.494261,10955.165621,13989.892304
1071.682653,-1184.329507,8580.269578,12805.562797
1071.682982,-3108.864956,2451.505594,15100.201217
1071.683312,-5033.400406,-919.314598,16210.510130
1071.683642,-8068.244768,-1532.190996,12065.356855
1071.683971,-7698.141797,-7507.735880,6587.832884
1071.684301,-4145.153275,-12410.747068,2442.679609
1071.684630,74.020594,-10418.898773,1110.308913
1071.684960,4885.359217,-6205.373534,2220.617826
1071.685289,7328.038826,-153.219100,5921.647536
1071.685619,6291.750507,9269.755526,8364.327145
1071.685949,4515.256246,14785.643111,11251.130318
1071.686278,2664.741391,11338.213370,14063.912898
1071.686608,-2368.659014,10035.851024,14582.057057
1071.686937,-6809.894666,8886.707777,13767.830521
1071.687267,-6809.894666,1762.019645,11695.253884
1071.687596,-5107.421000,-2834.553343,8660.409521
1071.687926,-4219.173869,-7967.393179,4293.194464
1071.688256,-2738.761985,-12257.527968,148.041188
1071.688585,518.144159,-10801.946522,-0.000000
1071.688915,4441.235652,-4213.525239,2886.803174
1071.689244,5625.565159,2298.286494,8734.430116
1071.689574,4441.235652,8273.831378,11917.315666
1071.689903,2590.720797,15015.471761,11399.171507
1071.690233,1110.308913,11797.870669,13323.706956
1071.690563,-888.247130,5669.106685,17172.777854
1071.690892,-5033.400406,4826.401637,18949.272115
1071.691222,-9622.677246,2374.896044,14582.057057
1071.691551,-9474.636058,-3140.991542,8586.388927
1071.691881,-5699.585753,-9422.974625,4811.338623
1071.692210,-1406.391290,-13713.109414,3034.844362
1071.692540,1184.329507,-13636.499864,3923.091493
1071.692870,1998.556043,-6511.811733,6809.894666
1071.693199,1850.514855,5362.668486,9474.636058
1071.693529,1776.494261,10955.165621,11399.171507
1071.693858,4293.194464,10725.336972,15174.221811
1071.694188,2072.576638,10878.556072,17394.839637
1071.694517,-2886.803174,10495.508323,15840.407159
1071.694847,-5107.421000,7048.078582,13767.830521
1071.695177,-5995.668130,1762.019645,13471.748144
1071.695506,-6661.853478,-4290.134789,13471.748144
1071.695836,-7179.997637,-9346.365076,8660.409521
1071.696165,-6291.750507,-12104.308868,4219.173869
1071.696495,-1406.391290,-9959.241474,1998.556043
1071.696824,3701.029710,-4519.963438,2442.679609
1071.697154,6735.874072,-229.828649,5773.606348
1071.697484,7328.038826,4596.572988,8068.244768
1071.697813,5699.585753,9499.584175,12065.356855
1071.698143,3552.988522,14096.157163,14878.139434
1071.698472,-1406.391290,14172.766713,15322.262999
1071.698802,-5329.482782,8963.317327,13915.871710
1071.699131,-5625.565159,2681.334243,11695.253884
1071.699461,-3404.947333,-3447.429741,7846.182985
1071.699791,-1332.370696,-7967.393179,3108.864956
1071.700120,-666.185348,-10189.070123,-592.164754
1071.700450,-1036.288319,-10801.946522,-518.144159
1071.700779,1184.329507,-5822.325785,4219.173869
1071.701109,2738.761985,1378.971896,9178.553681
1071.701439,2590.720797,7354.516781,10510.924376
1071.701768,1776.494261,12257.527968,9918.759623
1071.702098,296.082377,10112.460574,11325.150913
1071.702427,-666.185348,4519.963438,16728.654289
1071.702757,-3256.906145,1685.410096,18579.169144
1071.703086,-8290.306550,2987.772442,15100.201217
1071.703416,-10066.800811,0.000000,8586.388927
1071.703746,-6661.853478,-7354.516781,5551.544565
1071.704075,-444.123565,-13789.718964,4219.173869
1071.704405,3923.091493,-13942.938064,3330.926739
1071.704734,5551.544565,-7967.393179,4219.173869
1071.705064,4959.379811,2298.286494,9178.553681
1071.705393,2812.782580,9499.584175,14285.974681
1071.705723,1998.556043,11568.042020,16210.510130
1071.706053,0.000000,9729.412825,17912.983796
1071.706382,-1036.288319,7277.907231,19023.292709
1071.706712,-3775.050304,5132.839837,18505.148550
1071.707041,-7179.997637,2451.505594,14285.974681
1071.707371,-6809.894666,-2757.943793,10214.842000
1071.707700,-4293.194464,-9422.974625,5625.565159
1071.708030,-888.247130,-11874.480219,1924.535449
1071.708360,1628.453072,-10495.508323,222.061783
1071.708689,4441.235652,-5669.106685,2886.803174
1071.709019,4737.318029,3447.429741,8142.265362
1071.709348,2590.720797,10112.460574,11547.212695
1071.709678,888.247130,14019.547613,11029.068536
1071.710007,-740.205942,12717.185267,12583.501014
1071.710337,-2294.638420,8197.221829,15322.262999
1071.710667,-6069.688724,5286.058936,15692.365970
1071.710996,-9400.615463,2604.724693,12139.377449
1071.711326,-8142.265362,-2451.505594,6883.915261
1071.711655,-3404.947333,-7814.174080,2072.576638
1071.711985,592.164754,-10495.508323,-518.144159
1071.712314,2960.823768,-9729.412825,-1850.514855
1071.712644,4959.379811,-5669.106685,1406.391290
1071.712974,5699.585753,4213.525239,6217.729913
1071.713303,4663.297435,11721.261119,10881.027347
1071.713633,3108.864956,14325.985813,12213.398043
1071.713962,-296.082377,11874.480219,14137.933492
1071.714292,-3034.844362,6358.592633,16950.716072
1071.714621,-5477.523971,3524.039291,17987.004391
1071.714951,-7402.059420,1991.848295,14211.954086
1071.715281,-7846.182985,-1991.848295,8586.388927
1071.715610,-5921.647536,-8197.221829,3923.091493
1071.715940,-2294.638420,-13330.061665,2146.597232
1071.716269,1924.535449,-12257.527968,2516.700203
1071.716599,3552.988522,-6358.592633,5255.462188
1071.716928,2738.761985,3370.820191,8956.491898
1071.717258,1184.329507,9269.755526,13471.748144
1071.717588,740.205942,11797.870669,16580.613101
1071.717917,-1406.391290,11644.651570,16580.613101
1071.718247,-3108.864956,8350.440928,15100.201217
1071.718576,-3108.864956,995.924147,16580.613101
1071.718906,-4441.235652,-1072.533697,17542.880825
1071.719235,-7031.956449,-2221.676944,12583.501014
1071.719565,-6513.812290,-8427.050478,6661.853478
1071.719895,-2368.659014,-11568.042020,3478.967927
1071.720224,1776.494261,-7584.345430,2516.700203
1071.720554,5773.606348,-4903.011187,3552.988522
1071.720883,7624.121203,-919.314598,6661.853478
1071.721213,6513.812290,7431.126331,8956.491898
1071.721542,3849.070898,12104.308868,13619.789333
1071.721872,0.000000,10189.070123,16950.716072
1071.722202,-4737.318029,11261.603821,16950.716072
1071.722531,-7254.018232,8197.221829,14730.098246
1071.722861,-5477.523971,612.876398,11325.150913
1071.723190,-3701.029710,-2834.553343,5773.606348
1071.723520,-1998.556043,-7660.954980,1036.288319
1071.723849,592.164754,-11644.651570,-1702.473667
1071.724179,1702.473667,-9193.145976,-222.061783
1071.724509,1998.556043,-1378.971896,3330.926739
1071.724838,1406.391290,4596.572988,7624.121203
1071.725168,296.082377,7814.174080,10658.965565
1071.725497,0.000000,13636.499864,11769.274478
1071.725827,-666.185348,10572.117872,12139.377449
1071.726156,-2294.638420,4443.353888,14063.912898
1071.726486,-6069.688724,1608.800546,15988.448347
1071.726816,-9696.697840,1838.629195,14434.015869
1071.727145,-9696.697840,-919.314598,9844.739029
1071.727475,-5847.626942,-6894.859482,6143.709319
1071.727804,-2072.576638,-10112.460574,3552.988522
1071.728134,2294.638420,-9499.584175,2886.803174
1071.728464,4811.338623,-6435.202183,4145.153275
1071.728793,5773.606348,1149.143247,7624.121203
1071.729123,3552.988522,8810.098227,11991.336260
1071.729452,2368.659014,10342.289223,15618.345376
1071.729782,-592.164754,8197.221829,19023.292709
1071.730111,-4885.359217,7354.516781,19097.313304
1071.730441,-7179.997637,5898.935335,17098.757260
1071.730771,-5699.585753,842.705048,14359.995275
1071.731100,-2072.576638,-4673.182538,10658.965565
1071.731430,-888.247130,-8963.317327,5255.462188
1071.731759,0.000000,-11491.432470,888.247130
1071.732089,2072.576638,-9193.145976,1184.329507
1071.732418,4737.318029,-1915.238745,5625.565159
1071.732748,4737.318029,5362.668486,10362.883188
1071.733078,2960.823768,9269.755526,11991.336260
1071.733407,888.247130,9882.631924,12435.459826
1071.733737,-1332.370696,6894.859482,15174.221811
1071.734066,-3997.112087,6128.763984,16506.592507
1071.734396,-7179.997637,4903.011187,14878.139434
1071.734725,-7624.121203,1072.533697,11843.295072
1071.735055,-5033.400406,-2911.162892,7772.162391
1071.735385,-518.144159,-7354.516781,1924.535449
1071.735714,4071.132681,-10418.898773,-2812.782580
1071.736044,7328.038826,-9499.584175,-3182.885551
1071.736373,7846.182985,-766.095498,1850.514855
1071.736703,6587.832884,7814.174080,8586.388927
1071.737032,4885.359217,11184.994271,11769.274478
1071.737362,2368.659014,12487.356617,11843.295072
1071.737692,-1480.411884,9116.536426,14434.015869
1071.738021,-3775.050304,5286.058936,18209.066173
1071.738351,-5625.565159,2681.334243,18209.066173
1071.738680,-7179.997637,0.000000,14211.954086
1071.739010,-8660.409521,-2911.162892,7698.141797
1071.739339,-7328.038826,-7354.516781,2442.679609
1071.739669,-2220.617826,-10955.165621,1332.370696
1071.739999,3182.885551,-9806.022374,2220.617826
1071.740328,4441.235652,-3064.381992,5033.400406
1071.740658,2146.597232,4979.620737,8142.265362
1071.740987,592.164754,8273.831378,10658.965565
1071.741317,592.164754,10035.851024,14211.954086
1071.741646,-2738.761985,10342.289223,16358.551318
1071.741976,-5625.565159,7967.393179,16728.654289
1071.742306,-6587.832884,2681.334243,15322.262999
1071.742635,-6883.915261,-1838.629195,13101.645173
1071.742965,-6661.853478,-4826.401637,11029.068536
1071.743294,-5033.400406,-9269.755526,9474.636058
1071.743624,-3034.844362,-10112.460574,6883.915261
1071.743953,-666.185348,-5056.230287,5107.421000
1071.744283,2072.576638,-1608.800546,5921.647536
1071.744613,4737.318029,2604.724693,8216.285956
1071.744942,5551.544565,6128.763984,9548.656652
1071.745272,4515.256246,8656.879127,11251.130318
1071.745601,370.102971,7201.297681,14508.036463
1071.745931,-4293.194464,8120.612279,16432.571912
1071.746260,-7772.162391,6052.154434,15544.324782
1071.746590,-8882.471304,459.657299,11473.192101
1071.746920,-6217.729913,-3294.210641,7105.977043
1071.747249,-888.247130,-7201.297681,2738.761985
1071.747579,3627.009116,-10265.679673,592.164754
1071.747908,4811.338623,-7507.735880,444.123565
1071.748238,3997.112087,459.657299,2960.823768
1071.748567,3849.070898,6205.373534,7105.977043
1071.748897,3775.050304,10878.556072,11251.130318
1071.749227,3182.885551,13713.109414,11843.295072
1071.749556,592.164754,8503.660028,14063.912898
1071.749886,-2886.803174,2681.334243,16654.633695
1071.750215,-8068.244768,2604.724693,15988.448347
1071.750545,-10066.800811,1838.629195,14137.933492
1071.750874,-8068.244768,-3447.429741,10881.027347
1071.751204,-5477.523971,-6511.811733,5625.565159
1071.751534,-2146.597232,-9422.974625,-1110.308913
1071.751863,4071.132681,-10801.946522,-2812.782580
1071.752193,9178.553681,-5898.935335,222.061783
1071.752522,8586.388927,4903.011187,7254.018232
1071.752852,4811.338623,10342.289223,12657.521608
1071.753182,1850.514855,12334.137518,14285.974681
1071.753511,-2516.700203,11721.261119,15618.345376
1071.753841,-5107.421000,6205.373534,17542.880825
1071.754170,-6661.853478,1149.143247,19541.436869
1071.754500,-7105.977043,-1991.848295,17394.839637
1071.754829,-6661.853478,-4290.134789,11251.130318
1071.755159,-5107.421000,-10189.070123,5625.565159
1071.755489,-2072.576638,-11491.432470,3701.029710
1071.755818,2368.659014,-7431.126331,3849.070898
1071.756148,5329.482782,-2374.896044,4811.338623
1071.756477,5995.668130,4136.915689,7328.038826
1071.756807,4367.215058,9116.536426,10732.986159
1071.757136,2664.741391,11951.089769,11917.315666
1071.757466,-1702.473667,9806.022374,13471.748144
1071.757796,-5773.606348,4749.792088,16358.551318
1071.758125,-9178.553681,2757.943793,17542.880825
1071.758455,-10362.883188,689.485948,14730.098246
1071.758784,-7994.224174,-5286.058936,9400.615463
1071.759114,-4737.318029,-10955.165621,4737.318029
1071.759443,-518.144159,-10418.898773,1406.391290
1071.759773,4293.194464,-6971.469032,-0.000000
1071.760103,7624.121203,-2604.724693,2886.803174
1071.760432,7105.977043,6511.811733,7402.059420
1071.760762,4737.318029,14402.595362,11251.130318
1071.761092,3330.926739,14172.766713,11769.274478
1071.761421,888.247130,11951.089769,12879.583391
1071.761751,-1776.494261,6971.469032,14656.077652
1071.762081,-4811.338623,2298.286494,15026.180623
1071.762410,-8216.285956,-1378.971896,12509.480420
1071.762740,-9992.780217,-3907.087040,8882.471304
1071.763070,-7550.100608,-7201.297681,4811.338623
1071.763399,-3701.029710,-10801.946522,1480.411884
1071.763729,296.082377,-8580.269578,-370.102971
1071.764059,3552.988522,-4290.134789,1924.535449
1071.764389,5033.400406,2604.724693,6587.832884
1071.764718,3775.050304,9806.022374,10658.965565
1071.765048,1776.494261,12640.575717,12731.542202
1071.765378,-2146.597232,12027.699319,15174.221811
1071.765707,-5551.544565,6511.811733,17024.736666
1071.766037,-7624.121203,2528.115143,18505.148550
1071.766367,-7994.224174,-919.314598,15840.407159
1071.766696,-6587.832884,-4060.306139,10510.924376
1071.767026,-3701.029710,-9116.536426,5551.544565
1071.767356,-296.082377,-12027.699319,2368.659014
1071.767685,3627.009116,-8886.707777,2294.638420
1071.768015,6291.750507,-3524.039291,5625.565159
1071.768345,6735.874072,4366.744339,9622.677246
1071.768674,4737.318029,11568.042020,12435.459826
1071.769004,3849.070898,13176.842566,13545.768739
1071.769334,888.247130,8963.317327,15692.365970
1071.769663,-3108.864956,4290.134789,17690.922014
1071.769993,-7772.162391,3600.648841,17542.880825
1071.770323,-10066.800811,1532.190996,14359.995275
1071.770653,-8068.244768,-4136.915689,10436.903782
1071.770982,-4737.318029,-8886.707777,5699.585753
1071.771312,-1406.391290,-11184.994271,444.123565
1071.771642,2886.803174,-9806.022374,-1628.453072
1071.771971,6291.750507,-4290.134789,2146.597232
1071.772301,5995.668130,6665.030833,7772.162391
1071.772631,4219.173869,13100.233016,11251.130318
1071.772960,2812.782580,13942.938064,11917.315666
1071.773290,-592.164754,12563.966167,12435.459826
1071.773620,-3108.864956,7277.907231,14508.036463
1071.773949,-5403.503377,1838.629195,15248.242405
1071.774279,-8142.265362,-306.438199,13027.624579
1071.774609,-8290.306550,-4290.134789,8956.491898
1071.774938,-5995.668130,-8810.098227,4441.235652
1071.775268,-2664.741391,-11031.775171,1184.329507
1071.775598,1184.329507,-7967.393179,-1184.329507
1071.775927,4441.235652,-4749.792088,2146.597232
1071.776257,5625.565159,3677.258390,7476.080014
1071.776587,4071.132681,11414.822920,10732.986159
1071.776916,1850.514855,12487.356617,12435.459826
1071.777246,-1776.494261,10265.679673,15026.180623
1071.777576,-5699.585753,7201.297681,16876.695478
1071.777906,-7402.059420,2834.553343,16580.613101
1071.778235,-8068.244768,-2221.676944,12805.562797
1071.778565,-6365.771101,-6511.811733,10066.800811
1071.778895,-3701.029710,-10189.070123,7254.018232
1071.779224,-740.205942,-11414.822920,4737.318029
1071.779554,1924.535449,-7660.954980,1850.514855
1071.779884,3997.112087,-2528.115143,3997.112087
1071.780213,5181.441594,3753.867940,10584.944971
1071.780543,4145.153275,12180.918418,14730.098246
1071.780873,1480.411884,14555.814462,15470.304188
1071.781202,-1480.411884,9882.631924,15322.262999
1071.781532,-3775.050304,4979.620737,17542.880825
1071.781862,-5995.668130,1685.410096,17246.798449
1071.782191,-7698.141797,-2451.505594,13471.748144
1071.782521,-7994.224174,-6281.983084,7402.059420
1071.782851,-4811.338623,-7660.954980,3923.091493
1071.783180,666.185348,-10648.727422,1628.453072
1071.783510,5921.647536,-9806.022374,814.226536
1071.783840,7031.956449,-2834.553343,2294.638420
1071.784170,6661.853478,6435.202183,7179.997637
1071.784499,5107.421000,14096.157163,11547.212695
1071.784829,3849.070898,15628.348159,13545.768739
1071.785159,-666.185348,11414.822920,14952.160028
1071.785488,-3775.050304,6358.592633,16062.468941
1071.785818,-6217.729913,4136.915689,14804.118840
1071.786148,-6587.832884,76.609550,11547.212695
1071.786477,-5625.565159,-5286.058936,7476.080014
1071.786807,-5403.503377,-10112.460574,2146.597232
1071.787137,-1998.556043,-11568.042020,-1110.308913
1071.787466,2220.617826,-9269.755526,-1406.391290
1071.787796,4885.359217,-2528.115143,3330.926739
1071.788126,4219.173869,6052.154434,8734.430116
1071.788455,1998.556043,11108.384721,11399.171507
1071.788785,740.205942,12334.137518,11695.253884
1071.789115,-2516.700203,9422.974625,14285.974681
1071.789444,-4737.318029,5209.449386,18283.086767
1071.789774,-7698.141797,2604.724693,17912.983796
1071.790104,-9178.553681,-689.485948,13693.809927
1071.790434,-7105.977043,-5822.325785,6809.894666
1071.790763,-3330.926739,-11261.603821,3478.967927
1071.791093,1332.370696,-12870.404366,2812.782580
1071.791423,3627.009116,-8963.317327,4367.215058
1071.791752,4071.132681,-2068.457845,7328.038826
1071.792082,3775.050304,7354.516781,11621.233289
1071.792412,3997.112087,11491.432470,14211.954086
1071.792741,3108.864956,12257.527968,15618.345376
1071.793071,-1110.308913,10495.508323,15174.221811
1071.793401,-4219.173869,4749.792088,17098.757260
1071.793730,-5921.647536,612.876398,17616.901420
1071.794060,-7920.203579,-1302.362347,14804.118840
1071.794390,-9030.512492,-4443.353888,8734.430116
1071.794719,-6735.874072,-10342.289223,4071.132681
1071.795049,-2146.597232,-12410.747068,1258.350101
1071.795379,2812.782580,-8886.707777,-148.041188
1071.795708,6143.709319,-3294.210641,2664.741391
1071.796038,5921.647536,5439.278036,7105.977043
1071.796368,3701.029710,13483.280765,12139.377449
1071.796697,1998.556043,15321.909960,13767.830521
1071.797027,-1258.350101,12487.356617,15100.201217
1071.797357,-4145.153275,8350.440928,15914.427753
1071.797687,-5773.606348,4136.915689,14137.933492
1071.798016,-4737.318029,-1149.143247,11029.068536
1071.798346,-3034.844362,-5898.935335,7476.080014
1071.798676,-2590.720797,-9039.926876,1480.411884
1071.799005,-1480.411884,-9576.193725,-1924.535449
1071.799335,2590.720797,-7201.297681,-1332.370696
1071.799665,5699.585753,-1532.190996,3108.864956
1071.799994,4737.318029,6665.030833,8956.491898
1071.800324,2664.741391,11184.994271,11695.253884
1071.800654,518.144159,11874.480219,13841.851115
1071.800983,-3108.864956,9116.536426,16136.489536
1071.801313,-6587.832884,6511.811733,18431.127956
1071.801643,-8808.450710,2451.505594,17098.757260
1071.801972,-7476.080014,-766.095498,13397.727550
1071.802302,-6069.688724,-4519.963438,4811.338623
1071.802632,-3108.864956,-11031.775171,-592.164754
1071.802961,1554.432478,-14709.033562,-2072.576638
1071.803291,5181.441594,-9729.412825,3849.070898
1071.803621,5107.421000,-383.047749,9770.718434
1071.803951,2146.597232,8580.269578,13471.748144
1071.804280,666.185348,13253.452115,15470.304188
1071.804610,666.185348,13636.499864,15544.324782
1071.804940,0.000000,8350.440928,16358.551318
1071.805269,-1258.350101,-459.657299,19319.375086
1071.805599,-4959.379811,153.219100,18209.066173
1071.805929,-8660.409521,1378.971896,13545.768739
1071.806258,-8216.285956,-5669.106685,8660.409521
1071.806588,-4441.235652,-10648.727422,5033.400406
1071.806918,-518.144159,-10725.336972,222.061783
1071.807247,4811.338623,-9193.145976,-1480.411884
1071.807577,8364.327145,-4673.182538,2294.638420
1071.807907,7328.038826,7814.174080,8068.244768
1071.808236,4293.194464,13406.671215,12213.398043
1071.808566,962.267725,11951.089769,14285.974681
1071.808896,-3923.091493,12410.747068,16284.530724
1071.809225,-5995.668130,9499.584175,17912.983796
1071.809555,-6143.709319,3294.210641,15100.201217
1071.809885,-5625.565159,-1915.238745,10436.903782
1071.810214,-4219.173869,-5592.497135,6513.812290
1071.810544,-2368.659014,-10035.851024,1628.453072
1071.810874,-592.164754,-10955.165621,-1332.370696
1071.811204,1850.514855,-6205.373534,-1480.411884
1071.811533,3627.009116,-383.047749,3701.029710
1071.811863,3627.009116,6435.202183,8882.471304
1071.812193,2812.782580,11644.651570,11251.130318
1071.812522,1776.494261,10878.556072,12879.583391
1071.812852,-1924.535449,8503.660028,15914.427753
1071.813182,-6365.771101,7584.345430,17098.757260
1071.813511,-8808.450710,2834.553343,15174.221811
1071.813841,-7402.059420,-1915.238745,11695.253884
1071.814171,-4885.359217,-4903.011187,5625.565159
1071.814500,-1628.453072,-9422.974625,1110.308913
1071.814830,2664.741391,-13636.499864,-666.185348
1071.815160,4885.359217,-9193.145976,2812.782580
1071.815489,5181.441594,459.657299,8586.388927
1071.815819,3182.885551,8427.050478,12657.521608
1071.816149,2072.576638,12640.575717,14434.015869
1071.816478,370.102971,13100.233016,15248.242405
1071.816808,-1184.329507,6052.154434,18727.210333
1071.817138,-3108.864956,2068.457845,21984.116477
1071.817468,-7031.956449,2681.334243,19023.292709
1071.817797,-8660.409521,153.219100,13101.645173
1071.818127,-7105.977043,-6435.202183,7772.162391
1071.818457,-3330.926739,-9729.412825,3849.070898
1071.818786,1998.556043,-10648.727422,296.082377
1071.819116,5921.647536,-9116.536426,-1110.308913
1071.819446,6587.832884,-1455.581446,2664.741391
1071.819775,4293.194464,9499.584175,8882.471304
1071.820105,1998.556043,12104.308868,13101.645173
1071.820435,148.041188,12257.527968,15988.448347
1071.820764,-4219.173869,11338.213370,17246.798449
1071.821094,-5773.606348,6358.592633,17172.777854
1071.821424,-5699.585753,1532.190996,14137.933492
1071.821753,-4737.318029,-3370.820191,10658.965565
1071.822083,-2368.659014,-5822.325785,7105.977043
1071.822413,-1036.288319,-8273.831378,2072.576638
1071.822742,1776.494261,-8044.002729,-1702.473667
1071.823072,5329.482782,-4060.306139,-2886.803174
1071.823402,7402.059420,383.047749,2368.659014
1071.823732,7550.100608,6971.469032,8882.471304
1071.824061,5107.421000,11491.432470,11325.150913
1071.824391,666.185348,9806.022374,14359.995275
1071.824721,-4737.318029,9039.926876,16284.530724
1071.825050,-8808.450710,6741.640382,19097.313304
1071.825380,-9474.636058,1302.362347,16506.592507
1071.825710,-9252.574275,-2374.896044,10362.883188
1071.826039,-8808.450710,-6358.592633,2516.700203
1071.826369,-3849.070898,-11338.213370,-1184.329507
1071.826699,1480.411884,-14709.033562,370.102971
1071.827028,3182.885551,-8886.707777,5181.441594
1071.827358,1406.391290,919.314598,9474.636058
1071.827688,-962.267725,9422.974625,12805.562797
1071.828017,740.205942,12487.356617,13619.789333
1071.828347,1258.350101,10648.727422,14878.139434
1071.828677,-444.123565,7967.393179,15692.365970
1071.829006,-1258.350101,1685.410096,19763.498651
1071.829336,-3552.988522,-1532.190996,19615.457463
1071.829666,-7105.977043,1149.143247,13619.789333
1071.829995,-7846.182985,-3983.696590,6957.935855
1071.830325,-3330.926739,-11568.042020,4959.379811
1071.830655,2368.659014,-11184.994271,3923.091493
1071.830985,6365.771101,-5898.935335,1924.535449
1071.831314,7402.059420,-1762.019645,3923.091493
1071.831644,6513.812290,5898.935335,7624.121203
1071.831974,2590.720797,11261.603821,12953.603985
1071.832303,-888.247130,9346.365076,17542.880825
1071.832633,-5921.647536,10265.679673,17690.922014
1071.832963,-7476.080014,9039.926876,15618.345376
1071.833292,-6513.812290,1762.019645,12509.480420
1071.833622,-4885.359217,-3677.258390,9696.697840
1071.833952,-3330.926739,-6665.030833,4959.379811
1071.834281,0.000000,-9346.365076,-0.000000
1071.834611,2442.679609,-8350.440928,-2590.720797
1071.834941,4145.153275,-1455.581446,148.041188
1071.835270,4737.318029,3830.477490,6513.812290
1071.835600,4441.235652,6665.030833,10362.883188
1071.835930,3627.009116,12410.747068,10140.821405
1071.836259,740.205942,10342.289223,13175.665768
1071.836589,-1998.556043,6588.421283,16728.654289
1071.836919,-7105.977043,4903.011187,18061.024985
1071.837249,-8660.409521,153.219100,15692.365970
1071.837578,-7920.203579,-1532.190996,10510.924376
1071.837908,-4959.379811,-3830.477490,5995.668130
1071.838238,-444.123565,-10572.117872,296.082377
1071.838567,3701.029710,-11568.042020,-1702.473667
1071.838897,6291.750507,-6511.811733,1924.535449
1071.839227,6513.812290,2374.896044,8290.306550
1071.839556,3330.926739,8273.831378,12213.398043
1071.839886,-222.061783,13100.233016,12879.583391
1071.840216,-2960.823768,12640.575717,14804.118840
1071.840545,-3775.050304,7431.126331,16432.571912
1071.840875,-4293.194464,1072.533697,19393.395680
1071.841205,-5995.668130,-3907.087040,17912.983796
1071.841534,-9770.718434,-1608.800546,11029.068536
1071.841864,-9474.636058,-4443.353888,6143.709319
1071.842194,-4071.132681,-11797.870669,5181.441594
1071.842523,1110.308913,-10495.508323,4811.338623
1071.842853,3627.009116,-4596.572988,4515.256246
1071.843183,4811.338623,1378.971896,5033.400406
1071.843512,5551.544565,7354.516781,9400.615463
1071.843842,4663.297435,12717.185267,11547.212695
1071.844172,1924.535449,7814.174080,15470.304188
1071.844502,-3330.926739,4366.744339,17764.942608
1071.844831,-7772.162391,7124.688131,16876.695478
1071.845161,-8438.347739,2757.943793,13841.851115
1071.845491,-5625.565159,-3753.867940,10436.903782
1071.845820,-2368.659014,-6741.640382,4811.338623
1071.846150,814.226536,-9806.022374,-296.082377
1071.846480,3849.070898,-10648.727422,-3108.864956
1071.846809,6513.812290,-3140.991542,370.102971
1071.847139,5625.565159,5898.935335,6365.771101
1071.847469,3701.029710,9806.022374,11547.212695
1071.847798,1924.535449,12870.404366,11029.068536
1071.848128,370.102971,9806.022374,14285.974681
1071.848458,-666.185348,4290.134789,17394.839637
1071.848787,-6365.771101,3753.867940,14952.160028
1071.849117,-10658.965565,1149.143247,11399.171507
1071.849447,-9178.553681,-4673.182538,10362.883188
1071.849776,-6143.709319,-6971.469032,6587.832884
1071.850106,-2072.576638,-8197.221829,1480.411884
1071.850436,2738.761985,-12104.308868,-1480.411884
1071.850766,5773.606348,-6128.763984,2442.679609
1071.851095,5403.503377,4979.620737,8438.347739
1071.851425,4737.318029,8656.879127,12287.418637
1071.851755,3404.947333,11491.432470,11843.295072
1071.852084,-148.041188,12717.185267,14359.995275
1071.852414,-2960.823768,6281.983084,19911.539840
1071.852744,-5181.441594,919.314598,21836.075289
1071.853073,-7920.203579,306.438199,17172.777854
1071.853403,-8512.368333,-1915.238745,9326.594869
1071.853733,-5033.400406,-8503.660028,4589.276840
1071.854062,444.123565,-11721.261119,3775.050304
1071.854392,4293.194464,-9729.412825,4071.132681
1071.854722,5625.565159,-3524.039291,4663.297435
1071.855051,4293.194464,5209.449386,6217.729913
1071.855381,4071.132681,11721.261119,10510.924376
1071.855711,4737.318029,12870.404366,13545.768739
1071.856040,1184.329507,10265.679673,14878.139434
1071.856370,-3404.947333,5822.325785,16210.510130
1071.856700,-7105.977043,2451.505594,15914.427753
1071.857029,-9548.656652,1608.800546,13027.624579
1071.857359,-10140.821405,-3600.648841,10584.944971
1071.857689,-7624.121203,-8656.879127,6587.832884
1071.858019,-2886.803174,-9576.193725,1702.473667
1071.858348,2812.782580,-8580.269578,-1702.473667
1071.858678,6735.874072,-4673.182538,-1036.288319
1071.859008,6809.894666,4443.353888,4367.215058
1071.859337,4663.297435,10955.165621,9252.574275
1071.859667,4293.194464,13866.328514,11399.171507
1071.859997,1332.370696,12334.137518,13101.645173
1071.860326,-1480.411884,8580.269578,16358.551318
1071.860656,-5403.503377,3140.991542,15766.386565
1071.860986,-8068.244768,-919.314598,13323.706956
1071.861315,-8142.265362,-3600.648841,10288.862594
1071.861645,-5699.585753,-7201.297681,6143.709319
1071.861975,-2294.638420,-9269.755526,2368.659014
1071.862304,1554.432478,-9499.584175,296.082377
1071.862634,4589.276840,-5362.668486,2368.659014
1071.862964,4737.318029,3217.601092,7254.018232
1071.863294,3404.947333,10112.460574,12139.377449
1071.863623,2368.659014,13559.890315,13101.645173
1071.863953,-1036.288319,11568.042020,15470.304188
1071.864283,-4145.153275,4749.792088,18357.107362
1071.864613,-7476.080014,1302.362347,18875.251521
1071.864942,-9696.697840,-766.095498,14730.098246
1071.865272,-8882.471304,-3524.039291,8068.244768
1071.865602,-4737.318029,-9193.145976,4515.256246
1071.865931,666.185348,-13636.499864,3404.947333
1071.866261,3849.070898,-10112.460574,3701.029710
1071.866591,3997.112087,-3140.991542,5921.647536
1071.866921,3108.864956,6205.373534,9844.739029
1071.867250,3256.906145,12947.013916,12435.459826
1071.867580,4811.338623,13483.280765,14359.995275
1071.867910,3552.988522,8733.488677,15692.365970
1071.868240,-296.082377,2834.553343,16728.654289
1071.868569,-5847.626942,2757.943793,14656.077652
1071.868899,-7772.162391,1072.533697,12213.398043
1071.869229,-7550.100608,-3600.648841,10881.027347
1071.869559,-6143.709319,-6128.763984,4811.338623
1071.869888,-1850.514855,-9576.193725,-1036.288319
1071.870218,4885.359217,-12104.308868,-2812.782580
1071.870548,8512.368333,-4673.182538,518.144159
1071.870877,6291.750507,6128.763984,6069.688724
1071.871207,4441.235652,11338.213370,10288.862594
1071.871537,3330.926739,12487.356617,14730.098246
1071.871867,0.000000,12640.575717,16580.613101
1071.872196,-4071.132681,10189.070123,15692.365970
1071.872526,-5847.626942,2374.896044,12435.459826
1071.872856,-4959.379811,-3753.867940,11251.130318
1071.873186,-4589.276840,-4673.182538,9992.780217
1071.873515,-4885.359217,-7967.393179,7476.080014
1071.873845,-5107.421000,-10801.946522,2812.782580
1071.874175,-1776.494261,-6588.421283,-518.144159
1071.874504,3775.050304,-2221.676944,2368.659014
1071.874834,8808.450710,536.266849,7550.100608
1071.875164,7550.100608,7124.688131,11029.068536
1071.875494,4071.132681,13253.452115,10436.903782
1071.875823,-296.082377,10342.289223,14285.974681
1071.876153,-3849.070898,7354.516781,19319.375086
1071.876483,-8142.265362,7124.688131,21095.869347
1071.876813,-9844.739029,-383.047749,15248.242405
1071.877142,-9400.615463,-5439.278036,7550.100608
1071.877472,-5403.503377,-8886.707777,2886.803174
1071.877802,0.000000,-13483.280765,3182.885551
1071.878131,1258.350101,-12640.575717,3775.050304
1071.878461,222.061783,-2681.334243,6365.771101
1071.878791,1036.288319,6435.202183,10288.862594
1071.879121,2812.782580,9422.974625,12953.603985
1071.879450,3330.926739,13330.061665,14285.974681
1071.879780,592.164754,12563.966167,12657.521608
1071.880110,-1036.288319,4903.011187,14211.954086
1071.880440,-4515.256246,1149.143247,16580.613101
1071.880769,-9696.697840,2834.553343,16062.468941
1071.881099,-13471.748144,-766.095498,11325.150913
1071.881429,-11917.315666,-8120.612279,5255.462188
1071.881759,-6143.709319,-11721.261119,222.061783
1071.882088,1628.453072,-11721.261119,-0.000000
1071.882418,6291.750507,-7660.954980,1406.391290
1071.882748,6291.750507,2068.457845,4589.276840
1071.883077,4145.153275,11338.213370,9400.615463
1071.883407,2590.720797,15781.567259,12805.562797
1071.883737,1776.494261,16930.710506,13989.892304
1071.884067,-1406.391290,12717.185267,13101.645173
1071.884396,-4885.359217,1838.629195,14656.077652
1071.884726,-9770.718434,-1149.143247,14211.954086
1071.885056,-13175.665768,-1455.581446,12435.459826
1071.885386,-11103.089130,-7431.126331,8068.244768
1071.885715,-8734.430116,-10725.336972,2738.761985
1071.886045,-5921.647536,-11108.384721,-0.000000
1071.886375,-444.123565,-10265.679673,1184.329507
1071.886704,2886.803174,-3064.381992,5403.503377
1071.887034,3478.967927,9422.974625,9548.656652
1071.887364,2368.659014,14632.424012,11103.089130
1071.887694,2220.617826,14479.204912,14137.933492
1071.888023,-1332.370696,13713.109414,14063.912898
1071.888353,-5033.400406,6281.983084,13693.809927
1071.888683,-8734.430116,-766.095498,13471.748144
1071.889013,-11991.336260,-1225.752797,12435.459826
1071.889342,-12731.542202,-5898.935335,11251.130318
1071.889672,-9770.718434,-12563.966167,8512.368333
1071.890002,-6809.894666,-12487.356617,5847.626942
1071.890331,-2368.659014,-8656.879127,4589.276840
1071.890661,1036.288319,-3983.696590,5995.668130
1071.890991,2220.617826,4136.915689,9844.739029
1071.891321,3108.864956,12947.013916,13693.809927
1071.891650,3849.070898,14709.033562,15988.448347
1071.891980,1110.308913,13713.109414,14508.036463
1071.892310,-1998.556043,9806.022374,12657.521608
1071.892640,-6143.709319,689.485948,13323.706956
1071.892969,-10807.006753,-2757.943793,13249.686362
1071.893299,-15692.365970,-2911.162892,9770.718434
1071.893629,-14582.057057,-8350.440928,5255.462188
1071.893959,-8068.244768,-14019.547613,2960.823768
1071.894288,-2590.720797,-12104.308868,2220.617826
1071.894618,1924.535449,-5669.106685,2442.679609
1071.894948,3404.947333,1608.800546,2886.803174
1071.895277,2960.823768,8963.317327,7846.182985
1071.895607,1850.514855,16471.053207,14211.954086
1071.895937,-666.185348,16777.491406,17024.736666
1071.896267,-3108.864956,14938.862211,15692.365970
1071.896596,-4737.318029,8580.269578,12435.459826
1071.896926,-6291.750507,-842.705048,9030.512492
1071.897256,-7179.997637,-5439.278036,6883.915261
1071.897586,-8438.347739,-11338.213370,6587.832884
1071.897915,-10436.903782,-11644.651570,7031.956449
1071.898245,-11251.130318,-7507.735880,6291.750507
1071.898575,-8808.450710,-4213.525239,5625.565159
1071.898904,-3775.050304,-1685.410096,6365.771101
1071.899234,148.041188,995.924147,7772.162391
1071.899564,2590.720797,7814.174080,9548.656652
1071.899894,3923.091493,11491.432470,11103.089130
1071.900223,2220.617826,9959.241474,13027.624579
1071.900553,-2220.617826,7967.393179,14582.057057
1071.900883,-7772.162391,4979.620737,14211.954086
1071.901213,-9696.697840,1302.362347,12065.356855
1071.901542,-8956.491898,-4060.306139,10214.842000
1071.901872,-7994.224174,-7584.345430,8734.430116
1071.902202,-6957.935855,-8120.612279,6957.935855
1071.902531,-4367.215058,-7354.516781,6217.729913
1071.902861,-1554.432478,-4443.353888,6735.874072
1071.903191,74.020594,1455.581446,8586.388927
1071.903521,-740.205942,6818.249932,11177.109724
1071.903850,-1998.556043,9422.974625,12435.459826
1071.904180,-4737.318029,8503.660028,13323.706956
1071.904510,-6809.894666,6894.859482,13249.686362
1071.904840,-6735.874072,4596.572988,11991.336260
1071.905169,-6809.894666,-766.095498,10066.800811
1071.905499,-6735.874072,-5515.887586,7105.977043
1071.905829,-5995.668130,-8733.488677,4885.359217
1071.906159,-3849.070898,-7201.297681,5181.441594
1071.906488,-1110.308913,-3753.867940,6439.791695
1071.906818,0.000000,76.609550,8068.244768
1071.907148,-1480.411884,3677.258390,9696.697840
1071.907477,-3108.864956,7584.345430,11029.068536
1071.907807,-2960.823768,9422.974625,12657.521608
1071.908137,-2960.823768,7737.564530,13027.624579
1071.908467,-3701.029710,4979.620737,11547.212695
1071.908796,-4367.215058,995.924147,9474.636058
1071.909126,-3552.988522,-3294.210641,8142.265362
1071.909456,-3034.844362,-5362.668486,7254.018232
1071.909786,-2738.761985,-4673.182538,7105.977043
1071.910115,-2812.782580,-2757.943793,7105.977043
1071.910445,-3404.947333,-995.924147,7846.182985
1071.910775,-4589.276840,1532.190996,9474.636058
1071.911104,-5107.421000,4290.134789,10807.006753
1071.911434,-4885.359217,5898.935335,11547.212695
1071.911764,-4885.359217,5975.544884,11547.212695
1071.912094,-5403.503377,4519.963438,10658.965565
1071.912423,-4219.173869,1149.143247,9696.697840
1071.912753,-2664.741391,-1455.581446,7994.224174
1071.913083,-2294.638420,-2681.334243,6883.915261
1071.913413,-1850.514855,-2145.067394,7105.977043
1071.913742,-1036.288319,-1225.752797,7772.162391
1071.914072,-740.205942,0.000000,8586.388927
1071.914402,-2442.679609,2528.115143,10584.944971
1071.914731,-5107.421000,4749.792088,12139.377449
1071.915061,-7105.977043,5898.935335,12731.542202
1071.915391,-7698.141797,5286.058936,13471.748144
1071.915721,-8068.244768,3140.991542,13545.768739
1071.916050,-7550.100608,689.485948,11029.068536
1071.916380,-5403.503377,-2145.067394,7920.203579
1071.916710,-2590.720797,-4596.572988,5477.523971
1071.917040,-222.061783,-4443.353888,6069.688724
1071.917369,518.144159,-1532.190996,6661.853478
1071.917699,592.164754,766.095498,7179.997637
1071.918029,-370.102971,3294.210641,8882.471304
1071.918359,-2294.638420,5592.497135,11177.109724
1071.918688,-3552.988522,7431.126331,11991.336260
1071.919018,-5181.441594,5209.449386,12287.418637
1071.919348,-7624.121203,2145.067394,12509.480420
1071.919677,-9622.677246,229.828649,12139.377449
1071.920007,-9622.677246,-1302.362347,11251.130318
1071.920337,-8438.347739,-2528.115143,9178.553681
1071.920667,-5625.565159,-4979.620737,6513.812290
1071.920996,-3034.844362,-4366.744339,5477.523971
1071.921326,-370.102971,-1762.019645,5403.503377
1071.921656,814.226536,1225.752797,6217.729913
1071.921986,222.061783,4826.401637,7698.141797
1071.922315,-1480.411884,7354.516781,9474.636058
1071.922645,-3627.009116,7814.174080,11177.109724
1071.922975,-5847.626942,5362.668486,12805.562797
1071.923304,-8512.368333,2757.943793,12583.501014
1071.923634,-9770.718434,-153.219100,11473.192101
1071.923964,-8956.491898,-3140.991542,9992.780217
1071.924294,-7846.182985,-5822.325785,9622.677246
1071.924623,-5773.606348,-5745.716235,8364.327145
1071.924953,-3108.864956,-3677.258390,6957.935855
1071.925283,-148.041188,-1608.800546,6365.771101
1071.925613,2442.679609,1685.410096,7846.182985
1071.925942,2442.679609,4673.182538,9918.759623
1071.926272,1406.391290,7507.735880,11251.130318
1071.926602,-1036.288319,8044.002729,11917.315666
1071.926931,-4367.215058,4979.620737,12953.603985
1071.927261,-7031.956449,1991.848295,14211.954086
1071.927591,-8956.491898,0.000000,13027.624579
1071.927921,-9770.718434,-2681.334243,10658.965565
1071.928250,-8142.265362,-5439.278036,7624.121203
1071.928580,-5329.482782,-6052.154434,5773.606348
1071.928910,-2146.597232,-4213.525239,5551.544565
1071.929240,370.102971,-1378.971896,5625.565159
1071.929569,666.185348,2374.896044,6735.874072
1071.929899,0.000000,6741.640382,8290.306550
1071.930229,-1406.391290,9806.022374,10140.821405
1071.930559,-3256.906145,8810.098227,12287.418637
1071.930888,-5107.421000,6741.640382,13027.624579
1071.931218,-6883.915261,3447.429741,12657.521608
1071.931548,-7328.038826,306.438199,11991.336260
1071.931877,-7994.224174,-1991.848295,10510.924376
1071.932207,-7179.997637,-3600.648841,8808.450710
1071.932537,-5329.482782,-3983.696590,7179.997637
1071.932867,-2516.700203,-1072.533697,6143.709319
1071.933196,296.082377,1149.143247,6217.729913
1071.933526,1554.432478,3217.601092,7254.018232
1071.933856,1258.350101,6358.592633,8512.368333
1071.934186,0.000000,7737.564530,9844.739029
1071.934515,-1406.391290,7737.564530,11251.130318
1071.934845,-3182.885551,5745.716235,11843.295072
1071.935175,-4515.256246,3907.087040,11621.233289
1071.935504,-4737.318029,919.314598,10214.842000
1071.935834,-4589.276840,-1302.362347,8882.471304
1071.936164,-3330.926739,-2757.943793,8586.388927
1071.936494,-2220.617826,-995.924147,7624.121203
1071.936823,-1924.535449,1532.190996,8068.244768
1071.937153,-1924.535449,3140.991542,8660.409521
1071.937483,-1998.556043,4749.792088,9918.759623
1071.937813,-2146.597232,6894.859482,10807.006753
1071.938142,-1628.453072,7507.735880,11251.130318
1071.938472,-2146.597232,5592.497135,11325.150913
1071.938802,-2368.659014,3983.696590,10881.027347
1071.939131,-1998.556043,2451.505594,10362.883188
1071.939461,-1480.411884,1302.362347,9400.615463
1071.939791,-1554.432478,1225.752797,8290.306550
1071.940121,-1110.308913,1915.238745,8438.347739
1071.940450,-370.102971,2834.553343,9252.574275
1071.940780,-296.082377,5286.058936,9992.780217
1071.941110,-1406.391290,7277.907231,10436.903782
1071.941440,-2146.597232,7660.954980,10288.862594
1071.941769,-2072.576638,7354.516781,9400.615463
1071.942099,-2664.741391,6128.763984,9178.553681
1071.942429,-2738.761985,4290.134789,7772.162391
1071.942759,-1628.453072,2145.067394,6217.729913
1071.943088,-592.164754,153.219100,5625.565159
1071.943418,-666.185348,383.047749,6069.688724
1071.943748,-1850.514855,995.924147,7698.141797
1071.944077,-2516.700203,3217.601092,8882.471304
1071.944407,-2886.803174,5286.058936,10066.800811
1071.944737,-2590.720797,6971.469032,11325.150913
1071.945067,-1850.514855,7277.907231,11177.109724
1071.945396,-740.205942,6052.154434,10584.944971
1071.945726,-222.061783,5209.449386,9844.739029
1071.946056,-444.123565,4290.134789,9622.677246
1071.946386,-666.185348,3907.087040,9770.718434
1071.946715,-666.185348,2911.162892,9030.512492
1071.947045,-444.123565,1685.410096,8290.306550
1071.947375,222.061783,1532.190996,8734.430116
1071.947704,740.205942,1762.019645,9252.574275
1071.948034,666.185348,2451.505594,10066.800811
1071.948364,-740.205942,4519.963438,10732.986159
1071.948694,-2368.659014,5515.887586,11547.212695
1071.949023,-2368.659014,6358.592633,12287.418637
1071.949353,-1332.370696,5898.935335,12213.398043
1071.949683,-1036.288319,4596.572988,10955.047942
1071.950013,-888.247130,4136.915689,9474.636058
1071.950342,0.000000,3600.648841,8956.491898
1071.950672,74.020594,4519.963438,9326.594869
1071.951002,0.000000,4979.620737,8882.471304
1071.951331,-296.082377,4749.792088,7254.018232
1071.951661,0.000000,3294.210641,6587.832884
1071.951991,-148.041188,2374.896044,6661.853478
1071.952321,-740.205942,2604.724693,7772.162391
1071.952650,-1850.514855,2528.115143,9030.512492
1071.952980,-3256.906145,2757.943793,9622.677246
1071.953310,-3701.029710,3447.429741,10288.862594
1071.953640,-3034.844362,3677.258390,11103.089130
1071.953969,-1554.432478,4673.182538,11029.068536
1071.954299,-814.226536,4903.011187,9992.780217
1071.954629,-222.061783,5439.278036,8956.491898
1071.954958,518.144159,5669.106685,9104.533087
1071.955288,1184.329507,5822.325785,9400.615463
1071.955618,666.185348,6128.763984,9548.656652
1071.955948,74.020594,5515.887586,8364.327145
1071.956277,-962.267725,4290.134789,7994.224174
1071.956607,-1702.473667,2374.896044,7846.182985
1071.956937,-2294.638420,766.095498,7994.224174
1071.957267,-2368.659014,0.000000,8512.368333
1071.957596,-2516.700203,-612.876398,9178.553681
1071.957926,-2442.679609,1149.143247,9918.759623
1071.958256,-1628.453072,2451.505594,10881.027347
1071.958586,-814.226536,3907.087040,11399.171507
1071.958915,-148.041188,5898.935335,12657.521608
1071.959245,0.000000,7201.297681,12287.418637
1071.959575,-444.123565,7277.907231,11621.233289
1071.959904,0.000000,5975.544884,10584.944971
1071.960234,-222.061783,4213.525239,10214.842000
1071.960564,-666.185348,3140.991542,9770.718434
1071.960894,-1554.432478,2834.553343,8512.368333
1071.961223,-2368.659014,3064.381992,8290.306550
1071.961553,-1776.494261,1762.019645,8068.244768
1071.961882,-814.226536,1455.581446,7846.182985
1071.962212,-148.041188,1838.629195,7846.182985
1071.962542,222.061783,2528.115143,7698.141797
1071.962871,222.061783,3753.867940,9030.512492
1071.963201,-370.102971,5362.668486,10288.862594
1071.963530,-1036.288319,6588.421283,11547.212695
1071.963860,-1332.370696,7277.907231,12361.439231
1071.964189,-1776.494261,7201.297681,11917.315666
1071.964519,-2812.782580,6435.202183,11029.068536
1071.964849,-2738.761985,5822.325785,9104.533087
1071.965178,-1628.453072,3830.477490,6587.832884
1071.965508,444.123565,1991.848295,4737.318029
1071.965837,2368.659014,1455.581446,4441.235652
1071.966167,2812.782580,1225.752797,4959.379811
1071.966496,1850.514855,2451.505594,6439.791695
1071.966826,-740.205942,4213.525239,8734.430116
1071.967156,-3108.864956,6205.373534,11103.089130
1071.967485,-4441.235652,7048.078582,13323.706956
1071.967815,-3923.091493,6281.983084,14508.036463
1071.968144,-3775.050304,5209.449386,14063.912898
1071.968474,-4367.215058,4519.963438,12805.562797
1071.968804,-3849.070898,3600.648841,10732.986159
1071.969133,-2072.576638,2757.943793,8586.388927
1071.969463,888.247130,2221.676944,6365.771101
1071.969792,3775.050304,2374.896044,4811.338623
1071.970122,4959.379811,2221.676944,4811.338623
1071.970451,4663.297435,3064.381992,6365.771101
1071.970781,1406.391290,4749.792088,8216.285956
1071.971111,-2220.617826,7124.688131,11769.274478
1071.971440,-4515.256246,8963.317327,14211.954086
1071.971770,-5329.482782,7354.516781,14508.036463
1071.972099,-3849.070898,4213.525239,13249.686362
1071.972429,-1924.535449,842.705048,10436.903782
1071.972758,-518.144159,-229.828649,7772.162391
1071.973088,0.000000,459.657299,7105.977043
1071.973418,-296.082377,2451.505594,8290.306550
1071.973747,-888.247130,5592.497135,9178.553681
1071.974077,-1332.370696,6435.202183,8364.327145
1071.974406,-888.247130,4060.306139,6587.832884
1071.974736,-222.061783,1685.410096,6587.832884
1071.975065,0.000000,1072.533697,8438.347739
1071.975395,-1554.432478,2834.553343,11029.068536
1071.975725,-2664.741391,4366.744339,12287.418637
1071.976054,-3182.885551,4826.401637,12805.562797
1071.976384,-2368.659014,5439.278036,12213.398043
1071.976713,-740.205942,4519.963438,10214.842000
1071.977043,814.226536,3217.601092,7476.080014
1071.977373,2368.659014,1532.190996,6069.688724
1071.977702,3182.885551,1455.581446,6143.709319
1071.978032,2294.638420,3064.381992,7328.038826
1071.978361,1036.288319,3830.477490,9104.533087
1071.978691,-296.082377,4136.915689,10510.924376
1071.979020,-2368.659014,4519.963438,12213.398043
1071.979350,-3849.070898,5132.839837,12139.377449
1071.979680,-3478.967927,3983.696590,12139.377449
1071.980009,-2368.659014,2145.067394,12213.398043
1071.980339,-2368.659014,1378.971896,11621.233289
1071.980668,-2368.659014,2757.943793,9844.739029
1071.980998,-1850.514855,2911.162892,8438.347739
1071.981327,-592.164754,4290.134789,7846.182985
1071.981657,222.061783,5209.449386,7476.080014
1071.981987,1998.556043,4749.792088,6809.894666
1071.982316,3330.926739,1915.238745,5995.668130
1071.982646,2590.720797,1915.238745,6735.874072
1071.982975,1036.288319,4060.306139,9474.636058
1071.983305,-1036.288319,5592.497135,13175.665768
1071.983635,-2812.782580,7354.516781,14359.995275
1071.983964,-4293.194464,8273.831378,13989.892304
1071.984294,-3330.926739,6435.202183,12879.583391
1071.984623,-1406.391290,3064.381992,11325.150913
1071.984953,-1258.350101,1149.143247,9178.553681
1071.985282,-2664.741391,2221.676944,5921.647536
1071.985612,-2886.803174,2834.553343,3775.050304
1071.985942,-1406.391290,2834.553343,3627.009116
1071.986271,444.123565,2911.162892,4811.338623
1071.986601,1036.288319,3294.210641,5107.421000
1071.986930,740.205942,3830.477490,4663.297435
1071.987260,1406.391290,3677.258390,6217.729913
1071.987589,1702.473667,3294.210641,9918.759623
1071.987919,-444.123565,4519.963438,13471.748144
1071.988249,-3478.967927,5362.668486,14952.160028
1071.988578,-4145.153275,4519.963438,14730.098246
1071.988908,-3478.967927,3600.648841,14359.995275
1071.989237,-2812.782580,3294.210641,13175.665768
1071.989567,-2368.659014,2221.676944,11029.068536
1071.989896,-1332.370696,-842.705048,7846.182985
1071.990226,-888.247130,-1378.971896,5181.441594
1071.990556,0.000000,-76.609550,4219.173869
1071.990885,2368.659014,-459.657299,5107.421000
1071.991215,3182.885551,0.000000,6365.771101
1071.991544,2664.741391,1072.533697,7772.162391
1071.991874,2146.597232,1685.410096,10288.862594
1071.992204,1036.288319,1072.533697,13397.727550
1071.992533,-1480.411884,2298.286494,15248.242405
1071.992863,-3256.906145,2451.505594,16728.654289
1071.993192,-4219.173869,1072.533697,16210.510130
1071.993522,-5255.462188,459.657299,14730.098246
1071.993851,-4885.359217,0.000000,12509.480420
1071.994181,-3256.906145,-229.828649,10066.800811
1071.994511,-740.205942,0.000000,6217.729913
1071.994840,2960.823768,-1762.019645,2368.659014
1071.995170,6661.853478,-4060.306139,1480.411884
1071.995499,6587.832884,-1302.362347,2812.782580
1071.995829,3997.112087,3064.381992,4737.318029
1071.996158,1998.556043,5209.449386,7476.080014
1071.996488,444.123565,3064.381992,11843.295072
1071.996818,-1258.350101,3140.991542,15766.386565
1071.997147,-4663.297435,3524.039291,16950.716072
1071.997477,-7328.038826,1072.533697,15100.201217
1071.997806,-9326.594869,-1455.581446,12953.603985
1071.998136,-9474.636058,-2374.896044,11177.109724
1071.998466,-7476.080014,-2604.724693,9696.697840
1071.998795,-3478.967927,-3370.820191,7476.080014
1071.999125,1110.308913,-1378.971896,3478.967927
1071.999454,4293.194464,-612.876398,148.041188
1071.999784,7179.997637,-1149.143247,666.185348
1072.000113,6365.771101,1532.190996,4367.215058
1072.000443,3701.029710,6435.202183,8734.430116
1072.000773,1258.350101,8580.269578,13027.624579
1072.001102,-962.267725,6358.592633,17024.736666
1072.001432,-5255.462188,3983.696590,19393.395680
1072.001761,-8808.450710,1762.019645,18653.189738
1072.002091,-9400.615463,-459.657299,14434.015869
1072.002420,-6883.915261,-1838.629195,9104.533087
1072.002750,-2442.679609,-4366.744339,5921.647536
1072.003080,1628.453072,-5975.544884,2590.720797
1072.003409,2886.803174,-4979.620737,888.247130
1072.003739,4367.215058,-689.485948,444.123565
1072.004068,5181.441594,4213.525239,2442.679609
1072.004398,5033.400406,5056.230287,7328.038826
1072.004728,2812.782580,4366.744339,13027.624579
1072.005057,-1184.329507,5286.058936,16876.695478
1072.005387,-5255.462188,5056.230287,18431.127956
1072.005716,-7328.038826,4366.744339,18431.127956
1072.006046,-8068.244768,2145.067394,16802.674883
1072.006375,-6291.750507,-1532.190996,12583.501014
1072.006705,-2590.720797,-5975.544884,7328.038826
1072.007035,1776.494261,-5286.058936,3701.029710
1072.007364,5107.421000,-2757.943793,1628.453072
1072.007694,6365.771101,-459.657299,1924.535449
1072.008023,5329.482782,2298.286494,3627.009116
1072.008353,4145.153275,4826.401637,8142.265362
1072.008682,2368.659014,6205.373534,13471.748144
1072.009012,-444.123565,8580.269578,16432.571912
1072.009342,-3775.050304,6281.983084,16876.695478
1072.009671,-6217.729913,1685.410096,16284.530724
1072.010001,-7624.121203,-842.705048,14211.954086
1072.010330,-6883.915261,-2068.457845,11473.192101
1072.010660,-4293.194464,-2451.505594,8660.409521
1072.010989,-1702.473667,-2221.676944,2590.720797
1072.011319,1998.556043,-3294.210641,-1702.473667
1072.011649,7031.956449,-4979.620737,-1702.473667
1072.011978,7920.203579,-689.485948,2294.638420
1072.012308,4293.194464,6205.373534,5847.626942
1072.012637,-370.102971,9806.022374,9918.759623
1072.012967,-3552.988522,7890.783629,14211.954086
1072.013297,-5625.565159,4903.011187,18061.024985
1072.013626,-8142.265362,2451.505594,20059.581028
1072.013956,-10066.800811,-229.828649,15692.365970
1072.014285,-9252.574275,-2451.505594,10436.903782
1072.014615,-5921.647536,-6281.983084,6661.853478
1072.014944,-1406.391290,-8350.440928,4663.297435
1072.015274,1184.329507,-7048.078582,3330.926739
1072.015604,2960.823768,-2528.115143,2738.761985
1072.015933,3849.070898,2068.457845,3478.967927
1072.016263,5847.626942,3447.429741,6291.750507
1072.016592,6957.935855,2911.162892,11769.274478
1072.016922,4589.276840,3983.696590,16802.674883
1072.017251,-1332.370696,6894.859482,19171.333898
1072.017581,-6291.750507,7048.078582,19911.539840
1072.017911,-7105.977043,4060.306139,19097.313304
1072.018240,-5329.482782,0.000000,15248.242405
1072.018570,-2368.659014,-5209.449386,9400.615463
1072.018899,1332.370696,-8197.221829,4071.132681
1072.019229,4219.173869,-7277.907231,592.164754
1072.019559,4663.297435,-2604.724693,666.185348
1072.019888,3997.112087,1149.143247,3034.844362
1072.020218,2590.720797,2987.772442,7772.162391
1072.020547,1332.370696,5669.106685,12953.603985
1072.020877,-2072.576638,9116.536426,15914.427753
1072.021206,-5255.462188,7354.516781,16062.468941
1072.021536,-7402.059420,3370.820191,16506.592507
1072.021866,-8216.285956,383.047749,15692.365970
1072.022195,-7402.059420,0.000000,11769.274478
1072.022525,-5181.441594,-1532.190996,6735.874072
1072.022854,-1702.473667,-4673.182538,1036.288319
1072.023184,1332.370696,-6205.373534,-370.102971
1072.023513,4293.194464,-3447.429741,888.247130
1072.023843,5477.523971,2145.067394,3552.988522
1072.024173,5773.606348,6281.983084,4219.173869
1072.024502,4367.215058,6128.763984,8068.244768
1072.024832,1258.350101,6435.202183,14063.912898
1072.025161,-3330.926739,8044.002729,18209.066173
1072.025491,-5921.647536,6281.983084,18949.272115
1072.025820,-7105.977043,3064.381992,15618.345376
1072.026150,-6439.791695,-536.266849,11251.130318
1072.026480,-4071.132681,-5056.230287,7476.080014
1072.026809,-888.247130,-8503.660028,4219.173869
1072.027139,962.267725,-7507.735880,1628.453072
1072.027468,2442.679609,-1762.019645,740.205942
1072.027798,4589.276840,766.095498,1554.432478
1072.028128,4811.338623,1838.629195,6957.935855
1072.028457,2516.700203,3447.429741,12435.459826
1072.028787,-666.185348,6435.202183,15618.345376
1072.029116,-3775.050304,6971.469032,17024.736666
1072.029446,-5847.626942,4673.182538,18283.086767
1072.029775,-7772.162391,536.266849,19097.313304
1072.030105,-7846.182985,-1532.190996,15840.407159
1072.030435,-5403.503377,-4903.011187,10214.842000
1072.030764,-1110.308913,-7124.688131,4663.297435
1072.031094,2442.679609,-6281.983084,2368.659014
1072.031423,4885.359217,-4596.572988,3701.029710
1072.031753,5625.565159,-995.924147,5107.421000
1072.032082,4071.132681,3217.601092,7402.059420
1072.032412,2886.803174,6128.763984,10732.986159
1072.032742,1258.350101,7124.688131,15174.221811
1072.033071,-2368.659014,6665.030833,17542.880825
1072.033401,-5329.482782,5898.935335,18209.066173
1072.033730,-6883.915261,2834.553343,15544.324782
1072.034060,-6291.750507,0.000000,10436.903782
1072.034390,-4219.173869,-3677.258390,6439.791695
1072.034719,-1480.411884,-6205.373534,2664.741391
1072.035049,740.205942,-6205.373534,592.164754
1072.035378,2368.659014,-3524.039291,-962.267725
1072.035708,2738.761985,-536.266849,666.185348
1072.036037,3034.844362,2451.505594,4219.173869
1072.036367,1406.391290,5362.668486,10584.944971
1072.036697,-1184.329507,7584.345430,15100.201217
1072.037026,-4589.276840,6894.859482,16358.551318
1072.037356,-7179.997637,4903.011187,16284.530724
1072.037685,-8142.265362,2145.067394,14804.118840
1072.038015,-7105.977043,-766.095498,12213.398043
1072.038344,-3404.947333,-4366.744339,7550.100608
1072.038674,-740.205942,-6358.592633,4145.153275
1072.039004,592.164754,-5669.106685,1850.514855
1072.039333,666.185348,-2451.505594,2294.638420
1072.039663,2664.741391,-766.095498,4219.173869
1072.039992,5107.421000,2221.676944,8364.327145
1072.040322,4959.379811,3983.696590,12213.398043
1072.040652,2368.659014,4826.401637,14952.160028
1072.040981,-1850.514855,4060.306139,17616.901420
1072.041311,-4811.338623,4366.744339,19393.395680
1072.041640,-6957.935855,4290.134789,18727.210333
1072.041970,-5107.421000,1225.752797,15470.304188
1072.042299,-2368.659014,-3294.210641,9770.718434
1072.042629,518.144159,-7124.688131,3997.112087
1072.042959,3182.885551,-8350.440928,1332.370696
1072.043288,5181.441594,-4903.011187,1554.432478
1072.043618,5773.606348,612.876398,4441.235652
1072.043947,4071.132681,4826.401637,7698.141797
1072.044277,1628.453072,6205.373534,11843.295072
1072.044606,-888.247130,7277.907231,15100.201217
1072.044936,-2738.761985,7507.735880,15914.427753
1072.045266,-4885.359217,5745.716235,16210.510130
1072.045595,-6365.771101,2221.676944,15026.180623
1072.045925,-7254.018232,-536.266849,12361.439231
1072.046254,-6883.915261,-2834.553343,9252.574275
1072.046584,-5329.482782,-4060.306139,3923.091493
1072.046913,-1258.350101,-3753.867940,-74.020594
1072.047243,3182.885551,-3217.601092,-592.164754
1072.047573,5699.585753,-2374.896044,370.102971
1072.047902,5329.482782,1608.800546,3627.009116
1072.048232,2368.659014,5362.668486,9030.512492
1072.048561,-962.267725,9116.536426,13619.789333
1072.048891,-4441.235652,10112.460574,16654.633695
1072.049221,-6069.688724,7584.345430,17912.983796
1072.049550,-6661.853478,2298.286494,16728.654289
1072.049880,-5773.606348,-689.485948,11991.336260
1072.050209,-3404.947333,-1991.848295,6513.812290
1072.050539,-740.205942,-5515.887586,3256.906145
1072.050868,740.205942,-6818.249932,1998.556043
1072.051198,1924.535449,-4213.525239,2812.782580
1072.051528,2220.617826,-1225.752797,4515.256246
1072.051857,2812.782580,2451.505594,6365.771101
1072.052187,2368.659014,4290.134789,10510.924376
1072.052516,962.267725,4136.915689,15026.180623
1072.052846,-2516.700203,4060.306139,18653.189738
1072.053175,-5699.585753,6358.592633,19689.478057
1072.053505,-7624.121203,4826.401637,17468.860231
1072.053835,-6587.832884,-383.047749,13249.686362
1072.054164,-2960.823768,-4749.792088,9030.512492
1072.054494,74.020594,-8733.488677,5625.565159
1072.054823,2220.617826,-7890.783629,2738.761985
1072.055153,2220.617826,-3217.601092,3552.988522
1072.055483,3330.926739,-153.219100,4293.194464
1072.055812,3627.009116,2068.457845,8808.450710
1072.056142,2516.700203,3830.477490,14211.954086
1072.056471,222.061783,6741.640382,16950.716072
1072.056801,-2368.659014,7431.126331,16580.613101
1072.057130,-4145.153275,5669.106685,15692.365970
1072.057460,-4811.338623,1915.238745,15100.201217
1072.057790,-4811.338623,-766.095498,12435.459826
1072.058119,-3775.050304,-2298.286494,8438.347739
1072.058449,-1776.494261,-3677.258390,3256.906145
1072.058778,222.061783,-3907.087040,-814.226536
1072.059108,3478.967927,-4443.353888,-1480.411884
1072.059437,5699.585753,-1991.848295,2960.823768
1072.059767,4663.297435,2604.724693,5033.400406
1072.060097,1850.514855,7354.516781,9030.512492
1072.060426,-1332.370696,9882.631924,12361.439231
1072.060756,-3701.029710,9729.412825,15026.180623
1072.061085,-4811.338623,6665.030833,16506.592507
1072.061415,-6143.709319,2911.162892,15100.201217
1072.061744,-6883.915261,842.705048,11473.192101
1072.062074,-6069.688724,-1838.629195,7105.977043
1072.062404,-4737.318029,-5286.058936,3330.926739
1072.062733,-1998.556043,-6281.983084,1924.535449
1072.063063,444.123565,-5209.449386,1628.453072
1072.063391,3182.885551,-1455.581446,3330.926739
1072.063720,2590.720797,2604.724693,5625.565159
1072.064050,1406.391290,4290.134789,10140.821405
1072.064380,0.000000,5056.230287,15322.262999
1072.064709,-2220.617826,7277.907231,18875.251521
1072.065039,-4293.194464,8503.660028,19393.395680
1072.065368,-4959.379811,4060.306139,17320.819043
1072.065698,-4811.338623,-383.047749,13323.706956
1072.066028,-1924.535449,-3217.601092,9548.656652
1072.066357,740.205942,-6665.030833,6883.915261
1072.066687,1998.556043,-4979.620737,4293.194464
1072.067016,2738.761985,-2451.505594,4219.173869
1072.067346,3849.070898,-1302.362347,5255.462188
1072.067676,3627.009116,1762.019645,8586.388927
1072.068005,1924.535449,5056.230287,12435.459826
1072.068335,-222.061783,6741.640382,15100.201217
1072.068664,-2516.700203,7124.688131,16802.674883
1072.068994,-4219.173869,7354.516781,16876.695478
1072.069324,-6291.750507,4060.306139,15322.262999
1072.069653,-6143.709319,-1838.629195,10955.047942
1072.069983,-5255.462188,-3064.381992,6587.832884
1072.070312,-3034.844362,-4443.353888,2664.741391
1072.070642,-592.164754,-4060.306139,1332.370696
1072.070972,962.267725,-3753.867940,222.061783
1072.071301,2664.741391,-2221.676944,2516.700203
1072.071631,2146.597232,2068.457845,5477.523971
1072.071960,740.205942,6205.373534,11103.089130
1072.072290,-1998.556043,9576.193725,14285.974681
1072.072620,-4071.132681,8273.831378,15766.386565
1072.072949,-4737.318029,5286.058936,15692.365970
1072.073279,-4959.379811,3294.210641,13545.768739
1072.073608,-3627.009116,-229.828649,10955.047942
1072.073938,-1554.432478,-2604.724693,6957.935855
1072.074268,-518.144159,-4673.182538,3627.009116
1072.074597,222.061783,-4903.011187,740.205942
1072.074927,1628.453072,-3064.381992,3108.864956
1072.075256,2812.782580,-383.047749,4219.173869
1072.075586,3478.967927,2374.896044,6439.791695
1072.075916,2442.679609,3600.648841,10955.047942
1072.076245,296.082377,4749.792088,15174.221811
1072.076575,-2738.761985,6358.592633,17468.860231
1072.076904,-5329.482782,6205.373534,17616.901420
1072.077234,-6291.750507,4213.525239,16062.468941
1072.077564,-5329.482782,689.485948,12287.418637
1072.077893,-2590.720797,-3983.696590,8438.347739
1072.078223,148.041188,-6818.249932,5551.544565
1072.078552,1110.308913,-5669.106685,2664.741391
1072.078882,1628.453072,-3294.210641,3330.926739
1072.079212,1998.556043,-766.095498,6291.750507
1072.079541,1554.432478,1838.629195,9548.656652
1072.079871,222.061783,4443.353888,13841.851115
1072.080200,-1332.370696,6128.763984,15840.407159
1072.080530,-3108.864956,6052.154434,16358.551318
1072.080860,-3923.091493,5439.278036,16506.592507
1072.081189,-4663.297435,2298.286494,15914.427753
1072.081519,-3849.070898,689.485948,12583.501014
1072.081848,-2664.741391,-1532.190996,7105.977043
1072.082178,-814.226536,-5439.278036,2738.761985
1072.082508,1332.370696,-4596.572988,1554.432478
1072.082837,2960.823768,-1915.238745,3404.947333
1072.083167,3627.009116,1225.752797,4737.318029
1072.083496,2516.700203,3677.258390,5403.503377
1072.083826,1998.556043,5056.230287,10436.903782
1072.084156,0.000000,7967.393179,14434.015869
1072.084485,-3108.864956,8350.440928,15470.304188
1072.084815,-4737.318029,6665.030833,14656.077652
1072.085144,-5551.544565,2604.724693,12583.501014
1072.085474,-4885.359217,76.609550,9770.718434
1072.085804,-2664.741391,-1608.800546,6661.853478
1072.086133,-2072.576638,-4366.744339,3330.926739
1072.086463,-740.205942,-4213.525239,222.061783
1072.086792,0.000000,-2911.162892,1998.556043
1072.087122,1258.350101,-153.219100,3404.947333
1072.087452,1406.391290,1532.190996,6883.915261
1072.087781,740.205942,3447.429741,11621.233289
1072.088111,-1184.329507,5286.058936,15100.201217
1072.088440,-3330.926739,6511.811733,16580.613101
1072.088770,-4515.256246,5056.230287,17024.736666
1072.089100,-4515.256246,2987.772442,15988.448347
1072.089429,-2960.823768,995.924147,13249.686362
1072.089759,-148.041188,-2068.457845,9252.574275
1072.090088,2146.597232,-5056.230287,5329.482782
1072.090418,2812.782580,-4749.792088,3997.112087
1072.090748,2368.659014,-2911.162892,4811.338623
1072.091077,2146.597232,76.609550,7031.956449
1072.091407,2368.659014,3370.820191,9918.759623
1072.091736,1628.453072,3907.087040,12805.562797
1072.092066,-518.144159,4060.306139,14434.015869
1072.092396,-2516.700203,4596.572988,15248.242405
1072.092725,-3775.050304,4366.744339,15544.324782
1072.093055,-4589.276840,3294.210641,14878.139434
1072.093384,-4441.235652,1378.971896,10658.965565
1072.093714,-2960.823768,-2298.286494,6735.874072
1072.094044,-296.082377,-5132.839837,3552.988522
1072.094373,814.226536,-3907.087040,1332.370696
1072.094703,1924.535449,-1838.629195,2960.823768
1072.095032,1924.535449,-153.219100,4441.235652
1072.095362,814.226536,1762.019645,7031.956449
1072.095692,-888.247130,4903.011187,12361.439231
1072.096021,-2294.638420,7507.735880,15026.180623
1072.096351,-3330.926739,6971.469032,14804.118840
1072.096680,-3552.988522,4290.134789,13767.830521
1072.097010,-3997.112087,1685.410096,12657.521608
1072.097340,-4145.153275,383.047749,10436.903782
1072.097669,-2294.638420,-1991.848295,7179.997637
1072.097999,-592.164754,-3064.381992,3849.070898
1072.098328,888.247130,-3600.648841,1184.329507
1072.098658,1776.494261,-4136.915689,3108.864956
1072.098988,2812.782580,-2068.457845,4737.318029
1072.099317,2146.597232,1608.800546,8068.244768
1072.099647,370.102971,4519.963438,11843.295072
1072.099976,-1998.556043,5286.058936,15026.180623
1072.100306,-3182.885551,5439.278036,17024.736666
1072.100636,-3849.070898,4443.353888,17172.777854
1072.100965,-4663.297435,2987.772442,14285.974681
1072.101295,-3182.885551,383.047749,10362.883188
1072.101624,0.000000,-3677.258390,7254.018232
1072.101954,962.267725,-5056.230287,5551.544565
1072.102284,888.247130,-3140.991542,3552.988522
1072.102613,740.205942,-2451.505594,4663.297435
1072.102943,1332.370696,-1072.533697,5625.565159
1072.103272,148.041188,1608.800546,9326.594869
1072.103602,-740.205942,2911.162892,13989.892304
1072.103932,-2368.659014,3677.258390,15766.386565
1072.104261,-3330.926739,4443.353888,15988.448347
1072.104591,-3701.029710,4519.963438,14730.098246
1072.104920,-3923.091493,2145.067394,12953.603985
1072.105250,-3330.926739,-1149.143247,10510.924376
1072.105580,-444.123565,-2681.334243,7994.224174
1072.105909,1628.453072,-2145.067394,5255.462188
1072.106239,2442.679609,0.000000,4071.132681
1072.106568,2812.782580,-76.609550,3256.906145
1072.106898,3256.906145,-995.924147,4737.318029
1072.107228,1554.432478,1991.848295,8956.491898
1072.107557,-518.144159,5669.106685,13101.645173
1072.107887,-2442.679609,7431.126331,14582.057057
1072.108216,-3552.988522,5286.058936,14211.954086
1072.108546,-5033.400406,2298.286494,13767.830521
1072.108876,-5477.523971,1378.971896,11843.295072
1072.109205,-4737.318029,0.000000,9104.533087
1072.109535,-2664.741391,-612.876398,5995.668130
1072.109864,-666.185348,-919.314598,2664.741391
1072.110194,1480.411884,-2451.505594,518.144159
1072.110524,4145.153275,-4290.134789,1258.350101
1072.110853,3404.947333,-689.485948,3701.029710
1072.111183,1628.453072,3983.696590,7328.038826
1072.111512,-740.205942,6128.763984,12361.439231
1072.111842,-2516.700203,6511.811733,15840.407159
1072.112172,-4589.276840,4673.182538,16876.695478
1072.112501,-5329.482782,3064.381992,16580.613101
1072.112831,-5329.482782,1532.190996,13175.665768
1072.113160,-3330.926739,-1378.971896,10362.883188
1072.113490,-666.185348,-4443.353888,7476.080014
1072.113820,0.000000,-4443.353888,5329.482782
1072.114149,370.102971,-3524.039291,3552.988522
1072.114479,1924.535449,-2528.115143,5033.400406
1072.114808,2294.638420,0.000000,6439.791695
1072.115138,1036.288319,1608.800546,9474.636058
1072.115468,1258.350101,1838.629195,13693.809927
1072.115797,-592.164754,2681.334243,16284.530724
1072.116127,-3404.947333,3370.820191,16950.716072
1072.116456,-4811.338623,3600.648841,17172.777854
1072.116786,-4959.379811,2068.457845,14878.139434
1072.117116,-2738.761985,76.609550,11399.171507
1072.117445,740.205942,-3677.258390,7254.018232
1072.117775,2590.720797,-4136.915689,3775.050304
1072.118104,3478.967927,-2528.115143,3108.864956
1072.118434,2442.679609,-1608.800546,4071.132681
1072.118764,2220.617826,766.095498,4885.359217
1072.119093,962.267725,2604.724693,8882.471304
1072.119423,-1258.350101,3983.696590,12879.583391
1072.119752,-4219.173869,5209.449386,14359.995275
1072.120082,-5773.606348,3600.648841,14508.036463
1072.120412,-5847.626942,1378.971896,14211.954086
1072.120741,-6513.812290,612.876398,11769.274478
1072.121071,-5033.400406,-306.438199,8586.388927
1072.121400,-1924.535449,-2528.115143,5107.421000
1072.121730,1036.288319,-2987.772442,2738.761985
1072.122060,2442.679609,-1455.581446,1110.308913
1072.122389,4219.173869,-689.485948,2442.679609
1072.122719,4219.173869,1302.362347,4589.276840
1072.123048,3108.864956,3677.258390,8216.285956
1072.123378,666.185348,4903.011187,13249.686362
1072.123708,-2368.659014,5592.497135,16210.510130
1072.124037,-4811.338623,4749.792088,17172.777854
1072.124367,-6069.688724,3753.867940,16284.530724
1072.124696,-5699.585753,1225.752797,13249.686362
1072.125026,-3330.926739,-1991.848295,9548.656652
1072.125356,-222.061783,-4596.572988,6735.874072
1072.125685,962.267725,-3447.429741,3256.906145
1072.126015,2220.617826,-1455.581446,1480.411884
1072.126344,3182.885551,-1608.800546,2294.638420
1072.126674,3775.050304,383.047749,4737.318029
1072.127004,2294.638420,3140.991542,9474.636058
1072.127333,0.000000,4060.306139,14211.954086
1072.127663,-2516.700203,4749.792088,16506.592507
1072.127992,-4737.318029,3753.867940,17320.819043
1072.128322,-6365.771101,2221.676944,17616.901420
1072.128652,-6587.832884,0.000000,15766.386565
1072.128981,-4589.276840,-1225.752797,12287.418637
1072.129311,-962.267725,-3370.820191,7698.141797
1072.129640,1406.391290,-3983.696590,3701.029710
1072.129970,3256.906145,-2221.676944,1850.514855
1072.130299,4589.276840,-1685.410096,4219.173869
1072.130629,4589.276840,1532.190996,5847.626942
1072.130959,2442.679609,4596.572988,8808.450710
1072.131288,222.061783,6052.154434,12509.480420
1072.131618,-1850.514855,5209.449386,15248.242405
1072.131947,-3182.885551,3753.867940,16210.510130
1072.132277,-4885.359217,1762.019645,16062.468941
1072.132607,-6143.709319,995.924147,13841.851115
1072.132936,-5477.523971,-459.657299,9918.759623
1072.133266,-3478.967927,-1915.238745,6069.688724
1072.133595,-370.102971,-2834.553343,2886.803174
1072.133925,2146.597232,-2681.334243,740.205942
1072.134255,4441.235652,-1762.019645,-0.000000
1072.134584,3849.070898,0.000000,2664.741391
1072.134914,1998.556043,3600.648841,6587.832884
1072.135243,-592.164754,4903.011187,12287.418637
1072.135573,-3701.029710,6358.592633,15840.407159
1072.135903,-6217.729913,5822.325785,16506.592507
1072.136232,-7254.018232,2757.943793,15396.283594
1072.136562,-6587.832884,536.266849,12139.377449
1072.136891,-4589.276840,-2757.943793,9474.636058
1072.137221,-1258.350101,-4826.401637,6143.709319
1072.137551,296.082377,-4366.744339,2960.823768
1072.137880,1776.494261,-3524.039291,1554.432478
1072.138210,2812.782580,-1991.848295,3404.947333
1072.138539,4515.256246,0.000000,5625.565159
1072.138869,4441.235652,2451.505594,10732.986159
1072.139199,3034.844362,3753.867940,14063.912898
1072.139528,-370.102971,3524.039291,16580.613101
1072.139858,-2664.741391,3677.258390,18727.210333
1072.140187,-4737.318029,2757.943793,19911.539840
1072.140517,-5477.523971,1915.238745,17912.983796
1072.140847,-4219.173869,-306.438199,12731.542202
1072.141176,-1110.308913,-5286.058936,7328.038826
1072.141506,2072.576638,-6511.811733,4071.132681
1072.141835,3701.029710,-4060.306139,2738.761985
1072.142165,3997.112087,-536.266849,4811.338623
1072.142495,3404.947333,2451.505594,4737.318029
1072.142824,2072.576638,3294.210641,7772.162391
1072.143154,74.020594,5056.230287,12657.521608
1072.143483,-1998.556043,5745.716235,15174.221811
1072.143813,-4219.173869,4979.620737,15248.242405
1072.144143,-5403.503377,2528.115143,14656.077652
1072.144472,-7105.977043,842.705048,12953.603985
1072.144802,-6957.935855,-612.876398,10807.006753
1072.145131,-4885.359217,-1991.848295,7105.977043
1072.145461,-2146.597232,-1838.629195,2442.679609
1072.145791,1776.494261,-1302.362347,-1332.370696
1072.146120,5773.606348,-2528.115143,-296.082377
1072.146450,6069.688724,459.657299,1924.535449
1072.146779,3997.112087,3753.867940,5921.647536
1072.147109,814.226536,7048.078582,11547.212695
1072.147439,-2516.700203,10035.851024,14804.118840
1072.147768,-4959.379811,8580.269578,16876.695478
1072.148098,-5403.503377,3983.696590,17024.736666
1072.148427,-5995.668130,766.095498,14656.077652
1072.148757,-5033.400406,-842.705048,9844.739029
1072.149087,-2886.803174,-3370.820191,6291.750507
1072.149416,-1258.350101,-4596.572988,3330.926739
1072.149746,888.247130,-3140.991542,2368.659014
1072.150075,1702.473667,-2298.286494,3997.112087
1072.150405,2738.761985,536.266849,3552.988522
1072.150735,3404.947333,2834.553343,7698.141797
1072.151064,2368.659014,3294.210641,12657.521608
1072.151394,-1258.350101,5056.230287,16284.530724
1072.151723,-4663.297435,4826.401637,18209.066173
1072.152053,-5773.606348,3830.477490,18875.251521
1072.152383,-5921.647536,2911.162892,16580.613101
1072.152712,-4515.256246,-536.266849,12953.603985
1072.153042,-1258.350101,-4979.620737,8290.306550
1072.153371,1036.288319,-6052.154434,4737.318029
1072.153701,3478.967927,-3217.601092,1924.535449
1072.154031,3404.947333,-995.924147,4219.173869
1072.154360,3997.112087,1378.971896,4145.153275
1072.154690,3330.926739,2834.553343,8438.347739
1072.155019,2368.659014,4136.915689,13323.706956
1072.155349,-1110.308913,6358.592633,14878.139434
1072.155679,-3923.091493,5822.325785,14952.160028
1072.156008,-4737.318029,2374.896044,15396.283594
1072.156338,-5551.544565,919.314598,14211.954086
1072.156667,-4885.359217,-612.876398,11473.192101
1072.156997,-2960.823768,-3524.039291,6661.853478
1072.157327,-592.164754,-3983.696590,1850.514855
1072.157656,1628.453072,-3830.477490,518.144159
1072.157986,3701.029710,-2681.334243,1406.391290
1072.158315,4071.132681,689.485948,4145.153275
1072.158645,2516.700203,3447.429741,6809.894666
1072.158975,444.123565,5669.106685,11251.130318
1072.159304,-2812.782580,7890.783629,14063.912898
1072.159634,-5255.462188,6205.373534,16136.489536
1072.159963,-5551.544565,1991.848295,16580.613101
1072.160293,-5921.647536,1072.533697,13915.871710
1072.160623,-5107.421000,76.609550,10066.800811
1072.160952,-2368.659014,-3907.087040,6365.771101
1072.161282,-888.247130,-5515.887586,3627.009116
1072.161611,-296.082377,-3140.991542,3034.844362
1072.161941,1480.411884,-2068.457845,2368.659014
1072.162271,2368.659014,612.876398,4737.318029
1072.162600,3256.906145,2374.896044,7179.997637
1072.162930,2294.638420,2757.943793,12953.603985
1072.163259,-740.205942,3983.696590,15766.386565
1072.163589,-4219.173869,5056.230287,17912.983796
1072.163918,-5181.441594,4749.792088,18949.272115
1072.164248,-5551.544565,3983.696590,16950.716072
1072.164578,-4145.153275,-536.266849,13101.645173
1072.164907,-444.123565,-4826.401637,8808.450710
1072.165237,1480.411884,-5669.106685,3627.009116
1072.165566,2590.720797,-3217.601092,2368.659014
1072.165896,2664.741391,-766.095498,4663.297435
1072.166225,3627.009116,1991.848295,5773.606348
1072.166555,2368.659014,3753.867940,9030.512492
1072.166885,888.247130,4443.353888,11769.274478
1072.167214,-1628.453072,5209.449386,14211.954086
1072.167544,-3256.906145,4979.620737,15100.201217
1072.167873,-4885.359217,4519.963438,15470.304188
1072.168203,-6069.688724,3064.381992,13545.768739
1072.168533,-5107.421000,459.657299,10955.047942
1072.168862,-3108.864956,-2451.505594,6957.935855
1072.169192,-1628.453072,-2451.505594,3478.967927
1072.169521,-518.144159,-1072.533697,-296.082377
1072.169851,2886.803174,-1225.752797,814.226536
1072.170180,3701.029710,1225.752797,2812.782580
1072.170510,3627.009116,2451.505594,5625.565159
1072.170840,962.267725,4903.011187,11177.109724
1072.171169,-2886.803174,7814.174080,14211.954086
1072.171499,-5107.421000,7431.126331,15914.427753
1072.171828,-5699.585753,4596.572988,15766.386565
1072.172158,-5329.482782,1915.238745,13989.892304
1072.172487,-3849.070898,-1072.533697,10584.944971
1072.172817,-1480.411884,-4673.182538,7254.018232
1072.173147,-888.247130,-4366.744339,4293.194464
1072.173476,-1036.288319,-1915.238745,3701.029710
1072.173806,-444.123565,-1762.019645,3552.988522
1072.174135,2220.617826,-383.047749,4885.359217
1072.174465,3552.988522,1532.190996,9104.533087
1072.174794,2960.823768,3370.820191,12583.501014
1072.175124,74.020594,4366.744339,14359.995275
1072.175454,-3330.926739,4290.134789,15322.262999
1072.175783,-4811.338623,4060.306139,17912.983796
1072.176113,-4737.318029,4060.306139,17320.819043
1072.176442,-3404.947333,459.657299,13545.768739
1072.176772,-666.185348,-4749.792088,7624.121203
1072.177101,592.164754,-7737.564530,3182.885551
1072.177431,1332.370696,-5822.325785,2812.782580
1072.177761,1110.308913,-2068.457845,5033.400406
1072.178090,2442.679609,1378.971896,5773.606348
1072.178420,2442.679609,2221.676944,8956.491898
1072.178749,1184.329507,2987.772442,12731.542202
1072.179079,-1998.556043,3830.477490,14878.139434
1072.179409,-3627.009116,4596.572988,15100.201217
1072.179738,-4885.359217,4136.915689,15396.283594
1072.180068,-4959.379811,4136.915689,14211.954086
1072.180397,-4293.194464,1685.410096,11399.171507
1072.180727,-2146.597232,-3524.039291,7846.182985
1072.181056,-444.123565,-4213.525239,3997.112087
1072.181386,0.000000,-3140.991542,592.164754
1072.181716,2072.576638,-2374.896044,2516.700203
1072.182045,2294.638420,995.924147,5255.462188
1072.182375,2368.659014,3064.381992,7994.224174
1072.182704,814.226536,5209.449386,12065.356855
1072.183034,-1480.411884,7201.297681,13323.706956
1072.183363,-3034.844362,7124.688131,14285.974681
1072.183693,-3478.967927,4596.572988,14656.077652
1072.184023,-3552.988522,2604.724693,13175.665768
1072.184352,-2960.823768,229.828649,9770.718434
1072.184682,-1258.350101,-2987.772442,5921.647536
1072.185011,-962.267725,-3447.429741,3256.906145
1072.185341,-740.205942,-2451.505594,1998.556043
1072.185670,740.205942,-2145.067394,3775.050304
1072.186000,666.185348,229.828649,5181.441594
1072.186330,740.205942,2374.896044,8512.368333
1072.186659,-222.061783,3140.991542,11843.295072
1072.186989,-1924.535449,3447.429741,13915.871710
1072.187318,-3849.070898,3830.477490,15692.365970
1072.187648,-4663.297435,3983.696590,16136.489536
1072.187977,-4885.359217,3064.381992,14434.015869
1072.188307,-3256.906145,-229.828649,11695.253884
1072.188637,-444.123565,-4366.744339,8956.491898
1072.188966,888.247130,-4596.572988,5773.606348
1072.189296,888.247130,-3370.820191,3404.947333
1072.189625,2072.576638,-2374.896044,4885.359217
1072.189955,2072.576638,-153.219100,6809.894666
1072.190285,2072.576638,1225.752797,10881.027347
1072.190614,1332.370696,2681.334243,14656.077652
1072.190944,-1036.288319,4903.011187,15692.365970
1072.191273,-2886.803174,4826.401637,15544.324782
1072.191603,-3627.009116,4749.792088,14804.118840
1072.191932,-3404.947333,2451.505594,13619.789333
1072.192262,-2294.638420,-383.047749,10436.903782
1072.192592,-444.123565,-1685.410096,6957.935855
1072.192921,0.000000,-1991.848295,3478.967927
1072.193251,740.205942,-2145.067394,1776.494261
1072.193580,1258.350101,-1608.800546,3478.967927
1072.193910,592.164754,229.828649,4293.194464
1072.194239,222.061783,2987.772442,8068.244768
1072.194569,-1628.453072,5132.839837,11473.192101
1072.194899,-3404.947333,6281.983084,13545.768739
1072.195228,-4293.194464,4136.915689,13841.851115
1072.195558,-5033.400406,1838.629195,14211.954086
1072.195887,-5255.462188,2451.505594,12435.459826
1072.196217,-4219.173869,1149.143247,9474.636058
1072.196546,-1850.514855,-1455.581446,6957.935855
1072.196876,-740.205942,-2145.067394,2886.803174
1072.197206,888.247130,-2528.115143,2664.741391
1072.197535,1998.556043,-1225.752797,3849.070898
1072.197865,2516.700203,0.000000,4885.359217
1072.198194,2368.659014,1685.410096,8586.388927
1072.198524,518.144159,3064.381992,13397.727550
1072.198853,-1702.473667,5132.839837,16062.468941
1072.199183,-3478.967927,5362.668486,16210.510130
1072.199513,-3997.112087,3370.820191,15322.262999
1072.199842,-2886.803174,1991.848295,13101.645173
1072.200172,-1332.370696,-536.266849,10658.965565
1072.200501,666.185348,-4366.744339,7994.224174
1072.200831,888.247130,-3907.087040,4663.297435
1072.201160,592.164754,-3140.991542,2294.638420
1072.201490,1332.370696,-3140.991542,5329.482782
1072.201820,814.226536,-153.219100,8068.244768
1072.202149,0.000000,1762.019645,11325.150913
1072.202479,-1702.473667,2451.505594,13693.809927
1072.202808,-2516.700203,3370.820191,15544.324782
1072.203138,-3701.029710,4060.306139,16358.551318
1072.203468,-4885.359217,3524.039291,16062.468941
1072.203797,-4811.338623,1838.629195,12879.583391
1072.204127,-2886.803174,-306.438199,9252.574275
1072.204456,-222.061783,-2987.772442,7328.038826
1072.204786,592.164754,-1915.238745,3034.844362
1072.205115,1406.391290,-1838.629195,3849.070898
1072.205445,1850.514855,-1762.019645,3923.091493
1072.205775,1628.453072,76.609550,5403.503377
1072.206104,1258.350101,2604.724693,9104.533087
1072.206434,-370.102971,4443.353888,12583.501014
1072.206763,-2442.679609,5132.839837,13915.871710
1072.207093,-4515.256246,4673.182538,13989.892304
1072.207422,-4959.379811,3983.696590,13841.851115
1072.207752,-4219.173869,2374.896044,12361.439231
1072.208082,-2590.720797,229.828649,8512.368333
1072.208411,-1110.308913,-1378.971896,4663.297435
1072.208741,148.041188,-2298.286494,1850.514855
1072.209070,1036.288319,-2374.896044,1332.370696
1072.209400,1924.535449,-1302.362347,3404.947333
1072.209729,814.226536,1149.143247,5773.606348
1072.210059,-370.102971,2604.724693,9326.594869
1072.210389,-2072.576638,3524.039291,13767.830521
1072.210718,-3330.926739,3907.087040,15396.283594
1072.211048,-5255.462188,2451.505594,15914.427753
1072.211377,-5255.462188,2298.286494,15026.180623
1072.211707,-3478.967927,1302.362347,12731.542202
1072.212036,-666.185348,-3294.210641,10436.903782
1072.212366,444.123565,-4749.792088,8512.368333
1072.212696,148.041188,-2528.115143,4737.318029
1072.213025,444.123565,-995.924147,5107.421000
1072.213355,2368.659014,-612.876398,5033.400406
1072.213684,4441.235652,-612.876398,7772.162391
1072.214014,3775.050304,612.876398,11325.150913
1072.214344,592.164754,2145.067394,14730.098246
1072.214673,-2738.761985,3600.648841,16136.489536
1072.215003,-4959.379811,4136.915689,17172.777854
1072.215332,-5107.421000,4290.134789,16876.695478
1072.215662,-4663.297435,1762.019645,13841.851115
1072.215991,-2146.597232,-1991.848295,8956.491898
1072.216321,888.247130,-5056.230287,4737.318029
1072.216651,2368.659014,-4136.915689,1406.391290
1072.216980,2072.576638,-1991.848295,3034.844362
1072.217310,2220.617826,689.485948,4663.297435
1072.217639,814.226536,2068.457845,6587.832884
1072.217969,0.000000,3830.477490,8956.491898
1072.218298,-1258.350101,3600.648841,12731.542202
1072.218628,-2368.659014,4673.182538,14285.974681
1072.218958,-4515.256246,4136.915689,14656.077652
1072.219287,-5773.606348,3064.381992,14211.954086
1072.219617,-5699.585753,2451.505594,11991.336260
1072.219946,-3627.009116,383.047749,8808.450710
1072.220276,-1110.308913,-1991.848295,5181.441594
1072.220605,296.082377,-919.314598,2368.659014
1072.220935,2220.617826,-1455.581446,444.123565
1072.221265,3034.844362,-306.438199,2368.659014
1072.221594,2220.617826,689.485948,4959.379811
1072.221924,296.082377,2757.943793,10066.800811
1072.222253,-2220.617826,4826.401637,14582.057057
1072.222583,-4441.235652,4903.011187,15840.407159
1072.222912,-6217.729913,3983.696590,15618.345376
1072.223242,-5551.544565,1685.410096,15026.180623
1072.223572,-3923.091493,153.219100,13767.830521
1072.223901,-1184.329507,0.000000,10436.903782
1072.224231,1036.288319,-2681.334243,5477.523971
1072.224560,3182.885551,-2604.724693,2072.576638
1072.224890,2886.803174,-1149.143247,3256.906145
1072.225219,3478.967927,1915.238745,4071.132681
1072.225549,3182.885551,3677.258390,6661.853478
1072.225879,2812.782580,2834.553343,9992.780217
1072.226208,74.020594,2374.896044,13915.871710
1072.226538,-3701.029710,2451.505594,16284.530724
1072.226867,-6735.874072,1455.581446,17764.942608
1072.227197,-7698.141797,1302.362347,16876.695478
1072.227527,-7476.080014,1225.752797,14285.974681
1072.227856,-4589.276840,-995.924147,10881.027347
1072.228186,-740.205942,-4136.915689,7031.956449
1072.228515,2072.576638,-3064.381992,4515.256246
1072.228845,3182.885551,-689.485948,2368.659014
1072.229174,4515.256246,842.705048,2516.700203
1072.229504,4293.194464,1225.752797,4663.297435
1072.229834,3478.967927,2911.162892,9474.636058
1072.230163,1258.350101,4519.963438,14359.995275
1072.230493,-1332.370696,5286.058936,16136.489536
1072.230822,-4219.173869,4519.963438,16284.530724
1072.231152,-5551.544565,2221.676944,15914.427753
1072.231481,-6513.812290,766.095498,13471.748144
1072.231811,-4589.276840,-1608.800546,10288.862594
1072.232141,-1480.411884,-2451.505594,6365.771101
1072.232470,888.247130,-2145.067394,814.226536
1072.232800,2220.617826,-2911.162892,-74.020594
1072.233129,3775.050304,-2757.943793,222.061783
1072.233459,2812.782580,0.000000,3849.070898
1072.233788,444.123565,4060.306139,8660.409521
1072.234118,-3108.864956,6281.983084,13619.789333
1072.234448,-5625.565159,5439.278036,15396.283594
1072.234777,-7105.977043,1378.971896,16062.468941
1072.235107,-7105.977043,-612.876398,16358.551318
1072.235436,-6883.915261,-459.657299,13175.665768
1072.235766,-4219.173869,-2068.457845,9992.780217
1072.236095,-1184.329507,-4136.915689,7772.162391
1072.236425,74.020594,-2528.115143,4663.297435
1072.236755,1184.329507,-1762.019645,3627.009116
1072.237084,3034.844362,-995.924147,3923.091493
1072.237414,5181.441594,153.219100,5329.482782
1072.237743,5403.503377,2221.676944,10140.821405
1072.238073,2664.741391,3524.039291,14359.995275
1072.238403,-962.267725,3600.648841,16580.613101
1072.238732,-4071.132681,3677.258390,17616.901420
1072.239062,-5551.544565,3524.039291,17172.777854
1072.239391,-5107.421000,2145.067394,15396.283594
1072.239721,-2590.720797,-1608.800546,11547.212695
1072.240050,0.000000,-4519.963438,7105.977043
1072.240380,2442.679609,-2987.772442,1850.514855
1072.240710,3108.864956,-1915.238745,1554.432478
1072.241039,5107.421000,-306.438199,2516.700203
1072.241369,4145.153275,2681.334243,6069.688724
1072.241698,1776.494261,6511.811733,9400.615463
1072.242028,-1110.308913,7277.907231,12805.562797
1072.242357,-3108.864956,6665.030833,13989.892304
1072.242687,-5033.400406,4060.306139,15174.221811
1072.243017,-6661.853478,1838.629195,15914.427753
1072.243346,-7772.162391,766.095498,14359.995275
1072.243676,-7254.018232,689.485948,10510.924376
1072.244005,-5625.565159,-995.924147,6513.812290
1072.244335,-1850.514855,-1991.848295,1258.350101
1072.244664,2072.576638,-3140.991542,148.041188
1072.244994,5995.668130,-2221.676944,962.267725
1072.245324,6069.688724,2145.067394,2664.741391
1072.245653,3997.112087,5056.230287,6587.832884
1072.245983,592.164754,6588.421283,11621.233289
1072.246312,-2886.803174,7890.783629,15470.304188
1072.246642,-4885.359217,6741.640382,17468.860231
1072.246971,-5181.441594,4749.792088,17394.839637
1072.247301,-4737.318029,2298.286494,13693.809927
1072.247631,-3108.864956,-1302.362347,9400.615463
1072.247960,-1036.288319,-4903.011187,5921.647536
1072.248290,-222.061783,-5362.668486,3627.009116
1072.248619,740.205942,-2834.553343,2590.720797
1072.248949,1480.411884,-766.095498,3849.070898
1072.249279,2072.576638,1225.752797,4293.194464
1072.249608,2812.782580,995.924147,8438.347739
1072.249938,1850.514855,1378.971896,13471.748144
1072.250267,-2146.597232,3600.648841,16654.633695
1072.250597,-5477.523971,5592.497135,17987.004391
1072.250926,-7105.977043,3983.696590,17468.860231
1072.251256,-6291.750507,842.705048,15692.365970
1072.251586,-3849.070898,-3140.991542,11843.295072
1072.251915,-1110.308913,-5975.544884,7920.203579
1072.252245,1332.370696,-4979.620737,3997.112087
1072.252574,2146.597232,-3677.258390,3701.029710
1072.252904,2590.720797,-383.047749,5477.523971
1072.253233,3701.029710,1608.800546,6957.935855
1072.253563,4219.173869,2451.505594,10066.800811
1072.253893,2812.782580,3370.820191,12583.501014
1072.254222,-148.041188,5822.325785,14952.160028
1072.254552,-2220.617826,5669.106685,16062.468941
1072.254881,-4219.173869,4136.915689,15840.407159
1072.255211,-5181.441594,2221.676944,13323.706956
1072.255540,-4441.235652,-459.657299,9252.574275
1072.255870,-1258.350101,-3600.648841,5255.462188
1072.256200,-148.041188,-2757.943793,2812.782580
1072.256529,2072.576638,-2145.067394,222.061783
1072.256859,3478.967927,-1762.019645,1258.350101
1072.257188,3923.091493,306.438199,3404.947333
1072.257518,2220.617826,4749.792088,7920.203579
1072.257847,-1258.350101,8120.612279,12509.480420
1072.258177,-4663.297435,9576.193725,13323.706956
1072.258507,-5699.585753,6588.421283,13619.789333
1072.258836,-5107.421000,2374.896044,14211.954086
1072.259166,-6217.729913,459.657299,12583.501014
1072.259495,-6217.729913,-229.828649,9918.759623
1072.259825,-4515.256246,-3447.429741,5699.585753
1072.260154,-2516.700203,-4290.134789,3108.864956
1072.260484,-518.144159,-3983.696590,2442.679609
1072.260814,2146.597232,-2374.896044,3775.050304
1072.261143,4367.215058,1072.533697,6513.812290
1072.261473,4145.153275,3140.991542,9548.656652
1072.261802,2442.679609,4290.134789,13101.645173
1072.262132,-148.041188,5592.497135,16580.613101
1072.262462,-3330.926739,6511.811733,18431.127956
1072.262791,-3849.070898,5898.935335,18505.148550
1072.263121,-3701.029710,2911.162892,15544.324782
1072.263450,-1406.391290,-1302.362347,11399.171507
1072.263780,962.267725,-5745.716235,8068.244768
1072.264109,1628.453072,-5209.449386,4737.318029
1072.264439,1702.473667,-2221.676944,4441.235652
1072.264769,1924.535449,-766.095498,4515.256246
1072.265098,3256.906145,306.438199,5921.647536
1072.265428,2812.782580,2451.505594,9918.759623
1072.265758,444.123565,4060.306139,13175.665768
1072.266087,-2294.638420,6281.983084,14508.036463
1072.266417,-4219.173869,6281.983084,14508.036463
1072.266747,-5995.668130,4443.353888,14656.077652
1072.267076,-6957.935855,1762.019645,12953.603985
1072.267406,-5551.544565,-1685.410096,9474.636058
1072.267736,-2738.761985,-3830.477490,6069.688724
1072.268065,-1702.473667,-2987.772442,1406.391290
1072.268395,296.082377,-2911.162892,518.144159
1072.268725,2220.617826,-2681.334243,2442.679609
1072.269054,2960.823768,919.314598,6143.709319
1072.269384,2146.597232,5132.839837,9696.697840
1072.269714,814.226536,7354.516781,12287.418637
1072.270043,-814.226536,5592.497135,13175.665768
1072.270373,-3404.947333,4979.620737,13693.809927
1072.270703,-3552.988522,3677.258390,14656.077652
1072.271032,-2590.720797,2451.505594,12731.542202
1072.271362,-1332.370696,76.609550,8586.388927
1072.271692,-814.226536,-4213.525239,4515.256246
1072.272021,-814.226536,-5592.497135,3404.947333
1072.272351,518.144159,-4979.620737,3849.070898
1072.272681,1850.514855,-1762.019645,5403.503377
1072.273010,3034.844362,1762.019645,6069.688724
1072.273340,2960.823768,1762.019645,9104.533087
1072.273670,1480.411884,1302.362347,14137.933492
1072.273999,-2294.638420,4826.401637,16654.633695
1072.274329,-5403.503377,7507.735880,16580.613101
1072.274659,-6143.709319,5592.497135,15988.448347
1072.274988,-5625.565159,1225.752797,13397.727550
1072.275318,-3552.988522,-3524.039291,10807.006753
1072.275648,-1258.350101,-7354.516781,7994.224174
1072.275977,-740.205942,-5515.887586,4737.318029
1072.276307,592.164754,-2987.772442,3775.050304
1072.276637,1628.453072,-1608.800546,5477.523971
1072.276966,2368.659014,0.000000,8438.347739
1072.277296,1776.494261,2681.334243,12213.398043
1072.277626,1332.370696,5209.449386,14211.954086
1072.277955,-888.247130,7507.735880,13915.871710
1072.278285,-2442.679609,6741.640382,14211.954086
1072.278615,-2590.720797,3524.039291,15100.201217
1072.278944,-3108.864956,2068.457845,13027.624579
1072.279274,-2738.761985,76.609550,8956.491898
1072.279604,-1332.370696,-1915.238745,4071.132681
1072.279933,444.123565,-3217.601092,1036.288319
1072.280263,2368.659014,-3524.039291,1850.514855
1072.280593,3478.967927,-1608.800546,3108.864956
1072.280922,2738.761985,1762.019645,4811.338623
1072.281252,1258.350101,4826.401637,8216.285956
1072.281582,-1184.329507,5898.935335,12361.439231
1072.281911,-3997.112087,7354.516781,14285.974681
1072.282241,-5329.482782,6052.154434,14730.098246
1072.282571,-5847.626942,4060.306139,13841.851115
1072.282900,-5551.544565,2298.286494,11103.089130
1072.283230,-3849.070898,-842.705048,8660.409521
1072.283560,-1850.514855,-4443.353888,5033.400406
1072.283889,-1258.350101,-4596.572988,3108.864956
1072.284219,0.000000,-2681.334243,3108.864956
1072.284549,666.185348,-536.266849,4219.173869
1072.284878,2072.576638,689.485948,7328.038826
1072.285208,1850.514855,2068.457845,12065.356855
1072.285538,222.061783,4060.306139,15396.283594
1072.285867,-2146.597232,5592.497135,16358.551318
1072.286197,-3775.050304,5132.839837,15840.407159
1072.286527,-3552.988522,2451.505594,15618.345376
1072.286856,-2664.741391,689.485948,13323.706956
1072.287186,-370.102971,-2374.896044,10066.800811
1072.287515,1554.432478,-4213.525239,7476.080014
1072.287845,1036.288319,-2834.553343,3923.091493
1072.288175,740.205942,-1838.629195,3404.947333
1072.288504,1924.535449,-1915.238745,5403.503377
1072.288834,3478.967927,0.000000,8438.347739
1072.289164,2664.741391,3447.429741,11473.192101
1072.289493,444.123565,4290.134789,13323.706956
1072.289823,-2442.679609,3907.087040,13619.789333
1072.290153,-4219.173869,3753.867940,15026.180623
1072.290482,-5477.523971,4366.744339,14952.160028
1072.290812,-5625.565159,3447.429741,12361.439231
1072.291142,-3997.112087,-1149.143247,7550.100608
1072.291471,-1998.556043,-4903.011187,4293.194464
