#time,accel_x,accel_y,accel_z
905.161442,-1184.329507,919.314598,9252.574275
905.161771,-962.267725,1302.362347,9400.615463
905.162100,-740.205942,995.924147,9474.636058
905.162429,-888.247130,919.314598,9548.656652
905.162758,-1110.308913,919.314598,9474.636058
905.163088,-1184.329507,919.314598,9474.636058
905.163417,-888.247130,1072.533697,9622.677246
905.163746,-1110.308913,842.705048,9178.553681
905.164075,-1110.308913,842.705048,9400.615463
905.164404,-888.247130,689.485948,9548.656652
905.164733,-1110.308913,1072.533697,9622.677246
905.165062,-962.267725,1225.752797,9622.677246
905.165392,-814.226536,995.924147,9474.636058
905.165721,-1184.329507,766.095498,9622.677246
905.166050,-1184.329507,1072.533697,9548.656652
905.166379,-1036.288319,995.924147,9622.677246
905.166708,-962.267725,919.314598,9696.697840
905.167037,-814.226536,536.266849,9400.615463
905.167366,-1036.288319,1225.752797,9696.697840
905.167695,-962.267725,919.314598,9548.656652
905.168025,-1258.350101,842.705048,9548.656652
905.168354,-1110.308913,995.924147,9622.677246
905.168683,-1258.350101,1149.143247,9548.656652
905.169012,-1036.288319,1072.533697,9400.615463
905.169341,-962.267725,919.314598,9622.677246
905.169670,-1036.288319,919.314598,9474.636058
905.169999,-1110.308913,842.705048,9622.677246
905.170329,-740.205942,689.485948,9474.636058
905.170658,-888.247130,1225.752797,9474.636058
905.170987,-888.247130,919.314598,9474.636058
905.171316,-1184.329507,766.095498,9474.636058
905.171645,-1110.308913,995.924147,9400.615463
905.171974,-1036.288319,919.314598,9400.615463
905.172303,-740.205942,995.924147,9548.656652
905.172633,-1036.288319,689.485948,9400.615463
905.172962,-1184.329507,842.705048,9474.636058
905.173291,-962.267725,1072.533697,9622.677246
905.173620,-1184.329507,919.314598,9548.656652
905.173949,-888.247130,766.095498,8956.491898
905.174278,-1036.288319,995.924147,9474.636058
905.174607,-888.247130,842.705048,9474.636058
905.174937,-962.267725,766.095498,9474.636058
905.175266,-1184.329507,919.314598,9548.656652
905.175595,-1036.288319,536.266849,9474.636058
905.175924,-814.226536,919.314598,9474.636058
905.176253,-1258.350101,842.705048,9474.636058
905.176582,-1110.308913,842.705048,9696.697840
905.176911,-814.226536,995.924147,9622.677246
905.177240,-962.267725,995.924147,9770.718434
905.177570,-740.205942,842.705048,9474.636058
905.177899,-1036.288319,689.485948,9770.718434
905.178228,-888.247130,766.095498,9622.677246
905.178557,-1036.288319,842.705048,9844.739029
905.178886,-814.226536,1072.533697,9696.697840
905.179215,-1184.329507,1455.581446,9548.656652
905.179544,-1184.329507,383.047749,9400.615463
905.179874,-962.267725,995.924147,9622.677246
905.180203,-1036.288319,995.924147,9622.677246
905.180532,-962.267725,689.485948,9548.656652
905.180861,-1036.288319,1072.533697,9770.718434
905.181190,-740.205942,1072.533697,9622.677246
905.181519,-1036.288319,689.485948,9400.615463
905.181848,-1036.288319,919.314598,9548.656652
905.182178,-1184.329507,842.705048,9474.636058
905.182507,-888.247130,995.924147,9474.636058
905.182836,-1184.329507,766.095498,8956.491898
905.183165,-1184.329507,1072.533697,9326.594869
905.183494,-814.226536,842.705048,9474.636058
905.183823,-1184.329507,766.095498,9474.636058
905.184152,-1036.288319,766.095498,9474.636058
905.184482,-1110.308913,536.266849,9474.636058
905.184811,-740.205942,1225.752797,9030.512492
905.185140,0.000000,689.485948,9030.512492
905.185469,666.185348,459.657299,9104.533087
905.185798,1110.308913,459.657299,9178.553681
905.186127,962.267725,76.609550,9030.512492
905.186456,296.082377,919.314598,9844.739029
905.186786,-222.061783,1072.533697,10436.903782
905.187115,-740.205942,1225.752797,10584.944971
905.187444,-666.185348,459.657299,10362.883188
905.187773,-148.041188,459.657299,9770.718434
905.188102,518.144159,-612.876398,9400.615463
905.188431,1258.350101,76.609550,9104.533087
905.188760,2220.617826,153.219100,8956.491898
905.189089,2812.782580,1072.533697,8734.430116
905.189419,3404.947333,1072.533697,9030.512492
905.189748,3701.029710,1991.848295,9178.553681
905.190077,3627.009116,2451.505594,9622.677246
905.190406,3182.885551,1378.971896,10140.821405
905.190735,2368.659014,1225.752797,10584.944971
905.191064,1480.411884,919.314598,10658.965565
905.191393,1332.370696,0.000000,10881.027347
905.191723,1258.350101,-153.219100,10584.944971
905.192052,1702.473667,-306.438199,9844.739029
905.192381,2442.679609,-306.438199,9326.594869
905.192710,3552.988522,-153.219100,9178.553681
905.193039,4367.215058,536.266849,9104.533087
905.193368,4219.173869,1991.848295,9326.594869
905.193697,4145.153275,2834.553343,9770.718434
905.194027,3034.844362,2834.553343,10362.883188
905.194356,1332.370696,2911.162892,10436.903782
905.194685,-518.144159,2451.505594,10288.862594
905.195014,-1924.535449,1915.238745,9548.656652
905.195343,-1702.473667,0.000000,8364.327145
905.195672,0.000000,-842.705048,7476.080014
905.196001,1332.370696,-995.924147,6587.832884
905.196331,2886.803174,-689.485948,5847.626942
905.196660,4293.194464,0.000000,6365.771101
905.196989,4219.173869,1149.143247,8290.306550
905.197318,3108.864956,3677.258390,10436.903782
905.197647,1406.391290,5132.839837,11843.295072
905.197976,0.000000,4213.525239,12435.459826
905.198305,-444.123565,2604.724693,12657.521608
905.198634,-1110.308913,612.876398,12065.356855
905.198964,-1998.556043,-1532.190996,11473.192101
905.199293,-1554.432478,-2681.334243,10955.047942
905.199622,-962.267725,-2451.505594,9400.615463
905.199951,740.205942,-1915.238745,8660.409521
905.200280,3182.885551,-1608.800546,7994.224174
905.200609,4441.235652,306.438199,7624.121203
905.200938,5329.482782,1838.629195,7624.121203
905.201268,5107.421000,2987.772442,8290.306550
905.201597,4737.318029,4136.915689,9326.594869
905.201926,3923.091493,4060.306139,10362.883188
905.202255,2590.720797,3217.601092,10881.027347
905.202584,1554.432478,2374.896044,11473.192101
905.202913,814.226536,766.095498,11177.109724
905.203242,-296.082377,-766.095498,10288.862594
905.203572,-1258.350101,-1608.800546,10066.800811
905.203901,-1258.350101,-1378.971896,9992.780217
905.204230,-1554.432478,-689.485948,10362.883188
905.204559,-1258.350101,0.000000,10436.903782
905.204888,-592.164754,612.876398,9326.594869
905.205217,444.123565,689.485948,8438.347739
905.205546,2220.617826,153.219100,8068.244768
905.205876,3849.070898,612.876398,7772.162391
905.206205,4145.153275,306.438199,7698.141797
905.206534,3701.029710,612.876398,8290.306550
905.206863,2664.741391,1378.971896,9400.615463
905.207192,1480.411884,2298.286494,9844.739029
905.207521,1036.288319,2451.505594,10658.965565
905.207850,148.041188,2374.896044,10807.006753
905.208179,222.061783,1915.238745,10510.924376
905.208509,0.000000,1608.800546,10436.903782
905.208838,-222.061783,1378.971896,9474.636058
905.209167,0.000000,383.047749,8438.347739
905.209496,0.000000,536.266849,8068.244768
905.209825,222.061783,612.876398,8364.327145
905.210154,74.020594,0.000000,8142.265362
905.210483,-518.144159,0.000000,8956.491898
905.210813,-1406.391290,229.828649,9474.636058
905.211142,-2516.700203,1149.143247,9992.780217
905.211471,-3478.967927,1991.848295,11177.109724
905.211800,-3552.988522,995.924147,11325.150913
905.212129,-3034.844362,153.219100,11177.109724
905.212458,-2516.700203,-689.485948,10658.965565
905.212787,-1850.514855,-153.219100,9918.759623
905.213117,-1110.308913,-153.219100,9178.553681
905.213446,74.020594,383.047749,9178.553681
905.213775,1036.288319,1302.362347,9622.677246
905.214104,1554.432478,2451.505594,9770.718434
905.214433,1332.370696,3447.429741,8734.430116
905.214762,2220.617826,3983.696590,9030.512492
905.215091,2516.700203,2911.162892,9770.718434
905.215421,1332.370696,2987.772442,10436.903782
905.215750,-666.185348,2987.772442,10584.944971
905.216079,-1850.514855,2068.457845,9918.759623
905.216408,-2886.803174,459.657299,8808.450710
905.216737,-3108.864956,-995.924147,8512.368333
905.217066,-2442.679609,-2528.115143,8586.388927
905.217395,-2664.741391,-1915.238745,8882.471304
905.217725,-2812.782580,-383.047749,8734.430116
905.218054,-3108.864956,1149.143247,8216.285956
905.218383,-2368.659014,1378.971896,8586.388927
905.218712,-1702.473667,1762.019645,9030.512492
905.219041,-666.185348,2221.676944,9030.512492
905.219370,148.041188,3064.381992,7994.224174
905.219699,1702.473667,2451.505594,7698.141797
905.220028,2294.638420,1225.752797,8512.368333
905.220358,1776.494261,995.924147,9770.718434
905.220687,148.041188,1302.362347,10732.986159
905.221016,-1258.350101,1378.971896,11621.233289
905.221345,-2368.659014,1685.410096,11843.295072
905.221674,-2368.659014,1225.752797,11621.233289
905.222003,-2294.638420,-612.876398,11621.233289
905.222332,-2072.576638,-1302.362347,11103.089130
905.222662,-2442.679609,-1072.533697,10214.842000
905.222991,-2812.782580,-766.095498,9696.697840
905.223320,-2368.659014,-612.876398,9548.656652
905.223649,-1850.514855,-612.876398,9030.512492
905.223978,-296.082377,-383.047749,8438.347739
905.224307,1332.370696,306.438199,7624.121203
905.224636,3182.885551,842.705048,7179.997637
905.224966,4219.173869,1302.362347,7772.162391
905.225295,3478.967927,1991.848295,9548.656652
905.225624,1184.329507,3753.867940,11325.150913
905.225953,-592.164754,3983.696590,12435.459826
905.226282,-2146.597232,3600.648841,12583.501014
905.226611,-3182.885551,2757.943793,11769.274478
905.226940,-3627.009116,383.047749,10732.986159
905.227270,-3182.885551,-2528.115143,9992.780217
905.227599,-3182.885551,-2757.943793,9030.512492
905.227928,-4219.173869,-1149.143247,8142.265362
905.228257,-3849.070898,-689.485948,7254.018232
905.228586,-1776.494261,-536.266849,7031.956449
905.228915,-222.061783,383.047749,5699.585753
905.229244,1776.494261,1225.752797,4515.256246
905.229573,3034.844362,1149.143247,5329.482782
905.229903,3404.947333,1685.410096,7624.121203
905.230232,1776.494261,2528.115143,10140.821405
905.230561,-1702.473667,3294.210641,12731.542202
905.230890,-3701.029710,3370.820191,13989.892304
905.231219,-4737.318029,2528.115143,13323.706956
905.231548,-4293.194464,306.438199,12213.398043
905.231877,-2886.803174,-2068.457845,11769.274478
905.232207,-2294.638420,-3064.381992,10362.883188
905.232536,-1924.535449,-1685.410096,9548.656652
905.232865,-2368.659014,-459.657299,9252.574275
905.233194,-2072.576638,842.705048,9030.512492
905.233523,-370.102971,1455.581446,8142.265362
905.233853,1776.494261,612.876398,7920.203579
905.234182,3404.947333,1455.581446,7920.203579
905.234511,3923.091493,2221.676944,7402.059420
905.234841,4071.132681,1685.410096,8068.244768
905.235170,2516.700203,1149.143247,9622.677246
905.235499,-148.041188,2528.115143,11621.233289
905.235829,-1702.473667,2911.162892,12213.398043
905.236158,-2738.761985,1991.848295,12805.562797
905.236487,-3701.029710,1378.971896,12065.356855
905.236817,-4145.153275,919.314598,11251.130318
905.237146,-3849.070898,-383.047749,10066.800811
905.237475,-3627.009116,-1685.410096,9474.636058
905.237804,-4219.173869,0.000000,8586.388927
905.238134,-3997.112087,0.000000,7476.080014
905.238463,-2590.720797,-306.438199,6735.874072
905.238792,-814.226536,-842.705048,6217.729913
905.239122,1036.288319,0.000000,6439.791695
905.239451,2442.679609,1915.238745,6439.791695
905.239780,3404.947333,2911.162892,6809.894666
905.240110,3627.009116,2604.724693,8290.306550
905.240439,2738.761985,2681.334243,9770.718434
905.240768,814.226536,2987.772442,11399.171507
905.241098,-814.226536,3370.820191,12731.542202
905.241427,-2664.741391,3140.991542,12953.603985
905.241756,-3701.029710,2298.286494,12583.501014
905.242085,-3552.988522,-536.266849,11843.295072
905.242415,-3404.947333,-1685.410096,10584.944971
905.242744,-4145.153275,-1455.581446,9252.574275
905.243073,-4219.173869,-1225.752797,8512.368333
905.243403,-2960.823768,-1225.752797,8364.327145
905.243732,-1406.391290,-689.485948,8734.430116
905.244061,740.205942,536.266849,8438.347739
905.244391,2220.617826,1532.190996,8142.265362
905.244720,3182.885551,2374.896044,8068.244768
905.245049,3701.029710,2911.162892,8734.430116
905.245379,2738.761985,2911.162892,10066.800811
905.245708,1258.350101,3140.991542,11621.233289
905.246037,-296.082377,2834.553343,12213.398043
905.246366,-2072.576638,2528.115143,12435.459826
905.246696,-3478.967927,1532.190996,11399.171507
905.247025,-3849.070898,76.609550,10955.047942
905.247354,-3627.009116,-766.095498,10584.944971
905.247684,-3552.988522,-536.266849,9474.636058
905.248013,-3923.091493,-229.828649,8364.327145
905.248342,-2886.803174,-459.657299,6957.935855
905.248672,-1628.453072,-766.095498,6365.771101
905.249001,-296.082377,459.657299,6291.750507
905.249330,740.205942,2681.334243,5921.647536
905.249660,2220.617826,2374.896044,5625.565159
905.249989,2442.679609,1685.410096,7031.956449
905.250318,1628.453072,2374.896044,9104.533087
905.250647,0.000000,2528.115143,11177.109724
905.250977,-1850.514855,2987.772442,12879.583391
905.251306,-3256.906145,2911.162892,13101.645173
905.251635,-4071.132681,2298.286494,12953.603985
905.251965,-4145.153275,-229.828649,11991.336260
905.252294,-3478.967927,-1838.629195,11103.089130
905.252623,-2812.782580,-1302.362347,10214.842000
905.252953,-2960.823768,-1225.752797,8290.306550
905.253282,-2146.597232,0.000000,7994.224174
905.253611,-592.164754,-383.047749,8364.327145
905.253941,592.164754,383.047749,8660.409521
905.254270,1258.350101,2451.505594,7402.059420
905.254599,2960.823768,2451.505594,7254.018232
905.254928,4293.194464,1762.019645,7994.224174
905.255258,3627.009116,1608.800546,10658.965565
905.255587,1184.329507,2757.943793,12065.356855
905.255916,-1184.329507,3370.820191,12657.521608
905.256246,-2368.659014,2757.943793,12213.398043
905.256575,-2886.803174,1608.800546,10732.986159
905.256904,-3182.885551,-1072.533697,10881.027347
905.257234,-2516.700203,-2604.724693,10807.006753
905.257563,-3182.885551,-1455.581446,9548.656652
905.257892,-3997.112087,-229.828649,8216.285956
905.258221,-3108.864956,0.000000,7476.080014
905.258551,-1850.514855,-612.876398,7550.100608
905.258880,0.000000,-995.924147,7698.141797
905.259209,1332.370696,689.485948,7105.977043
905.259539,2294.638420,2451.505594,6365.771101
905.259868,3478.967927,2374.896044,6143.709319
905.260197,3256.906145,919.314598,8660.409521
905.260527,888.247130,1838.629195,10584.944971
905.260856,-962.267725,3064.381992,11991.336260
905.261185,-2442.679609,2451.505594,12213.398043
905.261515,-3849.070898,1685.410096,12139.377449
905.261844,-4219.173869,536.266849,11769.274478
905.262173,-3478.967927,-2068.457845,11695.253884
905.262502,-2886.803174,-2221.676944,10362.883188
905.262832,-3034.844362,-842.705048,9030.512492
905.263161,-2664.741391,-536.266849,7920.203579
905.263490,-1110.308913,-995.924147,7994.224174
905.263820,-592.164754,76.609550,8216.285956
905.264149,592.164754,1685.410096,7328.038826
905.264478,2220.617826,1838.629195,7105.977043
905.264808,3404.947333,1225.752797,8290.306550
905.265137,2294.638420,1532.190996,9918.759623
905.265466,370.102971,2451.505594,11547.212695
905.265796,-1332.370696,2451.505594,12953.603985
905.266125,-2516.700203,2451.505594,13175.665768
905.266454,-3552.988522,1838.629195,12287.418637
905.266783,-3627.009116,0.000000,11621.233289
905.267113,-3256.906145,-1532.190996,10584.944971
905.267442,-3182.885551,-1455.581446,9474.636058
905.267771,-3849.070898,0.000000,8438.347739
905.268101,-3923.091493,459.657299,7772.162391
905.268430,-2886.803174,612.876398,7105.977043
905.268759,-1332.370696,689.485948,5847.626942
905.269089,592.164754,842.705048,4737.318029
905.269418,2368.659014,1302.362347,4885.359217
905.269747,3404.947333,1302.362347,6883.915261
905.270077,2220.617826,2145.067394,9696.697840
905.270406,-222.061783,3524.039291,11695.253884
905.270735,-2516.700203,4596.572988,12287.418637
905.271064,-3256.906145,2911.162892,13101.645173
905.271394,-3849.070898,1378.971896,13027.624579
905.271723,-4441.235652,919.314598,11843.295072
905.272052,-3701.029710,-459.657299,10436.903782
905.272382,-2664.741391,-2068.457845,8882.471304
905.272711,-3330.926739,-1072.533697,8512.368333
905.273040,-3256.906145,0.000000,8068.244768
905.273370,-1628.453072,-383.047749,8290.306550
905.273699,296.082377,76.609550,8438.347739
905.274028,2220.617826,2451.505594,8438.347739
905.274358,3256.906145,2911.162892,7772.162391
905.274687,4367.215058,2374.896044,8216.285956
905.275016,4367.215058,2834.553343,9622.677246
905.275345,2664.741391,3524.039291,11177.109724
905.275675,592.164754,4213.525239,11695.253884
905.276004,-666.185348,3370.820191,11769.274478
905.276333,-2146.597232,1532.190996,11103.089130
905.276663,-2590.720797,306.438199,10658.965565
905.276992,-2590.720797,-1149.143247,10881.027347
905.277321,-2960.823768,-766.095498,9992.780217
905.277651,-4367.215058,-689.485948,9178.553681
905.277980,-5255.462188,229.828649,7994.224174
905.278309,-3330.926739,-306.438199,7328.038826
905.278639,-1258.350101,-1072.533697,7402.059420
905.278968,0.000000,0.000000,7476.080014
905.279297,814.226536,1455.581446,6957.935855
905.279626,1776.494261,1915.238745,7105.977043
905.279956,2368.659014,2145.067394,7772.162391
905.280285,1850.514855,2451.505594,9178.553681
905.280614,518.144159,2834.553343,10955.047942
905.280944,-888.247130,3524.039291,11991.336260
905.281273,-2220.617826,1991.848295,11991.336260
905.281602,-3182.885551,1378.971896,12139.377449
905.281932,-3256.906145,0.000000,11695.253884
905.282261,-3182.885551,-1532.190996,10881.027347
905.282590,-3182.885551,-1838.629195,9992.780217
905.282920,-3404.947333,-919.314598,8734.430116
905.283249,-2516.700203,-995.924147,7846.182985
905.283578,-1110.308913,-1378.971896,7772.162391
905.283907,222.061783,0.000000,8660.409521
905.284237,1110.308913,1915.238745,8290.306550
905.284566,2072.576638,2451.505594,8364.327145
905.284895,2812.782580,1685.410096,8660.409521
905.285225,2146.597232,1762.019645,10140.821405
905.285554,444.123565,2451.505594,11843.295072
905.285883,-888.247130,3064.381992,12805.562797
905.286213,-2072.576638,2604.724693,12065.356855
905.286542,-2812.782580,1608.800546,10658.965565
905.286871,-2738.761985,-536.266849,10362.883188
905.287200,-2738.761985,-2145.067394,9992.780217
905.287530,-3701.029710,-919.314598,9474.636058
905.287859,-4589.276840,612.876398,8142.265362
905.288188,-4145.153275,689.485948,6883.915261
905.288518,-2442.679609,-842.705048,6883.915261
905.288847,-888.247130,-689.485948,7402.059420
905.289176,-148.041188,995.924147,7698.141797
905.289506,592.164754,2221.676944,7105.977043
905.289835,1776.494261,1915.238745,7105.977043
905.290164,1702.473667,1225.752797,9104.533087
905.290494,888.247130,1685.410096,10881.027347
905.290823,0.000000,2451.505594,11843.295072
905.291152,-1258.350101,2451.505594,12065.356855
905.291481,-2294.638420,2451.505594,11917.315666
905.291811,-2368.659014,1762.019645,11251.130318
905.292140,-1776.494261,-842.705048,11103.089130
905.292469,-1554.432478,-1762.019645,9918.759623
905.292799,-2072.576638,-306.438199,9178.553681
905.293128,-2442.679609,0.000000,8068.244768
905.293457,-1406.391290,-1225.752797,8290.306550
905.293787,-740.205942,-689.485948,8290.306550
905.294116,0.000000,612.876398,8364.327145
905.294445,1110.308913,1302.362347,8808.450710
905.294775,2368.659014,1838.629195,9178.553681
905.295104,2072.576638,2298.286494,9770.718434
905.295433,518.144159,2298.286494,10436.903782
905.295762,-740.205942,2987.772442,11325.150913
905.296092,-1480.411884,2528.115143,11843.295072
905.296421,-2664.741391,1762.019645,11547.212695
905.296750,-3849.070898,1302.362347,11473.192101
905.297080,-4145.153275,0.000000,10881.027347
905.297409,-4071.132681,-1532.190996,9844.739029
905.297738,-4515.256246,-1149.143247,8660.409521
905.298068,-4293.194464,-536.266849,7698.141797
905.298397,-2590.720797,-842.705048,7254.018232
905.298726,-1184.329507,0.000000,6957.935855
905.299056,148.041188,1455.581446,5921.647536
905.299385,2220.617826,1608.800546,5921.647536
905.299714,3478.967927,1838.629195,7402.059420
905.300043,2664.741391,2911.162892,9252.574275
905.300373,148.041188,3753.867940,10584.944971
905.300702,-1554.432478,3447.429741,12139.377449
905.301031,-2368.659014,3140.991542,12953.603985
905.301361,-3404.947333,1762.019645,12657.521608
905.301690,-4145.153275,0.000000,11547.212695
905.302019,-4071.132681,-1225.752797,10881.027347
905.302349,-3478.967927,-1378.971896,10140.821405
905.302678,-3108.864956,-1149.143247,9400.615463
905.303007,-3330.926739,-153.219100,8142.265362
905.303337,-2294.638420,-306.438199,7994.224174
905.303666,-370.102971,-459.657299,8142.265362
905.303995,592.164754,1762.019645,8734.430116
905.304324,1628.453072,2987.772442,8364.327145
905.304654,2516.700203,2145.067394,8142.265362
905.304983,2664.741391,2451.505594,8956.491898
905.305312,1776.494261,2451.505594,10362.883188
905.305642,592.164754,3140.991542,11399.171507
905.305971,-518.144159,2987.772442,11547.212695
905.306300,-1480.411884,2451.505594,10955.047942
905.306630,-1924.535449,1455.581446,10955.047942
905.306959,-2220.617826,0.000000,10658.965565
905.307288,-2368.659014,-459.657299,10140.821405
905.307618,-3478.967927,-459.657299,8808.450710
905.307947,-4071.132681,459.657299,8216.285956
905.308276,-3182.885551,0.000000,7402.059420
905.308605,-1850.514855,-1302.362347,7624.121203
905.308935,-666.185348,-689.485948,7105.977043
905.309264,296.082377,995.924147,7920.203579
905.309593,1628.453072,1532.190996,7994.224174
905.309923,2368.659014,2221.676944,8512.368333
905.310252,1850.514855,3064.381992,9696.697840
905.310581,962.267725,3677.258390,10140.821405
905.310911,-148.041188,3983.696590,11029.068536
905.311240,-1332.370696,2451.505594,11177.109724
905.311569,-2294.638420,1225.752797,11547.212695
905.311899,-3034.844362,383.047749,11473.192101
905.312228,-3404.947333,-919.314598,10955.047942
905.312557,-3701.029710,-1532.190996,9844.739029
905.312886,-3701.029710,-1149.143247,9326.594869
905.313216,-2590.720797,-1149.143247,8438.347739
905.313545,-1184.329507,-919.314598,8586.388927
905.313874,74.020594,153.219100,8882.471304
905.314204,1110.308913,2068.457845,8438.347739
905.314533,1998.556043,2757.943793,8364.327145
905.314862,2590.720797,2451.505594,8734.430116
905.315192,2442.679609,2068.457845,10066.800811
905.315521,1036.288319,2528.115143,11399.171507
905.315850,-962.267725,2681.334243,11843.295072
905.316180,-2294.638420,2374.896044,11399.171507
905.316509,-3182.885551,995.924147,10807.006753
905.316838,-3256.906145,-306.438199,10436.903782
905.317167,-2442.679609,-1762.019645,10140.821405
905.317497,-2886.803174,-1225.752797,9400.615463
905.317826,-3256.906145,-459.657299,8364.327145
905.318155,-2960.823768,229.828649,7328.038826
905.318485,-1628.453072,-229.828649,7254.018232
905.318814,-296.082377,0.000000,8068.244768
905.319143,74.020594,1455.581446,7994.224174
905.319473,1036.288319,2911.162892,7476.080014
905.319802,1480.411884,2298.286494,7402.059420
905.320131,1702.473667,1532.190996,8586.388927
905.320460,740.205942,1532.190996,10362.883188
905.320790,-740.205942,2145.067394,11547.212695
905.321119,-2368.659014,2298.286494,11843.295072
905.321448,-3404.947333,1838.629195,11843.295072
905.321778,-3997.112087,842.705048,11251.130318
905.322107,-3627.009116,-995.924147,10436.903782
905.322436,-2886.803174,-1915.238745,9918.759623
905.322766,-2886.803174,-766.095498,9326.594869
905.323095,-2886.803174,-536.266849,8512.368333
905.323424,-1776.494261,-459.657299,8290.306550
905.323754,-518.144159,-919.314598,8882.471304
905.324083,666.185348,766.095498,9178.553681
905.324412,1998.556043,2221.676944,8808.450710
905.324741,3256.906145,2451.505594,8586.388927
905.325071,3552.988522,2298.286494,9252.574275
905.325400,2368.659014,2221.676944,10436.903782
905.325729,814.226536,2757.943793,11695.253884
905.326059,-1110.308913,2757.943793,11843.295072
905.326388,-2516.700203,2298.286494,11473.192101
905.326717,-3627.009116,995.924147,11029.068536
905.327047,-3478.967927,-919.314598,10807.006753
905.327376,-3701.029710,-2145.067394,9918.759623
905.327705,-4071.132681,-1302.362347,8364.327145
905.328035,-3849.070898,-919.314598,7105.977043
905.328364,-2738.761985,-766.095498,6883.915261
905.328693,-1406.391290,-306.438199,6957.935855
905.329022,-888.247130,1608.800546,6587.832884
905.329352,370.102971,2068.457845,5847.626942
905.329681,2072.576638,2298.286494,7105.977043
905.330010,1998.556043,2068.457845,8660.409521
905.330340,370.102971,1838.629195,10584.944971
905.330669,-1998.556043,2528.115143,12213.398043
905.330998,-3404.947333,3217.601092,13027.624579
905.331328,-3997.112087,1838.629195,13027.624579
905.331657,-4367.215058,459.657299,12139.377449
905.331986,-3330.926739,-995.924147,11103.089130
905.332316,-2368.659014,-1685.410096,10140.821405
905.332645,-2146.597232,-919.314598,9178.553681
905.332974,-1924.535449,306.438199,8068.244768
905.333303,-814.226536,76.609550,7994.224174
905.333633,370.102971,0.000000,8068.244768
905.333962,1332.370696,1915.238745,8660.409521
905.334291,2368.659014,2681.334243,8586.388927
905.334621,3256.906145,2221.676944,8438.347739
905.334950,3404.947333,1991.848295,8808.450710
905.335280,2072.576638,2451.505594,10510.924376
905.335609,740.205942,2528.115143,11177.109724
905.335939,-592.164754,3370.820191,11843.295072
905.336268,-2146.597232,2604.724693,11399.171507
905.336598,-3034.844362,1838.629195,11029.068536
905.336927,-2960.823768,766.095498,10732.986159
905.337257,-3108.864956,0.000000,9696.697840
905.337586,-3775.050304,-612.876398,9400.615463
905.337916,-4367.215058,0.000000,7994.224174
905.338245,-3478.967927,0.000000,7105.977043
905.338575,-1776.494261,-1532.190996,6661.853478
905.338905,-740.205942,-842.705048,6883.915261
905.339234,1184.329507,842.705048,7031.956449
905.339564,2072.576638,1762.019645,7254.018232
905.339893,2812.782580,2068.457845,8290.306550
905.340223,2368.659014,2451.505594,9844.739029
905.340552,1184.329507,3524.039291,11177.109724
905.340882,-222.061783,2911.162892,12287.418637
905.341211,-1258.350101,2834.553343,12213.398043
905.341541,-2072.576638,1838.629195,12065.356855
905.341870,-2368.659014,76.609550,11843.295072
905.342200,-2368.659014,-1455.581446,11325.150913
905.342530,-2738.761985,-1225.752797,10658.965565
905.342859,-3478.967927,-459.657299,9696.697840
905.343189,-2960.823768,0.000000,8734.430116
905.343518,-1554.432478,-612.876398,8660.409521
905.343848,0.000000,-229.828649,8734.430116
905.344177,1110.308913,1302.362347,8290.306550
905.344507,2072.576638,2068.457845,7994.224174
905.344836,2442.679609,1991.848295,8216.285956
905.345166,2146.597232,1762.019645,9548.656652
905.345495,296.082377,2374.896044,10955.047942
905.345825,-1110.308913,3370.820191,11621.233289
905.346155,-2960.823768,1991.848295,11103.089130
905.346484,-4219.173869,1378.971896,11029.068536
905.346814,-4663.297435,0.000000,10362.883188
905.347143,-4589.276840,-1685.410096,9992.780217
905.347473,-4515.256246,-2298.286494,9104.533087
905.347802,-4367.215058,-1608.800546,7994.224174
905.348132,-3330.926739,-766.095498,7994.224174
905.348461,-1554.432478,-689.485948,7772.162391
905.348791,592.164754,-612.876398,7698.141797
905.349120,2294.638420,919.314598,7476.080014
905.349450,3404.947333,2451.505594,6957.935855
905.349780,4441.235652,2528.115143,7846.182985
905.350109,4293.194464,2374.896044,8956.491898
905.350439,2442.679609,2757.943793,10807.006753
905.350768,148.041188,3294.210641,11769.274478
905.351098,-1554.432478,2374.896044,11769.274478
905.351427,-2664.741391,1838.629195,11843.295072
905.351757,-4145.153275,76.609550,11399.171507
905.352086,-4367.215058,-1685.410096,10436.903782
905.352416,-3849.070898,-2757.943793,10140.821405
905.352745,-4219.173869,-1762.019645,9844.739029
905.353075,-4145.153275,-536.266849,9326.594869
905.353405,-3330.926739,-459.657299,8882.471304
905.353734,-1258.350101,-153.219100,9178.553681
905.354064,-222.061783,1302.362347,8512.368333
905.354393,1406.391290,1455.581446,8290.306550
905.354723,3108.864956,2068.457845,8438.347739
905.355052,3108.864956,1762.019645,9030.512492
905.355382,1628.453072,2298.286494,10214.842000
905.355711,222.061783,2681.334243,11029.068536
905.356041,-666.185348,2681.334243,11547.212695
905.356370,-1332.370696,1762.019645,11547.212695
905.356700,-1924.535449,842.705048,11399.171507
905.357029,-2368.659014,-306.438199,10955.047942
905.357359,-2294.638420,-536.266849,10214.842000
905.357689,-2812.782580,-306.438199,9104.533087
905.358018,-3182.885551,689.485948,7920.203579
905.358348,-2442.679609,842.705048,7105.977043
905.358677,-740.205942,-383.047749,7105.977043
905.359007,-148.041188,689.485948,6957.935855
905.359336,296.082377,2068.457845,6291.750507
905.359666,1184.329507,1838.629195,6365.771101
905.359995,1406.391290,1149.143247,7846.182985
905.360325,0.000000,1072.533697,9918.759623
905.360654,-2072.576638,2451.505594,11769.274478
905.360984,-3775.050304,2987.772442,12657.521608
905.361314,-4737.318029,2298.286494,12583.501014
905.361643,-4293.194464,919.314598,12361.439231
905.361973,-3478.967927,-1072.533697,10881.027347
905.362302,-1998.556043,-2068.457845,10140.821405
905.362632,-2294.638420,-1608.800546,9474.636058
905.362961,-2368.659014,-459.657299,8512.368333
905.363291,-1332.370696,0.000000,8290.306550
905.363620,740.205942,-536.266849,8956.491898
905.363950,2220.617826,766.095498,9326.594869
905.364279,2886.803174,2451.505594,8956.491898
905.364609,3923.091493,3140.991542,8734.430116
905.364939,4145.153275,2451.505594,9030.512492
905.365268,2886.803174,1302.362347,10288.862594
905.365598,1184.329507,3217.601092,11769.274478
905.365927,-962.267725,3524.039291,12065.356855
905.366257,-2516.700203,2221.676944,11547.212695
905.366586,-3552.988522,1149.143247,10732.986159
905.366916,-3552.988522,-153.219100,10658.965565
905.367245,-3701.029710,-1378.971896,9474.636058
905.367575,-4515.256246,-1072.533697,9326.594869
905.367904,-5033.400406,76.609550,7994.224174
905.368234,-4219.173869,0.000000,7105.977043
905.368564,-2072.576638,-766.095498,7254.018232
905.368893,0.000000,-153.219100,7031.956449
905.369223,518.144159,1378.971896,6809.894666
905.369552,2146.597232,2068.457845,6883.915261
905.369882,3182.885551,2451.505594,7624.121203
905.370211,2368.659014,2451.505594,9252.574275
905.370541,1554.432478,3600.648841,10881.027347
905.370870,0.000000,3600.648841,11843.295072
905.371200,-962.267725,2987.772442,11843.295072
905.371529,-1998.556043,1991.848295,11621.233289
905.371859,-2220.617826,766.095498,11991.336260
905.372189,-2516.700203,-612.876398,11103.089130
905.372518,-2072.576638,-306.438199,10584.944971
905.372848,-2886.803174,0.000000,9326.594869
905.373177,-2368.659014,0.000000,8290.306550
905.373507,-1406.391290,-919.314598,8142.265362
905.373836,-444.123565,-689.485948,8808.450710
905.374166,518.144159,1302.362347,9030.512492
905.374495,962.267725,2221.676944,8586.388927
905.374825,1628.453072,1685.410096,8660.409521
905.375154,1406.391290,1608.800546,9474.636058
905.375484,222.061783,2068.457845,10362.883188
905.375814,-740.205942,2834.553343,11251.130318
905.376143,-1702.473667,2604.724693,11621.233289
905.376473,-2442.679609,1838.629195,10807.006753
905.376802,-3404.947333,383.047749,10584.944971
905.377132,-3256.906145,-995.924147,10584.944971
905.377461,-3108.864956,-1072.533697,9992.780217
905.377791,-3182.885551,-383.047749,9104.533087
905.378120,-3108.864956,0.000000,7920.203579
905.378450,-1554.432478,-612.876398,7698.141797
905.378779,74.020594,-459.657299,7550.100608
905.379109,1332.370696,383.047749,6957.935855
905.379439,2442.679609,2068.457845,7031.956449
905.379768,3182.885551,2298.286494,7328.038826
905.380098,2368.659014,2145.067394,8438.347739
905.380427,888.247130,2451.505594,9770.718434
905.380757,-888.247130,2987.772442,10807.006753
905.381086,-1998.556043,2145.067394,11399.171507
905.381416,-2886.803174,1608.800546,11399.171507
905.381745,-3923.091493,383.047749,11473.192101
905.382075,-3923.091493,-1225.752797,11325.150913
905.382404,-4071.132681,-1762.019645,10584.944971
905.382734,-3849.070898,-842.705048,9622.677246
905.383064,-2664.741391,-153.219100,8808.450710
905.383393,-1258.350101,-612.876398,8808.450710
905.383723,0.000000,-383.047749,8956.491898
905.384052,1036.288319,1072.533697,8660.409521
905.384382,1628.453072,2145.067394,8290.306550
905.384711,2368.659014,2298.286494,8734.430116
905.385041,2442.679609,2145.067394,9992.780217
905.385370,1702.473667,2145.067394,11251.130318
905.385700,296.082377,2681.334243,11473.192101
905.386029,-666.185348,2221.676944,11399.171507
905.386359,-1702.473667,1302.362347,10436.903782
905.386689,-1998.556043,536.266849,10807.006753
905.387018,-2442.679609,0.000000,10807.006753
905.387348,-3256.906145,0.000000,10140.821405
905.387677,-3997.112087,0.000000,8734.430116
905.388007,-4293.194464,0.000000,7402.059420
905.388336,-2738.761985,-383.047749,6809.894666
905.388666,-1924.535449,-1149.143247,7105.977043
905.388995,-962.267725,153.219100,7254.018232
905.389325,-444.123565,1455.581446,7179.997637
905.389654,222.061783,2298.286494,6957.935855
905.389984,1184.329507,2757.943793,7994.224174
905.390314,222.061783,2145.067394,9474.636058
905.390643,-740.205942,2451.505594,10807.006753
905.390973,-1998.556043,2911.162892,11843.295072
905.391302,-3034.844362,2145.067394,12065.356855
905.391632,-3627.009116,1302.362347,11621.233289
905.391961,-3330.926739,-383.047749,10881.027347
905.392291,-2442.679609,-1991.848295,10140.821405
905.392620,-2072.576638,-2221.676944,9474.636058
905.392950,-1702.473667,-766.095498,8882.471304
905.393279,-1110.308913,0.000000,8808.450710
905.393609,0.000000,-153.219100,8808.450710
905.393939,962.267725,1072.533697,9252.574275
905.394268,1924.535449,2604.724693,9030.512492
905.394598,2886.803174,2451.505594,8734.430116
905.394927,3330.926739,2604.724693,9252.574275
905.395257,2516.700203,2757.943793,10881.027347
905.395586,592.164754,2298.286494,11251.130318
905.395916,-1110.308913,2528.115143,11547.212695
905.396245,-2368.659014,1608.800546,11177.109724
905.396575,-3627.009116,306.438199,10658.965565
905.396904,-3997.112087,153.219100,10584.944971
905.397234,-3404.947333,-919.314598,10066.800811
905.397564,-3923.091493,-919.314598,9104.533087
905.397893,-3997.112087,-459.657299,7698.141797
905.398223,-2886.803174,-229.828649,7105.977043
905.398552,-1258.350101,0.000000,7402.059420
905.398882,-222.061783,842.705048,7179.997637
905.399211,888.247130,2068.457845,7105.977043
905.399541,2220.617826,1838.629195,7031.956449
905.399870,2738.761985,1915.238745,7994.224174
905.400200,2146.597232,2451.505594,9622.677246
905.400529,1110.308913,3600.648841,10584.944971
905.400859,-444.123565,3524.039291,11177.109724
905.401189,-1554.432478,2757.943793,11177.109724
905.401518,-2220.617826,2145.067394,11621.233289
905.401848,-2516.700203,919.314598,11029.068536
905.402177,-2590.720797,-612.876398,10658.965565
905.402507,-2590.720797,-995.924147,10066.800811
905.402836,-3330.926739,-383.047749,9474.636058
905.403166,-3034.844362,0.000000,8586.388927
905.403495,-2368.659014,-536.266849,8290.306550
905.403825,-740.205942,153.219100,8734.430116
905.404154,-518.144159,1685.410096,7846.182985
905.404484,370.102971,1838.629195,8438.347739
905.404813,962.267725,1838.629195,8956.491898
905.405143,444.123565,1915.238745,9992.780217
905.405473,-370.102971,2374.896044,10881.027347
905.405802,-1258.350101,2681.334243,11695.253884
905.406132,-1702.473667,1991.848295,11843.295072
905.406461,-1924.535449,1072.533697,11251.130318
905.406791,-1850.514855,306.438199,11103.089130
905.407120,-1480.411884,-536.266849,10584.944971
905.407450,-1554.432478,-229.828649,9548.656652
905.407779,-2294.638420,153.219100,8808.450710
905.408109,-1998.556043,842.705048,8142.265362
905.408438,-888.247130,0.000000,7402.059420
905.408768,370.102971,-229.828649,7476.080014
905.409098,1406.391290,689.485948,7105.977043
905.409427,1628.453072,1608.800546,6513.812290
905.409757,1702.473667,1685.410096,7328.038826
905.410086,1036.288319,2145.067394,8438.347739
905.410416,-296.082377,2451.505594,9918.759623
905.410745,-1850.514855,2834.553343,10510.924376
905.411075,-2590.720797,1991.848295,11029.068536
905.411404,-3849.070898,1378.971896,11177.109724
905.411734,-4441.235652,766.095498,11029.068536
905.412063,-4441.235652,-1302.362347,10510.924376
905.412393,-3923.091493,-2145.067394,10436.903782
905.412723,-3552.988522,-1149.143247,10066.800811
905.413052,-3108.864956,-459.657299,9030.512492
905.413382,-1258.350101,-689.485948,8956.491898
905.413711,444.123565,-459.657299,9030.512492
905.414041,1628.453072,919.314598,8956.491898
905.414370,2590.720797,2221.676944,8882.471304
905.414700,4071.132681,1991.848295,9474.636058
905.415029,4071.132681,2681.334243,10436.903782
905.415359,2442.679609,3370.820191,11251.130318
905.415688,1036.288319,3370.820191,11769.274478
905.416018,0.000000,2528.115143,11251.130318
905.416348,-1332.370696,1685.410096,11177.109724
905.416677,-2516.700203,995.924147,11103.089130
905.417007,-3182.885551,-536.266849,10584.944971
905.417336,-3997.112087,-1378.971896,9770.718434
905.417666,-4737.318029,-995.924147,8586.388927
905.417995,-4737.318029,-153.219100,7624.121203
905.418325,-3849.070898,-766.095498,7254.018232
905.418654,-2516.700203,-1072.533697,7254.018232
905.418984,-1776.494261,76.609550,7846.182985
905.419313,-1110.308913,1915.238745,7254.018232
905.419643,-370.102971,2451.505594,6809.894666
905.419973,1184.329507,1608.800546,7402.059420
905.420302,1554.432478,1455.581446,9326.594869
905.420632,0.000000,2451.505594,10881.027347
905.420961,-1332.370696,2911.162892,11473.192101
905.421291,-2590.720797,2451.505594,11399.171507
905.421620,-3182.885551,1608.800546,11547.212695
905.421950,-2886.803174,229.828649,11547.212695
905.422279,-2368.659014,-2068.457845,10732.986159
905.422609,-2220.617826,-1455.581446,9622.677246
905.422938,-2368.659014,-766.095498,8734.430116
905.423268,-1480.411884,-383.047749,8734.430116
905.423598,-148.041188,-919.314598,9178.553681
905.423927,296.082377,383.047749,9696.697840
905.424257,740.205942,2068.457845,9326.594869
905.424586,1628.453072,2451.505594,9030.512492
905.424916,2516.700203,2068.457845,9104.533087
905.425245,1776.494261,2221.676944,9992.780217
905.425575,444.123565,2528.115143,10881.027347
905.425904,-592.164754,2451.505594,11473.192101
905.426234,-1850.514855,2145.067394,11325.150913
905.426563,-3034.844362,1915.238745,10658.965565
905.426893,-3256.906145,383.047749,10436.903782
905.427223,-2960.823768,-689.485948,10214.842000
905.427552,-3108.864956,-536.266849,9178.553681
905.427882,-3627.009116,-306.438199,8142.265362
905.428211,-3108.864956,0.000000,7031.956449
905.428541,-1628.453072,-612.876398,7031.956449
905.428870,-666.185348,-229.828649,6957.935855
905.429200,666.185348,1302.362347,7476.080014
905.429529,1776.494261,2221.676944,7254.018232
905.429859,2590.720797,2451.505594,7920.203579
905.430188,2368.659014,2374.896044,8660.409521
905.430518,1184.329507,3140.991542,9918.759623
905.430848,0.000000,3907.087040,11103.089130
905.431177,-1036.288319,3140.991542,11399.171507
905.431507,-2368.659014,2298.286494,11473.192101
905.431836,-3552.988522,1378.971896,11325.150913
905.432166,-3256.906145,-459.657299,10732.986159
905.432495,-3478.967927,-1302.362347,10140.821405
905.432825,-3701.029710,-1532.190996,8956.491898
905.433154,-3108.864956,-919.314598,8364.327145
905.433484,-1924.535449,-1225.752797,8512.368333
905.433813,-1110.308913,-612.876398,9030.512492
905.434143,0.000000,1455.581446,8734.430116
905.434473,1110.308913,2604.724693,9252.574275
905.434802,1998.556043,2604.724693,9474.636058
905.435132,2294.638420,2451.505594,10510.924376
905.435462,1258.350101,3217.601092,11029.068536
905.435791,0.000000,3217.601092,11621.233289
905.436121,-666.185348,2374.896044,11843.295072
905.436451,-2146.597232,1685.410096,11399.171507
905.436780,-2664.741391,536.266849,11177.109724
905.437110,-2516.700203,-919.314598,10510.924376
905.437440,-2664.741391,-1225.752797,9548.656652
905.437769,-2960.823768,-612.876398,8734.430116
905.438099,-3034.844362,0.000000,7550.100608
905.438429,-2146.597232,0.000000,7328.038826
905.438758,-1036.288319,0.000000,7328.038826
905.439088,-296.082377,1302.362347,6587.832884
905.439418,444.123565,1915.238745,6439.791695
905.439747,1332.370696,1532.190996,6957.935855
905.440077,1554.432478,766.095498,8438.347739
905.440407,222.061783,1455.581446,9844.739029
905.440736,-1332.370696,2145.067394,10955.047942
905.441066,-2368.659014,1915.238745,11621.233289
905.441396,-2960.823768,2221.676944,11843.295072
905.441725,-3182.885551,1302.362347,11547.212695
905.442055,-2590.720797,-842.705048,10955.047942
905.442385,-1702.473667,-1532.190996,10066.800811
905.442714,-1998.556043,-1302.362347,9252.574275
905.443044,-2072.576638,-383.047749,8808.450710
905.443374,-1036.288319,-842.705048,8512.368333
905.443703,0.000000,-612.876398,8808.450710
905.444033,1036.288319,842.705048,9326.594869
905.444363,1776.494261,1915.238745,9252.574275
905.444692,2590.720797,2221.676944,9252.574275
905.445022,2516.700203,2068.457845,9992.780217
905.445352,1628.453072,2374.896044,10881.027347
905.445681,370.102971,2987.772442,11177.109724
905.446011,-814.226536,3064.381992,11029.068536
905.446341,-1924.535449,1991.848295,11251.130318
905.446670,-2886.803174,1225.752797,11103.089130
905.447000,-3849.070898,153.219100,10807.006753
905.447330,-4219.173869,-1149.143247,9770.718434
905.447659,-4885.359217,-689.485948,9104.533087
905.447989,-4737.318029,-153.219100,8808.450710
905.448319,-4367.215058,-459.657299,8068.244768
905.448648,-3034.844362,-919.314598,7624.121203
905.448978,-1850.514855,306.438199,7254.018232
905.449308,0.000000,1685.410096,7031.956449
905.449637,1628.453072,1225.752797,7402.059420
905.449967,2738.761985,2221.676944,7994.224174
905.450297,1776.494261,2604.724693,8364.327145
905.450626,666.185348,2834.553343,9104.533087
905.450956,-444.123565,3064.381992,9992.780217
905.451286,-888.247130,2911.162892,11325.150913
905.451615,-1406.391290,842.705048,11473.192101
905.451945,-2368.659014,383.047749,11473.192101
905.452275,-2368.659014,-459.657299,10584.944971
905.452604,-2960.823768,-842.705048,9992.780217
905.452934,-3108.864956,-536.266849,9400.615463
905.453264,-2146.597232,76.609550,8882.471304
905.453593,-1332.370696,-306.438199,8586.388927
905.453923,-296.082377,76.609550,8734.430116
905.454253,222.061783,1378.971896,8586.388927
905.454582,1036.288319,1149.143247,8586.388927
905.454912,1184.329507,1455.581446,9178.553681
905.455242,296.082377,1685.410096,10288.862594
905.455571,-370.102971,1915.238745,11029.068536
905.455901,-1110.308913,1838.629195,11473.192101
905.456231,-1628.453072,995.924147,11917.315666
905.456560,-2146.597232,612.876398,11769.274478
905.456890,-2368.659014,0.000000,11695.253884
905.457220,-2368.659014,-766.095498,11103.089130
905.457549,-2072.576638,-536.266849,10881.027347
905.457879,-2368.659014,-153.219100,9474.636058
905.458209,-1850.514855,0.000000,7920.203579
905.458538,-370.102971,-612.876398,7328.038826
905.458868,888.247130,536.266849,7179.997637
905.459198,1332.370696,1302.362347,6957.935855
905.459527,1924.535449,1838.629195,7179.997637
905.459857,1924.535449,2451.505594,7994.224174
905.460187,1332.370696,2987.772442,8586.388927
905.460516,74.020594,3217.601092,9400.615463
905.460846,-814.226536,2757.943793,9918.759623
905.461176,-2072.576638,1762.019645,10658.965565
905.461505,-3404.947333,1378.971896,10881.027347
905.461835,-4589.276840,1149.143247,10362.883188
905.462165,-4737.318029,0.000000,10214.842000
905.462494,-4589.276840,-995.924147,9844.739029
905.462824,-4663.297435,-1149.143247,8808.450710
905.463154,-3330.926739,-1225.752797,8290.306550
905.463483,-1628.453072,-1149.143247,7920.203579
905.463813,-74.020594,0.000000,8956.491898
905.464143,518.144159,1608.800546,9178.553681
905.464472,1924.535449,2145.067394,9252.574275
905.464802,3330.926739,2528.115143,9622.677246
905.465132,3627.009116,3064.381992,10510.924376
905.465461,3330.926739,3524.039291,11547.212695
905.465791,1924.535449,3677.258390,11399.171507
905.466121,222.061783,2451.505594,11547.212695
905.466450,-962.267725,1532.190996,11547.212695
905.466780,-1924.535449,1072.533697,11843.295072
905.467110,-2516.700203,0.000000,11251.130318
905.467439,-3552.988522,-383.047749,10362.883188
905.467769,-4293.194464,-612.876398,8734.430116
905.468099,-3775.050304,-383.047749,7476.080014
905.468428,-2294.638420,-919.314598,7031.956449
905.468758,-1184.329507,-689.485948,7105.977043
905.469088,-962.267725,1225.752797,6661.853478
905.469417,-370.102971,1762.019645,6883.915261
905.469747,592.164754,1915.238745,7772.162391
905.470077,814.226536,2374.896044,8808.450710
905.470406,-296.082377,2528.115143,9622.677246
905.470736,-666.185348,2374.896044,10288.862594
905.471066,-1998.556043,2298.286494,11029.068536
905.471395,-2442.679609,1608.800546,11029.068536
905.471725,-3108.864956,919.314598,11103.089130
905.472055,-3108.864956,0.000000,10510.924376
905.472384,-2442.679609,-1455.581446,9696.697840
905.472714,-2072.576638,-1378.971896,9178.553681
905.473044,-1554.432478,-689.485948,8512.368333
905.473373,-222.061783,0.000000,8290.306550
905.473703,740.205942,0.000000,8734.430116
905.474033,1258.350101,1302.362347,8438.347739
905.474362,2368.659014,2298.286494,8364.327145
905.474692,3330.926739,1455.581446,8734.430116
905.475022,3256.906145,1685.410096,9548.656652
905.475351,2294.638420,2221.676944,10510.924376
905.475681,444.123565,2298.286494,11325.150913
905.476011,-888.247130,1991.848295,11621.233289
905.476340,-2442.679609,1149.143247,11769.274478
905.476670,-3627.009116,459.657299,12065.356855
905.477000,-4293.194464,-536.266849,12065.356855
905.477329,-4515.256246,-919.314598,11325.150913
905.477659,-4515.256246,-1072.533697,9992.780217
905.477989,-4441.235652,-536.266849,7994.224174
905.478318,-3330.926739,-536.266849,7328.038826
905.478648,-1406.391290,-1072.533697,7105.977043
905.478978,0.000000,76.609550,7031.956449
905.479307,1184.329507,1915.238745,7179.997637
905.479637,1628.453072,1838.629195,7476.080014
905.479967,2220.617826,2451.505594,7920.203579
905.480296,1406.391290,2681.334243,9030.512492
905.480626,370.102971,2757.943793,10436.903782
905.480956,-1036.288319,2757.943793,11251.130318
905.481285,-2146.597232,2374.896044,11843.295072
905.481615,-3330.926739,1455.581446,11251.130318
905.481945,-3256.906145,459.657299,11103.089130
905.482274,-2812.782580,-612.876398,10436.903782
905.482604,-3034.844362,-1072.533697,9770.718434
905.482934,-3330.926739,0.000000,8660.409521
905.483263,-2442.679609,0.000000,7698.141797
905.483593,-1406.391290,0.000000,7846.182985
905.483923,-444.123565,153.219100,7994.224174
905.484252,296.082377,1149.143247,8068.244768
905.484582,1184.329507,1302.362347,8068.244768
905.484912,1702.473667,1532.190996,9252.574275
905.485241,1406.391290,2145.067394,9992.780217
905.485571,296.082377,2528.115143,10955.047942
905.485901,-814.226536,2451.505594,11843.295072
905.486230,-1628.453072,1991.848295,11769.274478
905.486560,-2072.576638,1608.800546,11695.253884
905.486890,-2368.659014,612.876398,11621.233289
905.487219,-2368.659014,-383.047749,11177.109724
905.487549,-2960.823768,-536.266849,10362.883188
905.487879,-2960.823768,-306.438199,9622.677246
905.488208,-2368.659014,0.000000,8142.265362
905.488538,-1036.288319,-306.438199,7476.080014
905.488868,0.000000,-306.438199,7179.997637
905.489197,962.267725,1149.143247,7031.956449
905.489527,1628.453072,1762.019645,7476.080014
905.489857,2220.617826,2374.896044,7994.224174
905.490186,1480.411884,2528.115143,8808.450710
905.490516,370.102971,2987.772442,9770.718434
905.490846,-814.226536,3140.991542,10362.883188
905.491175,-1776.494261,1838.629195,10881.027347
905.491505,-2590.720797,1378.971896,10881.027347
905.491835,-3478.967927,919.314598,10510.924376
905.492164,-3478.967927,-612.876398,10658.965565
905.492494,-3182.885551,-919.314598,10362.883188
905.492824,-2886.803174,-612.876398,9326.594869
905.493153,-2368.659014,0.000000,8438.347739
905.493483,-1184.329507,-229.828649,7772.162391
905.493813,74.020594,229.828649,8512.368333
905.494142,1036.288319,1838.629195,8290.306550
905.494472,2220.617826,2374.896044,8290.306550
905.494802,2738.761985,2221.676944,8808.450710
905.495131,2664.741391,2221.676944,8956.491898
905.495461,1628.453072,2145.067394,10584.944971
905.495791,592.164754,2528.115143,11177.109724
905.496120,-592.164754,1915.238745,11621.233289
905.496450,-1850.514855,1455.581446,11621.233289
905.496780,-2590.720797,153.219100,11843.295072
905.497109,-3404.947333,-306.438199,11621.233289
905.497439,-3627.009116,0.000000,10881.027347
905.497769,-4071.132681,0.000000,9548.656652
905.498098,-3256.906145,0.000000,8216.285956
905.498428,-1850.514855,-689.485948,7254.018232
905.498758,-518.144159,-612.876398,7328.038826
905.499087,592.164754,536.266849,7105.977043
905.499417,518.144159,1915.238745,7179.997637
905.499747,1184.329507,2298.286494,7846.182985
905.500076,1110.308913,2298.286494,8956.491898
905.500406,444.123565,2298.286494,9474.636058
905.500736,-1036.288319,2911.162892,10362.883188
905.501065,-1850.514855,2298.286494,10955.047942
905.501395,-2960.823768,1532.190996,11399.171507
905.501725,-3701.029710,1149.143247,11325.150913
905.502054,-3775.050304,0.000000,10732.986159
905.502384,-2812.782580,-536.266849,9918.759623
905.502714,-2516.700203,-842.705048,9252.574275
905.503043,-2146.597232,-229.828649,8808.450710
905.503373,-1258.350101,153.219100,8438.347739
905.503703,-222.061783,229.828649,8586.388927
905.504032,518.144159,1302.362347,8142.265362
905.504362,1258.350101,2298.286494,8438.347739
905.504692,2072.576638,1991.848295,8512.368333
905.505021,2738.761985,1149.143247,8660.409521
905.505351,2146.597232,1608.800546,9548.656652
905.505681,962.267725,2374.896044,10584.944971
905.506010,-592.164754,2451.505594,11547.212695
905.506340,-2072.576638,2145.067394,11473.192101
905.506670,-2960.823768,766.095498,10955.047942
905.506999,-3182.885551,-842.705048,11399.171507
905.507329,-3330.926739,-1532.190996,11843.295072
905.507659,-3997.112087,-536.266849,11621.233289
905.507988,-4441.235652,306.438199,9548.656652
905.508318,-2960.823768,0.000000,7550.100608
905.508648,-666.185348,-612.876398,6587.832884
905.508977,1406.391290,-153.219100,6365.771101
905.509307,2960.823768,689.485948,6143.709319
905.509637,3034.844362,1991.848295,7105.977043
905.509966,2664.741391,2987.772442,8364.327145
905.510296,1406.391290,3140.991542,9770.718434
905.510626,-370.102971,3064.381992,10881.027347
905.510955,-1480.411884,2681.334243,11843.295072
905.511285,-2294.638420,1991.848295,11917.315666
905.511615,-3478.967927,919.314598,11695.253884
905.511944,-4071.132681,-766.095498,10881.027347
905.512274,-3775.050304,-1762.019645,10658.965565
905.512604,-3701.029710,-1915.238745,9622.677246
905.512933,-3330.926739,-995.924147,8068.244768
905.513263,-1998.556043,76.609550,7476.080014
905.513593,-222.061783,-229.828649,7550.100608
905.513922,1036.288319,76.609550,8142.265362
905.514252,1258.350101,1762.019645,8586.388927
905.514582,1258.350101,2834.553343,8734.430116
905.514911,1850.514855,2987.772442,9770.718434
905.515241,1258.350101,2451.505594,10732.986159
905.515571,370.102971,2298.286494,11621.233289
905.515900,-666.185348,1532.190996,11621.233289
905.516230,-1776.494261,1149.143247,11103.089130
905.516560,-2516.700203,536.266849,10807.006753
905.516889,-3182.885551,-383.047749,11473.192101
905.517219,-3256.906145,-995.924147,11695.253884
905.517549,-4145.153275,-536.266849,10288.862594
905.517878,-4071.132681,0.000000,8586.388927
905.518208,-2368.659014,0.000000,7031.956449
905.518538,-222.061783,-459.657299,7254.018232
905.518867,962.267725,383.047749,7476.080014
905.519197,962.267725,1838.629195,7402.059420
905.519527,1184.329507,3217.601092,7254.018232
905.519856,1702.473667,3294.210641,7105.977043
905.520186,1036.288319,3140.991542,9030.512492
905.520516,-666.185348,2681.334243,10140.821405
905.520845,-2294.638420,2681.334243,10807.006753
905.521175,-3923.091493,1225.752797,10732.986159
905.521505,-4811.338623,306.438199,10066.800811
905.521834,-5403.503377,-689.485948,10881.027347
905.522164,-4515.256246,-2145.067394,11473.192101
905.522494,-3552.988522,-1762.019645,10955.047942
905.522823,-2886.803174,-306.438199,9696.697840
905.523153,-1110.308913,459.657299,8290.306550
905.523483,1480.411884,0.000000,7846.182985
905.523812,3108.864956,842.705048,8438.347739
905.524142,3923.091493,2528.115143,8586.388927
905.524472,4219.173869,3753.867940,8586.388927
905.524801,4293.194464,4290.134789,9104.533087
905.525131,3701.029710,3370.820191,9918.759623
905.525461,1924.535449,2374.896044,10955.047942
905.525790,296.082377,2374.896044,11473.192101
905.526120,-1258.350101,1532.190996,11621.233289
905.526450,-2590.720797,842.705048,11695.253884
905.526779,-4145.153275,0.000000,11547.212695
905.527109,-4885.359217,-229.828649,11029.068536
905.527439,-4811.338623,-842.705048,10066.800811
905.527768,-4663.297435,-306.438199,8512.368333
905.528098,-3849.070898,383.047749,7105.977043
905.528428,-2368.659014,-229.828649,5995.668130
905.528757,-740.205942,-842.705048,5921.647536
905.529087,148.041188,612.876398,7402.059420
905.529417,666.185348,2298.286494,8068.244768
905.529746,740.205942,3370.820191,8734.430116
905.530076,814.226536,3447.429741,9474.636058
905.530406,592.164754,2604.724693,10584.944971
905.530735,740.205942,2451.505594,10955.047942
905.531065,-370.102971,2374.896044,11473.192101
905.531395,-1702.473667,2145.067394,10807.006753
905.531724,-2516.700203,1225.752797,10288.862594
905.532054,-2590.720797,-689.485948,10436.903782
905.532384,-2146.597232,-2374.896044,10510.924376
905.532713,-2664.741391,-1378.971896,9918.759623
905.533043,-2738.761985,229.828649,8956.491898
905.533373,-1702.473667,-153.219100,7846.182985
905.533702,74.020594,-459.657299,7624.121203
905.534032,1332.370696,-76.609550,8290.306550
905.534362,1924.535449,1072.533697,8586.388927
905.534691,1924.535449,2145.067394,8882.471304
905.535021,1480.411884,2757.943793,9770.718434
905.535351,370.102971,2604.724693,10732.986159
905.535680,-592.164754,2068.457845,11251.130318
905.536010,-1480.411884,1532.190996,11843.295072
905.536340,-2516.700203,1225.752797,11843.295072
905.536669,-3478.967927,306.438199,11399.171507
905.536999,-4145.153275,-1149.143247,11029.068536
905.537329,-3997.112087,-1991.848295,10362.883188
905.537658,-3182.885551,-1378.971896,9622.677246
905.537988,-2812.782580,-612.876398,8290.306550
905.538317,-1332.370696,0.000000,7105.977043
905.538647,444.123565,-459.657299,6291.750507
905.538977,2072.576638,0.000000,6291.750507
905.539306,2516.700203,1378.971896,6735.874072
905.539636,3256.906145,2604.724693,8512.368333
905.539966,2516.700203,3370.820191,9770.718434
905.540295,814.226536,3677.258390,10658.965565
905.540625,-814.226536,3370.820191,11473.192101
905.540954,-1702.473667,2528.115143,11547.212695
905.541284,-2146.597232,1455.581446,11769.274478
905.541614,-3256.906145,229.828649,11621.233289
905.541943,-4293.194464,-842.705048,11029.068536
905.542273,-4589.276840,-1455.581446,10140.821405
905.542602,-4293.194464,-1532.190996,8882.471304
905.542932,-3552.988522,-612.876398,8364.327145
905.543262,-2294.638420,229.828649,7550.100608
905.543591,-592.164754,0.000000,7328.038826
905.543921,444.123565,306.438199,7772.162391
905.544251,962.267725,2068.457845,8068.244768
905.544580,1628.453072,2757.943793,8512.368333
905.544910,1924.535449,2681.334243,9770.718434
905.545239,1776.494261,3140.991542,10955.047942
905.545569,888.247130,2757.943793,11473.192101
905.545899,0.000000,2068.457845,11547.212695
905.546228,-888.247130,1838.629195,11473.192101
905.546558,-2368.659014,536.266849,11843.295072
905.546888,-3182.885551,-229.828649,12065.356855
905.547217,-3997.112087,-459.657299,11177.109724
905.547547,-4219.173869,-229.828649,9696.697840
905.547876,-3997.112087,-842.705048,7772.162391
905.548206,-2442.679609,-612.876398,6143.709319
905.548536,-888.247130,-766.095498,6143.709319
905.548865,148.041188,-766.095498,6883.915261
905.549195,0.000000,995.924147,7254.018232
905.549525,0.000000,2834.553343,8364.327145
905.549854,0.000000,3370.820191,9030.512492
905.550184,0.000000,2757.943793,9548.656652
905.550513,0.000000,2451.505594,10436.903782
905.550843,-888.247130,2451.505594,11325.150913
905.551173,-1998.556043,1991.848295,11769.274478
905.551502,-3034.844362,1915.238745,11621.233289
905.551832,-3923.091493,842.705048,10955.047942
905.552161,-3478.967927,-459.657299,10807.006753
905.552491,-2590.720797,-1378.971896,10362.883188
905.552821,-2590.720797,-1072.533697,9178.553681
905.553150,-2220.617826,-383.047749,8068.244768
905.553480,-592.164754,-689.485948,7772.162391
905.553810,148.041188,76.609550,8660.409521
905.554139,592.164754,1225.752797,8882.471304
905.554469,1036.288319,1762.019645,8808.450710
905.554798,1998.556043,1915.238745,8660.409521
905.555128,2442.679609,2374.896044,9548.656652
905.555458,2368.659014,1991.848295,10658.965565
905.555787,962.267725,2298.286494,11547.212695
905.556117,-296.082377,2374.896044,11917.315666
905.556447,-1850.514855,1838.629195,11991.336260
905.556776,-3330.926739,1532.190996,11547.212695
905.557106,-3182.885551,229.828649,11103.089130
905.557435,-2960.823768,-612.876398,9918.759623
905.557765,-3034.844362,-766.095498,8512.368333
905.558095,-2664.741391,0.000000,6809.894666
905.558424,-1184.329507,0.000000,5921.647536
905.558754,-518.144159,-459.657299,6587.832884
905.559084,-222.061783,995.924147,7328.038826
905.559413,-370.102971,2451.505594,7772.162391
905.559743,444.123565,2834.553343,8216.285956
905.560072,814.226536,3447.429741,8956.491898
905.560402,444.123565,2528.115143,9474.636058
905.560732,-222.061783,2604.724693,10288.862594
905.561061,-1258.350101,2068.457845,10807.006753
905.561391,-2294.638420,1608.800546,10807.006753
905.561720,-2960.823768,1225.752797,10732.986159
905.562050,-3034.844362,0.000000,11325.150913
905.562380,-2368.659014,-995.924147,11547.212695
905.562709,-2368.659014,-612.876398,10658.965565
905.563039,-2738.761985,153.219100,9030.512492
905.563369,-1628.453072,306.438199,8586.388927
905.563698,0.000000,612.876398,8586.388927
905.564028,1184.329507,995.924147,8808.450710
905.564357,1554.432478,1991.848295,8216.285956
905.564687,2220.617826,2068.457845,8068.244768
905.565017,2368.659014,2145.067394,9104.533087
905.565346,1554.432478,1532.190996,10288.862594
905.565676,-222.061783,2757.943793,11029.068536
905.566006,-1480.411884,2221.676944,11029.068536
905.566335,-2368.659014,1072.533697,11177.109724
905.566665,-3256.906145,153.219100,11695.253884
905.566994,-3923.091493,-459.657299,11769.274478
905.567324,-3997.112087,-842.705048,11029.068536
905.567654,-3701.029710,-919.314598,9548.656652
905.567983,-3478.967927,0.000000,7550.100608
905.568313,-1998.556043,-153.219100,6661.853478
905.568642,0.000000,-766.095498,6069.688724
905.568972,1110.308913,536.266849,6587.832884
905.569302,1184.329507,2068.457845,7179.997637
905.569631,1702.473667,2528.115143,7846.182985
905.569961,1628.453072,2528.115143,8734.430116
905.570291,888.247130,2451.505594,9844.739029
905.570620,-222.061783,2451.505594,10362.883188
905.570950,-1480.411884,1838.629195,10732.986159
905.571279,-1924.535449,995.924147,11029.068536
905.571609,-2960.823768,0.000000,11029.068536
905.571939,-3404.947333,-995.924147,11695.253884
905.572268,-3108.864956,-1915.238745,11991.336260
905.572598,-3775.050304,-1455.581446,10881.027347
905.572928,-3256.906145,0.000000,9474.636058
905.573257,-2368.659014,306.438199,8660.409521
905.573587,-222.061783,0.000000,8290.306550
905.573916,962.267725,0.000000,7994.224174
905.574246,1776.494261,1455.581446,7994.224174
905.574576,2368.659014,1685.410096,8216.285956
905.574905,2146.597232,2298.286494,9474.636058
905.575235,1406.391290,2374.896044,10510.924376
905.575565,148.041188,1991.848295,10955.047942
905.575894,-888.247130,2221.676944,11251.130318
905.576224,-1332.370696,1685.410096,12213.398043
905.576553,-2368.659014,459.657299,12435.459826
905.576883,-4071.132681,612.876398,11843.295072
905.577213,-4589.276840,76.609550,10288.862594
905.577542,-4663.297435,383.047749,8438.347739
905.577872,-3923.091493,536.266849,6809.894666
905.578201,-3108.864956,-383.047749,5699.585753
905.578531,-1924.535449,-1378.971896,5625.565159
905.578861,-1406.391290,-1378.971896,6735.874072
905.579190,-1332.370696,919.314598,7624.121203
905.579520,-666.185348,2451.505594,7994.224174
905.579850,518.144159,2604.724693,9030.512492
905.580179,1036.288319,2145.067394,9030.512492
905.580509,1258.350101,2298.286494,9696.697840
905.580838,1258.350101,2451.505594,10732.986159
905.581168,518.144159,3447.429741,11547.212695
905.581498,-1628.453072,2757.943793,11547.212695
905.581827,-2812.782580,1685.410096,11547.212695
905.582157,-2812.782580,-153.219100,11547.212695
905.582487,-2442.679609,-1532.190996,11399.171507
905.582816,-2664.741391,-1378.971896,10807.006753
905.583146,-2368.659014,-689.485948,9696.697840
905.583475,-1554.432478,-612.876398,8586.388927
905.583805,-370.102971,-536.266849,8216.285956
905.584135,370.102971,766.095498,7179.997637
905.584464,1258.350101,1532.190996,7328.038826
905.584794,2516.700203,2068.457845,7920.203579
905.585124,2294.638420,2911.162892,9770.718434
905.585453,888.247130,3370.820191,10955.047942
905.585783,-666.185348,3064.381992,11695.253884
905.586112,-1702.473667,2145.067394,12139.377449
905.586442,-2368.659014,1072.533697,12361.439231
905.586772,-3182.885551,383.047749,11991.336260
905.587101,-3330.926739,-459.657299,11251.130318
905.587431,-3108.864956,-766.095498,9696.697840
905.587760,-3034.844362,-536.266849,8216.285956
905.588090,-2220.617826,-153.219100,7105.977043
905.588420,-814.226536,689.485948,6365.771101
905.588749,518.144159,1072.533697,6513.812290
905.589079,962.267725,2221.676944,6883.915261
905.589409,1480.411884,2987.772442,7031.956449
905.589738,2072.576638,2681.334243,7846.182985
905.590068,2294.638420,2145.067394,8586.388927
905.590397,888.247130,1991.848295,9696.697840
905.590727,-666.185348,2374.896044,10732.986159
905.591057,-1776.494261,1532.190996,11251.130318
905.591386,-3108.864956,306.438199,11399.171507
905.591716,-3404.947333,0.000000,11621.233289
905.592046,-3849.070898,689.485948,11991.336260
905.592375,-3256.906145,-306.438199,11251.130318
905.592705,-2886.803174,-229.828649,9770.718434
905.593034,-2590.720797,76.609550,8142.265362
905.593364,-962.267725,76.609550,7402.059420
905.593694,0.000000,-612.876398,7920.203579
905.594023,222.061783,995.924147,8808.450710
905.594353,148.041188,2451.505594,8734.430116
905.594682,888.247130,1685.410096,8808.450710
905.595012,1776.494261,1302.362347,9622.677246
905.595342,1628.453072,1991.848295,11029.068536
905.595671,518.144159,1991.848295,11103.089130
905.596001,-370.102971,1532.190996,11473.192101
905.596331,-1628.453072,689.485948,12213.398043
905.596660,-2738.761985,383.047749,12805.562797
905.596990,-3775.050304,612.876398,12361.439231
905.597319,-3923.091493,0.000000,10881.027347
905.597649,-3330.926739,-612.876398,8956.491898
905.597979,-2368.659014,-229.828649,7031.956449
905.598308,-518.144159,-536.266849,5625.565159
905.598638,1184.329507,-919.314598,5625.565159
905.598968,1554.432478,919.314598,5995.668130
905.599297,1036.288319,2528.115143,7031.956449
905.599627,444.123565,3217.601092,7994.224174
905.599956,222.061783,2987.772442,8734.430116
905.600286,148.041188,2528.115143,9474.636058
905.600616,-518.144159,2221.676944,10066.800811
905.600945,-1554.432478,1762.019645,10214.842000
905.601275,-2886.803174,0.000000,10362.883188
905.601605,-3997.112087,-1302.362347,11547.212695
905.601934,-4737.318029,-536.266849,12805.562797
905.602264,-5033.400406,-229.828649,11917.315666
905.602593,-4367.215058,-153.219100,10881.027347
905.602923,-2738.761985,0.000000,8956.491898
905.603253,-740.205942,-306.438199,7550.100608
905.603582,1702.473667,-689.485948,7105.977043
905.603912,2664.741391,153.219100,7402.059420
905.604241,2590.720797,2834.553343,7105.977043
905.604571,2664.741391,2681.334243,8512.368333
905.604901,2516.700203,2221.676944,10066.800811
905.605230,1702.473667,2528.115143,11029.068536
905.605560,148.041188,1991.848295,11695.253884
905.605890,-740.205942,842.705048,11991.336260
905.606219,-2072.576638,459.657299,13323.706956
905.606549,-3627.009116,0.000000,13619.789333
905.606878,-5329.482782,0.000000,13101.645173
905.607208,-5403.503377,76.609550,11399.171507
905.607538,-4515.256246,306.438199,9104.533087
905.607867,-3182.885551,-689.485948,6735.874072
905.608197,-1554.432478,-1149.143247,5107.421000
905.608527,0.000000,-1225.752797,4367.215058
905.608856,888.247130,-689.485948,5477.523971
905.609186,888.247130,1608.800546,7105.977043
905.609515,74.020594,3217.601092,8290.306550
905.609845,74.020594,3064.381992,8882.471304
905.610175,888.247130,2528.115143,9548.656652
905.610504,962.267725,2528.115143,10288.862594
905.610834,666.185348,1915.238745,10584.944971
905.611163,-962.267725,1455.581446,10066.800811
905.611493,-2664.741391,1072.533697,10881.027347
905.611823,-3775.050304,-306.438199,12583.501014
905.612152,-4293.194464,-766.095498,13175.665768
905.612482,-4737.318029,229.828649,12065.356855
905.612812,-3997.112087,-383.047749,9548.656652
905.613141,-2294.638420,-1225.752797,7105.977043
905.613471,444.123565,-1225.752797,6513.812290
905.613800,2368.659014,-1302.362347,6587.832884
905.614130,2664.741391,76.609550,6735.874072
905.614460,2220.617826,3140.991542,7550.100608
905.614789,2072.576638,4136.915689,9030.512492
905.615119,2368.659014,2911.162892,11103.089130
905.615449,1184.329507,3140.991542,11325.150913
905.615778,-370.102971,2604.724693,11695.253884
905.616108,-1258.350101,995.924147,12657.521608
905.616437,-2812.782580,536.266849,13027.624579
905.616767,-5033.400406,842.705048,13027.624579
905.617097,-5329.482782,-229.828649,11991.336260
905.617426,-4959.379811,-306.438199,10214.842000
905.617756,-3701.029710,0.000000,8068.244768
905.618086,-1850.514855,-306.438199,6291.750507
905.618415,0.000000,-229.828649,5033.400406
905.618745,962.267725,306.438199,4959.379811
905.619074,1480.411884,1762.019645,6217.729913
905.619404,1258.350101,3140.991542,7550.100608
905.619734,518.144159,3064.381992,8068.244768
905.620063,666.185348,3370.820191,8956.491898
905.620393,592.164754,2374.896044,9992.780217
905.620722,0.000000,2145.067394,10658.965565
905.621052,-740.205942,1762.019645,10658.965565
905.621382,-2220.617826,459.657299,11029.068536
905.621711,-3330.926739,76.609550,12361.439231
905.622041,-4219.173869,153.219100,13397.727550
905.622371,-4737.318029,766.095498,12361.439231
905.622700,-3849.070898,459.657299,10510.924376
905.623030,-2368.659014,-229.828649,8216.285956
905.623359,-148.041188,-612.876398,6735.874072
905.623689,1702.473667,-842.705048,6587.832884
905.624019,1924.535449,153.219100,6957.935855
905.624348,1406.391290,2451.505594,7179.997637
905.624678,1628.453072,3064.381992,8734.430116
905.625008,1776.494261,2528.115143,9918.759623
905.625337,1480.411884,2451.505594,10807.006753
905.625667,444.123565,1991.848295,11547.212695
905.625996,-592.164754,1378.971896,12509.480420
905.626326,-2072.576638,919.314598,13545.768739
905.626656,-3997.112087,612.876398,13471.748144
905.626985,-4367.215058,-383.047749,12657.521608
905.627315,-4367.215058,-766.095498,10881.027347
905.627645,-3330.926739,-766.095498,8512.368333
905.627974,-1480.411884,-919.314598,6513.812290
905.628304,222.061783,-842.705048,4885.359217
905.628633,1258.350101,536.266849,4589.276840
905.628963,1924.535449,1302.362347,5625.565159
905.629293,1406.391290,2451.505594,7254.018232
905.629622,962.267725,3830.477490,8142.265362
905.629952,518.144159,3677.258390,8808.450710
905.630281,0.000000,2221.676944,9696.697840
905.630611,-666.185348,2145.067394,10955.047942
905.630941,-1998.556043,1608.800546,10881.027347
905.631270,-2960.823768,-536.266849,11399.171507
905.631600,-3997.112087,-2068.457845,12879.583391
905.631930,-5033.400406,-689.485948,13841.851115
905.632259,-5551.544565,0.000000,12435.459826
905.632589,-4145.153275,-383.047749,10436.903782
905.632918,-1924.535449,-383.047749,8216.285956
905.633248,444.123565,-459.657299,6809.894666
905.633578,2664.741391,-919.314598,6365.771101
905.633907,3923.091493,459.657299,6957.935855
905.634237,3034.844362,3064.381992,7402.059420
905.634567,2664.741391,3370.820191,8956.491898
905.634896,2664.741391,2911.162892,10658.965565
905.635226,1628.453072,2987.772442,11621.233289
905.635555,74.020594,1838.629195,11695.253884
905.635885,-1998.556043,1915.238745,12065.356855
905.636214,-3627.009116,1455.581446,12583.501014
905.636544,-4885.359217,0.000000,12509.480420
905.636873,-5773.606348,-1072.533697,11843.295072
905.637202,-5921.647536,-1149.143247,10658.965565
905.637532,-4811.338623,-995.924147,8364.327145
905.637861,-3775.050304,-1532.190996,6587.832884
905.638191,-2072.576638,-1072.533697,5329.482782
905.638520,-222.061783,-612.876398,4737.318029
905.638850,1184.329507,-383.047749,5699.585753
905.639179,1702.473667,1991.848295,7179.997637
905.639509,1258.350101,3294.210641,7920.203579
905.639838,1332.370696,4060.306139,8734.430116
905.640168,1924.535449,3064.381992,9400.615463
905.640497,1702.473667,2451.505594,10362.883188
905.640827,370.102971,2221.676944,10732.986159
905.641156,-1628.453072,995.924147,10066.800811
905.641486,-3182.885551,-229.828649,11991.336260
905.641815,-4515.256246,0.000000,13693.809927
905.642145,-5773.606348,383.047749,13545.768739
905.642474,-5403.503377,0.000000,11547.212695
905.642804,-4071.132681,-1225.752797,8808.450710
905.643133,-2220.617826,-919.314598,7179.997637
905.643463,444.123565,-1378.971896,6291.750507
905.643792,2294.638420,-1378.971896,6291.750507
905.644122,2072.576638,1532.190996,6957.935855
905.644451,1628.453072,3370.820191,7920.203579
905.644780,2294.638420,2834.553343,10140.821405
905.645110,2368.659014,3370.820191,11251.130318
905.645439,1628.453072,2757.943793,11769.274478
905.645769,296.082377,1532.190996,12287.418637
905.646098,-1110.308913,919.314598,13175.665768
905.646428,-3182.885551,1378.971896,14137.933492
905.646757,-4811.338623,612.876398,13323.706956
905.647087,-4737.318029,76.609550,11769.274478
905.647416,-3775.050304,-229.828649,9400.615463
905.647746,-2368.659014,-919.314598,6809.894666
905.648075,-592.164754,-612.876398,5033.400406
905.648405,518.144159,0.000000,4293.194464
905.648734,1480.411884,766.095498,4589.276840
905.649064,1998.556043,1762.019645,6513.812290
905.649393,1258.350101,3524.039291,7698.141797
905.649723,814.226536,3907.087040,8216.285956
905.650052,1036.288319,2604.724693,9474.636058
905.650382,814.226536,2757.943793,10436.903782
905.650711,-370.102971,2451.505594,10881.027347
905.651041,-1628.453072,1072.533697,10807.006753
905.651370,-3182.885551,-536.266849,11695.253884
905.651699,-4219.173869,0.000000,12657.521608
905.652029,-5181.441594,919.314598,12509.480420
905.652358,-4367.215058,-153.219100,10881.027347
905.652688,-3108.864956,-612.876398,8882.471304
905.653017,-1924.535449,-766.095498,7328.038826
905.653347,-444.123565,-689.485948,6661.853478
905.653676,814.226536,153.219100,7105.977043
905.654006,962.267725,1762.019645,8142.265362
905.654335,444.123565,2987.772442,9104.533087
905.654665,1258.350101,3064.381992,10214.842000
905.654994,1998.556043,2757.943793,10955.047942
905.655324,2072.576638,1991.848295,11251.130318
905.655653,444.123565,2145.067394,11547.212695
905.655983,-888.247130,1608.800546,11843.295072
905.656312,-2072.576638,0.000000,13175.665768
905.656642,-3701.029710,0.000000,13323.706956
905.656971,-4959.379811,383.047749,12435.459826
905.657301,-4515.256246,-459.657299,10584.944971
905.657630,-3182.885551,-383.047749,8660.409521
905.657960,-2072.576638,-766.095498,6735.874072
905.658289,-444.123565,-1149.143247,5255.462188
905.658619,592.164754,0.000000,5181.441594
905.658948,518.144159,1302.362347,5995.668130
905.659277,370.102971,2681.334243,7402.059420
905.659607,370.102971,3064.381992,7698.141797
905.659936,888.247130,2604.724693,7994.224174
905.660266,1036.288319,2298.286494,9252.574275
905.660595,-296.082377,1991.848295,10510.924376
905.660925,-1702.473667,2451.505594,10658.965565
905.661254,-2812.782580,536.266849,10510.924376
905.661584,-3478.967927,-1302.362347,11547.212695
905.661913,-3923.091493,-689.485948,12361.439231
905.662243,-3997.112087,-153.219100,12139.377449
905.662572,-3552.988522,-995.924147,10732.986159
905.662902,-2516.700203,-536.266849,8438.347739
905.663231,-814.226536,0.000000,7254.018232
905.663561,1554.432478,-766.095498,6957.935855
905.663890,2442.679609,459.657299,7254.018232
905.664220,2220.617826,2757.943793,7624.121203
905.664549,2072.576638,3294.210641,8586.388927
905.664879,2664.741391,2298.286494,10140.821405
905.665208,2294.638420,2757.943793,11325.150913
905.665538,740.205942,2528.115143,12435.459826
905.665867,-1036.288319,1532.190996,13101.645173
905.666196,-2738.761985,1072.533697,13323.706956
905.666526,-4293.194464,229.828649,13027.624579
905.666855,-5107.421000,-459.657299,11991.336260
905.667185,-4663.297435,-612.876398,10658.965565
905.667514,-3997.112087,-612.876398,8438.347739
905.667844,-3552.988522,-919.314598,6735.874072
905.668173,-2368.659014,-766.095498,5403.503377
905.668503,-1110.308913,0.000000,5403.503377
905.668832,0.000000,383.047749,7105.977043
905.669162,-370.102971,1915.238745,7920.203579
905.669491,-962.267725,3983.696590,7772.162391
905.669821,296.082377,2604.724693,7846.182985
905.670150,1776.494261,1378.971896,8956.491898
905.670480,1406.391290,2145.067394,9992.780217
905.670809,-370.102971,2451.505594,10362.883188
905.671139,-2072.576638,1685.410096,10658.965565
905.671468,-3478.967927,1149.143247,10955.047942
905.671798,-3775.050304,536.266849,11917.315666
905.672127,-3478.967927,-1225.752797,12509.480420
905.672457,-3330.926739,-842.705048,11103.089130
905.672786,-3627.009116,-1302.362347,9622.677246
905.673116,-2516.700203,-1072.533697,8364.327145
905.673445,-518.144159,-229.828649,7920.203579
905.673774,666.185348,-383.047749,7402.059420
905.674104,1924.535449,536.266849,7179.997637
905.674433,2368.659014,2068.457845,7179.997637
905.674763,3108.864956,2604.724693,8734.430116
905.675092,3034.844362,2298.286494,10362.883188
905.675422,1554.432478,2528.115143,11399.171507
905.675751,0.000000,3064.381992,12139.377449
905.676081,-888.247130,2145.067394,13175.665768
905.676410,-2072.576638,536.266849,13545.768739
905.676740,-3478.967927,689.485948,12731.542202
905.677069,-3775.050304,-995.924147,11547.212695
905.677399,-3256.906145,-1532.190996,9844.739029
905.677728,-2738.761985,0.000000,8438.347739
905.678058,-2368.659014,-995.924147,6217.729913
905.678387,-1554.432478,0.000000,5329.482782
905.678717,-518.144159,612.876398,5699.585753
905.679046,370.102971,1532.190996,7105.977043
905.679376,888.247130,3217.601092,8364.327145
905.679705,1258.350101,3294.210641,7994.224174
905.680035,1036.288319,2911.162892,8216.285956
905.680364,814.226536,2068.457845,9548.656652
905.680693,74.020594,2604.724693,10584.944971
905.681023,-1184.329507,2451.505594,10658.965565
905.681352,-2368.659014,1225.752797,10066.800811
905.681682,-3775.050304,76.609550,11473.192101
905.682011,-4219.173869,-153.219100,12731.542202
905.682341,-4441.235652,0.000000,12435.459826
905.682670,-4219.173869,0.000000,10436.903782
905.683000,-3330.926739,0.000000,8290.306550
905.683329,-1702.473667,-153.219100,7031.956449
905.683659,666.185348,-842.705048,7254.018232
905.683988,1702.473667,459.657299,7328.038826
905.684318,1406.391290,2451.505594,7105.977043
905.684647,1998.556043,3830.477490,8142.265362
905.684977,2368.659014,3217.601092,10066.800811
905.685306,1258.350101,2834.553343,11325.150913
905.685636,74.020594,2221.676944,12213.398043
905.685965,-1036.288319,1608.800546,12657.521608
905.686295,-2368.659014,1225.752797,12805.562797
905.686624,-3256.906145,689.485948,12213.398043
905.686954,-3923.091493,-383.047749,11843.295072
905.687283,-3627.009116,-612.876398,10140.821405
905.687613,-2886.803174,-459.657299,7698.141797
905.687942,-1850.514855,-459.657299,6143.709319
905.688271,-148.041188,0.000000,4885.359217
905.688601,666.185348,536.266849,5403.503377
905.688930,814.226536,995.924147,7179.997637
905.689260,74.020594,2681.334243,8142.265362
905.689589,-592.164754,3983.696590,8216.285956
905.689919,-666.185348,3370.820191,8956.491898
905.690248,444.123565,1838.629195,10214.842000
905.690578,-444.123565,1685.410096,10955.047942
905.690907,-1628.453072,1455.581446,10066.800811
905.691237,-2368.659014,-536.266849,10362.883188
905.691566,-3182.885551,-995.924147,12065.356855
905.691896,-4145.153275,383.047749,12731.542202
905.692225,-4293.194464,-536.266849,12213.398043
905.692555,-3330.926739,-842.705048,9992.780217
905.692884,-1554.432478,-612.876398,8142.265362
905.693214,296.082377,-612.876398,7254.018232
905.693543,2368.659014,-766.095498,7105.977043
905.693873,2812.782580,229.828649,7402.059420
905.694202,2220.617826,2911.162892,7698.141797
905.694532,2368.659014,3447.429741,8956.491898
905.694861,2516.700203,3140.991542,10362.883188
905.695190,2146.597232,2911.162892,11103.089130
905.695520,148.041188,2681.334243,11769.274478
905.695849,-1480.411884,2145.067394,11991.336260
905.696179,-3108.864956,1149.143247,12213.398043
905.696508,-4959.379811,-459.657299,12435.459826
905.696838,-6291.750507,-1455.581446,11991.336260
905.697167,-6217.729913,-1072.533697,10807.006753
905.697497,-5033.400406,-1608.800546,9030.512492
905.697826,-3182.885551,-1532.190996,7105.977043
905.698156,-1776.494261,-689.485948,5699.585753
905.698485,-222.061783,0.000000,5329.482782
905.698815,1480.411884,1225.752797,5699.585753
905.699144,1702.473667,3140.991542,7105.977043
905.699474,1554.432478,4366.744339,7920.203579
905.699803,1554.432478,3907.087040,9104.533087
905.700133,1628.453072,2911.162892,9622.677246
905.700462,1110.308913,2145.067394,10658.965565
905.700792,-666.185348,1762.019645,10658.965565
905.701121,-2146.597232,612.876398,10658.965565
905.701451,-3404.947333,-919.314598,11843.295072
905.701780,-4515.256246,-536.266849,12953.603985
905.702110,-5403.503377,0.000000,12509.480420
905.702439,-4737.318029,0.000000,11177.109724
905.702768,-4145.153275,-842.705048,8660.409521
905.703098,-2812.782580,-536.266849,7698.141797
905.703427,-888.247130,-766.095498,7179.997637
905.703757,370.102971,-459.657299,7179.997637
905.704086,222.061783,1762.019645,7105.977043
905.704416,666.185348,2374.896044,7698.141797
905.704745,1628.453072,1838.629195,9474.636058
905.705075,2368.659014,1991.848295,10510.924376
905.705404,1702.473667,2068.457845,11325.150913
905.705734,1110.308913,1991.848295,12509.480420
905.706063,-518.144159,1532.190996,13175.665768
905.706393,-2146.597232,1072.533697,13989.892304
905.706722,-3034.844362,459.657299,13545.768739
905.707052,-3478.967927,459.657299,11917.315666
905.707381,-2516.700203,-306.438199,9918.759623
905.707711,-1480.411884,-612.876398,7328.038826
905.708040,-814.226536,-842.705048,5921.647536
905.708370,222.061783,-689.485948,5181.441594
905.708699,1036.288319,383.047749,5107.421000
905.709029,1110.308913,2145.067394,6365.771101
905.709358,666.185348,2681.334243,7402.059420
905.709687,666.185348,3677.258390,8290.306550
905.710017,740.205942,3294.210641,8586.388927
905.710346,814.226536,2298.286494,9326.594869
905.710676,-444.123565,1762.019645,10066.800811
905.711005,-1776.494261,1608.800546,10584.944971
905.711335,-3923.091493,-306.438199,11547.212695
905.711664,-5033.400406,-766.095498,12879.583391
905.711994,-5847.626942,229.828649,13101.645173
905.712323,-5551.544565,-306.438199,11917.315666
905.712653,-4293.194464,-1072.533697,9992.780217
905.712982,-2294.638420,0.000000,8364.327145
905.713312,148.041188,0.000000,7105.977043
905.713641,2220.617826,0.000000,6587.832884
905.713971,2738.761985,1838.629195,6957.935855
905.714300,2442.679609,3140.991542,7772.162391
905.714630,3108.864956,3907.087040,9474.636058
905.714959,3330.926739,3294.210641,10288.862594
905.715289,2294.638420,2911.162892,11325.150913
905.715618,740.205942,2528.115143,11843.295072
905.715948,-1258.350101,1532.190996,12361.439231
905.716277,-2812.782580,536.266849,13323.706956
905.716607,-4515.256246,766.095498,13249.686362
905.716936,-5403.503377,229.828649,12731.542202
905.717265,-5477.523971,76.609550,10955.047942
905.717595,-4441.235652,-536.266849,8734.430116
905.717924,-3034.844362,-1149.143247,7031.956449
905.718254,-1406.391290,-842.705048,5033.400406
905.718583,0.000000,0.000000,4663.297435
905.718913,296.082377,1378.971896,5847.626942
905.719242,74.020594,2374.896044,7105.977043
905.719572,0.000000,2987.772442,7698.141797
905.719901,740.205942,2604.724693,8068.244768
905.720231,1110.308913,2298.286494,9474.636058
905.720560,296.082377,2451.505594,10214.842000
905.720890,-888.247130,2298.286494,10881.027347
905.721219,-1998.556043,689.485948,10732.986159
905.721549,-3182.885551,-689.485948,11843.295072
905.721878,-3404.947333,76.609550,13397.727550
905.722208,-4071.132681,383.047749,13027.624579
905.722537,-3404.947333,-995.924147,11251.130318
905.722867,-2368.659014,-919.314598,8882.471304
905.723196,-592.164754,-842.705048,7476.080014
905.723526,1776.494261,-612.876398,6735.874072
905.723855,2442.679609,-229.828649,7105.977043
905.724184,2072.576638,1991.848295,7328.038826
905.724514,1924.535449,3140.991542,7994.224174
905.724843,2368.659014,1991.848295,9326.594869
905.725173,2516.700203,1302.362347,10584.944971
905.725502,888.247130,1532.190996,11917.315666
905.725832,-888.247130,1455.581446,12657.521608
905.726161,-2442.679609,766.095498,13101.645173
905.726491,-3627.009116,306.438199,13175.665768
905.726820,-4293.194464,0.000000,12509.480420
905.727150,-3701.029710,-459.657299,11843.295072
905.727479,-3330.926739,0.000000,9622.677246
905.727809,-2368.659014,-383.047749,7624.121203
905.728138,-1480.411884,0.000000,5995.668130
905.728468,-370.102971,995.924147,5625.565159
905.728797,518.144159,1378.971896,6143.709319
905.729127,888.247130,2145.067394,7105.977043
905.729456,592.164754,2834.553343,7105.977043
905.729786,296.082377,2374.896044,7254.018232
905.730115,962.267725,1455.581446,8364.327145
905.730445,148.041188,2068.457845,9844.739029
905.730774,-1628.453072,2068.457845,10436.903782
905.731104,-2738.761985,995.924147,10658.965565
905.731433,-3775.050304,-459.657299,11991.336260
905.731762,-4737.318029,229.828649,13397.727550
905.732092,-5477.523971,689.485948,13249.686362
905.732421,-4293.194464,0.000000,11399.171507
905.732751,-3404.947333,-383.047749,9178.553681
905.733080,-2072.576638,-612.876398,7402.059420
905.733410,0.000000,-689.485948,6809.894666
905.733739,1036.288319,0.000000,6735.874072
905.734069,1332.370696,1915.238745,7476.080014
905.734398,1406.391290,2834.553343,8290.306550
905.734728,1776.494261,2604.724693,9326.594869
905.735057,1702.473667,2298.286494,9992.780217
905.735387,1110.308913,1915.238745,10658.965565
905.735716,0.000000,1532.190996,11177.109724
905.736046,-1184.329507,1072.533697,12287.418637
905.736375,-2664.741391,-612.876398,13545.768739
905.736705,-4737.318029,-459.657299,13471.748144
905.737034,-5403.503377,-459.657299,12583.501014
905.737364,-3923.091493,-229.828649,10881.027347
905.737693,-2220.617826,-1532.190996,8586.388927
905.738023,-962.267725,-919.314598,6513.812290
905.738352,222.061783,-536.266849,5181.441594
905.738682,1406.391290,919.314598,5329.482782
905.739011,1998.556043,2451.505594,6661.853478
905.739341,2220.617826,3677.258390,7698.141797
905.739670,1184.329507,3830.477490,7698.141797
905.740000,1258.350101,2298.286494,8142.265362
905.740329,888.247130,1072.533697,9326.594869
905.740659,-148.041188,1685.410096,9992.780217
905.740988,-2146.597232,1532.190996,11251.130318
905.741318,-3108.864956,-536.266849,12731.542202
905.741647,-4737.318029,-153.219100,13249.686362
905.741977,-5033.400406,459.657299,12731.542202
905.742306,-4145.153275,-383.047749,11177.109724
905.742636,-2294.638420,-612.876398,9252.574275
905.742965,-962.267725,-612.876398,7846.182985
905.743295,518.144159,-383.047749,7254.018232
905.743624,1480.411884,689.485948,7105.977043
905.743954,1332.370696,2604.724693,7105.977043
905.744283,1184.329507,3217.601092,7624.121203
905.744613,2442.679609,3677.258390,8438.347739
905.744942,2886.803174,2451.505594,9622.677246
905.745272,2590.720797,1685.410096,10658.965565
905.745601,592.164754,1991.848295,11621.233289
905.745931,-1554.432478,2145.067394,12435.459826
905.746260,-2886.803174,1072.533697,13471.748144
905.746590,-3849.070898,612.876398,13397.727550
905.746920,-4441.235652,689.485948,11991.336260
905.747249,-3923.091493,0.000000,9992.780217
905.747579,-3034.844362,-995.924147,7846.182985
905.747908,-1998.556043,-612.876398,6513.812290
905.748238,-814.226536,-229.828649,5773.606348
905.748567,-518.144159,995.924147,6143.709319
905.748897,-370.102971,2221.676944,7105.977043
905.749226,-592.164754,2681.334243,7698.141797
905.749556,-222.061783,3064.381992,8364.327145
905.749885,518.144159,1915.238745,8512.368333
905.750215,814.226536,1532.190996,9844.739029
905.750544,-296.082377,2221.676944,10584.944971
905.750874,-1702.473667,2451.505594,9918.759623
905.751203,-2368.659014,-229.828649,10436.903782
905.751533,-2812.782580,-2221.676944,12287.418637
905.751862,-3478.967927,-153.219100,13693.809927
905.752192,-3997.112087,153.219100,12953.603985
905.752521,-3552.988522,-459.657299,10807.006753
905.752851,-2294.638420,-459.657299,8734.430116
905.753180,0.000000,0.000000,7328.038826
905.753510,2516.700203,-306.438199,6661.853478
905.753839,3478.967927,306.438199,6661.853478
905.754169,2960.823768,3370.820191,6883.915261
905.754498,2738.761985,3294.210641,7772.162391
905.754828,3034.844362,2298.286494,9252.574275
905.755157,1850.514855,2451.505594,10436.903782
905.755487,-148.041188,2451.505594,11843.295072
905.755816,-2294.638420,2451.505594,12287.418637
905.756146,-4293.194464,919.314598,12657.521608
905.756475,-5699.585753,-995.924147,12731.542202
905.756805,-6217.729913,-2374.896044,12213.398043
905.757134,-5329.482782,-2528.115143,11547.212695
905.757464,-3849.070898,-1915.238745,9918.759623
905.757793,-2886.803174,-1225.752797,7698.141797
905.758123,-1184.329507,-919.314598,6069.688724
905.758452,1480.411884,153.219100,5255.462188
905.758782,3701.029710,1302.362347,6883.915261
905.759111,3701.029710,3677.258390,6735.874072
905.759441,3256.906145,4136.915689,7328.038826
905.759771,3034.844362,3753.867940,8438.347739
905.760100,2368.659014,2757.943793,10140.821405
905.760430,518.144159,2068.457845,11325.150913
905.760759,-1406.391290,1991.848295,11399.171507
905.761089,-3182.885551,383.047749,12139.377449
905.761418,-4663.297435,-919.314598,12805.562797
905.761748,-5847.626942,-689.485948,12583.501014
905.762077,-5921.647536,-536.266849,11621.233289
905.762407,-4515.256246,-536.266849,9696.697840
905.762736,-3997.112087,-766.095498,8142.265362
905.763066,-2812.782580,0.000000,6809.894666
905.763395,-1110.308913,-229.828649,6069.688724
905.763725,740.205942,-306.438199,6661.853478
905.764054,1258.350101,2374.896044,7328.038826
905.764384,814.226536,2987.772442,8290.306550
905.764713,1258.350101,2451.505594,9104.533087
905.765043,1850.514855,2068.457845,9992.780217
905.765372,1554.432478,1915.238745,11029.068536
905.765702,888.247130,2374.896044,11769.274478
905.766031,-518.144159,842.705048,13101.645173
905.766361,-1998.556043,459.657299,13915.871710
905.766690,-3923.091493,612.876398,13397.727550
905.767020,-3997.112087,306.438199,12287.418637
905.767349,-3108.864956,-229.828649,10066.800811
905.767679,-2220.617826,-766.095498,7994.224174
905.768008,-888.247130,-1225.752797,5625.565159
905.768338,666.185348,-842.705048,4737.318029
905.768667,1258.350101,0.000000,5403.503377
905.768997,666.185348,2221.676944,6735.874072
905.769326,0.000000,3524.039291,7920.203579
905.769656,0.000000,3830.477490,8438.347739
905.769985,888.247130,2451.505594,9104.533087
905.770315,740.205942,1532.190996,10214.842000
905.770644,-888.247130,2221.676944,10658.965565
905.770974,-2146.597232,1685.410096,10288.862594
905.771303,-3552.988522,-842.705048,11843.295072
905.771633,-4737.318029,-1302.362347,13915.871710
905.771963,-6069.688724,153.219100,14211.954086
905.772292,-5329.482782,-689.485948,12435.459826
905.772622,-3627.009116,-1149.143247,9548.656652
905.772951,-814.226536,-1225.752797,7698.141797
905.773281,1776.494261,-1072.533697,6587.832884
905.773610,3478.967927,-383.047749,6069.688724
905.773940,3775.050304,2068.457845,6217.729913
905.774269,2738.761985,5209.449386,6883.915261
905.774599,3034.844362,4673.182538,8216.285956
905.774928,3775.050304,3524.039291,10066.800811
905.775258,2516.700203,2911.162892,11251.130318
905.775587,370.102971,2374.896044,11843.295072
905.775917,-1480.411884,1608.800546,12361.439231
905.776246,-3256.906145,0.000000,13027.624579
905.776576,-5107.421000,-766.095498,13249.686362
905.776905,-6143.709319,-536.266849,12509.480420
905.777235,-5329.482782,-383.047749,10510.924376
905.777564,-3997.112087,-842.705048,8142.265362
905.777894,-2294.638420,-1455.581446,6217.729913
905.778223,-1110.308913,-153.219100,4885.359217
905.778553,148.041188,459.657299,5107.421000
905.778882,518.144159,1915.238745,7031.956449
905.779212,-296.082377,3830.477490,7550.100608
905.779541,-444.123565,4136.915689,8290.306550
905.779871,666.185348,2145.067394,8438.347739
905.780200,1702.473667,1762.019645,10288.862594
905.780530,592.164754,2374.896044,10658.965565
905.780859,-518.144159,2145.067394,9918.759623
905.781189,-1406.391290,229.828649,11177.109724
905.781518,-2886.803174,-766.095498,12953.603985
905.781848,-4441.235652,842.705048,13915.871710
905.782177,-4441.235652,766.095498,12953.603985
905.782507,-3256.906145,0.000000,10955.047942
905.782836,-2368.659014,0.000000,8660.409521
905.783166,-592.164754,-766.095498,7031.956449
905.783495,1258.350101,-995.924147,6587.832884
905.783825,2220.617826,229.828649,6883.915261
905.784155,1184.329507,2911.162892,6883.915261
905.784484,1036.288319,2987.772442,7328.038826
905.784814,1998.556043,2145.067394,8808.450710
905.785143,2294.638420,2451.505594,10214.842000
905.785473,592.164754,2145.067394,11325.150913
905.785802,-740.205942,2834.553343,11843.295072
905.786132,-2664.741391,1838.629195,12435.459826
905.786461,-3701.029710,0.000000,12805.562797
905.786791,-4811.338623,-1378.971896,12213.398043
905.787120,-4589.276840,-689.485948,11399.171507
905.787450,-3404.947333,-1149.143247,9844.739029
905.787779,-2664.741391,-1455.581446,7994.224174
905.788109,-2072.576638,-1072.533697,6069.688724
905.788438,-444.123565,-612.876398,5255.462188
905.788768,1332.370696,766.095498,5921.647536
905.789097,1628.453072,2528.115143,6883.915261
905.789427,1406.391290,3370.820191,7476.080014
905.789756,1554.432478,2757.943793,8438.347739
905.790086,1554.432478,2451.505594,9548.656652
905.790415,666.185348,2068.457845,10658.965565
905.790745,-814.226536,2528.115143,11399.171507
905.791074,-2368.659014,1072.533697,11843.295072
905.791404,-3775.050304,-612.876398,12657.521608
905.791733,-4737.318029,-153.219100,12879.583391
905.792063,-4515.256246,-383.047749,11769.274478
905.792392,-3627.009116,-1378.971896,11029.068536
905.792722,-3108.864956,-842.705048,9400.615463
905.793051,-2368.659014,-306.438199,7476.080014
905.793381,-888.247130,-383.047749,6883.915261
905.793710,1036.288319,229.828649,6957.935855
905.794040,1110.308913,2451.505594,7624.121203
905.794369,1036.288319,3064.381992,8290.306550
905.794699,1850.514855,2068.457845,8734.430116
905.795028,2368.659014,1838.629195,9474.636058
905.795358,1850.514855,1762.019645,10288.862594
905.795687,962.267725,2145.067394,11621.233289
905.796017,-962.267725,1608.800546,12361.439231
905.796347,-2516.700203,459.657299,12657.521608
905.796676,-3775.050304,459.657299,12583.501014
905.797006,-3923.091493,153.219100,11991.336260
905.797335,-3552.988522,-229.828649,9844.739029
905.797665,-2886.803174,-1225.752797,8364.327145
905.797994,-2220.617826,-1072.533697,6587.832884
905.798324,-1184.329507,-383.047749,5773.606348
905.798653,-222.061783,0.000000,5773.606348
905.798983,592.164754,1838.629195,6587.832884
905.799312,814.226536,2911.162892,7402.059420
905.799642,1332.370696,2451.505594,8290.306550
905.799971,1702.473667,2451.505594,8882.471304
905.800301,888.247130,2145.067394,9992.780217
905.800630,-592.164754,2911.162892,10658.965565
905.800960,-1258.350101,1991.848295,11843.295072
905.801289,-2738.761985,0.000000,13175.665768
905.801619,-4145.153275,-383.047749,13397.727550
905.801948,-4737.318029,-153.219100,12879.583391
905.802278,-3997.112087,-842.705048,11473.192101
905.802607,-2516.700203,-1532.190996,9622.677246
905.802937,-1258.350101,-995.924147,7772.162391
905.803266,296.082377,-383.047749,6217.729913
905.803596,1850.514855,0.000000,6513.812290
905.803925,2368.659014,2987.772442,7031.956449
905.804255,2294.638420,4826.401637,7328.038826
905.804584,2368.659014,3217.601092,8512.368333
905.804914,2590.720797,2834.553343,9474.636058
905.805243,1628.453072,2987.772442,10881.027347
905.805573,0.000000,2145.067394,11547.212695
905.805902,-1924.535449,995.924147,12213.398043
905.806232,-3478.967927,536.266849,12583.501014
905.806561,-4811.338623,0.000000,12657.521608
905.806891,-5033.400406,-383.047749,11843.295072
905.807220,-4293.194464,-536.266849,10362.883188
905.807550,-3404.947333,-766.095498,8438.347739
905.807879,-2368.659014,-842.705048,6439.791695
905.808209,-1332.370696,383.047749,5551.544565
905.808538,0.000000,766.095498,5625.565159
905.808868,666.185348,1455.581446,6883.915261
905.809198,222.061783,2528.115143,7994.224174
905.809527,0.000000,2757.943793,8068.244768
905.809857,814.226536,2451.505594,9400.615463
905.810186,666.185348,1991.848295,10288.862594
905.810516,0.000000,2145.067394,10807.006753
905.810845,-1406.391290,1225.752797,10955.047942
905.811175,-2294.638420,-919.314598,11843.295072
905.811504,-3256.906145,-536.266849,12953.603985
905.811834,-4145.153275,459.657299,13323.706956
905.812163,-3775.050304,0.000000,11769.274478
905.812493,-2442.679609,0.000000,9844.739029
905.812822,-962.267725,-459.657299,7772.162391
905.813152,518.144159,0.000000,6365.771101
905.813481,1480.411884,0.000000,6069.688724
905.813811,1184.329507,1762.019645,6587.832884
905.814140,444.123565,2834.553343,7846.182985
905.814470,74.020594,2681.334243,9548.656652
905.814799,296.082377,2834.553343,10362.883188
905.815129,74.020594,1838.629195,10510.924376
905.815458,-296.082377,842.705048,10881.027347
905.815788,-1110.308913,306.438199,11991.336260
905.816117,-1924.535449,-536.266849,13323.706956
905.816447,-2886.803174,-612.876398,12879.583391
905.816776,-4145.153275,536.266849,11843.295072
905.817106,-3330.926739,153.219100,10510.924376
905.817435,-1554.432478,-536.266849,9030.512492
905.817765,0.000000,-995.924147,7328.038826
905.818094,666.185348,0.000000,5625.565159
905.818424,1702.473667,1378.971896,4737.318029
905.818753,2294.638420,1762.019645,5995.668130
905.819083,1702.473667,3064.381992,7031.956449
905.819412,740.205942,3294.210641,7624.121203
905.819742,814.226536,2298.286494,8734.430116
905.820071,888.247130,2298.286494,10436.903782
905.820401,-814.226536,2528.115143,11325.150913
905.820730,-2812.782580,2068.457845,11695.253884
905.821060,-4219.173869,0.000000,12435.459826
905.821390,-5255.462188,-766.095498,12583.501014
905.821719,-6291.750507,-383.047749,12065.356855
905.822049,-5625.565159,-766.095498,11695.253884
905.822378,-4515.256246,-689.485948,10214.842000
905.822708,-3034.844362,-1378.971896,8068.244768
905.823037,-1480.411884,-1072.533697,6809.894666
905.823367,296.082377,-306.438199,6217.729913
905.823696,1406.391290,766.095498,7105.977043
905.824026,1628.453072,2681.334243,8216.285956
905.824355,1406.391290,3294.210641,9400.615463
905.824685,2072.576638,3370.820191,9844.739029
905.825014,2812.782580,2374.896044,10658.965565
905.825344,2368.659014,2068.457845,11473.192101
905.825673,592.164754,1762.019645,11917.315666
905.826003,-1110.308913,766.095498,12435.459826
905.826332,-2664.741391,-229.828649,12065.356855
905.826662,-4071.132681,76.609550,12065.356855
905.826991,-4145.153275,612.876398,11325.150913
905.827321,-3775.050304,-766.095498,9548.656652
905.827650,-2960.823768,-1072.533697,7698.141797
905.827980,-2294.638420,-1072.533697,5921.647536
905.828309,-1332.370696,-612.876398,5107.421000
905.828639,-592.164754,153.219100,5773.606348
905.828968,-962.267725,842.705048,7179.997637
905.829298,-1258.350101,2145.067394,7550.100608
905.829627,-370.102971,2451.505594,8364.327145
905.829957,666.185348,1838.629195,9030.512492
905.830286,518.144159,1608.800546,10436.903782
905.830616,-592.164754,2298.286494,10881.027347
905.830945,-2146.597232,1149.143247,11399.171507
905.831275,-2368.659014,-153.219100,12731.542202
905.831604,-3404.947333,0.000000,13175.665768
905.831934,-3627.009116,383.047749,12805.562797
905.832263,-2664.741391,-153.219100,11177.109724
905.832593,-1554.432478,-1149.143247,9252.574275
905.832922,-370.102971,-612.876398,7920.203579
905.833252,888.247130,153.219100,6883.915261
905.833582,1998.556043,612.876398,6809.894666
905.833911,2146.597232,1991.848295,6809.894666
905.834241,1776.494261,3064.381992,7846.182985
905.834570,1924.535449,3064.381992,8956.491898
905.834900,1924.535449,2834.553343,9622.677246
905.835229,1110.308913,2068.457845,10732.986159
905.835559,-296.082377,1378.971896,11769.274478
905.835888,-2590.720797,1838.629195,11843.295072
905.836218,-3552.988522,842.705048,12435.459826
905.836547,-4885.359217,153.219100,11695.253884
905.836877,-4885.359217,383.047749,11399.171507
905.837206,-4219.173869,0.000000,10214.842000
905.837536,-2886.803174,153.219100,8586.388927
905.837865,-2516.700203,0.000000,6439.791695
905.838195,-1702.473667,766.095498,5477.523971
905.838524,0.000000,1302.362347,5625.565159
905.838854,814.226536,1685.410096,6291.750507
905.839183,666.185348,2681.334243,6883.915261
905.839513,814.226536,2681.334243,6883.915261
905.839842,1554.432478,2451.505594,8364.327145
905.840172,1480.411884,2221.676944,9992.780217
905.840501,370.102971,2068.457845,11621.233289
905.840831,-1628.453072,1838.629195,11399.171507
905.841160,-2664.741391,612.876398,11769.274478
905.841490,-3108.864956,383.047749,13323.706956
905.841819,-4293.194464,536.266849,13323.706956
905.842149,-3849.070898,76.609550,12213.398043
905.842478,-3108.864956,0.000000,10362.883188
905.842808,-2146.597232,-536.266849,8216.285956
905.843138,-1184.329507,-1302.362347,6513.812290
905.843467,370.102971,-229.828649,6513.812290
905.843797,1184.329507,766.095498,7031.956449
905.844126,1184.329507,2145.067394,7846.182985
905.844456,1554.432478,2987.772442,8956.491898
905.844785,1554.432478,2145.067394,9696.697840
905.845115,1628.453072,2145.067394,10807.006753
905.845444,444.123565,2068.457845,11547.212695
905.845774,-888.247130,1838.629195,12361.439231
905.846103,-1924.535449,689.485948,13175.665768
905.846433,-2886.803174,-306.438199,12879.583391
905.846762,-4367.215058,0.000000,11843.295072
905.847092,-3849.070898,-306.438199,10732.986159
905.847421,-2664.741391,-1455.581446,9400.615463
905.847751,-1924.535449,-612.876398,7402.059420
905.848080,-1184.329507,612.876398,5921.647536
905.848410,666.185348,612.876398,5033.400406
905.848739,1406.391290,1072.533697,5699.585753
905.849069,1258.350101,2221.676944,6365.771101
905.849398,814.226536,2911.162892,7105.977043
905.849728,1406.391290,2681.334243,8364.327145
905.850058,1850.514855,2145.067394,9326.594869
905.850387,296.082377,2221.676944,10881.027347
905.850717,-1776.494261,1685.410096,11399.171507
905.851046,-3034.844362,153.219100,12287.418637
905.851376,-4367.215058,-612.876398,13027.624579
905.851705,-5107.421000,-153.219100,12953.603985
905.852035,-4959.379811,0.000000,12583.501014
905.852364,-3923.091493,-459.657299,10732.986159
905.852694,-2664.741391,-536.266849,8586.388927
905.853023,-1332.370696,-229.828649,7105.977043
905.853353,740.205942,0.000000,6291.750507
905.853682,1702.473667,1455.581446,6439.791695
905.854012,1628.453072,1915.238745,7920.203579
905.854341,1332.370696,2834.553343,8512.368333
905.854671,1702.473667,3140.991542,9474.636058
905.855000,1924.535449,2145.067394,10584.944971
905.855330,1184.329507,1302.362347,11843.295072
905.855659,-888.247130,2298.286494,11695.253884
905.855989,-1924.535449,919.314598,12139.377449
905.856318,-2886.803174,-689.485948,12583.501014
905.856648,-4145.153275,-229.828649,12435.459826
905.856978,-4441.235652,383.047749,11769.274478
905.857307,-4145.153275,-612.876398,10066.800811
905.857637,-3108.864956,-612.876398,7994.224174
905.857966,-2368.659014,-153.219100,5995.668130
905.858296,-592.164754,0.000000,5403.503377
905.858625,666.185348,383.047749,5551.544565
905.858955,296.082377,1455.581446,6365.771101
905.859284,-370.102971,2604.724693,7254.018232
905.859614,148.041188,2528.115143,8068.244768
905.859943,962.267725,2298.286494,9326.594869
905.860273,444.123565,1685.410096,10140.821405
905.860602,-1110.308913,1149.143247,11177.109724
905.860932,-2072.576638,153.219100,12213.398043
905.861261,-3182.885551,-536.266849,13249.686362
905.861591,-4219.173869,0.000000,13323.706956
905.861920,-4145.153275,306.438199,12435.459826
905.862250,-2368.659014,-842.705048,10881.027347
905.862579,-740.205942,-842.705048,8808.450710
905.862909,222.061783,-766.095498,7179.997637
905.863238,1554.432478,229.828649,6365.771101
905.863568,2516.700203,1838.629195,6735.874072
905.863898,2516.700203,2451.505594,7476.080014
905.864227,1776.494261,3370.820191,8216.285956
905.864557,1628.453072,3370.820191,9030.512492
905.864886,1702.473667,2221.676944,10288.862594
905.865216,888.247130,1302.362347,11621.233289
905.865545,-814.226536,1225.752797,12657.521608
905.865875,-2368.659014,153.219100,12583.501014
905.866204,-3775.050304,-842.705048,12879.583391
905.866534,-4589.276840,-689.485948,12287.418637
905.866863,-4293.194464,76.609550,11695.253884
905.867193,-3108.864956,-306.438199,10436.903782
905.867522,-2368.659014,-306.438199,8142.265362
905.867852,-1332.370696,536.266849,6439.791695
905.868181,-222.061783,842.705048,5403.503377
905.868511,888.247130,1455.581446,5403.503377
905.868840,1554.432478,2451.505594,6143.709319
905.869170,1332.370696,3217.601092,6957.935855
905.869499,1258.350101,3447.429741,7698.141797
905.869829,1332.370696,2681.334243,9474.636058
905.870158,740.205942,2451.505594,10362.883188
905.870488,-1110.308913,2068.457845,11547.212695
905.870818,-2738.761985,1838.629195,11991.336260
905.871147,-3849.070898,842.705048,11991.336260
905.871477,-5255.462188,0.000000,11547.212695
905.871806,-5033.400406,-229.828649,11251.130318
905.872136,-4441.235652,-383.047749,10584.944971
905.872465,-3997.112087,-1072.533697,9030.512492
905.872795,-2886.803174,-536.266849,7328.038826
905.873124,-888.247130,-306.438199,6809.894666
905.873454,592.164754,612.876398,6661.853478
905.873783,2146.597232,995.924147,7698.141797
905.874113,2220.617826,2451.505594,8586.388927
905.874442,2146.597232,3294.210641,9326.594869
905.874772,2442.679609,3064.381992,9844.739029
905.875101,2146.597232,2528.115143,11917.315666
905.875431,592.164754,1838.629195,13027.624579
905.875760,-740.205942,919.314598,13323.706956
905.876090,-2220.617826,153.219100,12731.542202
905.876419,-2516.700203,-459.657299,12361.439231
905.876749,-3108.864956,-536.266849,11621.233289
905.877078,-2886.803174,-1072.533697,10584.944971
905.877408,-2368.659014,-766.095498,9104.533087
905.877738,-1998.556043,229.828649,7105.977043
905.878067,-962.267725,1149.143247,5625.565159
905.878397,-370.102971,1149.143247,4885.359217
905.878726,296.082377,1302.362347,5329.482782
905.879056,740.205942,1608.800546,6735.874072
905.879385,148.041188,2374.896044,7698.141797
905.879715,74.020594,2374.896044,8808.450710
905.880044,0.000000,2068.457845,9844.739029
905.880374,-814.226536,919.314598,11621.233289
905.880703,-1924.535449,0.000000,12509.480420
905.881033,-2590.720797,153.219100,12731.542202
905.881362,-3552.988522,229.828649,12583.501014
905.881692,-3478.967927,842.705048,11843.295072
905.882021,-2738.761985,306.438199,11325.150913
905.882351,-1332.370696,0.000000,9548.656652
905.882680,-296.082377,-153.219100,7994.224174
905.883010,592.164754,459.657299,6809.894666
905.883339,1184.329507,766.095498,5921.647536
905.883669,1628.453072,1225.752797,6957.935855
905.883998,1998.556043,1149.143247,8438.347739
905.884328,1406.391290,2681.334243,8882.471304
905.884658,814.226536,2451.505594,9548.656652
905.884987,740.205942,1608.800546,10955.047942
905.885317,-370.102971,1302.362347,12731.542202
905.885646,-1924.535449,1378.971896,13249.686362
905.885976,-2886.803174,766.095498,12435.459826
905.886305,-3478.967927,536.266849,11917.315666
905.886635,-3701.029710,229.828649,11029.068536
905.886964,-3330.926739,-306.438199,10214.842000
905.887294,-3034.844362,-536.266849,8660.409521
905.887623,-2886.803174,0.000000,7179.997637
905.887953,-2368.659014,0.000000,6217.729913
905.888282,-1702.473667,689.485948,5995.668130
905.888612,-592.164754,1455.581446,6143.709319
905.888941,-370.102971,76.609550,7105.977043
905.889271,-370.102971,1532.190996,8068.244768
905.889600,0.000000,2451.505594,8808.450710
905.889930,444.123565,2145.067394,9770.718434
905.890259,370.102971,1455.581446,9844.739029
905.890589,-518.144159,1762.019645,10584.944971
905.890918,-1036.288319,536.266849,11769.274478
905.891248,-1850.514855,-306.438199,12805.562797
905.891578,-3256.906145,766.095498,12657.521608
905.891907,-4071.132681,536.266849,12287.418637
905.892237,-3256.906145,-306.438199,11103.089130
905.892566,-1924.535449,-689.485948,9326.594869
905.892896,-518.144159,-1302.362347,7772.162391
905.893225,296.082377,-842.705048,6365.771101
905.893555,666.185348,306.438199,6217.729913
905.893884,1628.453072,1072.533697,7179.997637
905.894214,1480.411884,2068.457845,8216.285956
905.894543,1036.288319,3447.429741,9104.533087
905.894873,1480.411884,2757.943793,10140.821405
905.895202,1554.432478,1762.019645,11473.192101
905.895532,0.000000,1838.629195,12435.459826
905.895861,-1480.411884,1149.143247,13101.645173
905.896191,-2738.761985,306.438199,12953.603985
905.896520,-3923.091493,766.095498,12583.501014
905.896850,-3701.029710,766.095498,11695.253884
905.897179,-2294.638420,0.000000,10214.842000
905.897509,-1184.329507,-689.485948,7624.121203
905.897838,-444.123565,0.000000,5921.647536
905.898168,148.041188,612.876398,5033.400406
905.898498,1036.288319,1762.019645,5403.503377
905.898827,1184.329507,2145.067394,6365.771101
905.899157,888.247130,2604.724693,7476.080014
905.899486,148.041188,2911.162892,8142.265362
905.899816,444.123565,2757.943793,9252.574275
905.900145,592.164754,2145.067394,10436.903782
905.900475,-592.164754,1225.752797,11769.274478
905.900804,-2072.576638,689.485948,12065.356855
905.901134,-3478.967927,229.828649,12065.356855
905.901463,-4367.215058,229.828649,12213.398043
905.901793,-4441.235652,536.266849,11843.295072
905.902122,-3775.050304,766.095498,10807.006753
905.902452,-2812.782580,306.438199,8956.491898
905.902781,-1776.494261,-306.438199,7476.080014
905.903111,-1110.308913,76.609550,6291.750507
905.903440,74.020594,1225.752797,6513.812290
905.903770,666.185348,995.924147,7698.141797
905.904099,592.164754,1762.019645,8512.368333
905.904429,888.247130,3600.648841,8808.450710
905.904758,1702.473667,2451.505594,9770.718434
905.905088,1850.514855,1302.362347,11103.089130
905.905418,518.144159,1302.362347,12583.501014
905.905747,-1036.288319,1072.533697,13101.645173
905.906077,-2368.659014,1072.533697,12953.603985
905.906406,-3034.844362,1455.581446,12287.418637
905.906736,-3182.885551,919.314598,12065.356855
905.907065,-2886.803174,0.000000,10436.903782
905.907395,-2072.576638,-536.266849,8586.388927
905.907724,-1406.391290,-229.828649,6809.894666
905.908054,-518.144159,-306.438199,5403.503377
905.908383,-518.144159,842.705048,4959.379811
905.908713,-148.041188,536.266849,5921.647536
905.909042,74.020594,995.924147,6809.894666
905.909372,-222.061783,1991.848295,7624.121203
905.909701,74.020594,2528.115143,8734.430116
905.910031,0.000000,2221.676944,9696.697840
905.910360,-666.185348,1608.800546,11473.192101
905.910690,-1332.370696,1225.752797,12213.398043
905.911019,-2146.597232,383.047749,12509.480420
905.911349,-2960.823768,0.000000,12213.398043
905.911678,-3552.988522,76.609550,11843.295072
905.912008,-3256.906145,76.609550,11251.130318
905.912338,-1850.514855,-536.266849,9696.697840
905.912667,-296.082377,-842.705048,7994.224174
905.912997,370.102971,-689.485948,6513.812290
905.913326,962.267725,1149.143247,5995.668130
905.913656,1850.514855,1149.143247,7254.018232
905.913985,2072.576638,1608.800546,8512.368333
905.914315,1110.308913,3064.381992,9030.512492
905.914644,1332.370696,2757.943793,10140.821405
905.914974,1776.494261,1608.800546,12139.377449
905.915303,444.123565,1072.533697,13101.645173
905.915633,-1332.370696,995.924147,13027.624579
905.915962,-2886.803174,536.266849,12361.439231
905.916292,-3478.967927,0.000000,12065.356855
905.916621,-3108.864956,306.438199,11843.295072
905.916951,-3404.947333,153.219100,10658.965565
905.917280,-2516.700203,-689.485948,8438.347739
905.917610,-1850.514855,-536.266849,6661.853478
905.917939,-1332.370696,-306.438199,5477.523971
905.918269,-814.226536,1302.362347,5477.523971
905.918598,-592.164754,1302.362347,6365.771101
905.918928,-222.061783,995.924147,7105.977043
905.919258,-740.205942,1991.848295,7402.059420
905.919587,-296.082377,2068.457845,8586.388927
905.919917,148.041188,1302.362347,9548.656652
905.920246,0.000000,766.095498,10881.027347
905.920576,-1258.350101,536.266849,12287.418637
905.920905,-2590.720797,1149.143247,12509.480420
905.921235,-3256.906145,689.485948,12509.480420
905.921564,-3404.947333,766.095498,11991.336260
905.921894,-3108.864956,1225.752797,11029.068536
905.922223,-1702.473667,76.609550,9104.533087
905.922553,-592.164754,-842.705048,7328.038826
905.922882,0.000000,-536.266849,6069.688724
905.923212,0.000000,383.047749,5773.606348
905.923541,518.144159,995.924147,7031.956449
905.923871,962.267725,995.924147,8956.491898
905.924200,0.000000,2757.943793,10066.800811
905.924530,-666.185348,3677.258390,10807.006753
905.924859,74.020594,2451.505594,11621.233289
905.925189,370.102971,1455.581446,12213.398043
905.925518,-666.185348,306.438199,13323.706956
905.925848,-2146.597232,153.219100,13027.624579
905.926178,-3256.906145,766.095498,12583.501014
905.926507,-3701.029710,536.266849,11621.233289
905.926837,-3330.926739,229.828649,10955.047942
905.927166,-1998.556043,0.000000,9474.636058
905.927496,-444.123565,-306.438199,7254.018232
905.927825,-148.041188,-306.438199,5403.503377
905.928155,148.041188,1455.581446,4811.338623
905.928484,518.144159,2681.334243,5551.544565
905.928814,814.226536,2451.505594,6661.853478
905.929143,148.041188,3140.991542,7031.956449
905.929473,-518.144159,3447.429741,7772.162391
905.929802,-518.144159,2834.553343,9178.553681
905.930132,-740.205942,2145.067394,10214.842000
905.930461,-2072.576638,1532.190996,11251.130318
905.930791,-3404.947333,459.657299,11251.130318
905.931120,-3552.988522,-766.095498,12435.459826
905.931450,-4145.153275,-229.828649,12805.562797
905.931779,-4663.297435,0.000000,12213.398043
905.932109,-3404.947333,-153.219100,10807.006753
905.932438,-1184.329507,229.828649,8808.450710
905.932768,666.185348,-1302.362347,6883.915261
905.933098,1628.453072,-306.438199,5625.565159
905.933427,2442.679609,1455.581446,5921.647536
905.933757,2442.679609,1762.019645,7179.997637
905.934086,2516.700203,2451.505594,9104.533087
905.934416,1998.556043,3600.648841,10288.862594
905.934745,1480.411884,3140.991542,11325.150913
905.935075,740.205942,2145.067394,12213.398043
905.935404,-296.082377,1608.800546,13545.768739
905.935734,-1628.453072,689.485948,13989.892304
905.936063,-3108.864956,76.609550,13175.665768
905.936393,-4071.132681,0.000000,12435.459826
905.936722,-4515.256246,0.000000,11769.274478
905.937052,-4145.153275,-459.657299,10362.883188
905.937381,-3034.844362,-919.314598,7772.162391
905.937711,-2368.659014,-1072.533697,5921.647536
905.938040,-1184.329507,76.609550,4663.297435
905.938373,0.000000,919.314598,4737.318029
905.938702,444.123565,1302.362347,6217.729913
905.939032,0.000000,1225.752797,7402.059420
905.939361,-444.123565,3524.039291,7994.224174
905.939691,-222.061783,3447.429741,8734.430116
905.940020,888.247130,2451.505594,10288.862594
905.940350,814.226536,1991.848295,10881.027347
905.940679,-222.061783,689.485948,11251.130318
905.941009,-1480.411884,-612.876398,11991.336260
905.941338,-2664.741391,536.266849,12657.521608
905.941668,-3923.091493,1762.019645,12287.418637
905.941997,-3775.050304,995.924147,11251.130318
905.942327,-2516.700203,-306.438199,9252.574275
905.942656,-888.247130,-1149.143247,7254.018232
905.942986,74.020594,-1532.190996,5625.565159
905.943315,592.164754,-536.266849,5255.462188
905.943645,666.185348,1378.971896,6291.750507
905.943974,444.123565,1302.362347,7846.182985
905.944304,370.102971,1991.848295,9178.553681
905.944633,666.185348,2987.772442,10214.842000
905.944963,666.185348,2451.505594,10881.027347
905.945293,518.144159,1915.238745,12435.459826
905.945622,-814.226536,1608.800546,13471.748144
905.945952,-2516.700203,1225.752797,13767.830521
905.946281,-3478.967927,536.266849,13249.686362
905.946611,-3923.091493,229.828649,11843.295072
905.946940,-3256.906145,0.000000,10807.006753
905.947270,-2368.659014,-1225.752797,9326.594869
905.947599,-1850.514855,-1302.362347,7254.018232
905.947929,-1258.350101,-306.438199,5921.647536
905.948258,-370.102971,1302.362347,5477.523971
905.948588,-148.041188,1608.800546,5551.544565
905.948917,-148.041188,1608.800546,6513.812290
905.949247,-370.102971,1838.629195,7476.080014
905.949576,74.020594,2451.505594,8438.347739
905.949906,74.020594,1991.848295,9178.553681
905.950235,-444.123565,1915.238745,9844.739029
905.950565,-1406.391290,1302.362347,10732.986159
905.950894,-2368.659014,153.219100,11547.212695
905.951224,-3182.885551,-383.047749,12361.439231
905.951553,-4293.194464,536.266849,12435.459826
905.951883,-4367.215058,1608.800546,11991.336260
905.952212,-3923.091493,306.438199,10658.965565
905.952542,-2442.679609,-689.485948,9030.512492
905.952872,-1480.411884,-766.095498,7105.977043
905.953201,-370.102971,-612.876398,6143.709319
905.953531,814.226536,306.438199,5921.647536
905.953860,1406.391290,689.485948,7105.977043
905.954190,962.267725,1455.581446,8290.306550
905.954519,1258.350101,2604.724693,9622.677246
905.954849,1332.370696,2911.162892,10214.842000
905.955178,1554.432478,2374.896044,11325.150913
905.955508,888.247130,1532.190996,12213.398043
905.955837,-962.267725,919.314598,13101.645173
905.956167,-2368.659014,536.266849,13249.686362
905.956496,-3552.988522,0.000000,12879.583391
905.956826,-3478.967927,459.657299,12435.459826
905.957155,-2812.782580,-383.047749,10881.027347
905.957485,-2664.741391,-1149.143247,8660.409521
905.957814,-1480.411884,-1149.143247,6661.853478
905.958144,-666.185348,-153.219100,4885.359217
905.958473,222.061783,995.924147,5033.400406
905.958803,1036.288319,1072.533697,5847.626942
905.959132,740.205942,1378.971896,7254.018232
905.959462,0.000000,2911.162892,8068.244768
905.959791,148.041188,3524.039291,9178.553681
905.960121,148.041188,2987.772442,10066.800811
905.960451,0.000000,2528.115143,10658.965565
905.960780,-1702.473667,1225.752797,10658.965565
905.961110,-2294.638420,-766.095498,11843.295072
905.961439,-3404.947333,0.000000,12583.501014
905.961769,-4737.318029,1072.533697,12805.562797
905.962098,-4737.318029,919.314598,11991.336260
905.962428,-3775.050304,383.047749,9696.697840
905.962757,-1998.556043,-689.485948,7550.100608
905.963087,0.000000,-842.705048,6069.688724
905.963416,1036.288319,0.000000,5329.482782
905.963746,1554.432478,1378.971896,6291.750507
905.964075,1184.329507,2528.115143,7476.080014
905.964405,1036.288319,2987.772442,8586.388927
905.964734,1332.370696,3217.601092,9918.759623
905.965064,1332.370696,2834.553343,10732.986159
905.965393,444.123565,2221.676944,11547.212695
905.965723,0.000000,1762.019645,12583.501014
905.966052,-1628.453072,842.705048,12953.603985
905.966382,-3034.844362,459.657299,13175.665768
905.966711,-3923.091493,229.828649,12583.501014
905.967041,-4293.194464,76.609550,11621.233289
905.967370,-3849.070898,-306.438199,9918.759623
905.967700,-2886.803174,-766.095498,8068.244768
905.968029,-1850.514855,-536.266849,6365.771101
905.968359,-814.226536,229.828649,5107.421000
905.968689,222.061783,689.485948,5477.523971
905.969018,814.226536,766.095498,6439.791695
905.969348,666.185348,1915.238745,7179.997637
905.969677,888.247130,3140.991542,8290.306550
905.970007,1036.288319,2604.724693,9252.574275
905.970336,740.205942,2145.067394,10436.903782
905.970666,-592.164754,2145.067394,10807.006753
905.970995,-1628.453072,919.314598,11399.171507
905.971325,-2368.659014,-459.657299,12731.542202
905.971654,-4071.132681,0.000000,13249.686362
905.971984,-4885.359217,689.485948,12879.583391
905.972313,-4145.153275,-612.876398,11621.233289
905.972643,-3256.906145,-766.095498,9548.656652
905.972972,-2072.576638,-383.047749,6883.915261
905.973302,0.000000,-536.266849,5625.565159
905.973631,1998.556043,0.000000,5847.626942
905.973961,2220.617826,1532.190996,6587.832884
905.974290,1628.453072,2451.505594,7550.100608
905.974620,1776.494261,2221.676944,8586.388927
905.974949,2294.638420,2221.676944,9622.677246
905.975279,1702.473667,2298.286494,11399.171507
905.975608,222.061783,1225.752797,12731.542202
905.975938,-1480.411884,1149.143247,13397.727550
905.976268,-2590.720797,536.266849,13619.789333
905.976597,-3330.926739,153.219100,13397.727550
905.976927,-4219.173869,0.000000,11695.253884
905.977256,-3478.967927,-306.438199,10140.821405
905.977586,-2812.782580,-612.876398,8290.306550
905.977915,-2220.617826,-383.047749,6513.812290
905.978245,-1702.473667,1378.971896,5107.421000
905.978574,-740.205942,995.924147,5847.626942
905.978904,-222.061783,1455.581446,6439.791695
905.979233,-296.082377,2298.286494,6957.935855
905.979563,-296.082377,2221.676944,7772.162391
905.979892,1036.288319,1608.800546,8586.388927
905.980222,888.247130,1072.533697,9178.553681
905.980551,-222.061783,1302.362347,10732.986159
905.980881,-1998.556043,995.924147,11843.295072
905.981210,-2960.823768,536.266849,12879.583391
905.981540,-3997.112087,612.876398,12731.542202
905.981869,-4293.194464,689.485948,11991.336260
905.982199,-3404.947333,459.657299,11103.089130
905.982528,-2220.617826,-536.266849,9104.533087
905.982858,-1184.329507,-995.924147,7254.018232
905.983187,-296.082377,0.000000,6291.750507
905.983517,666.185348,459.657299,6513.812290
905.983846,1110.308913,1378.971896,7846.182985
905.984176,296.082377,2298.286494,8586.388927
905.984506,222.061783,2451.505594,8956.491898
905.984835,1258.350101,1991.848295,9770.718434
905.985165,1702.473667,612.876398,10955.047942
905.985494,444.123565,153.219100,12657.521608
905.985824,-1406.391290,459.657299,13471.748144
905.986153,-3330.926739,536.266849,13101.645173
905.986483,-3552.988522,153.219100,12509.480420
905.986812,-2960.823768,612.876398,11843.295072
905.987142,-1924.535449,536.266849,9696.697840
905.987471,-888.247130,-229.828649,7550.100608
905.987801,-148.041188,0.000000,5477.523971
905.988130,-296.082377,1072.533697,4737.318029
905.988460,0.000000,2145.067394,5625.565159
905.988789,0.000000,1608.800546,7402.059420
905.989119,-1332.370696,1991.848295,8364.327145
905.989448,-1628.453072,2987.772442,8586.388927
905.989778,-518.144159,1608.800546,9030.512492
905.990107,592.164754,383.047749,9400.615463
905.990437,148.041188,383.047749,11177.109724
905.990766,-1332.370696,0.000000,11843.295072
905.991096,-2886.803174,306.438199,12583.501014
905.991425,-3701.029710,1225.752797,12361.439231
905.991755,-3404.947333,1532.190996,12065.356855
905.992085,-2368.659014,919.314598,10732.986159
905.992414,-592.164754,-612.876398,8364.327145
905.992744,296.082377,-919.314598,6587.832884
905.993073,814.226536,0.000000,6217.729913
905.993403,222.061783,1991.848295,6957.935855
905.993732,222.061783,1991.848295,8290.306550
905.994062,0.000000,2298.286494,9474.636058
905.994391,0.000000,3294.210641,9622.677246
905.994721,962.267725,2298.286494,10066.800811
905.995050,1110.308913,1378.971896,10658.965565
905.995380,0.000000,1225.752797,11473.192101
905.995709,-1480.411884,842.705048,12657.521608
