#time,accel_x,accel_y,accel_z
948.725050,-1036.288319,766.095498,9622.677246
948.725379,-814.226536,842.705048,9548.656652
948.725709,-888.247130,689.485948,9474.636058
948.726038,-888.247130,766.095498,9770.718434
948.726368,-962.267725,842.705048,9548.656652
948.726697,-962.267725,995.924147,9474.636058
948.727026,-740.205942,1378.971896,9474.636058
948.727356,-1184.329507,1149.143247,9178.553681
948.727685,-962.267725,995.924147,9474.636058
948.728014,-1110.308913,1072.533697,9474.636058
948.728344,-1110.308913,1149.143247,9622.677246
948.728673,-1184.329507,995.924147,9548.656652
948.729002,-962.267725,919.314598,9400.615463
948.729332,-1110.308913,1072.533697,9474.636058
948.729661,-1110.308913,919.314598,9548.656652
948.729990,-1036.288319,919.314598,9326.594869
948.730320,-1110.308913,842.705048,9474.636058
948.730649,-1036.288319,612.876398,9178.553681
948.730978,-1258.350101,1149.143247,9548.656652
948.731308,-1184.329507,919.314598,9548.656652
948.731637,-1110.308913,1072.533697,9474.636058
948.731966,-1110.308913,919.314598,9474.636058
948.732296,-962.267725,842.705048,9252.574275
948.732625,-1406.391290,766.095498,9178.553681
948.732954,-1110.308913,995.924147,9474.636058
948.733284,-962.267725,1225.752797,9548.656652
948.733613,-1184.329507,689.485948,9474.636058
948.733942,-1036.288319,995.924147,9400.615463
948.734272,-1184.329507,689.485948,9844.739029
948.734601,-888.247130,689.485948,9548.656652
948.734930,-1110.308913,766.095498,9548.656652
948.735260,-888.247130,995.924147,9474.636058
948.735589,-1184.329507,766.095498,9474.636058
948.735918,-1110.308913,1608.800546,9622.677246
948.736248,-1110.308913,536.266849,9474.636058
948.736577,-1184.329507,766.095498,9622.677246
948.736907,-1036.288319,1072.533697,9622.677246
948.737236,-1036.288319,995.924147,9622.677246
948.737565,-666.185348,995.924147,9770.718434
948.737895,-1036.288319,919.314598,9474.636058
948.738224,-1036.288319,919.314598,9474.636058
948.738553,-1036.288319,842.705048,9474.636058
948.738883,-1110.308913,919.314598,9474.636058
948.739212,-1110.308913,842.705048,9474.636058
948.739541,-666.185348,995.924147,9474.636058
948.739871,-888.247130,842.705048,9622.677246
948.740200,-888.247130,1149.143247,9696.697840
948.740529,-1184.329507,919.314598,9696.697840
948.740859,-1184.329507,842.705048,9474.636058
948.741188,-1184.329507,1225.752797,9474.636058
948.741517,-1332.370696,995.924147,9548.656652
948.741847,-1036.288319,842.705048,9474.636058
948.742176,-1332.370696,919.314598,9326.594869
948.742505,-1110.308913,919.314598,9548.656652
948.742835,-1110.308913,995.924147,9326.594869
948.743164,-888.247130,383.047749,9252.574275
948.743493,-1110.308913,995.924147,9622.677246
948.743823,-1036.288319,1149.143247,9548.656652
948.744152,-1184.329507,995.924147,9474.636058
948.744481,-962.267725,1685.410096,9622.677246
948.744811,-888.247130,459.657299,9548.656652
948.745140,-1036.288319,995.924147,9474.636058
948.745469,-1184.329507,1149.143247,9326.594869
948.745799,-962.267725,919.314598,9474.636058
948.746128,-1184.329507,842.705048,9474.636058
948.746457,-888.247130,536.266849,9326.594869
948.746787,-814.226536,1072.533697,9548.656652
948.747116,-888.247130,1072.533697,9326.594869
948.747445,-296.082377,842.705048,9178.553681
948.747775,444.123565,689.485948,9400.615463
948.748104,888.247130,842.705048,9474.636058
948.748434,518.144159,1149.143247,9104.533087
948.748763,148.041188,612.876398,9696.697840
948.749092,-222.061783,919.314598,10214.842000
948.749422,-444.123565,995.924147,10362.883188
948.749751,-592.164754,306.438199,10214.842000
948.750080,-148.041188,842.705048,10214.842000
948.750410,148.041188,0.000000,9252.574275
948.750739,962.267725,76.609550,9104.533087
948.751068,1850.514855,229.828649,9030.512492
948.751398,2664.741391,919.314598,8882.471304
948.751727,3552.988522,1532.190996,8882.471304
948.752056,3849.070898,1532.190996,8956.491898
948.752386,3404.947333,1762.019645,9474.636058
948.752715,3182.885551,1455.581446,10066.800811
948.753044,2516.700203,919.314598,10288.862594
948.753374,1776.494261,1532.190996,10436.903782
948.753703,1110.308913,153.219100,10436.903782
948.754032,1406.391290,-306.438199,10732.986159
948.754362,1554.432478,-612.876398,9992.780217
948.754691,1998.556043,-459.657299,9474.636058
948.755020,3108.864956,-229.828649,9178.553681
948.755350,4145.153275,0.000000,8956.491898
948.755679,4441.235652,1302.362347,9252.574275
948.756008,3997.112087,2451.505594,9696.697840
948.756338,3108.864956,2681.334243,10436.903782
948.756667,1628.453072,2834.553343,10658.965565
948.756996,74.020594,2528.115143,10362.883188
948.757326,-1850.514855,2145.067394,9474.636058
948.757655,-1702.473667,766.095498,8734.430116
948.757984,-444.123565,-612.876398,7920.203579
948.758314,1036.288319,-1378.971896,6809.894666
948.758643,2368.659014,-842.705048,6735.874072
948.758973,3775.050304,-306.438199,6291.750507
948.759302,3997.112087,1378.971896,7698.141797
948.759631,3182.885551,3524.039291,9474.636058
948.759961,2220.617826,4673.182538,11103.089130
948.760290,962.267725,3983.696590,11917.315666
948.760619,-296.082377,2145.067394,12583.501014
948.760949,-1850.514855,919.314598,12287.418637
948.761278,-2294.638420,-1149.143247,12065.356855
948.761607,-2294.638420,-2451.505594,11473.192101
948.761937,-1702.473667,-2221.676944,9770.718434
948.762266,592.164754,-2221.676944,8660.409521
948.762595,2590.720797,-2068.457845,7476.080014
948.762925,4885.359217,-306.438199,7031.956449
948.763254,5773.606348,1302.362347,7105.977043
948.763583,5477.523971,2911.162892,8068.244768
948.763913,4959.379811,5209.449386,9178.553681
948.764242,3997.112087,4903.011187,9918.759623
948.764571,3404.947333,3294.210641,11473.192101
948.764901,2368.659014,2451.505594,11769.274478
948.765230,1036.288319,995.924147,11547.212695
948.765559,0.000000,-612.876398,10510.924376
948.765889,-740.205942,-1762.019645,10214.842000
948.766218,-740.205942,-1532.190996,10362.883188
948.766547,-222.061783,-1378.971896,9992.780217
948.766877,0.000000,-536.266849,9252.574275
948.767206,1184.329507,0.000000,8216.285956
948.767535,2442.679609,383.047749,7550.100608
948.767865,3775.050304,919.314598,7920.203579
948.768194,4441.235652,1149.143247,7994.224174
948.768523,4367.215058,995.924147,8068.244768
948.768853,3997.112087,1072.533697,8808.450710
948.769182,3627.009116,1608.800546,10288.862594
948.769511,2368.659014,1149.143247,10584.944971
948.769841,1480.411884,1378.971896,11177.109724
948.770170,1258.350101,1149.143247,11029.068536
948.770500,1554.432478,1302.362347,10584.944971
948.770829,2146.597232,1455.581446,10140.821405
948.771158,2590.720797,689.485948,9400.615463
948.771488,2960.823768,766.095498,7920.203579
948.771817,3478.967927,459.657299,7772.162391
948.772146,3552.988522,612.876398,8586.388927
948.772476,2590.720797,766.095498,9474.636058
948.772805,1332.370696,612.876398,10214.842000
948.773134,-518.144159,229.828649,10658.965565
948.773464,-2146.597232,995.924147,10955.047942
948.773793,-2738.761985,689.485948,10955.047942
948.774122,-3182.885551,0.000000,10658.965565
948.774452,-3330.926739,0.000000,9770.718434
948.774781,-2664.741391,-766.095498,8734.430116
948.775110,-1480.411884,-1149.143247,8734.430116
948.775440,518.144159,-229.828649,8660.409521
948.775769,2220.617826,1532.190996,8068.244768
948.776098,4367.215058,2145.067394,8068.244768
948.776428,5995.668130,2834.553343,7846.182985
948.776757,6735.874072,3753.867940,8956.491898
948.777086,5921.647536,4903.011187,10214.842000
948.777416,3404.947333,5362.668486,11325.150913
948.777745,962.267725,4366.744339,11843.295072
948.778074,-666.185348,2451.505594,12509.480420
948.778404,-2960.823768,-536.266849,12805.562797
948.778733,-5551.544565,-2145.067394,11769.274478
948.779062,-7031.956449,-2451.505594,10658.965565
948.779392,-6735.874072,-2681.334243,8290.306550
948.779721,-4071.132681,-2451.505594,5699.585753
948.780050,-592.164754,-2068.457845,3775.050304
948.780380,3627.009116,-1762.019645,3701.029710
948.780709,5329.482782,766.095498,4885.359217
948.781039,4737.318029,4596.572988,6439.791695
948.781368,3552.988522,6741.640382,8290.306550
948.781697,2146.597232,7048.078582,11251.130318
948.782027,296.082377,6511.811733,14656.077652
948.782356,-2812.782580,4673.182538,16506.592507
948.782685,-6735.874072,2681.334243,15174.221811
948.783015,-9400.615463,306.438199,12583.501014
948.783344,-9252.574275,-3677.258390,10510.924376
948.783673,-6365.771101,-5975.544884,9400.615463
948.784003,-2294.638420,-5209.449386,7328.038826
948.784332,2294.638420,-4366.744339,4737.318029
948.784661,5921.647536,-2221.676944,3552.988522
948.784991,8364.327145,1072.533697,3997.112087
948.785320,8808.450710,3294.210641,6291.750507
948.785649,7920.203579,5515.887586,10066.800811
948.785979,4589.276840,8656.879127,13101.645173
948.786308,296.082377,8120.612279,15100.201217
948.786637,-4441.235652,3677.258390,15692.365970
948.786967,-8142.265362,459.657299,15026.180623
948.787296,-10288.862594,-2145.067394,12509.480420
948.787625,-9104.533087,-4979.620737,9178.553681
948.787955,-4589.276840,-6818.249932,7105.977043
948.788284,0.000000,-6894.859482,4737.318029
948.788613,2886.803174,-4213.525239,2516.700203
948.788943,4293.194464,-995.924147,2294.638420
948.789272,5551.544565,2987.772442,4885.359217
948.789601,5551.544565,7354.516781,10066.800811
948.789931,2442.679609,9269.755526,14730.098246
948.790260,-2664.741391,8963.317327,16136.489536
948.790589,-7476.080014,5975.544884,14434.015869
948.790919,-9696.697840,383.047749,13471.748144
948.791248,-9474.636058,-4136.915689,12509.480420
948.791577,-7846.182985,-6665.030833,10807.006753
948.791907,-4441.235652,-8273.831378,6883.915261
948.792236,222.061783,-8273.831378,4589.276840
948.792566,4367.215058,-4749.792088,3775.050304
948.792895,7994.224174,153.219100,4219.173869
948.793224,9326.594869,3294.210641,6069.688724
948.793554,8290.306550,7890.783629,9622.677246
948.793883,4737.318029,11644.651570,14211.954086
948.794212,-1184.329507,11874.480219,16654.633695
948.794542,-7105.977043,7277.907231,16580.613101
948.794871,-11547.212695,2451.505594,14582.057057
948.795200,-12213.398043,-2604.724693,12065.356855
948.795530,-9622.677246,-7277.907231,9622.677246
948.795859,-5921.647536,-9346.365076,5255.462188
948.796188,-1924.535449,-7431.126331,888.247130
948.796518,2072.576638,-4903.011187,-1332.370696
948.796847,6661.853478,-2757.943793,1332.370696
948.797177,7846.182985,2221.676944,6735.874072
948.797506,5847.626942,9116.536426,11917.315666
948.797835,444.123565,13023.623466,16580.613101
948.798165,-5921.647536,14096.157163,16506.592507
948.798494,-8882.471304,8044.002729,16210.510130
948.798823,-7920.203579,-2068.457845,16802.674883
948.799153,-6735.874072,-4673.182538,14211.954086
948.799482,-5625.565159,-5286.058936,8734.430116
948.799812,-1554.432478,-8810.098227,4145.153275
948.800141,3034.844362,-7814.174080,1924.535449
948.800470,8142.265362,-4443.353888,962.267725
948.800800,11843.295072,-153.219100,3108.864956
948.801129,11325.150913,6052.154434,7105.977043
948.801458,7772.162391,14938.862211,10955.047942
948.801788,2072.576638,14709.033562,13841.851115
948.802117,-3552.988522,10342.289223,16210.510130
948.802447,-8438.347739,6894.859482,15988.448347
948.802776,-10066.800811,459.657299,14359.995275
948.803105,-9844.739029,-4673.182538,11621.233289
948.803435,-8290.306550,-8120.612279,7846.182985
948.803764,-4663.297435,-10878.556072,4663.297435
948.804093,-740.205942,-9729.412825,3108.864956
948.804423,3627.009116,-2757.943793,2442.679609
948.804752,6735.874072,3294.210641,3849.070898
948.805082,7179.997637,6281.983084,7402.059420
948.805411,4515.256246,10035.851024,11991.336260
948.805740,-1184.329507,12180.918418,15544.324782
948.806070,-5403.503377,11261.603821,16802.674883
948.806399,-8142.265362,7354.516781,16432.571912
948.806728,-8438.347739,995.924147,14434.015869
948.807058,-6513.812290,-5975.544884,11251.130318
948.807387,-2664.741391,-11108.384721,6809.894666
948.807717,2072.576638,-11108.384721,4219.173869
948.808046,4737.318029,-6511.811733,2590.720797
948.808375,7624.121203,-1378.971896,3923.091493
948.808705,8290.306550,2451.505594,6365.771101
948.809034,6883.915261,7048.078582,9030.512492
948.809363,3997.112087,10955.165621,12435.459826
948.809693,-962.267725,12257.527968,14730.098246
948.810022,-6069.688724,8886.707777,16062.468941
948.810352,-10066.800811,3370.820191,15100.201217
948.810681,-11251.130318,-2604.724693,12731.542202
948.811010,-9104.533087,-7890.783629,9326.594869
948.811340,-5181.441594,-10035.851024,5699.585753
948.811669,-2294.638420,-8656.879127,2738.761985
948.811999,1406.391290,-6358.592633,1184.329507
948.812328,5255.462188,-4136.915689,3182.885551
948.812657,6439.791695,919.314598,8216.285956
948.812987,4663.297435,8350.440928,12879.583391
948.813316,-740.205942,12870.404366,15174.221811
948.813645,-5921.647536,12257.527968,15248.242405
948.813975,-7920.203579,4826.401637,16210.510130
948.814304,-6957.935855,-1838.629195,16062.468941
948.814634,-5699.585753,-3983.696590,11917.315666
948.814963,-3256.906145,-6435.202183,7031.956449
948.815292,444.123565,-9269.755526,3923.091493
948.815622,4811.338623,-8580.269578,2664.741391
948.815951,8882.471304,-4903.011187,2738.761985
948.816280,9844.739029,76.609550,5181.441594
948.816610,7698.141797,7967.393179,8364.327145
948.816939,3627.009116,13559.890315,12139.377449
948.817269,-1110.308913,12027.699319,15766.386565
948.817598,-6217.729913,9116.536426,16728.654289
948.817927,-9844.739029,4366.744339,15322.262999
948.818257,-9696.697840,-919.314598,13249.686362
948.818586,-8586.388927,-5362.668486,9992.780217
948.818915,-6809.894666,-9039.926876,7105.977043
948.819245,-3701.029710,-9806.022374,3034.844362
948.819574,0.000000,-7124.688131,666.185348
948.819904,4589.276840,-1915.238745,2072.576638
948.820233,5921.647536,1915.238745,6513.812290
948.820562,3034.844362,7584.345430,11473.192101
948.820892,-1850.514855,11414.822920,14730.098246
948.821221,-5847.626942,12104.308868,15692.365970
948.821550,-7328.038826,8427.050478,15396.283594
948.821880,-6809.894666,1685.410096,14211.954086
948.822209,-4367.215058,-4443.353888,12361.439231
948.822539,-2368.659014,-7124.688131,8216.285956
948.822868,592.164754,-7507.735880,4663.297435
948.823197,5033.400406,-6281.983084,3701.029710
948.823527,9178.553681,-1838.629195,4589.276840
948.823856,10584.944971,3140.991542,6439.791695
948.824185,8882.471304,7048.078582,8882.471304
948.824515,5477.523971,12180.918418,10807.006753
948.824844,222.061783,13406.671215,12583.501014
948.825174,-5329.482782,10342.289223,14137.933492
948.825503,-9622.677246,4519.963438,14582.057057
948.825832,-11177.109724,-766.095498,12879.583391
948.826162,-10066.800811,-5439.278036,9474.636058
948.826491,-7105.977043,-9116.536426,6587.832884
948.826820,-4219.173869,-8963.317327,3478.967927
948.827150,0.000000,-6128.763984,1184.329507
948.827479,4293.194464,-2911.162892,2590.720797
948.827809,6291.750507,2451.505594,6957.935855
948.828138,4959.379811,8886.707777,11251.130318
948.828467,1036.288319,12104.308868,15248.242405
948.828797,-4737.318029,12640.575717,16210.510130
948.829126,-7624.121203,9499.584175,15544.324782
948.829456,-6809.894666,1608.800546,15174.221811
948.829785,-4367.215058,-4903.011187,13027.624579
948.830114,-2812.782580,-7124.688131,8882.471304
948.830444,74.020594,-8427.050478,5107.421000
948.830773,4367.215058,-8733.488677,3478.967927
948.831102,7994.224174,-4366.744339,3701.029710
948.831432,9844.739029,536.266849,5329.482782
948.831761,9326.594869,4979.620737,8734.430116
948.832091,6587.832884,11721.261119,11547.212695
948.832420,2072.576638,13253.452115,13767.830521
948.832749,-3552.988522,9269.755526,13915.871710
948.833079,-8512.368333,3907.087040,14211.954086
948.833408,-10214.842000,-842.705048,12879.583391
948.833737,-9548.656652,-6128.763984,11251.130318
948.834067,-7846.182985,-9959.241474,9400.615463
948.834396,-5773.606348,-8963.317327,5477.523971
948.834726,-2368.659014,-7354.516781,1850.514855
948.835055,2812.782580,-5286.058936,2146.597232
948.835384,6735.874072,0.000000,6291.750507
948.835714,6365.771101,6971.469032,10362.883188
948.836043,2590.720797,10495.508323,13915.871710
948.836372,-3330.926739,12410.747068,15174.221811
948.836702,-7402.059420,10418.898773,15026.180623
948.837031,-7254.018232,3294.210641,14434.015869
948.837361,-5625.565159,-4366.744339,12805.562797
948.837690,-4663.297435,-7354.516781,8808.450710
948.838019,-2294.638420,-10265.679673,5033.400406
948.838349,1554.432478,-10342.289223,3997.112087
948.838678,4811.338623,-6205.373534,4293.194464
948.839007,7476.080014,0.000000,5477.523971
948.839337,7550.100608,4826.401637,8142.265362
948.839666,6217.729913,10035.851024,10807.006753
948.839996,2220.617826,12717.185267,13989.892304
948.840325,-2812.782580,11184.994271,15026.180623
948.840654,-8364.327145,6741.640382,15026.180623
948.840984,-10807.006753,1532.190996,13471.748144
948.841313,-10807.006753,-4213.525239,11621.233289
948.841642,-8364.327145,-7277.907231,7624.121203
948.841972,-5181.441594,-8580.269578,3034.844362
948.842301,-1480.411884,-9346.365076,962.267725
948.842631,3108.864956,-6435.202183,2368.659014
948.842960,5403.503377,-306.438199,7105.977043
948.843289,3849.070898,7048.078582,12361.439231
948.843619,-370.102971,13789.718964,14952.160028
948.843948,-4737.318029,14938.862211,15396.283594
948.844277,-6439.791695,10648.727422,14285.974681
948.844607,-5033.400406,2374.896044,13249.686362
948.844936,-3775.050304,-3370.820191,12287.418637
948.845266,-3478.967927,-5132.839837,9030.512492
948.845595,-2368.659014,-7124.688131,5477.523971
948.845924,740.205942,-7737.564530,3775.050304
948.846254,5329.482782,-5975.544884,3552.988522
948.846583,8660.409521,-459.657299,5329.482782
948.846912,9030.512492,5132.839837,8586.388927
948.847242,7254.018232,10878.556072,11029.068536
948.847571,2738.761985,14172.766713,13027.624579
948.847901,-2146.597232,12104.308868,13619.789333
948.848230,-6291.750507,7201.297681,13767.830521
948.848559,-8734.430116,1762.019645,12731.542202
948.848889,-8808.450710,-2681.334243,11473.192101
948.849218,-6957.935855,-7354.516781,8068.244768
948.849548,-4367.215058,-10035.851024,5625.565159
948.849877,-1702.473667,-8733.488677,3330.926739
948.850206,2294.638420,-4213.525239,2516.700203
948.850536,5181.441594,229.828649,4811.338623
948.850865,5773.606348,5898.935335,8660.409521
948.851194,3256.906145,10418.898773,12213.398043
948.851524,-962.267725,11491.432470,15618.345376
948.851853,-4663.297435,11108.384721,15470.304188
948.852183,-6439.791695,6281.983084,14508.036463
948.852512,-5699.585753,-842.705048,13249.686362
948.852841,-4737.318029,-5898.935335,10510.924376
948.853171,-2368.659014,-9806.022374,6513.812290
948.853500,1110.308913,-10955.165621,4071.132681
948.853829,4367.215058,-7890.783629,4515.256246
948.854159,6809.894666,-1608.800546,5847.626942
948.854488,7550.100608,2604.724693,8734.430116
948.854818,6513.812290,7354.516781,11399.171507
948.855147,3182.885551,12257.527968,12805.562797
948.855476,-1924.535449,12410.747068,14359.995275
948.855806,-6069.688724,7660.954980,14656.077652
948.856135,-9548.656652,2528.115143,13619.789333
948.856464,-9844.739029,-3524.039291,11769.274478
948.856794,-7402.059420,-8733.488677,9252.574275
948.857123,-5921.647536,-11031.775171,5773.606348
948.857453,-3701.029710,-8886.707777,3256.906145
948.857782,-148.041188,-6128.763984,2146.597232
948.858111,4145.153275,-3140.991542,4663.297435
948.858441,5921.647536,3217.601092,8734.430116
948.858770,3552.988522,9806.022374,12139.377449
948.859099,-592.164754,11951.089769,14804.118840
948.859429,-5329.482782,12027.699319,14952.160028
948.859758,-7031.956449,7048.078582,15248.242405
948.860088,-5995.668130,612.876398,13841.851115
948.860417,-4293.194464,-4596.572988,10584.944971
948.860746,-2516.700203,-7737.564530,6439.791695
948.861076,148.041188,-9959.241474,3923.091493
948.861405,2960.823768,-8503.660028,3256.906145
948.861734,5921.647536,-3217.601092,4367.215058
948.862064,6957.935855,2145.067394,7179.997637
948.862393,5255.462188,8273.831378,10362.883188
948.862723,2516.700203,13253.452115,13175.665768
948.863052,-1184.329507,11951.089769,14359.995275
948.863381,-4959.379811,7584.345430,14656.077652
948.863711,-8438.347739,3370.820191,13027.624579
948.864040,-9104.533087,-919.314598,10436.903782
948.864369,-8438.347739,-6281.983084,7994.224174
948.864699,-6735.874072,-9806.022374,6587.832884
948.865028,-4589.276840,-8350.440928,4071.132681
948.865358,-1036.288319,-5745.716235,2516.700203
948.865687,3701.029710,-2757.943793,4589.276840
948.866016,5551.544565,2221.676944,9474.636058
948.866346,3330.926739,8273.831378,12879.583391
948.866675,-148.041188,12027.699319,15026.180623
948.867005,-4071.132681,12410.747068,15322.262999
948.867334,-4959.379811,9039.926876,15840.407159
948.867663,-4737.318029,2221.676944,14285.974681
948.867993,-2738.761985,-3140.991542,11547.212695
948.868322,-1184.329507,-6281.983084,6661.853478
948.868651,1258.350101,-8350.440928,3182.885551
948.868981,4737.318029,-7737.564530,3108.864956
948.869310,7920.203579,-2987.772442,3627.009116
948.869640,8290.306550,919.314598,6143.709319
948.869969,5477.523971,6971.469032,9622.677246
948.870298,2072.576638,13253.452115,12731.542202
948.870628,-1776.494261,13023.623466,14730.098246
948.870957,-5847.626942,7737.564530,15174.221811
948.871286,-9548.656652,4136.915689,13323.706956
948.871616,-10140.821405,-306.438199,10510.924376
948.871945,-7179.997637,-6358.592633,7624.121203
948.872275,-4071.132681,-10342.289223,5847.626942
948.872604,-2220.617826,-9499.584175,3478.967927
948.872933,0.000000,-5132.839837,2368.659014
948.873263,3182.885551,-919.314598,3923.091493
948.873592,5403.503377,4443.353888,8290.306550
948.873921,4589.276840,9193.145976,12583.501014
948.874251,888.247130,11568.042020,15248.242405
948.874580,-4145.153275,12104.308868,15174.221811
948.874910,-6661.853478,8427.050478,14804.118840
948.875239,-6217.729913,2145.067394,14434.015869
948.875568,-4219.173869,-3677.258390,11695.253884
948.875898,-2146.597232,-8656.879127,7550.100608
948.876227,666.185348,-10725.336972,4367.215058
948.876556,3404.947333,-8120.612279,2960.823768
948.876886,6809.894666,-3600.648841,3849.070898
948.877215,7994.224174,153.219100,6439.791695
948.877545,6217.729913,5669.106685,10288.862594
948.877874,2738.761985,12487.356617,12953.603985
948.878203,-888.247130,12717.185267,14804.118840
948.878533,-5181.441594,9346.365076,15470.304188
948.878862,-9326.594869,4136.915689,14285.974681
948.879191,-9622.677246,-1991.848295,11843.295072
948.879521,-7476.080014,-7048.078582,9178.553681
948.879850,-4885.359217,-10418.898773,6587.832884
948.880180,-3108.864956,-9576.193725,4367.215058
948.880509,-1110.308913,-6665.030833,2368.659014
948.880838,2886.803174,-2911.162892,3256.906145
948.881168,6217.729913,1302.362347,7402.059420
948.881497,5329.482782,7124.688131,11547.212695
948.881826,888.247130,11644.651570,14285.974681
948.882156,-4737.318029,12027.699319,15100.201217
948.882485,-7846.182985,8044.002729,14508.036463
948.882815,-7105.977043,2298.286494,14211.954086
948.883144,-4959.379811,-3830.477490,11843.295072
948.883473,-2442.679609,-7967.393179,8068.244768
948.883803,-592.164754,-10418.898773,4737.318029
948.884132,2368.659014,-8886.707777,3478.967927
948.884462,6069.688724,-4903.011187,3478.967927
948.884791,7846.182985,-689.485948,5477.523971
948.885120,6217.729913,4213.525239,8660.409521
948.885450,2590.720797,11491.432470,11917.315666
948.885779,-1702.473667,12793.794817,14952.160028
948.886108,-5921.647536,9882.631924,15914.427753
948.886438,-9548.656652,5286.058936,14878.139434
948.886767,-9696.697840,-383.047749,12361.439231
948.887097,-7846.182985,-6128.763984,10214.842000
948.887426,-5181.441594,-9499.584175,6587.832884
948.887755,-2516.700203,-7890.783629,2664.741391
948.888085,222.061783,-6818.249932,666.185348
948.888414,4737.318029,-3830.477490,2812.782580
948.888743,6513.812290,1915.238745,8512.368333
948.889073,3775.050304,8427.050478,13471.748144
948.889402,-962.267725,13483.280765,16432.571912
948.889732,-6217.729913,13942.938064,16432.571912
948.890061,-7772.162391,9422.974625,15100.201217
948.890390,-6513.812290,995.924147,13989.892304
948.890720,-4293.194464,-4596.572988,11917.315666
948.891049,-3478.967927,-6435.202183,8216.285956
948.891378,-1184.329507,-8886.707777,4737.318029
948.891708,1702.473667,-7354.516781,3404.947333
948.892037,6291.750507,-3294.210641,3627.009116
948.892367,8882.471304,306.438199,5033.400406
948.892696,8734.430116,4979.620737,7846.182985
948.893025,5625.565159,12180.918418,10658.965565
948.893355,592.164754,14709.033562,13323.706956
948.893684,-4367.215058,11338.213370,14582.057057
948.894013,-8438.347739,6971.469032,14359.995275
948.894343,-9474.636058,2298.286494,13175.665768
948.894672,-8216.285956,-4443.353888,10362.883188
948.895002,-5181.441594,-8886.707777,6735.874072
948.895331,-2146.597232,-9806.022374,4145.153275
948.895661,1406.391290,-8273.831378,1998.556043
948.895990,4515.256246,-2757.943793,3034.844362
948.896320,5847.626942,2374.896044,6217.729913
948.896650,4219.173869,7814.174080,10510.924376
948.896979,1036.288319,12563.966167,13101.645173
948.897309,-3182.885551,12793.794817,14878.139434
948.897638,-4959.379811,9193.145976,14582.057057
948.897968,-6365.771101,3217.601092,14063.912898
948.898297,-5329.482782,-2911.162892,11917.315666
948.898627,-3552.988522,-8044.002729,9178.553681
948.898956,-962.267725,-9729.412825,6365.771101
948.899286,1110.308913,-7890.783629,4885.359217
948.899615,5477.523971,-5286.058936,4663.297435
948.899945,8216.285956,-995.924147,6217.729913
948.900274,7402.059420,3753.867940,8956.491898
948.900604,4515.256246,9652.803275,11473.192101
948.900933,0.000000,12410.747068,13841.851115
948.901263,-4293.194464,9806.022374,16210.510130
948.901592,-8808.450710,5209.449386,16210.510130
948.901922,-10658.965565,995.924147,13545.768739
948.902251,-8808.450710,-5592.497135,9770.718434
948.902581,-4589.276840,-10955.165621,6661.853478
948.902910,-1332.370696,-11491.432470,4367.215058
948.903240,814.226536,-7967.393179,2442.679609
948.903569,3108.864956,-3753.867940,2664.741391
948.903899,5255.462188,2298.286494,5255.462188
948.904228,4589.276840,7277.907231,9696.697840
948.904558,2220.617826,10725.336972,13841.851115
948.904887,-2146.597232,11644.651570,15988.448347
948.905217,-6143.709319,9882.631924,14952.160028
948.905546,-7772.162391,4443.353888,14137.933492
948.905876,-7105.977043,-1608.800546,12287.418637
948.906205,-5181.441594,-7354.516781,9104.533087
948.906535,-2442.679609,-10725.336972,5847.626942
948.906864,370.102971,-9039.926876,4663.297435
948.907194,3849.070898,-4443.353888,4589.276840
948.907523,7179.997637,-306.438199,5699.585753
948.907853,7402.059420,3600.648841,7698.141797
948.908182,5033.400406,9116.536426,9474.636058
948.908512,1332.370696,12257.527968,12731.542202
948.908841,-3478.967927,10878.556072,14359.995275
948.909171,-8734.430116,6818.249932,14582.057057
948.909500,-11695.253884,1838.629195,12065.356855
948.909830,-9770.718434,-5132.839837,10658.965565
948.910159,-5995.668130,-10572.117872,8364.327145
948.910489,-2886.803174,-11031.775171,6809.894666
948.910818,-370.102971,-7507.735880,3701.029710
948.911148,3034.844362,-3447.429741,2294.638420
948.911477,7179.997637,153.219100,4737.318029
948.911807,7698.141797,5975.544884,10066.800811
948.912136,4737.318029,12180.918418,14359.995275
948.912466,-1110.308913,14479.204912,16210.510130
948.912795,-5773.606348,12563.966167,15840.407159
948.913125,-7402.059420,6128.763984,14730.098246
948.913454,-6217.729913,-919.314598,12879.583391
948.913784,-4367.215058,-7737.564530,9326.594869
948.914113,-2294.638420,-10801.946522,5699.585753
948.914443,0.000000,-9806.022374,3701.029710
948.914772,3256.906145,-6435.202183,3775.050304
948.915102,6365.771101,-1838.629195,5329.482782
948.915431,6513.812290,3447.429741,7846.182985
948.915761,4293.194464,9806.022374,10584.944971
948.916091,1554.432478,13559.890315,12435.459826
948.916420,-2812.782580,11568.042020,14285.974681
948.916750,-6217.729913,6894.859482,14508.036463
948.917079,-9252.574275,2451.505594,13101.645173
948.917409,-8734.430116,-2604.724693,10732.986159
948.917738,-5625.565159,-7660.954980,8216.285956
948.918068,-2516.700203,-10035.851024,6143.709319
948.918397,-222.061783,-7124.688131,3775.050304
948.918727,3923.091493,-3370.820191,1850.514855
948.919056,6809.894666,612.876398,3997.112087
948.919386,7328.038826,5898.935335,8660.409521
948.919715,3849.070898,11338.213370,12805.562797
948.920045,-1554.432478,13713.109414,14730.098246
948.920374,-6439.791695,12487.356617,15174.221811
948.920704,-7846.182985,5898.935335,14582.057057
948.921033,-6365.771101,-612.876398,12731.542202
948.921363,-4885.359217,-7354.516781,9252.574275
948.921692,-2516.700203,-10955.165621,5921.647536
948.922022,-592.164754,-9499.584175,4071.132681
948.922351,2812.782580,-6052.154434,4145.153275
948.922681,6143.709319,-1378.971896,5699.585753
948.923010,6809.894666,2834.553343,8586.388927
948.923340,4885.359217,8963.317327,11473.192101
948.923669,2146.597232,12870.404366,13175.665768
948.923999,-1924.535449,12104.308868,14285.974681
948.924328,-5847.626942,7201.297681,14285.974681
948.924658,-8882.471304,1915.238745,13101.645173
948.924987,-8364.327145,-3370.820191,11325.150913
948.925317,-5699.585753,-7737.564530,8438.347739
948.925646,-2886.803174,-10342.289223,5995.668130
948.925976,-740.205942,-8810.098227,3849.070898
948.926305,2590.720797,-5132.839837,2072.576638
948.926635,5847.626942,-919.314598,4737.318029
948.926964,6809.894666,4749.792088,9030.512492
948.927294,4367.215058,11261.603821,12509.480420
948.927623,-592.164754,13100.233016,14285.974681
948.927953,-5033.400406,10878.556072,14582.057057
948.928282,-7105.977043,5056.230287,15174.221811
948.928612,-7105.977043,-306.438199,13989.892304
948.928941,-6365.771101,-5439.278036,11177.109724
948.929271,-4515.256246,-9652.803275,6513.812290
948.929600,-1702.473667,-10418.898773,4293.194464
948.929930,2368.659014,-8197.221829,3849.070898
948.930259,6069.688724,-3524.039291,4737.318029
948.930589,7328.038826,919.314598,6661.853478
948.930918,5773.606348,7507.735880,9770.718434
948.931248,2886.803174,12563.966167,11769.274478
948.931577,-962.267725,11338.213370,14434.015869
948.931907,-4737.318029,7660.954980,14952.160028
948.932236,-8586.388927,3600.648841,13323.706956
948.932566,-8882.471304,-2221.676944,10732.986159
948.932895,-5995.668130,-7660.954980,8512.368333
948.933225,-3330.926739,-10955.165621,6587.832884
948.933554,-1406.391290,-8810.098227,3923.091493
948.933884,1332.370696,-4903.011187,2368.659014
948.934213,4959.379811,-1225.752797,4071.132681
948.934543,6513.812290,3294.210641,8660.409521
948.934872,3701.029710,9652.803275,12583.501014
948.935202,-888.247130,12257.527968,15914.427753
948.935531,-5921.647536,12180.918418,16062.468941
948.935861,-8364.327145,7584.345430,15544.324782
948.936191,-7920.203579,842.705048,13841.851115
948.936520,-6365.771101,-6741.640382,10732.986159
948.936850,-4145.153275,-10189.070123,7031.956449
948.937179,-1258.350101,-9959.241474,4737.318029
948.937509,2442.679609,-7814.174080,3404.947333
948.937838,6217.729913,-2451.505594,4441.235652
948.938168,8068.244768,1685.410096,6513.812290
948.938497,6883.915261,6971.469032,9770.718434
948.938827,4219.173869,13636.499864,12139.377449
948.939156,-148.041188,14402.595362,14285.974681
948.939486,-4219.173869,10342.289223,14582.057057
948.939815,-7550.100608,4826.401637,13693.809927
948.940145,-7920.203579,-995.924147,11399.171507
948.940474,-5625.565159,-6818.249932,8734.430116
948.940804,-3182.885551,-9882.631924,5995.668130
948.941133,-1998.556043,-8273.831378,3997.112087
948.941463,444.123565,-5439.278036,2516.700203
948.941792,4367.215058,-1225.752797,4145.153275
948.942122,6217.729913,3677.258390,7846.182985
948.942451,3701.029710,9193.145976,11695.253884
948.942781,-592.164754,14019.547613,13767.830521
948.943110,-4589.276840,12947.013916,14285.974681
948.943440,-6587.832884,7660.954980,14656.077652
948.943769,-6883.915261,2145.067394,13397.727550
948.944099,-5995.668130,-3907.087040,10732.986159
948.944428,-3997.112087,-8656.879127,6809.894666
948.944758,-1480.411884,-10572.117872,3923.091493
948.945087,1258.350101,-7354.516781,3997.112087
948.945417,5921.647536,-3677.258390,5551.544565
948.945746,7698.141797,0.000000,7254.018232
948.946076,6587.832884,6205.373534,9770.718434
948.946405,4145.153275,12257.527968,12435.459826
948.946735,888.247130,11108.384721,16284.530724
948.947064,-3478.967927,9193.145976,17764.942608
948.947394,-8216.285956,6281.983084,14952.160028
948.947723,-8438.347739,919.314598,10436.903782
948.948053,-4959.379811,-6205.373534,6809.894666
948.948382,-740.205942,-11414.822920,4515.256246
948.948712,666.185348,-11414.822920,3330.926739
948.949041,1554.432478,-7354.516781,3552.988522
948.949371,3182.885551,-306.438199,4737.318029
948.949700,4367.215058,5669.106685,8364.327145
948.950030,2590.720797,8580.269578,12583.501014
948.950359,-148.041188,10725.336972,14878.139434
948.950689,-4219.173869,11568.042020,15026.180623
948.951018,-6069.688724,7277.907231,14211.954086
948.951348,-7550.100608,1302.362347,13693.809927
948.951677,-7402.059420,-3217.601092,12361.439231
948.952007,-5477.523971,-8503.660028,8660.409521
948.952336,-2590.720797,-11261.603821,5255.462188
948.952666,1184.329507,-8350.440928,3627.009116
948.952995,5921.647536,-4519.963438,3256.906145
948.953325,8512.368333,-1532.190996,4959.379811
948.953654,7328.038826,4136.915689,7550.100608
948.953984,3923.091493,10878.556072,10955.047942
948.954313,0.000000,12487.356617,14582.057057
948.954643,-5403.503377,10418.898773,16358.551318
948.954972,-10288.862594,5898.935335,15396.283594
948.955302,-10362.883188,-459.657299,12139.377449
948.955632,-6513.812290,-7660.954980,8956.491898
948.955961,-2960.823768,-11874.480219,5921.647536
948.956291,-888.247130,-11184.994271,4145.153275
948.956620,814.226536,-8273.831378,3701.029710
948.956950,3404.947333,-2221.676944,4219.173869
948.957279,5181.441594,4596.572988,7105.977043
948.957609,4811.338623,9193.145976,10955.047942
948.957938,2368.659014,12104.308868,14582.057057
948.958268,-2664.741391,12257.527968,16062.468941
948.958597,-6513.812290,9269.755526,15026.180623
948.958927,-8142.265362,3600.648841,13471.748144
948.959256,-7772.162391,-2681.334243,11621.233289
948.959586,-6069.688724,-8503.660028,9030.512492
948.959915,-3701.029710,-11951.089769,5699.585753
948.960245,-666.185348,-9806.022374,3923.091493
948.960574,4441.235652,-5592.497135,3478.967927
948.960904,7179.997637,-766.095498,5699.585753
948.961233,7031.956449,4596.572988,8438.347739
948.961563,4219.173869,11184.994271,11251.130318
948.961892,1184.329507,13406.671215,13619.789333
948.962222,-2738.761985,12257.527968,15618.345376
948.962551,-6291.750507,7124.688131,15914.427753
948.962881,-8142.265362,2681.334243,13915.871710
948.963210,-6661.853478,-3677.258390,10436.903782
948.963540,-3552.988522,-8733.488677,6661.853478
948.963869,-740.205942,-9652.803275,3627.009116
948.964199,1850.514855,-7584.345430,2146.597232
948.964528,4663.297435,-3447.429741,2960.823768
948.964858,6439.791695,2681.334243,6069.688724
948.965187,5033.400406,9346.365076,9104.533087
948.965517,2590.720797,12180.918418,11547.212695
948.965846,-1332.370696,12563.966167,14211.954086
948.966176,-5551.544565,10648.727422,14730.098246
948.966505,-7328.038826,4596.572988,14730.098246
948.966835,-7105.977043,-1302.362347,12583.501014
948.967164,-6365.771101,-5515.887586,9548.656652
948.967494,-3923.091493,-9499.584175,5551.544565
948.967823,-222.061783,-9959.241474,4145.153275
948.968153,4293.194464,-6665.030833,3997.112087
948.968482,7550.100608,-1225.752797,5329.482782
948.968812,7550.100608,3370.820191,7846.182985
948.969141,4515.256246,9116.536426,10436.903782
948.969471,1110.308913,12410.747068,14137.933492
948.969800,-2960.823768,10955.165621,16284.530724
948.970130,-6143.709319,7660.954980,16210.510130
948.970459,-7846.182985,2987.772442,13101.645173
948.970789,-6291.750507,-3830.477490,9474.636058
948.971118,-3478.967927,-9806.022374,6661.853478
948.971448,-814.226536,-10878.556072,4441.235652
948.971777,1036.288319,-7814.174080,3701.029710
948.972107,2886.803174,-3064.381992,3330.926739
948.972436,4219.173869,2528.115143,5403.503377
948.972766,4145.153275,5898.935335,9548.656652
948.973095,1924.535449,8810.098227,13767.830521
948.973425,-2812.782580,11951.089769,16432.571912
948.973754,-7402.059420,10955.165621,15988.448347
948.974084,-9474.636058,3830.477490,14656.077652
948.974413,-8438.347739,-1762.019645,13101.645173
948.974743,-6661.853478,-7660.954980,10140.821405
948.975072,-3404.947333,-11644.651570,6291.750507
948.975402,-148.041188,-10112.460574,4071.132681
948.975732,3775.050304,-5898.935335,3404.947333
948.976061,7328.038826,-2374.896044,4663.297435
948.976391,8364.327145,2068.457845,7179.997637
948.976720,6365.771101,8273.831378,10510.924376
948.977050,2664.741391,12640.575717,13249.686362
948.977379,-2368.659014,11874.480219,15766.386565
948.977709,-6291.750507,8427.050478,16210.510130
948.978038,-8512.368333,2604.724693,13915.871710
948.978368,-7105.977043,-3983.696590,10288.862594
948.978697,-4293.194464,-8120.612279,6883.915261
948.979027,-1924.535449,-10725.336972,4219.173869
948.979356,74.020594,-9652.803275,3478.967927
948.979686,2072.576638,-4826.401637,3108.864956
948.980015,3034.844362,1838.629195,4885.359217
948.980345,3108.864956,6205.373534,8734.430116
948.980674,1480.411884,9652.803275,12583.501014
948.981004,-2442.679609,12027.699319,15766.386565
948.981333,-6735.874072,10648.727422,14952.160028
948.981663,-8290.306550,4903.011187,13915.871710
948.981992,-7476.080014,-995.924147,11843.295072
948.982322,-6143.709319,-5362.668486,10140.821405
948.982651,-3330.926739,-9729.412825,7105.977043
948.982981,-518.144159,-10189.070123,4737.318029
948.983310,3256.906145,-6665.030833,3849.070898
948.983640,7105.977043,-1608.800546,4811.338623
948.983969,8364.327145,2374.896044,7920.203579
948.984299,6069.688724,7584.345430,10510.924376
948.984628,2442.679609,12563.966167,13027.624579
948.984958,-1554.432478,11874.480219,15914.427753
948.985287,-5255.462188,8350.440928,17024.736666
948.985617,-8734.430116,4596.572988,15100.201217
948.985946,-8734.430116,-1072.533697,11103.089130
948.986276,-5403.503377,-7201.297681,7402.059420
948.986605,-1924.535449,-9882.631924,4663.297435
948.986935,740.205942,-9346.365076,3034.844362
948.987264,2812.782580,-5286.058936,2442.679609
948.987594,4441.235652,1302.362347,3849.070898
948.987923,4737.318029,6205.373534,7031.956449
948.988253,2812.782580,9346.365076,11769.274478
948.988582,-1258.350101,12717.185267,14952.160028
948.988912,-6291.750507,12257.527968,15618.345376
948.989241,-8734.430116,7048.078582,14730.098246
948.989571,-8364.327145,995.924147,12953.603985
948.989900,-6661.853478,-4903.011187,10658.965565
948.990230,-4071.132681,-10189.070123,6809.894666
948.990559,-370.102971,-10418.898773,4737.318029
948.990889,2664.741391,-6588.421283,3849.070898
948.991218,6587.832884,-1378.971896,4959.379811
948.991548,7920.203579,2451.505594,7254.018232
948.991877,6365.771101,6435.202183,9474.636058
948.992207,3478.967927,11261.603821,12065.356855
948.992536,-740.205942,11414.822920,15100.201217
948.992866,-4589.276840,9422.974625,15766.386565
948.993195,-7550.100608,4903.011187,13545.768739
948.993525,-7550.100608,-1072.533697,9178.553681
948.993854,-3997.112087,-7201.297681,6217.729913
948.994184,222.061783,-11414.822920,5773.606348
948.994513,1110.308913,-8580.269578,4959.379811
948.994843,1480.411884,-2528.115143,3256.906145
948.995173,2368.659014,1072.533697,4441.235652
948.995502,4441.235652,3217.601092,9326.594869
948.995832,2442.679609,8503.660028,13841.851115
948.996161,-2072.576638,10955.165621,16580.613101
948.996489,-7254.018232,11261.603821,15618.345376
948.996819,-9844.739029,5822.325785,14582.057057
948.997149,-8438.347739,-1991.848295,14582.057057
948.997478,-6291.750507,-7584.345430,12213.398043
948.997808,-4367.215058,-9422.974625,7105.977043
948.998138,-1406.391290,-8350.440928,2738.761985
948.998467,3404.947333,-6894.859482,1406.391290
948.998797,8142.265362,-2987.772442,2886.803174
948.999127,9770.718434,306.438199,4811.338623
948.999456,6883.915261,5132.839837,9030.512492
948.999786,2590.720797,13330.061665,12361.439231
949.000115,-2146.597232,13483.280765,16358.551318
949.000445,-5551.544565,7584.345430,17616.901420
949.000775,-8660.409521,2681.334243,15100.201217
949.001104,-8216.285956,-2911.162892,11473.192101
949.001434,-4589.276840,-7277.907231,7772.162391
949.001764,-1036.288319,-9806.022374,5477.523971
949.002093,592.164754,-9499.584175,4219.173869
949.002423,1924.535449,-6741.640382,3627.009116
949.002753,3404.947333,-1072.533697,4589.276840
949.003082,4737.318029,6205.373534,8216.285956
949.003412,3182.885551,10572.117872,11399.171507
949.003741,-1110.308913,11951.089769,13323.706956
949.004071,-5921.647536,9806.022374,13027.624579
949.004401,-8142.265362,3217.601092,13323.706956
949.004730,-7920.203579,-1378.971896,13841.851115
949.005060,-8808.450710,-3294.210641,11991.336260
949.005390,-7994.224174,-7584.345430,8290.306550
949.005719,-4071.132681,-10495.508323,5107.421000
949.006049,1850.514855,-8963.317327,3775.050304
949.006379,7179.997637,-4060.306139,4589.276840
949.006708,8808.450710,1455.581446,6957.935855
949.007038,6217.729913,7201.297681,10140.821405
949.007367,2960.823768,13713.109414,12583.501014
949.007697,-666.185348,12640.575717,14434.015869
949.008027,-3108.864956,8810.098227,16728.654289
949.008356,-7105.977043,5132.839837,15988.448347
949.008686,-8882.471304,689.485948,12731.542202
949.009016,-6365.771101,-4903.011187,8660.409521
949.009345,-2368.659014,-10035.851024,5329.482782
949.009675,518.144159,-10112.460574,2442.679609
949.010004,2516.700203,-7354.516781,1924.535449
949.010334,4145.153275,-1532.190996,4145.153275
949.010664,5033.400406,5975.544884,7402.059420
949.010993,3034.844362,10265.679673,10881.027347
949.011323,222.061783,13100.233016,13323.706956
949.011653,-5329.482782,12027.699319,14285.974681
949.011982,-8438.347739,7354.516781,14582.057057
949.012312,-8290.306550,1762.019645,14582.057057
949.012642,-7105.977043,-2451.505594,12731.542202
949.012971,-5477.523971,-6818.249932,7772.162391
949.013301,-2590.720797,-10725.336972,3997.112087
949.013630,2368.659014,-8580.269578,3108.864956
949.013960,7031.956449,-3294.210641,3849.070898
949.014290,9178.553681,1455.581446,5773.606348
949.014619,7920.203579,6665.030833,8068.244768
949.014949,5181.441594,11184.994271,10288.862594
949.015279,962.267725,11261.603821,14359.995275
949.015608,-3404.947333,9729.412825,16876.695478
949.015938,-7698.141797,7048.078582,15840.407159
949.016268,-8660.409521,1302.362347,11917.315666
949.016597,-5921.647536,-5056.230287,7179.997637
949.016927,-1850.514855,-10189.070123,4515.256246
949.017256,1554.432478,-11797.870669,3330.926739
949.017586,2368.659014,-8197.221829,3775.050304
949.017916,2886.803174,-153.219100,6069.688724
949.018245,3256.906145,6588.421283,8734.430116
949.018575,2294.638420,9499.584175,11769.274478
949.018905,444.123565,11184.994271,14137.933492
949.019234,-4293.194464,10648.727422,15322.262999
949.019564,-7772.162391,6588.421283,15248.242405
949.019894,-9326.594869,2145.067394,14656.077652
949.020223,-8438.347739,-2528.115143,12583.501014
949.020553,-6143.709319,-8656.879127,9400.615463
949.020882,-3034.844362,-11568.042020,5181.441594
949.021212,888.247130,-10265.679673,3182.885551
949.021542,5995.668130,-5822.325785,3182.885551
949.021871,9400.615463,-153.219100,5107.421000
949.022201,8882.471304,5056.230287,8956.491898
949.022531,5181.441594,10648.727422,11399.171507
949.022860,888.247130,12027.699319,14359.995275
949.023190,-3330.926739,10342.289223,16506.592507
949.023519,-6291.750507,6741.640382,15766.386565
949.023849,-7920.203579,1915.238745,12509.480420
949.024179,-6513.812290,-4749.792088,8364.327145
949.024508,-3701.029710,-10418.898773,5107.421000
949.024838,-888.247130,-11414.822920,4293.194464
949.025168,592.164754,-7660.954980,4663.297435
949.025497,1480.411884,-1072.533697,5107.421000
949.025827,2146.597232,4136.915689,6143.709319
949.026157,2516.700203,7201.297681,9400.615463
949.026486,1702.473667,9652.803275,12509.480420
949.026816,-2664.741391,11184.994271,13767.830521
949.027145,-6513.812290,8044.002729,13619.789333
949.027475,-8364.327145,2374.896044,14285.974681
949.027805,-8808.450710,-1225.752797,13101.645173
949.028134,-7698.141797,-6358.592633,10066.800811
949.028464,-4737.318029,-10495.508323,5477.523971
949.028794,444.123565,-9806.022374,3330.926739
949.029123,6587.832884,-6052.154434,3701.029710
949.029453,9400.615463,-2298.286494,5921.647536
949.029783,8512.368333,3907.087040,8068.244768
949.030112,4367.215058,9882.631924,11103.089130
949.030442,740.205942,12947.013916,15026.180623
949.030771,-3256.906145,12487.356617,17098.757260
949.031101,-5625.565159,8273.831378,16506.592507
949.031431,-7105.977043,1455.581446,12435.459826
949.031760,-5995.668130,-4749.792088,7846.182985
949.032090,-3404.947333,-9193.145976,4885.359217
949.032420,-296.082377,-11491.432470,4959.379811
949.032749,0.000000,-7737.564530,5551.544565
949.033079,148.041188,-612.876398,4589.276840
949.033409,1628.453072,4213.525239,5477.523971
949.033738,3552.988522,6052.154434,9770.718434
949.034068,2072.576638,9346.365076,13619.789333
949.034397,-3627.009116,12257.527968,14285.974681
949.034727,-7550.100608,8580.269578,13619.789333
949.035057,-9178.553681,2528.115143,14878.139434
949.035386,-8290.306550,-383.047749,14730.098246
949.035716,-7105.977043,-6205.373534,10807.006753
949.036046,-3478.967927,-10035.851024,4737.318029
949.036375,1110.308913,-8963.317327,1998.556043
949.036705,7254.018232,-5898.935335,2220.617826
949.037034,11177.109724,-1991.848295,4367.215058
949.037364,10362.883188,3907.087040,7105.977043
949.037694,5995.668130,11644.651570,10584.944971
949.038023,2294.638420,14096.157163,14211.954086
949.038353,-1850.514855,12563.966167,16876.695478
949.038683,-5329.482782,8886.707777,16136.489536
949.039012,-7254.018232,1762.019645,12805.562797
949.039342,-6143.709319,-3983.696590,8512.368333
949.039672,-3775.050304,-7890.783629,4811.338623
949.040001,-1258.350101,-11031.775171,3330.926739
949.040331,0.000000,-9193.145976,3849.070898
949.040660,592.164754,-3600.648841,5625.565159
949.040990,1998.556043,2757.943793,7698.141797
949.041320,2368.659014,7890.783629,10584.944971
949.041649,1184.329507,12027.699319,11843.295072
949.041979,-1776.494261,10648.727422,13397.727550
949.042309,-4293.194464,4443.353888,16062.468941
949.042638,-6661.853478,2451.505594,17024.736666
949.042968,-8734.430116,2221.676944,13545.768739
949.043298,-7772.162391,-3370.820191,7920.203579
949.043627,-3330.926739,-9422.974625,3775.050304
949.043957,2294.638420,-11491.432470,2146.597232
949.044286,7920.203579,-9422.974625,2664.741391
949.044616,9770.718434,-3064.381992,5107.421000
949.044946,7698.141797,6205.373534,9030.512492
949.045275,3108.864956,12027.699319,11843.295072
949.045605,1110.308913,11261.603821,14582.057057
949.045935,-1702.473667,9116.536426,16950.716072
949.046264,-3849.070898,6588.421283,17468.860231
949.046594,-6143.709319,2681.334243,14359.995275
949.046924,-7105.977043,-1378.971896,9992.780217
949.047253,-5699.585753,-7660.954980,5551.544565
949.047583,-2294.638420,-12180.918418,1998.556043
949.047912,666.185348,-11414.822920,2368.659014
949.048242,3182.885551,-5669.106685,4589.276840
949.048572,2812.782580,1915.238745,7402.059420
949.048901,1258.350101,7584.345430,10066.800811
949.049231,74.020594,10801.946522,10807.006753
949.049561,-1998.556043,10878.556072,12213.398043
949.049890,-4219.173869,7124.688131,14063.912898
949.050220,-6957.935855,2528.115143,15766.386565
949.050549,-9400.615463,229.828649,14211.954086
949.050879,-9548.656652,-2987.772442,10510.924376
949.051209,-5773.606348,-9039.926876,6217.729913
949.051538,-518.144159,-11414.822920,3997.112087
949.051868,4589.276840,-8427.050478,2812.782580
949.052198,7920.203579,-3907.087040,5255.462188
949.052527,8216.285956,2987.772442,7550.100608
949.052857,4811.338623,10189.070123,9918.759623
949.053187,1998.556043,11568.042020,13471.748144
949.053516,-1554.432478,10035.851024,16580.613101
949.053846,-5773.606348,9116.536426,17024.736666
949.054175,-7031.956449,4443.353888,14211.954086
949.054505,-6069.688724,-1991.848295,8956.491898
949.054835,-4071.132681,-7124.688131,4737.318029
949.055164,-1332.370696,-12257.527968,2960.823768
949.055494,222.061783,-11797.870669,4219.173869
949.055824,1110.308913,-3983.696590,5551.544565
949.056153,1850.514855,3753.867940,6587.832884
949.056483,1480.411884,6358.592633,9548.656652
949.056813,1332.370696,9116.536426,12139.377449
949.057142,-1702.473667,12104.308868,14285.974681
949.057472,-4663.297435,9499.584175,13989.892304
949.057801,-7105.977043,4519.963438,15100.201217
949.058131,-8586.388927,919.314598,14878.139434
949.058461,-8068.244768,-3140.991542,11917.315666
949.058790,-4959.379811,-7737.564530,6365.771101
949.059120,-444.123565,-9959.241474,2886.803174
949.059450,5107.421000,-6588.421283,2590.720797
949.059779,9030.512492,-3370.820191,3627.009116
949.060109,10510.924376,1149.143247,6069.688724
949.060439,7402.059420,7814.174080,9252.574275
949.060768,3404.947333,12563.966167,12361.439231
949.061098,-1406.391290,12717.185267,15914.427753
949.061427,-5033.400406,10495.508323,16654.633695
949.061757,-6735.874072,5439.278036,14434.015869
949.062087,-5181.441594,-1149.143247,9622.677246
949.062416,-2442.679609,-6511.811733,4737.318029
949.062746,0.000000,-10189.070123,3034.844362
949.063076,666.185348,-9882.631924,4441.235652
949.063405,1036.288319,-4443.353888,5699.585753
949.063735,1258.350101,2374.896044,7031.956449
949.064064,1998.556043,6665.030833,9770.718434
949.064394,1110.308913,10418.898773,11621.233289
949.064724,-1480.411884,11721.261119,12213.398043
949.065053,-4293.194464,6205.373534,13989.892304
949.065383,-6587.832884,1072.533697,16506.592507
949.065713,-9252.574275,2145.067394,15322.262999
949.066042,-9178.553681,-919.314598,11103.089130
949.066372,-5477.523971,-8503.660028,6069.688724
949.066702,444.123565,-10112.460574,3330.926739
949.067031,6587.832884,-8656.879127,2220.617826
949.067361,10732.986159,-4749.792088,2738.761985
949.067690,10955.047942,2681.334243,6439.791695
949.068020,6291.750507,10189.070123,10362.883188
949.068350,1998.556043,12257.527968,14137.933492
949.068679,-2146.597232,10648.727422,17542.880825
949.069009,-5847.626942,9499.584175,17838.963202
949.069339,-7846.182985,4366.744339,15322.262999
949.069668,-7550.100608,-1838.629195,11177.109724
949.069998,-5477.523971,-6588.421283,6883.915261
949.070328,-2294.638420,-11874.480219,3182.885551
949.070657,-370.102971,-12410.747068,2146.597232
949.070987,1924.535449,-6511.811733,3627.009116
949.071316,2664.741391,919.314598,6143.709319
949.071646,1998.556043,5515.887586,9326.594869
949.071976,444.123565,9499.584175,11103.089130
949.072305,-1850.514855,12027.699319,12583.501014
949.072635,-4367.215058,9806.022374,12953.603985
949.072965,-5995.668130,3600.648841,15100.201217
949.073294,-8068.244768,0.000000,14804.118840
949.073624,-9030.512492,-3447.429741,11695.253884
949.073954,-6365.771101,-8273.831378,6735.874072
949.074283,-1406.391290,-10342.289223,4293.194464
949.074613,3997.112087,-8503.660028,3330.926739
949.074942,8142.265362,-4366.744339,4145.153275
949.075272,9474.636058,383.047749,6217.729913
949.075602,6883.915261,6894.859482,8956.491898
949.075931,3330.926739,11874.480219,12435.459826
949.076261,-296.082377,11261.603821,17098.757260
949.076591,-4589.276840,9346.365076,17987.004391
949.076920,-8290.306550,4979.620737,15914.427753
949.077250,-8068.244768,-306.438199,11473.192101
949.077579,-5699.585753,-5209.449386,6735.874072
949.077909,-2294.638420,-10572.117872,3478.967927
949.078239,518.144159,-12487.356617,3478.967927
949.078568,1554.432478,-7048.078582,4219.173869
949.078898,2812.782580,306.438199,5699.585753
949.079228,3108.864956,4903.011187,8734.430116
949.079557,1480.411884,9576.193725,12361.439231
949.079887,-962.267725,14249.376263,13101.645173
949.080217,-4145.153275,8733.488677,15692.365970
949.080546,-6291.750507,2145.067394,18357.107362
949.080876,-9104.533087,3983.696590,17468.860231
949.081205,-9548.656652,-153.219100,12509.480420
949.081535,-4885.359217,-8197.221829,6365.771101
949.081865,888.247130,-10189.070123,1258.350101
949.082194,6513.812290,-8427.050478,-962.267725
949.082524,11473.192101,-5822.325785,296.082377
949.082854,11621.233289,1378.971896,4959.379811
949.083183,7179.997637,11951.089769,9696.697840
949.083513,2516.700203,13559.890315,11843.295072
949.083843,-1258.350101,11721.261119,15174.221811
949.084172,-4885.359217,9806.022374,17098.757260
949.084502,-7624.121203,3370.820191,17098.757260
949.084831,-8364.327145,-766.095498,13767.830521
949.085161,-8216.285956,-3677.258390,9400.615463
949.085491,-4959.379811,-8656.879127,4737.318029
949.085820,-1332.370696,-10342.289223,1702.473667
949.086150,2886.803174,-8350.440928,1850.514855
949.086480,6365.771101,-2145.067394,4441.235652
949.086809,5921.647536,5209.449386,7624.121203
949.087139,1924.535449,11414.822920,9844.739029
949.087469,-1332.370696,13483.280765,12583.501014
949.087798,-5551.544565,9652.803275,17098.757260
949.088128,-7994.224174,6665.030833,19097.313304
949.088457,-9474.636058,3064.381992,16876.695478
949.088787,-8142.265362,-2451.505594,11325.150913
949.089117,-4367.215058,-7737.564530,5773.606348
949.089446,222.061783,-12410.747068,2368.659014
949.089776,5329.482782,-10418.898773,1702.473667
949.090106,8808.450710,-4366.744339,3034.844362
949.090435,9770.718434,2221.676944,7105.977043
949.090765,6365.771101,9882.631924,10658.965565
949.091094,2664.741391,13559.890315,12583.501014
949.091424,-296.082377,10955.165621,15618.345376
949.091754,-3701.029710,7660.954980,17468.860231
949.092083,-7179.997637,3907.087040,16432.571912
949.092413,-8512.368333,153.219100,12287.418637
949.092743,-7698.141797,-5745.716235,8142.265362
949.093072,-4885.359217,-10725.336972,3182.885551
949.093402,-1332.370696,-12027.699319,1554.432478
949.093732,2590.720797,-9499.584175,3627.009116
949.094061,4145.153275,-1378.971896,5625.565159
949.094391,3478.967927,5439.278036,7994.224174
949.094720,1110.308913,9193.145976,10362.883188
949.095050,-296.082377,12410.747068,11177.109724
949.095380,-3478.967927,10035.851024,14285.974681
949.095709,-5255.462188,3983.696590,17690.922014
949.096039,-8290.306550,1762.019645,17764.942608
949.096369,-9474.636058,229.828649,14359.995275
949.096698,-6883.915261,-6894.859482,8882.471304
949.097028,-1924.535449,-11184.994271,4663.297435
949.097358,2812.782580,-9729.412825,1776.494261
949.097687,8660.409521,-6511.811733,1480.411884
949.098017,10732.986159,-2145.067394,3775.050304
949.098347,7846.182985,7431.126331,7254.018232
949.098676,3997.112087,12104.308868,11621.233289
949.099006,0.000000,10955.165621,15248.242405
949.099335,-5107.421000,10342.289223,16654.633695
949.099665,-8438.347739,6281.983084,16136.489536
949.099995,-8586.388927,-306.438199,12879.583391
949.100324,-7698.141797,-4519.963438,8586.388927
949.100654,-4885.359217,-9959.241474,4737.318029
949.100984,-1702.473667,-12334.137518,3627.009116
949.101313,888.247130,-8810.098227,4737.318029
949.101643,2146.597232,-689.485948,6809.894666
949.101973,2368.659014,3907.087040,8142.265362
949.102302,1702.473667,8580.269578,10436.903782
949.102632,962.267725,12257.527968,11621.233289
949.102962,-1850.514855,9806.022374,13323.706956
949.103291,-4737.318029,4979.620737,15396.283594
949.103621,-7772.162391,2374.896044,16654.633695
949.103951,-9104.533087,459.657299,14211.954086
949.104280,-7624.121203,-5209.449386,9178.553681
949.104610,-2368.659014,-9576.193725,4589.276840
949.104939,2812.782580,-8886.707777,2590.720797
949.105269,8068.244768,-6281.983084,1850.514855
949.105599,10584.944971,-1762.019645,3997.112087
949.105928,9548.656652,6052.154434,7624.121203
949.106258,4811.338623,11261.603821,11251.130318
949.106588,74.020594,12563.966167,15766.386565
949.106917,-5255.462188,10955.165621,17838.963202
949.107247,-8438.347739,7814.174080,17098.757260
949.107577,-8364.327145,1915.238745,13619.789333
949.107906,-6513.812290,-3524.039291,8586.388927
949.108236,-3627.009116,-8656.879127,3478.967927
949.108566,-592.164754,-12027.699319,1480.411884
949.108895,2072.576638,-9652.803275,2960.823768
949.109225,3182.885551,-1072.533697,5477.523971
949.109554,2812.782580,5515.887586,7624.121203
949.109884,2294.638420,9959.241474,10288.862594
949.110214,888.247130,13330.061665,11325.150913
949.110543,-1850.514855,10878.556072,12509.480420
949.110873,-3923.091493,3907.087040,15914.427753
949.111203,-7476.080014,1608.800546,17320.819043
949.111532,-9992.780217,2068.457845,14285.974681
949.111862,-8586.388927,-4290.134789,9252.574275
949.112192,-3034.844362,-9729.412825,4885.359217
949.112521,2590.720797,-9346.365076,2368.659014
949.112851,8364.327145,-7584.345430,1628.453072
949.113181,10807.006753,-2987.772442,3478.967927
949.113510,8882.471304,6588.421283,7105.977043
949.113840,3775.050304,12334.137518,11843.295072
949.114169,-296.082377,11644.651570,16062.468941
949.114499,-5699.585753,11338.213370,17912.983796
949.114829,-8882.471304,7431.126331,16654.633695
949.115158,-8660.409521,76.609550,13471.748144
949.115488,-7031.956449,-4290.134789,9030.512492
949.115818,-4737.318029,-9039.926876,4441.235652
949.116147,-1850.514855,-13636.499864,2368.659014
949.116477,370.102971,-10495.508323,3627.009116
949.116807,2812.782580,-2451.505594,5551.544565
949.117136,3034.844362,3600.648841,7920.203579
949.117466,1924.535449,8044.002729,10881.027347
949.117796,740.205942,12334.137518,11843.295072
949.118125,-1480.411884,11568.042020,12657.521608
949.118455,-2960.823768,5822.325785,14137.933492
949.118784,-5625.565159,689.485948,16284.530724
949.119114,-9104.533087,0.000000,15174.221811
949.119444,-10362.883188,-3830.477490,10584.944971
949.119773,-5773.606348,-9422.974625,5995.668130
949.120103,0.000000,-10035.851024,3701.029710
949.120433,5403.503377,-7277.907231,2442.679609
949.120762,8586.388927,-3907.087040,3997.112087
949.121092,8586.388927,2068.457845,6291.750507
949.121422,4663.297435,9959.241474,9252.574275
949.121751,1036.288319,12027.699319,13841.851115
949.122081,-3182.885551,10955.165621,17172.777854
949.122411,-6883.915261,8733.488677,16802.674883
949.122740,-8142.265362,2298.286494,13545.768739
949.123070,-6439.791695,-3447.429741,9400.615463
949.123400,-4293.194464,-7354.516781,5403.503377
949.123729,-2368.659014,-11568.042020,2738.761985
949.124059,-592.164754,-10572.117872,3849.070898
949.124388,1036.288319,-3983.696590,6069.688724
949.124718,2442.679609,2757.943793,8068.244768
949.125048,1702.473667,6818.249932,10288.862594
949.125377,1184.329507,10878.556072,10214.842000
949.125707,-518.144159,8963.317327,13693.809927
949.126037,-2368.659014,3294.210641,17542.880825
949.126366,-6587.832884,4366.744339,17394.839637
949.126696,-9696.697840,3600.648841,12953.603985
949.127026,-7402.059420,-3983.696590,8364.327145
949.127355,-1628.453072,-8503.660028,3775.050304
949.127685,4293.194464,-9576.193725,1480.411884
949.128015,9474.636058,-9116.536426,1480.411884
949.128344,10214.842000,-2298.286494,4293.194464
949.128674,7328.038826,8120.612279,8364.327145
949.129003,3923.091493,12257.527968,12583.501014
949.129333,1036.288319,11491.432470,14804.118840
949.129663,-3552.988522,9806.022374,17172.777854
949.129992,-6735.874072,6281.983084,18135.045579
949.130322,-9474.636058,1608.800546,15322.262999
949.130652,-9252.574275,-1915.238745,11769.274478
949.130981,-6587.832884,-6435.202183,7031.956449
949.131311,-3701.029710,-10725.336972,1480.411884
949.131641,592.164754,-10342.289223,-0.000000
949.131970,5255.462188,-6128.763984,2368.659014
949.132300,7031.956449,1762.019645,6439.791695
949.132630,4959.379811,9193.145976,8956.491898
949.132959,1776.494261,13406.671215,10732.986159
949.133289,-1036.288319,12257.527968,15026.180623
949.133618,-4737.318029,9422.974625,18061.024985
949.133948,-8438.347739,6128.763984,17690.922014
949.134278,-9252.574275,612.876398,13471.748144
949.134607,-7476.080014,-4903.011187,9178.553681
949.134937,-3478.967927,-10418.898773,5107.421000
949.135267,1110.308913,-11644.651570,2368.659014
949.135596,4811.338623,-9193.145976,1554.432478
949.135926,7550.100608,-2221.676944,4293.194464
949.136256,7402.059420,5669.106685,7254.018232
949.136585,5329.482782,11184.994271,10658.965565
949.136915,2886.803174,13253.452115,12805.562797
949.137245,-1406.391290,10418.898773,16062.468941
949.137574,-5181.441594,7584.345430,17246.798449
949.137904,-7846.182985,3983.696590,14804.118840
949.138234,-8364.327145,-1532.190996,11473.192101
949.138563,-6883.915261,-7124.688131,6143.709319
949.138893,-4293.194464,-11491.432470,2442.679609
949.139222,-370.102971,-12563.966167,2812.782580
949.139552,4071.132681,-7431.126331,4071.132681
949.139882,3997.112087,612.876398,7328.038826
949.140211,3034.844362,7048.078582,9178.553681
949.140541,1184.329507,10878.556072,11251.130318
949.140871,-962.267725,12410.747068,13767.830521
949.141200,-4663.297435,7967.393179,17172.777854
949.141530,-6587.832884,3983.696590,18727.210333
949.141860,-8586.388927,3064.381992,15914.427753
949.142189,-7328.038826,-2604.724693,11251.130318
949.142519,-3478.967927,-10112.460574,6143.709319
949.142849,296.082377,-10648.727422,1924.535449
949.143178,4885.359217,-9269.755526,296.082377
949.143508,8216.285956,-5286.058936,3330.926739
949.143837,8290.306550,3217.601092,6735.874072
949.144167,5107.421000,11031.775171,10140.821405
949.144497,2590.720797,11874.480219,12657.521608
949.144826,-1184.329507,9806.022374,15618.345376
949.145156,-5033.400406,8580.269578,16728.654289
949.145486,-7698.141797,3753.867940,15618.345376
949.145815,-8882.471304,-1685.410096,11399.171507
949.146145,-7698.141797,-5515.887586,7105.977043
949.146475,-4663.297435,-10648.727422,3182.885551
949.146804,-740.205942,-12334.137518,2442.679609
949.147134,2590.720797,-7814.174080,3923.091493
949.147464,3478.967927,-383.047749,5699.585753
949.147793,2960.823768,5439.278036,8438.347739
949.148123,1184.329507,10572.117872,10658.965565
949.148452,-444.123565,13100.233016,12583.501014
949.148782,-3330.926739,8886.707777,15322.262999
949.149112,-5329.482782,3830.477490,17320.819043
949.149441,-7772.162391,2451.505594,15914.427753
949.149771,-8438.347739,-1455.581446,11695.253884
949.150101,-5033.400406,-8044.002729,6661.853478
949.150430,-962.267725,-10725.336972,3627.009116
949.150760,3775.050304,-9193.145976,1850.514855
949.151090,7328.038826,-5822.325785,2886.803174
949.151419,8512.368333,153.219100,6069.688724
949.151749,5995.668130,9422.974625,9474.636058
949.152079,2442.679609,11644.651570,12509.480420
949.152408,-1332.370696,10265.679673,16876.695478
949.152738,-5921.647536,9729.412825,18061.024985
949.153067,-8438.347739,5745.716235,16580.613101
949.153397,-7994.224174,689.485948,11769.274478
949.153727,-5995.668130,-4443.353888,7105.977043
949.154056,-2738.761985,-9729.412825,2738.761985
949.154386,666.185348,-12180.918418,2368.659014
949.154716,3034.844362,-7967.393179,3997.112087
949.155045,3627.009116,919.314598,6069.688724
949.155375,3108.864956,6128.763984,8364.327145
949.155705,1776.494261,10265.679673,10658.965565
949.156034,592.164754,12717.185267,11769.274478
949.156364,-2220.617826,8044.002729,15026.180623
949.156694,-4515.256246,3907.087040,17764.942608
949.157023,-8290.306550,4519.963438,16876.695478
949.157353,-8734.430116,536.266849,12731.542202
949.157683,-5699.585753,-6281.983084,7476.080014
949.158012,-666.185348,-9039.926876,2886.803174
949.158342,4589.276840,-8886.707777,444.123565
949.158671,9104.533087,-5975.544884,740.205942
949.159001,9844.739029,153.219100,4737.318029
949.159331,6809.894666,10035.851024,9400.615463
949.159660,2294.638420,12487.356617,11843.295072
949.159990,-1776.494261,11797.870669,15914.427753
949.160320,-6587.832884,10878.556072,17764.942608
949.160649,-8660.409521,5439.278036,16580.613101
949.160979,-8512.368333,-306.438199,12435.459826
949.161309,-7031.956449,-4673.182538,7698.141797
949.161638,-3256.906145,-9729.412825,3182.885551
949.161968,-296.082377,-12180.918418,2146.597232
949.162298,2220.617826,-8810.098227,3256.906145
949.162627,3552.988522,-612.876398,6069.688724
949.162957,2590.720797,4903.011187,8438.347739
949.163286,1332.370696,10035.851024,10584.944971
949.163616,370.102971,12487.356617,12509.480420
949.163946,-2368.659014,8963.317327,14952.160028
949.164275,-4811.338623,4290.134789,17394.839637
949.164605,-7920.203579,2145.067394,16950.716072
949.164935,-9400.615463,229.828649,13249.686362
949.165264,-6587.832884,-6052.154434,8586.388927
949.165594,-1628.453072,-10418.898773,4811.338623
949.165924,3552.988522,-9806.022374,1924.535449
949.166253,8216.285956,-6741.640382,1850.514855
949.166583,9548.656652,-1378.971896,4441.235652
949.166913,7328.038826,7201.297681,8290.306550
949.167242,2664.741391,11491.432470,12583.501014
949.167572,-1406.391290,11414.822920,16284.530724
949.167901,-6143.709319,10495.508323,17616.901420
949.168231,-8068.244768,5898.935335,16358.551318
949.168561,-7994.224174,-689.485948,12583.501014
949.168890,-7031.956449,-5362.668486,8068.244768
949.169220,-4071.132681,-9193.145976,3552.988522
949.169550,-1406.391290,-11874.480219,1258.350101
949.169879,1258.350101,-8656.879127,2960.823768
949.170209,3552.988522,-1225.752797,5551.544565
949.170539,3552.988522,3677.258390,8068.244768
949.170868,1776.494261,8503.660028,9844.739029
949.171198,814.226536,12257.527968,10214.842000
949.171528,-2072.576638,7201.297681,15396.283594
949.171857,-4959.379811,4749.792088,18579.169144
949.172187,-9400.615463,3983.696590,17394.839637
949.172517,-9696.697840,689.485948,12435.459826
949.172846,-5995.668130,-5439.278036,7105.977043
949.173176,0.000000,-10035.851024,3256.906145
949.173505,5107.421000,-11031.775171,1110.308913
949.173835,8512.368333,-7967.393179,1332.370696
949.174165,8734.430116,76.609550,5033.400406
949.174494,6661.853478,8886.707777,9918.759623
949.174824,2072.576638,12410.747068,12287.418637
949.175154,-1702.473667,11951.089769,15692.365970
949.175483,-5329.482782,7967.393179,17987.004391
949.175813,-7550.100608,3524.039291,18431.127956
949.176143,-8882.471304,0.000000,14804.118840
949.176472,-8734.430116,-4443.353888,10066.800811
949.176802,-5921.647536,-8886.707777,4515.256246
949.177132,-1702.473667,-10572.117872,1332.370696
949.177461,3330.926739,-9422.974625,1406.391290
949.177791,6957.935855,-3217.601092,3627.009116
949.178120,6661.853478,4213.525239,6513.812290
949.178450,3997.112087,11108.384721,9326.594869
949.178780,2220.617826,12180.918418,12657.521608
949.179109,-2072.576638,10725.336972,17024.736666
949.179439,-7105.977043,9269.755526,18357.107362
949.179769,-10436.903782,4826.401637,16358.551318
949.180098,-9252.574275,0.000000,12509.480420
949.180428,-5625.565159,-5898.935335,9104.533087
949.180758,-1110.308913,-11261.603821,4441.235652
949.181087,2812.782580,-11031.775171,592.164754
949.181417,6809.894666,-6665.030833,-0.000000
949.181747,8586.388927,612.876398,3330.926739
949.182076,8512.368333,6818.249932,7698.141797
949.182406,5033.400406,11951.089769,11547.212695
949.182735,1184.329507,13559.890315,14508.036463
949.183065,-4515.256246,11338.213370,17320.819043
949.183395,-7846.182985,6971.469032,17246.798449
949.183724,-8882.471304,2145.067394,14434.015869
949.184054,-7698.141797,-3830.477490,9030.512492
949.184384,-4737.318029,-8886.707777,3256.906145
949.184713,-666.185348,-12180.918418,888.247130
949.185043,2886.803174,-10801.946522,2368.659014
949.185373,4515.256246,-3524.039291,5255.462188
949.185702,2960.823768,3983.696590,7994.224174
949.186032,1628.453072,9959.241474,10288.862594
949.186362,740.205942,13253.452115,11917.315666
949.186691,-1776.494261,10342.289223,15174.221811
949.187021,-4737.318029,4366.744339,18135.045579
949.187351,-7846.182985,2145.067394,17838.963202
949.187680,-9178.553681,612.876398,14211.954086
949.188010,-6735.874072,-4903.011187,10140.821405
949.188339,-2664.741391,-9806.022374,5477.523971
949.188669,1702.473667,-9576.193725,2294.638420
949.188999,6809.894666,-8120.612279,666.185348
949.189328,9918.759623,-3370.820191,2886.803174
949.189658,9104.533087,6435.202183,7624.121203
949.189988,4811.338623,11491.432470,11251.130318
949.190317,1332.370696,11261.603821,15470.304188
949.190647,-4737.318029,9882.631924,17172.777854
949.190977,-8438.347739,6741.640382,18135.045579
949.191306,-9252.574275,2374.896044,15026.180623
949.191636,-8290.306550,-3447.429741,10584.944971
949.191966,-5551.544565,-9193.145976,5699.585753
949.192295,-1924.535449,-12563.966167,1554.432478
949.192625,2220.617826,-11184.994271,1406.391290
949.192954,4663.297435,-4673.182538,2738.761985
949.193284,3997.112087,2757.943793,6809.894666
949.193614,1480.411884,9039.926876,9770.718434
949.193943,370.102971,12027.699319,10658.965565
949.194273,-1258.350101,10112.460574,14285.974681
949.194603,-3849.070898,5669.106685,16876.695478
949.194932,-7624.121203,2681.334243,16950.716072
949.195262,-9474.636058,-459.657299,13545.768739
949.195592,-7698.141797,-4213.525239,9104.533087
949.195921,-3182.885551,-8886.707777,5255.462188
949.196251,1184.329507,-10035.851024,2664.741391
949.196581,5625.565159,-7354.516781,1850.514855
949.196910,8660.409521,-2757.943793,3923.091493
949.197240,8882.471304,5439.278036,7254.018232
949.197569,5329.482782,10418.898773,10066.800811
949.197899,1998.556043,11721.261119,13767.830521
949.198228,-3108.864956,9959.241474,17394.839637
949.198558,-7328.038826,6894.859482,18949.272115
949.198887,-9548.656652,3370.820191,16358.551318
949.199217,-8512.368333,-1762.019645,10955.047942
949.199546,-5773.606348,-7737.564530,6143.709319
949.199876,-1998.556043,-11644.651570,2516.700203
949.200206,1776.494261,-11031.775171,2146.597232
949.200535,4589.276840,-4979.620737,3256.906145
949.200865,4441.235652,3217.601092,6513.812290
949.201194,2886.803174,8733.488677,9548.656652
949.201524,1702.473667,12793.794817,11473.192101
949.201853,-518.144159,10648.727422,14952.160028
949.202183,-3923.091493,6894.859482,18061.024985
949.202512,-8068.244768,4903.011187,17394.839637
949.202842,-9400.615463,2068.457845,13989.892304
949.203171,-6513.812290,-3830.477490,9844.739029
949.203501,-2368.659014,-8580.269578,5551.544565
949.203830,2516.700203,-9193.145976,1702.473667
949.204160,7105.977043,-8120.612279,-0.000000
949.204489,9696.697840,-1915.238745,2442.679609
949.204819,8586.388927,6818.249932,6661.853478
949.205148,4811.338623,11797.870669,10362.883188
949.205478,1776.494261,12257.527968,13249.686362
949.205807,-3330.926739,11184.994271,15840.407159
949.206137,-7179.997637,7354.516781,16950.716072
949.206466,-9326.594869,2374.896044,14952.160028
949.206796,-8808.450710,-2451.505594,10658.965565
949.207125,-6661.853478,-7507.735880,5625.565159
949.207455,-2960.823768,-11644.651570,1924.535449
949.207785,1110.308913,-11031.775171,1850.514855
949.208114,4515.256246,-5209.449386,3775.050304
949.208444,5181.441594,2068.457845,6291.750507
949.208773,3478.967927,7890.783629,9400.615463
949.209103,2220.617826,12563.966167,11177.109724
949.209432,-222.061783,11874.480219,14582.057057
949.209762,-3775.050304,7584.345430,17616.901420
949.210091,-7254.018232,3370.820191,18653.189738
949.210421,-9178.553681,995.924147,15174.221811
949.210750,-7550.100608,-4213.525239,10288.862594
949.211080,-3849.070898,-10342.289223,6513.812290
949.211409,444.123565,-11108.384721,3701.029710
949.211739,5477.523971,-8733.488677,1850.514855
949.212068,7920.203579,-3600.648841,3552.988522
949.212398,8216.285956,4290.134789,7031.956449
949.212727,5107.421000,10418.898773,10214.842000
949.213057,2368.659014,11491.432470,13767.830521
949.213386,-2960.823768,9576.193725,16876.695478
949.213716,-7402.059420,7967.393179,18135.045579
949.214045,-8956.491898,3217.601092,16136.489536
949.214375,-8808.450710,-2068.457845,11177.109724
949.214704,-7105.977043,-7431.126331,6291.750507
949.215034,-3923.091493,-12027.699319,1998.556043
949.215363,518.144159,-11797.870669,1776.494261
949.215693,3923.091493,-6358.592633,2886.803174
949.216023,3997.112087,1378.971896,5477.523971
949.216352,3108.864956,7584.345430,8808.450710
949.216682,1924.535449,11874.480219,10658.965565
949.217011,0.000000,12640.575717,12361.439231
949.217341,-3404.947333,8656.879127,15396.283594
949.217670,-6143.709319,3524.039291,17172.777854
949.218000,-8956.491898,689.485948,15248.242405
949.218329,-9400.615463,-2987.772442,10362.883188
949.218659,-5773.606348,-8656.879127,6291.750507
949.218988,-666.185348,-10725.336972,3478.967927
949.219318,4367.215058,-8733.488677,1554.432478
949.219647,7698.141797,-5515.887586,2886.803174
949.219977,9104.533087,1685.410096,6291.750507
949.220306,6365.771101,10495.508323,9992.780217
949.220636,3849.070898,12563.966167,13619.789333
949.220965,-1406.391290,10495.508323,17172.777854
949.221295,-6069.688724,9193.145976,18209.066173
949.221624,-8068.244768,4060.306139,16284.530724
949.221954,-7328.038826,-1991.848295,12139.377449
949.222283,-5255.462188,-5975.544884,8290.306550
949.222613,-2960.823768,-10342.289223,3627.009116
949.222942,592.164754,-11338.213370,2072.576638
949.223272,4441.235652,-7201.297681,2146.597232
949.223602,5403.503377,459.657299,5033.400406
949.223931,4589.276840,6588.421283,8956.491898
949.224261,2072.576638,12257.527968,11843.295072
949.224590,-1258.350101,14249.376263,13175.665768
949.224920,-4663.297435,9193.145976,16728.654289
949.225249,-6809.894666,3753.867940,18949.272115
949.225579,-9104.533087,1762.019645,16358.551318
949.225908,-9104.533087,-3370.820191,11029.068536
949.226238,-5551.544565,-9652.803275,6809.894666
949.226567,-518.144159,-10342.289223,3256.906145
949.226897,4737.318029,-9039.926876,-0.000000
949.227226,9474.636058,-5669.106685,74.020594
949.227556,11917.315666,2374.896044,4663.297435
949.227885,8956.491898,11491.432470,9252.574275
949.228215,5329.482782,14479.204912,12065.356855
949.228544,74.020594,13023.623466,15544.324782
949.228874,-5773.606348,11951.089769,16432.571912
949.229203,-8734.430116,6818.249932,16210.510130
949.229533,-8808.450710,-919.314598,13397.727550
949.229862,-8068.244768,-5439.278036,7994.224174
949.230192,-5625.565159,-10342.289223,2590.720797
949.230521,-2368.659014,-13253.452115,1184.329507
949.230851,1998.556043,-9652.803275,3256.906145
949.231180,2886.803174,0.000000,6217.729913
949.231510,2960.823768,5592.497135,7772.162391
949.231840,1258.350101,10418.898773,10214.842000
949.232169,370.102971,13330.061665,12065.356855
949.232499,-1924.535449,10342.289223,15766.386565
949.232828,-4219.173869,4903.011187,18209.066173
949.233158,-8068.244768,3217.601092,16728.654289
949.233487,-9474.636058,0.000000,12879.583391
949.233817,-6365.771101,-6971.469032,8068.244768
949.234146,-1258.350101,-11184.994271,4737.318029
949.234476,3923.091493,-10572.117872,2220.617826
949.234805,7846.182985,-7431.126331,2072.576638
949.235135,9548.656652,-612.876398,4959.379811
949.235464,7179.997637,8273.831378,9474.636058
949.235794,3256.906145,12180.918418,13027.624579
949.236123,-222.061783,12104.308868,17098.757260
949.236453,-5255.462188,10878.556072,18431.127956
949.236782,-7846.182985,5745.716235,16654.633695
949.237112,-8216.285956,-459.657299,12435.459826
949.237441,-7105.977043,-5056.230287,7179.997637
949.237771,-4145.153275,-11108.384721,2516.700203
949.238100,-666.185348,-12563.966167,888.247130
949.238430,2220.617826,-9806.022374,2516.700203
949.238759,3627.009116,-1532.190996,5477.523971
949.239089,2590.720797,4213.525239,7254.018232
949.239419,1258.350101,9499.584175,10066.800811
949.239748,1480.411884,13253.452115,10955.047942
949.240078,-1184.329507,9806.022374,14359.995275
949.240407,-3627.009116,4060.306139,18061.024985
949.240737,-8142.265362,2604.724693,17616.901420
949.241066,-10881.027347,919.314598,13397.727550
949.241396,-7994.224174,-6511.811733,8734.430116
949.241725,-2886.803174,-10648.727422,4811.338623
949.242055,2516.700203,-10648.727422,1628.453072
949.242384,7846.182985,-9422.974625,444.123565
949.242714,10066.800811,-4060.306139,3330.926739
949.243043,8142.265362,7354.516781,7772.162391
949.243373,3627.009116,11797.870669,12287.418637
949.243702,0.000000,11951.089769,16506.592507
949.244032,-5255.462188,12027.699319,18357.107362
949.244361,-7550.100608,7124.688131,17912.983796
949.244691,-7624.121203,153.219100,14359.995275
949.245020,-6661.853478,-4673.182538,9252.574275
949.245350,-4885.359217,-9346.365076,4589.276840
949.245679,-1554.432478,-12870.404366,2072.576638
949.246009,1184.329507,-10418.898773,3182.885551
949.246338,3478.967927,-3064.381992,5847.626942
949.246668,3478.967927,3294.210641,8512.368333
949.246997,1628.453072,9576.193725,10807.006753
949.247327,1036.288319,13789.718964,10732.986159
949.247657,-740.205942,9806.022374,14211.954086
949.247986,-3775.050304,5745.716235,17542.880825
949.248316,-7920.203579,4673.182538,17690.922014
949.248645,-9918.759623,1762.019645,12953.603985
949.248975,-7846.182985,-4290.134789,8512.368333
949.249304,-3182.885551,-9729.412825,4737.318029
949.249634,2442.679609,-10801.946522,1850.514855
949.249963,7550.100608,-8350.440928,-0.000000
949.250293,9474.636058,-2374.896044,2590.720797
949.250622,8734.430116,7584.345430,6661.853478
949.250952,4663.297435,12870.404366,10436.903782
949.251281,1332.370696,12793.794817,14211.954086
949.251611,-4071.132681,11951.089769,17320.819043
949.251940,-7402.059420,8733.488677,17912.983796
949.252270,-8586.388927,3677.258390,14434.015869
949.252599,-7550.100608,-2528.115143,9770.718434
949.252929,-5107.421000,-8350.440928,4885.359217
949.253258,-1998.556043,-12410.747068,1036.288319
949.253588,1036.288319,-11108.384721,1036.288319
949.253917,4367.215058,-3753.867940,3923.091493
949.254247,3997.112087,2604.724693,7105.977043
949.254576,2072.576638,8503.660028,10658.965565
949.254906,296.082377,12640.575717,11695.253884
949.255236,-2220.617826,11338.213370,14434.015869
949.255565,-4589.276840,7507.735880,17690.922014
949.255895,-7476.080014,4596.572988,18061.024985
949.256224,-8438.347739,842.705048,14211.954086
949.256554,-6291.750507,-4903.011187,9178.553681
949.256883,-2072.576638,-9806.022374,4959.379811
949.257213,2812.782580,-10495.508323,2294.638420
949.257542,7254.018232,-8427.050478,1924.535449
949.257872,8512.368333,-2451.505594,4663.297435
949.258201,7179.997637,5515.887586,8512.368333
949.258531,3627.009116,10189.070123,12583.501014
949.258860,740.205942,11797.870669,16580.613101
949.259190,-5181.441594,11951.089769,18357.107362
949.259519,-8290.306550,7431.126331,17838.963202
949.259849,-8512.368333,1838.629195,13545.768739
949.260178,-6661.853478,-3677.258390,7994.224174
949.260508,-3701.029710,-8733.488677,2294.638420
949.260837,-888.247130,-12334.137518,-148.041188
949.261167,1998.556043,-10725.336972,1258.350101
949.261496,4219.173869,-4136.915689,4811.338623
949.261826,2886.803174,2681.334243,7476.080014
949.262155,1406.391290,9116.536426,10214.842000
949.262485,370.102971,13100.233016,11177.109724
949.262815,-1702.473667,10648.727422,13915.871710
949.263144,-4441.235652,4596.572988,17690.922014
949.263474,-7772.162391,1915.238745,17912.983796
949.263803,-10955.047942,1762.019645,14582.057057
949.264133,-8734.430116,-3677.258390,9474.636058
949.264462,-4219.173869,-9499.584175,5107.421000
949.264792,1184.329507,-10572.117872,2072.576638
949.265121,6735.874072,-10189.070123,-962.267725
949.265451,9548.656652,-5515.887586,2294.638420
949.265780,9178.553681,4749.792088,6957.935855
949.266110,4885.359217,11951.089769,12065.356855
949.266439,1110.308913,11874.480219,16506.592507
949.266769,-5255.462188,11338.213370,18061.024985
949.267098,-8586.388927,8044.002729,18505.148550
949.267428,-8364.327145,1915.238745,16062.468941
949.267757,-6957.935855,-2298.286494,10510.924376
949.268087,-4811.338623,-7507.735880,4589.276840
949.268416,-2072.576638,-13330.061665,-0.000000
949.268746,962.267725,-12793.794817,1258.350101
949.269075,3256.906145,-5286.058936,5477.523971
949.269405,2516.700203,2604.724693,8882.471304
949.269734,962.267725,9193.145976,11325.150913
949.270064,444.123565,13483.280765,11547.212695
949.270393,74.020594,10725.336972,13175.665768
949.270723,-1850.514855,3370.820191,17542.880825
949.271053,-5625.565159,3677.258390,18283.086767
949.271382,-9918.759623,3064.381992,15174.221811
949.271712,-8438.347739,-1302.362347,10214.842000
949.272041,-3997.112087,-7201.297681,6069.688724
949.272371,1776.494261,-9806.022374,2294.638420
949.272700,7550.100608,-8656.879127,-962.267725
949.273030,10881.027347,-4596.572988,-370.102971
949.273359,12065.356855,5286.058936,4959.379811
949.273689,6439.791695,12027.699319,10658.965565
949.274018,1554.432478,12257.527968,14359.995275
949.274348,-5329.482782,13100.233016,17246.798449
949.274677,-9548.656652,10265.679673,18357.107362
949.275007,-9548.656652,4213.525239,16876.695478
949.275336,-7994.224174,-1915.238745,12287.418637
949.275666,-5921.647536,-7277.907231,5699.585753
949.275995,-2960.823768,-11951.089769,-74.020594
949.276325,962.267725,-12717.185267,-962.267725
949.276654,4515.256246,-5362.668486,2368.659014
949.276984,4885.359217,1532.190996,6661.853478
949.277313,2738.761985,8273.831378,10658.965565
949.277643,444.123565,14096.157163,11029.068536
949.277972,-592.164754,12180.918418,13915.871710
949.278302,-3775.050304,7584.345430,17838.963202
949.278632,-7105.977043,5362.668486,19171.333898
949.278961,-9474.636058,1455.581446,15470.304188
949.279291,-6735.874072,-3294.210641,9918.759623
949.279620,-3034.844362,-8810.098227,5477.523971
949.279950,1480.411884,-10495.508323,2664.741391
949.280279,5551.544565,-9346.365076,1480.411884
949.280609,7920.203579,-3753.867940,3478.967927
949.280938,8216.285956,5056.230287,7698.141797
949.281268,5773.606348,10725.336972,10955.047942
949.281597,2146.597232,11184.994271,13619.789333
949.281927,-3478.967927,10265.679673,16358.551318
949.282256,-7698.141797,7277.907231,18061.024985
949.282586,-8364.327145,3294.210641,16432.571912
949.282915,-8660.409521,-1072.533697,11843.295072
949.283245,-6957.935855,-7124.688131,6291.750507
949.283574,-4293.194464,-11414.822920,1702.473667
949.283904,0.000000,-12717.185267,888.247130
949.284233,5625.565159,-7354.516781,1110.308913
949.284563,5773.606348,0.000000,5699.585753
949.284892,3849.070898,6971.469032,9252.574275
949.285222,1332.370696,12487.356617,10214.842000
949.285551,-222.061783,12180.918418,13619.789333
949.285881,-3997.112087,7354.516781,18653.189738
949.286210,-7698.141797,5822.325785,19245.354492
949.286540,-9696.697840,2068.457845,15470.304188
949.286870,-7476.080014,-3830.477490,10584.944971
949.287199,-3108.864956,-10035.851024,6217.729913
949.287529,666.185348,-10878.556072,1850.514855
949.287858,5329.482782,-9959.241474,-518.144159
949.288188,8216.285956,-5362.668486,1924.535449
949.288517,8438.347739,3907.087040,6587.832884
949.288847,5477.523971,11031.775171,10584.944971
949.289176,2072.576638,12487.356617,12139.377449
949.289506,-2516.700203,10648.727422,15174.221811
949.289835,-6587.832884,7354.516781,18431.127956
949.290165,-8660.409521,3600.648841,17690.922014
949.290494,-9992.780217,-1149.143247,12805.562797
949.290824,-8660.409521,-6741.640382,7254.018232
949.291153,-5329.482782,-10418.898773,2664.741391
949.291483,-296.082377,-12487.356617,1924.535449
949.291812,4959.379811,-9346.365076,3256.906145
949.292142,6143.709319,-612.876398,5181.441594
949.292471,4367.215058,7890.783629,8660.409521
949.292801,2220.617826,12487.356617,10955.047942
949.293130,740.205942,13023.623466,13175.665768
949.293460,-2886.803174,8886.707777,18061.024985
949.293789,-6365.771101,4749.792088,19763.498651
949.294119,-9326.594869,3294.210641,16432.571912
949.294449,-8956.491898,-1302.362347,11399.171507
949.294778,-5181.441594,-8580.269578,7254.018232
949.295108,-444.123565,-11414.822920,2812.782580
949.295437,4367.215058,-10035.851024,-74.020594
949.295767,8734.430116,-6588.421283,-148.041188
949.296096,10066.800811,2604.724693,5329.482782
949.296426,6365.771101,12104.308868,9400.615463
949.296755,3330.926739,12870.404366,12361.439231
949.297085,-1480.411884,11797.870669,15840.407159
949.297414,-6661.853478,11031.775171,17024.736666
949.297744,-8586.388927,5439.278036,16654.633695
949.298073,-8438.347739,-919.314598,12879.583391
949.298403,-7550.100608,-5132.839837,7624.121203
949.298733,-4663.297435,-10495.508323,1998.556043
949.299062,-296.082377,-12563.966167,370.102971
949.299392,4367.215058,-8810.098227,2220.617826
949.299721,4811.338623,-229.828649,5921.647536
949.300051,3627.009116,6588.421283,8586.388927
949.300380,1332.370696,12640.575717,10658.965565
949.300710,814.226536,13406.671215,12287.418637
949.301039,-1776.494261,8733.488677,16876.695478
949.301369,-4885.359217,5822.325785,19467.416275
949.301699,-9178.553681,2834.553343,16580.613101
949.302028,-8734.430116,-2221.676944,11695.253884
949.302358,-5329.482782,-7201.297681,6513.812290
949.302687,-740.205942,-10342.289223,3330.926739
949.303017,4589.276840,-10495.508323,1554.432478
949.303346,8142.265362,-6128.763984,1258.350101
949.303676,8808.450710,2298.286494,5847.626942
949.304005,6513.812290,9652.803275,10288.862594
949.304335,3256.906145,12334.137518,14508.036463
949.304665,-2072.576638,12563.966167,17246.798449
949.304994,-7772.162391,9806.022374,18653.189738
949.305324,-8956.491898,4290.134789,16802.674883
949.305653,-8660.409521,-383.047749,11843.295072
949.305983,-7031.956449,-6818.249932,6365.771101
949.306312,-4071.132681,-12104.308868,888.247130
949.306642,-296.082377,-12640.575717,-296.082377
949.306971,3923.091493,-8350.440928,1554.432478
949.307301,5625.565159,-1762.019645,4811.338623
949.307631,3701.029710,6205.373534,9696.697840
949.307960,1406.391290,12487.356617,11177.109724
949.308290,1406.391290,14325.985813,12139.377449
949.308619,-1258.350101,9269.755526,16432.571912
949.308949,-4145.153275,4213.525239,20133.601622
949.309278,-8290.306550,1762.019645,17912.983796
949.309608,-9474.636058,-1378.971896,12583.501014
949.309937,-6217.729913,-7507.735880,8216.285956
949.310267,-1924.535449,-11338.213370,4737.318029
949.310597,2442.679609,-10035.851024,666.185348
949.310926,7402.059420,-8427.050478,-0.000000
949.311256,11029.068536,-1838.629195,3627.009116
949.311585,10066.800811,8733.488677,9400.615463
949.311915,4515.256246,12257.527968,13027.624579
949.312244,-740.205942,12563.966167,14804.118840
949.312574,-7254.018232,11644.651570,16136.489536
949.312903,-8438.347739,6511.811733,16802.674883
949.313233,-8808.450710,0.000000,13693.809927
949.313563,-8734.430116,-5669.106685,8660.409521
949.313892,-6661.853478,-11721.261119,3849.070898
949.314222,-3849.070898,-13942.938064,1924.535449
949.314551,222.061783,-10801.946522,3627.009116
949.314881,2960.823768,-3217.601092,6513.812290
949.315210,4589.276840,2987.772442,9030.512492
949.315540,2886.803174,10648.727422,10214.842000
949.315869,3478.967927,11644.651570,12435.459826
949.316199,814.226536,8503.660028,17542.880825
949.316529,-3701.029710,8580.269578,18875.251521
949.316858,-8438.347739,5669.106685,16432.571912
949.317188,-7920.203579,766.095498,12213.398043
949.317517,-5033.400406,-4749.792088,8142.265362
949.317847,-1258.350101,-10495.508323,2812.782580
949.318176,3478.967927,-12640.575717,-814.226536
949.318506,7846.182985,-9806.022374,-666.185348
949.318836,9474.636058,0.000000,5181.441594
949.319165,6587.832884,8273.831378,10510.924376
949.319495,1628.453072,13713.109414,12065.356855
949.319824,-2294.638420,14938.862211,14211.954086
949.320154,-6143.709319,10418.898773,17098.757260
949.320483,-7402.059420,6665.030833,18875.251521
949.320813,-8956.491898,1838.629195,15544.324782
949.321142,-9252.574275,-3983.696590,9104.533087
949.321472,-7772.162391,-8963.317327,2590.720797
949.321802,-3775.050304,-12104.308868,-222.061783
949.322131,2294.638420,-11491.432470,1480.411884
949.322461,5995.668130,-4826.401637,4959.379811
949.322790,4885.359217,4290.134789,6957.935855
949.323120,3182.885551,11874.480219,9474.636058
949.323449,2960.823768,13559.890315,10807.006753
949.323779,1184.329507,12104.308868,14952.160028
949.324108,-2516.700203,7814.174080,19393.395680
949.324438,-6587.832884,5362.668486,18579.169144
949.324768,-8216.285956,2298.286494,13693.809927
949.325097,-5847.626942,-4366.744339,9178.553681
949.325427,-2738.761985,-10112.460574,5329.482782
949.325756,1480.411884,-11031.775171,2294.638420
949.326086,6069.688724,-9346.365076,740.205942
949.326415,9326.594869,-1991.848295,2664.741391
949.326745,7994.224174,6588.421283,7846.182985
949.327074,3997.112087,10725.336972,12139.377449
949.327404,74.020594,11874.480219,15470.304188
949.327734,-5625.565159,12870.404366,17098.757260
949.328063,-7624.121203,9806.022374,17320.819043
949.328393,-7846.182985,2298.286494,14359.995275
949.328722,-7550.100608,-4290.134789,9104.533087
949.329052,-5625.565159,-10112.460574,3182.885551
949.329381,-1998.556043,-13406.671215,-0.000000
949.329711,1850.514855,-11414.822920,1110.308913
949.330040,4737.318029,-4979.620737,4959.379811
949.330370,3330.926739,1762.019645,8660.409521
949.330700,1554.432478,8044.002729,9992.780217
949.331029,2442.679609,12563.966167,12139.377449
949.331359,1480.411884,9882.631924,16432.571912
949.331688,-2738.761985,7277.907231,20059.581028
949.332018,-7328.038826,5515.887586,17987.004391
949.332347,-8364.327145,306.438199,13471.748144
949.332677,-5255.462188,-4519.963438,8882.471304
949.333006,-2072.576638,-9422.974625,4441.235652
949.333336,1554.432478,-11491.432470,370.102971
949.333666,5625.565159,-11338.213370,-74.020594
949.333995,7846.182985,-4366.744339,3182.885551
949.334325,6957.935855,6818.249932,9474.636058
949.334654,3256.906145,10648.727422,11399.171507
949.334984,296.082377,11721.261119,13545.768739
949.335313,-4737.318029,10189.070123,16432.571912
949.335643,-7994.224174,7048.078582,18727.210333
949.335972,-8956.491898,2604.724693,16506.592507
949.336302,-9104.533087,-1838.629195,10140.821405
949.336632,-7994.224174,-7048.078582,4219.173869
949.336961,-4145.153275,-13023.623466,740.205942
949.337291,814.226536,-14479.204912,2072.576638
949.337620,4293.194464,-7431.126331,5033.400406
949.337950,2590.720797,2451.505594,7031.956449
949.338279,1850.514855,9576.193725,9252.574275
949.338609,2294.638420,13176.842566,11991.336260
949.338938,1184.329507,12793.794817,13175.665768
949.339268,-1998.556043,8810.098227,15840.407159
949.339598,-4737.318029,2911.162892,17098.757260
949.339927,-8364.327145,2374.896044,15396.283594
949.340257,-8512.368333,-1072.533697,11251.130318
949.340586,-5699.585753,-9193.145976,6809.894666
949.340916,-1110.308913,-10955.165621,2812.782580
949.341245,4145.153275,-9652.803275,740.205942
949.341575,8216.285956,-5669.106685,1850.514855
949.341904,9548.656652,2451.505594,5625.565159
949.342234,5921.647536,10801.946522,10510.924376
949.342564,2146.597232,12104.308868,13915.871710
949.342893,-3256.906145,12257.527968,17616.901420
949.343223,-7328.038826,12027.699319,17690.922014
949.343552,-7476.080014,5669.106685,15544.324782
949.343882,-6661.853478,-1762.019645,10658.965565
949.344211,-5403.503377,-5592.497135,4959.379811
949.344541,-2442.679609,-11797.870669,1184.329507
949.344870,1036.288319,-12563.966167,1184.329507
949.345200,3627.009116,-6588.421283,4071.132681
949.345530,3330.926739,1455.581446,6809.894666
949.345859,2738.761985,6818.249932,8660.409521
949.346189,2146.597232,11951.089769,10362.883188
949.346518,1554.432478,12104.308868,13249.686362
949.346848,-1480.411884,7277.907231,18431.127956
949.347177,-5477.523971,5822.325785,19319.375086
949.347507,-9548.656652,3370.820191,15914.427753
949.347836,-8734.430116,-1915.238745,11103.089130
949.348166,-4663.297435,-7584.345430,6661.853478
949.348496,814.226536,-10495.508323,2442.679609
949.348825,5773.606348,-10955.165621,-0.000000
949.349155,9474.636058,-6281.983084,740.205942
949.349484,9696.697840,3140.991542,5551.544565
949.349814,6661.853478,9422.974625,10732.986159
949.350143,2590.720797,10955.165621,13693.809927
949.350473,-3182.885551,12487.356617,16432.571912
949.350802,-7105.977043,10342.289223,17987.004391
949.351132,-7550.100608,4826.401637,17024.736666
949.351462,-7476.080014,-689.485948,12139.377449
949.351791,-6291.750507,-5898.935335,6143.709319
949.352121,-3330.926739,-11797.870669,962.267725
949.352450,-518.144159,-12487.356617,814.226536
949.352780,2220.617826,-8197.221829,4071.132681
949.353109,2294.638420,-459.657299,7179.997637
949.353439,740.205942,6052.154434,9622.677246
949.353768,518.144159,11568.042020,10807.006753
949.354098,444.123565,11108.384721,13027.624579
949.354428,-1998.556043,5515.887586,17246.798449
949.354757,-5847.626942,3524.039291,19171.333898
949.355087,-9622.677246,2604.724693,15988.448347
949.355416,-8438.347739,-229.828649,11029.068536
949.355746,-4663.297435,-7048.078582,6661.853478
949.356075,1332.370696,-10572.117872,3404.947333
949.356405,6217.729913,-10342.289223,740.205942
949.356734,9844.739029,-7124.688131,740.205942
949.357064,10362.883188,2221.676944,5551.544565
949.357394,6069.688724,10878.556072,10214.842000
949.357723,1628.453072,12104.308868,13249.686362
949.358053,-4219.173869,11797.870669,16136.489536
949.358382,-8586.388927,9499.584175,17838.963202
949.358712,-9326.594869,4060.306139,17320.819043
949.359041,-8882.471304,-1302.362347,12879.583391
949.359371,-8068.244768,-6435.202183,7328.038826
949.359700,-5477.523971,-11797.870669,2368.659014
949.360030,-1184.329507,-13253.452115,592.164754
949.360360,3256.906145,-8733.488677,2442.679609
949.360689,5033.400406,-536.266849,4959.379811
949.361019,4663.297435,6128.763984,8142.265362
949.361348,2146.597232,12640.575717,9992.780217
949.361678,1850.514855,12257.527968,13027.624579
949.362007,-1184.329507,8427.050478,17838.963202
949.362337,-5255.462188,7584.345430,19245.354492
949.362666,-9474.636058,3294.210641,15914.427753
949.362996,-7624.121203,-1762.019645,11621.233289
949.363326,-3775.050304,-6894.859482,7105.977043
949.363655,1332.370696,-10725.336972,3478.967927
949.363985,5033.400406,-10418.898773,1184.329507
949.364314,8142.265362,-6358.592633,592.164754
949.364644,8290.306550,2681.334243,6069.688724
949.364973,5921.647536,9499.584175,10658.965565
949.365303,2812.782580,12104.308868,13175.665768
949.365633,-2368.659014,12104.308868,16136.489536
949.365962,-7105.977043,9116.536426,17468.860231
949.366292,-8808.450710,4903.011187,17394.839637
949.366621,-9252.574275,306.438199,13471.748144
949.366951,-8290.306550,-4673.182538,7772.162391
949.367280,-4885.359217,-10648.727422,2072.576638
949.367610,-148.041188,-13023.623466,-74.020594
949.367939,4737.318029,-10035.851024,1850.514855
949.368269,5921.647536,-1838.629195,4663.297435
949.368599,4737.318029,6281.983084,7772.162391
949.368928,2442.679609,12180.918418,11103.089130
949.369258,1332.370696,14096.157163,12213.398043
949.369587,-1554.432478,11414.822920,16654.633695
949.369917,-4737.318029,6435.202183,18949.272115
949.370246,-8142.265362,2911.162892,17542.880825
949.370576,-8808.450710,-383.047749,12657.521608
949.370905,-6217.729913,-6511.811733,7698.141797
949.371235,-1850.514855,-10418.898773,4071.132681
949.371565,2812.782580,-11031.775171,1776.494261
949.371894,6957.935855,-7048.078582,-0.000000
949.372224,8734.430116,-536.266849,4367.215058
949.372553,7179.997637,8503.660028,8068.244768
949.372883,3923.091493,12257.527968,11251.130318
949.373212,-296.082377,11261.603821,15100.201217
949.373542,-6365.771101,10648.727422,17172.777854
949.373871,-8882.471304,6894.859482,17764.942608
949.374201,-8808.450710,1072.533697,14508.036463
949.374531,-7846.182985,-4213.525239,8586.388927
949.374860,-4737.318029,-10495.508323,3404.947333
949.375190,-370.102971,-13330.061665,1480.411884
949.375519,3404.947333,-10725.336972,2738.761985
949.375849,4663.297435,-1762.019645,4959.379811
949.376178,3256.906145,4290.134789,7994.224174
949.376508,2294.638420,10495.508323,10881.027347
949.376837,592.164754,13713.109414,12435.459826
949.377167,-2072.576638,10495.508323,15988.448347
949.377497,-4663.297435,5439.278036,18949.272115
949.377826,-7920.203579,3140.991542,17246.798449
949.378156,-9104.533087,0.000000,12139.377449
949.378485,-5847.626942,-6665.030833,7550.100608
949.378815,-1332.370696,-11108.384721,3701.029710
949.379144,3552.988522,-11108.384721,1110.308913
949.379474,7402.059420,-8580.269578,1036.288319
949.379803,9400.615463,-1072.533697,4219.173869
949.380133,7772.162391,8427.050478,9030.512492
949.380463,4071.132681,11261.603821,12657.521608
949.380792,0.000000,11338.213370,15766.386565
949.381122,-5995.668130,11491.432470,17468.860231
949.381451,-8216.285956,6435.202183,18135.045579
949.381781,-9030.512492,1378.971896,14434.015869
949.382110,-8364.327145,-3064.381992,8808.450710
949.382440,-5255.462188,-9422.974625,3627.009116
949.382769,-592.164754,-13176.842566,1480.411884
949.383099,2516.700203,-11031.775171,2072.576638
949.383429,3849.070898,-2528.115143,3775.050304
949.383758,2738.761985,3524.039291,7105.977043
949.384088,1702.473667,9499.584175,9548.656652
949.384417,888.247130,13253.452115,11029.068536
949.384747,-1184.329507,10572.117872,14878.139434
949.385076,-4367.215058,5439.278036,17838.963202
949.385406,-7994.224174,2911.162892,17542.880825
949.385735,-10732.986159,612.876398,13545.768739
949.386065,-7994.224174,-4519.963438,8586.388927
949.386395,-2664.741391,-10112.460574,5033.400406
949.386724,3256.906145,-10572.117872,2294.638420
949.387054,7698.141797,-7967.393179,592.164754
949.387383,9548.656652,-2451.505594,3701.029710
949.387713,8660.409521,7201.297681,7994.224174
949.388042,3775.050304,13253.452115,12287.418637
949.388372,0.000000,12334.137518,15988.448347
949.388701,-5403.503377,11874.480219,17838.963202
949.389031,-8808.450710,7124.688131,17987.004391
949.389361,-9326.594869,1072.533697,14285.974681
949.389690,-8142.265362,-3983.696590,8956.491898
949.390020,-5773.606348,-9039.926876,3627.009116
949.390349,-1110.308913,-12563.966167,962.267725
949.390679,2072.576638,-12104.308868,2368.659014
949.391008,3775.050304,-3524.039291,3552.988522
949.391338,3034.844362,3677.258390,7476.080014
949.391667,2442.679609,9499.584175,10288.862594
949.391997,2294.638420,14096.157163,11325.150913
949.392327,-444.123565,10418.898773,15692.365970
949.392656,-3849.070898,5822.325785,19319.375086
949.392986,-8438.347739,4290.134789,18579.169144
949.393315,-10732.986159,1685.410096,14063.912898
949.393645,-6883.915261,-4443.353888,9548.656652
949.393974,-1480.411884,-9806.022374,5403.503377
949.394304,3775.050304,-10648.727422,592.164754
949.394633,8438.347739,-10189.070123,-1406.391290
949.394963,10881.027347,-2834.553343,2220.617826
949.395293,9770.718434,8044.002729,7254.018232
949.395622,5477.523971,12563.966167,12435.459826
949.395952,1110.308913,13406.671215,14730.098246
949.396281,-5033.400406,12793.794817,16728.654289
949.396611,-7920.203579,7584.345430,17616.901420
949.396940,-8586.388927,1149.143247,15618.345376
949.397270,-8068.244768,-3217.601092,9992.780217
949.397599,-6069.688724,-9576.193725,3552.988522
949.397929,-2516.700203,-13406.671215,148.041188
949.398259,740.205942,-12257.527968,1850.514855
949.398588,3997.112087,-4596.572988,4737.318029
949.398918,2590.720797,2911.162892,8882.471304
949.399247,1850.514855,10112.460574,9992.780217
949.399577,2072.576638,13866.328514,10955.047942
949.399906,222.061783,10342.289223,14582.057057
949.400236,-3256.906145,5286.058936,18727.210333
949.400565,-7698.141797,3830.477490,18653.189738
949.400895,-10436.903782,1762.019645,13693.809927
949.401224,-7550.100608,-3447.429741,9548.656652
949.401554,-3034.844362,-9806.022374,5773.606348
949.401883,2368.659014,-11721.261119,2072.576638
949.402213,7105.977043,-10418.898773,-0.000000
949.402542,10066.800811,-4213.525239,1258.350101
949.402872,8956.491898,7354.516781,7476.080014
949.403202,4515.256246,13023.623466,11399.171507
949.403531,814.226536,14096.157163,14656.077652
949.403861,-4367.215058,12104.308868,17098.757260
949.404190,-7846.182985,7277.907231,18727.210333
949.404520,-8882.471304,1838.629195,16358.551318
949.404849,-9326.594869,-3217.601092,11177.109724
949.405179,-8068.244768,-9193.145976,5921.647536
949.405508,-4071.132681,-13330.061665,1998.556043
949.405838,74.020594,-12870.404366,888.247130
949.406167,4737.318029,-6818.249932,2220.617826
949.406497,5107.421000,612.876398,6735.874072
949.406826,4071.132681,9039.926876,9178.553681
949.407156,3034.844362,13483.280765,11251.130318
949.407485,1110.308913,11491.432470,14952.160028
949.407815,-3034.844362,9346.365076,18653.189738
949.408144,-7105.977043,6741.640382,17616.901420
949.408474,-8882.471304,842.705048,14137.933492
949.408804,-6439.791695,-4519.963438,9622.677246
949.409133,-3552.988522,-9652.803275,5107.421000
949.409463,740.205942,-12027.699319,2072.576638
949.409792,4885.359217,-11261.603821,592.164754
949.410122,6809.894666,-3140.991542,3701.029710
949.410451,7328.038826,4903.011187,7846.182985
949.410781,4441.235652,10572.117872,11251.130318
949.411110,2072.576638,12793.794817,12657.521608
949.411440,-2220.617826,10955.165621,16062.468941
949.411769,-5477.523971,8427.050478,18061.024985
949.412099,-8364.327145,3830.477490,16284.530724
949.412428,-9104.533087,-1608.800546,11103.089130
949.412758,-7550.100608,-6971.469032,5551.544565
949.413087,-4219.173869,-11644.651570,1924.535449
949.413417,370.102971,-13330.061665,2294.638420
949.413746,4589.276840,-8580.269578,2960.823768
949.414076,4145.153275,383.047749,7328.038826
949.414406,2368.659014,8197.221829,9770.718434
949.414735,2072.576638,12793.794817,11843.295072
949.415065,1036.288319,12487.356617,15100.201217
949.415394,-2960.823768,8886.707777,17912.983796
949.415724,-6809.894666,5592.497135,18653.189738
949.416053,-9252.574275,2987.772442,14582.057057
949.416383,-7254.018232,-1915.238745,10362.883188
949.416712,-3330.926739,-8503.660028,6217.729913
949.417042,444.123565,-11721.261119,2146.597232
949.417371,4737.318029,-11031.775171,-222.061783
949.417701,7772.162391,-5975.544884,1702.473667
949.418030,8068.244768,3907.087040,6143.709319
949.418360,5107.421000,11951.089769,10436.903782
949.418689,2664.741391,12870.404366,12287.418637
949.419019,-1998.556043,11261.603821,15396.283594
949.419349,-6069.688724,9806.022374,17468.860231
949.419678,-7920.203579,5056.230287,16580.613101
949.420008,-8808.450710,-842.705048,12139.377449
949.420337,-7772.162391,-4979.620737,6957.935855
949.420667,-4737.318029,-10342.289223,2812.782580
949.420996,-222.061783,-12640.575717,962.267725
949.421326,3849.070898,-9039.926876,2368.659014
949.421655,4959.379811,-689.485948,5107.421000
949.421985,3849.070898,6894.859482,9474.636058
949.422314,2294.638420,12104.308868,10807.006753
949.422644,888.247130,12410.747068,14434.015869
949.422973,-2590.720797,9652.803275,17912.983796
949.423303,-6365.771101,7048.078582,18505.148550
949.423632,-7476.080014,2451.505594,14730.098246
949.423962,-5181.441594,-2987.772442,9844.739029
949.424291,-3034.844362,-8886.707777,6217.729913
949.424621,222.061783,-11414.822920,2664.741391
949.424951,3627.009116,-10648.727422,1776.494261
949.425280,7179.997637,-5132.839837,2146.597232
949.425610,8142.265362,3753.867940,7254.018232
949.425939,5847.626942,9039.926876,10510.924376
949.426269,3775.050304,10955.165621,12805.562797
949.426598,-1480.411884,11108.384721,15544.324782
949.426928,-6513.812290,9576.193725,17838.963202
949.427257,-8808.450710,5132.839837,17172.777854
949.427587,-8660.409521,229.828649,12953.603985
949.427916,-7698.141797,-6128.763984,7179.997637
949.428246,-4959.379811,-11644.651570,2146.597232
949.428575,-962.267725,-14019.547613,1184.329507
949.428905,2738.761985,-10189.070123,3330.926739
949.429234,3552.988522,-919.314598,6143.709319
949.429564,2590.720797,5975.544884,8734.430116
949.429893,1554.432478,11108.384721,11621.233289
949.430223,962.267725,12180.918418,13545.768739
949.430553,-2294.638420,9346.365076,16580.613101
949.430882,-5107.421000,6435.202183,17394.839637
949.431212,-8216.285956,2987.772442,15248.242405
949.431541,-7328.038826,-1149.143247,11325.150913
949.431871,-5107.421000,-7201.297681,7105.977043
949.432200,-1702.473667,-11031.775171,2664.741391
949.432530,2886.803174,-11797.870669,222.061783
949.432859,7476.080014,-7431.126331,814.226536
949.433189,8512.368333,1149.143247,6513.812290
949.433518,5921.647536,10035.851024,10436.903782
949.433848,3404.947333,12257.527968,11695.253884
949.434177,-1036.288319,10878.556072,15248.242405
949.434507,-6365.771101,10725.336972,17172.777854
949.434836,-9252.574275,6588.421283,17468.860231
949.435166,-8808.450710,76.609550,13693.809927
949.435495,-7994.224174,-4826.401637,7698.141797
949.435825,-5773.606348,-10572.117872,2960.823768
949.436155,-1110.308913,-13100.233016,1184.329507
949.436484,3256.906145,-11261.603821,2294.638420
949.436814,3775.050304,-1762.019645,5477.523971
949.437143,3256.906145,6052.154434,8364.327145
949.437473,2368.659014,10878.556072,11547.212695
949.437802,2368.659014,12487.356617,14211.954086
949.438132,-1184.329507,9959.241474,17838.963202
949.438461,-4589.276840,8044.002729,18653.189738
949.438791,-7179.997637,4519.963438,15322.262999
949.439120,-5773.606348,-459.657299,11473.192101
949.439450,-3627.009116,-5439.278036,8068.244768
949.439779,-814.226536,-10035.851024,3034.844362
949.440109,3182.885551,-10495.508323,-148.041188
949.440438,7846.182985,-7660.954980,592.164754
949.440768,9918.759623,919.314598,5551.544565
949.441098,6957.935855,9576.193725,10584.944971
949.441427,3330.926739,12027.699319,12139.377449
949.441757,-444.123565,11797.870669,14730.098246
949.442086,-5995.668130,11338.213370,16728.654289
949.442416,-8734.430116,7507.735880,17912.983796
949.442745,-8512.368333,536.266849,14434.015869
949.443075,-7254.018232,-4749.792088,8216.285956
949.443404,-5847.626942,-9346.365076,1184.329507
949.443734,-1776.494261,-13330.061665,-148.041188
949.444063,2294.638420,-12180.918418,2220.617826
949.444393,3478.967927,-2145.067394,6365.771101
949.444722,2220.617826,5669.106685,8068.244768
949.445052,2886.803174,9959.241474,9992.780217
949.445381,2738.761985,11031.775171,12361.439231
949.445711,-444.123565,9193.145976,16506.592507
949.446040,-3849.070898,7354.516781,19393.395680
949.446370,-6661.853478,5056.230287,17542.880825
949.446700,-6365.771101,1302.362347,13027.624579
949.447029,-4515.256246,-5132.839837,7476.080014
949.447359,-1850.514855,-10265.679673,3034.844362
949.447688,2738.761985,-11721.261119,666.185348
949.448018,6735.874072,-9039.926876,1628.453072
949.448347,7402.059420,-383.047749,5403.503377
949.448677,4145.153275,8427.050478,10436.903782
949.449006,1332.370696,11338.213370,12139.377449
949.449336,-1406.391290,10418.898773,14434.015869
949.449665,-5551.544565,9039.926876,16802.674883
949.449995,-8290.306550,5592.497135,17246.798449
949.450324,-8956.491898,842.705048,14804.118840
949.450654,-8882.471304,-3830.477490,9474.636058
949.450983,-7476.080014,-8656.879127,4663.297435
949.451313,-2590.720797,-11951.089769,1850.514855
949.451642,2664.741391,-11644.651570,1924.535449
949.451972,5921.647536,-4903.011187,3330.926739
949.452302,4885.359217,3447.429741,6957.935855
949.452631,3701.029710,9346.365076,9326.594869
949.452961,3256.906145,11644.651570,11991.336260
949.453290,-518.144159,11721.261119,15618.345376
949.453620,-4589.276840,9346.365076,18875.251521
949.453949,-7402.059420,5209.449386,18357.107362
949.454279,-8734.430116,459.657299,13619.789333
949.454608,-6587.832884,-5209.449386,8660.409521
949.454938,-3701.029710,-11031.775171,4737.318029
949.455267,962.267725,-12257.527968,2368.659014
949.455597,4737.318029,-9116.536426,666.185348
949.455926,6957.935855,-2604.724693,3330.926739
949.456256,6735.874072,5745.716235,7254.018232
949.456585,4737.318029,11644.651570,10288.862594
949.456915,2294.638420,11874.480219,13767.830521
949.457244,-3182.885551,10725.336972,15840.407159
949.457574,-6513.812290,8580.269578,17616.901420
949.457904,-7994.224174,2757.943793,15914.427753
949.458233,-8068.244768,-2528.115143,11547.212695
949.458563,-6809.894666,-6894.859482,6291.750507
949.458892,-3034.844362,-10955.165621,2146.597232
949.459222,2072.576638,-12563.966167,1702.473667
949.459551,5181.441594,-6665.030833,3627.009116
949.459881,4959.379811,1685.410096,6883.915261
949.460210,2812.782580,7814.174080,10362.883188
949.460540,1258.350101,12410.747068,11769.274478
949.460869,-2220.617826,10878.556072,15692.365970
949.461199,-6217.729913,9729.412825,18505.148550
949.461528,-8956.491898,6741.640382,18061.024985
949.461858,-8808.450710,1072.533697,13693.809927
949.462187,-6587.832884,-3983.696590,8142.265362
949.462517,-3478.967927,-9422.974625,3108.864956
949.462846,814.226536,-12257.527968,740.205942
949.463176,4589.276840,-10418.898773,1628.453072
949.463506,5551.544565,-1072.533697,4515.256246
949.463835,4589.276840,7277.907231,7550.100608
949.464165,3034.844362,10878.556072,10584.944971
949.464494,518.144159,12257.527968,12583.501014
949.464824,-4071.132681,11721.261119,15174.221811
949.465153,-7624.121203,7124.688131,17987.004391
949.465483,-10510.924376,2298.286494,17394.839637
949.465812,-12657.521608,0.000000,12509.480420
949.466142,-12731.542202,-6588.421283,6217.729913
949.466471,-7254.018232,-12257.527968,3627.009116
949.466801,-1924.535449,-13253.452115,3478.967927
949.467130,2072.576638,-7354.516781,3256.906145
949.467460,2516.700203,-306.438199,3997.112087
949.467789,1776.494261,7048.078582,6957.935855
949.468119,740.205942,12870.404366,9844.739029
949.468449,-518.144159,13406.671215,13545.768739
949.468778,-3997.112087,12257.527968,15322.262999
949.469108,-7105.977043,7890.783629,15174.221811
949.469437,-9474.636058,1149.143247,13619.789333
949.469767,-10214.842000,-3753.867940,11621.233289
949.470096,-10807.006753,-8656.879127,10807.006753
949.470426,-8734.430116,-9959.241474,8364.327145
949.470755,-5477.523971,-9039.926876,5551.544565
949.471085,-592.164754,-4443.353888,4367.215058
949.471414,3997.112087,0.000000,4737.318029
949.471744,5847.626942,4826.401637,7105.977043
949.472073,5181.441594,10112.460574,8956.491898
949.472403,1850.514855,12947.013916,12139.377449
949.472732,-2220.617826,13636.499864,13397.727550
949.473062,-5477.523971,6741.640382,14730.098246
949.473391,-8808.450710,-995.924147,15248.242405
949.473721,-12879.583391,-4136.915689,13323.706956
949.474051,-13989.892304,-7507.735880,9844.739029
949.474380,-10732.986159,-10495.508323,7031.956449
949.474710,-7031.956449,-9959.241474,5255.462188
949.475039,-3034.844362,-6281.983084,4293.194464
949.475369,444.123565,-2451.505594,4515.256246
949.475698,3108.864956,3524.039291,5995.668130
949.476028,2960.823768,11491.432470,7846.182985
949.476357,1628.453072,13713.109414,10288.862594
949.476687,0.000000,11261.603821,12435.459826
949.477016,-2442.679609,7201.297681,13175.665768
949.477346,-5995.668130,2834.553343,12731.542202
949.477675,-9252.574275,-1991.848295,11029.068536
949.478005,-11399.171507,-5898.935335,10140.821405
949.478334,-11103.089130,-8350.440928,9992.780217
949.478664,-9474.636058,-8656.879127,9622.677246
949.478993,-6365.771101,-4903.011187,7698.141797
949.479323,-1998.556043,-1838.629195,5921.647536
949.479653,1554.432478,919.314598,6439.791695
949.479982,3034.844362,4290.134789,8438.347739
949.480312,2368.659014,8120.612279,10140.821405
949.480641,1406.391290,9346.365076,11843.295072
949.480971,-1332.370696,7201.297681,12731.542202
949.481300,-4367.215058,4443.353888,13175.665768
949.481630,-7031.956449,689.485948,12583.501014
949.481959,-8438.347739,-3447.429741,10955.047942
949.482289,-8364.327145,-5592.497135,8512.368333
949.482618,-7031.956449,-5286.058936,6735.874072
949.482948,-5107.421000,-4060.306139,6439.791695
949.483277,-2960.823768,-2374.896044,7031.956449
949.483607,-1110.308913,306.438199,7179.997637
949.483936,0.000000,4903.011187,8216.285956
949.484266,0.000000,8273.831378,9474.636058
949.484595,-1036.288319,8886.707777,10732.986159
949.484925,-3182.885551,7124.688131,11917.315666
949.485255,-4959.379811,4596.572988,11917.315666
949.485584,-6439.791695,2298.286494,11473.192101
949.485914,-7624.121203,-459.657299,10732.986159
949.486243,-8364.327145,-2757.943793,10066.800811
949.486573,-7476.080014,-3677.258390,9474.636058
949.486902,-5403.503377,-2451.505594,8438.347739
949.487232,-3256.906145,306.438199,6217.729913
949.487561,-666.185348,1608.800546,6735.874072
949.487891,962.267725,3677.258390,7624.121203
949.488220,1184.329507,5898.935335,8586.388927
949.488550,296.082377,7277.907231,9178.553681
949.488879,-740.205942,5975.544884,9548.656652
949.489209,-1776.494261,3983.696590,10658.965565
949.489538,-2960.823768,2451.505594,10881.027347
949.489868,-3775.050304,612.876398,10362.883188
949.490197,-3701.029710,-919.314598,9400.615463
949.490527,-3034.844362,-1455.581446,8808.450710
949.490857,-2442.679609,536.266849,9104.533087
949.491186,-2146.597232,2987.772442,9770.718434
949.491516,-2072.576638,3983.696590,10066.800811
949.491845,-1702.473667,4903.011187,10214.842000
949.492175,-1258.350101,6128.763984,10288.862594
949.492504,-1554.432478,6052.154434,10362.883188
949.492834,-1850.514855,4596.572988,10732.986159
949.493163,-1998.556043,2757.943793,10288.862594
949.493493,-1998.556043,1685.410096,9696.697840
949.493822,-2146.597232,1302.362347,9178.553681
949.494152,-1554.432478,1685.410096,9400.615463
949.494481,-1184.329507,2528.115143,9548.656652
949.494811,-1110.308913,4443.353888,9844.739029
949.495140,-962.267725,6511.811733,10362.883188
949.495470,-1332.370696,7584.345430,10214.842000
949.495800,-1702.473667,7277.907231,9622.677246
949.496129,-1628.453072,6741.640382,8660.409521
949.496459,-1924.535449,5822.325785,8068.244768
949.496788,-1332.370696,3524.039291,6809.894666
949.497118,-740.205942,1838.629195,5847.626942
949.497447,-592.164754,1455.581446,5847.626942
949.497777,-1332.370696,459.657299,6883.915261
949.498107,-2072.576638,2528.115143,8364.327145
949.498436,-2516.700203,4290.134789,9104.533087
949.498766,-3034.844362,5592.497135,10362.883188
949.499095,-2738.761985,6818.249932,10955.047942
949.499425,-1480.411884,6511.811733,10807.006753
949.499755,-888.247130,5975.544884,10288.862594
949.500084,-592.164754,4903.011187,10140.821405
949.500414,-962.267725,4136.915689,9770.718434
949.500743,-1406.391290,3447.429741,9474.636058
949.501073,-1184.329507,2528.115143,9030.512492
949.501403,-1184.329507,1991.848295,8660.409521
949.501732,-518.144159,1915.238745,9178.553681
949.502062,0.000000,2374.896044,9326.594869
949.502392,-444.123565,2911.162892,10140.821405
949.502721,-1184.329507,4213.525239,10881.027347
949.503051,-888.247130,5439.278036,11621.233289
949.503380,-740.205942,5286.058936,11843.295072
949.503710,-444.123565,4673.182538,11695.253884
949.504040,-666.185348,4443.353888,11103.089130
949.504369,-888.247130,4213.525239,10362.883188
949.504699,-592.164754,4366.744339,10510.924376
949.505029,0.000000,4673.182538,9622.677246
949.505358,222.061783,4903.011187,8660.409521
949.505688,222.061783,3753.867940,7105.977043
949.506017,222.061783,2681.334243,5773.606348
949.506347,666.185348,1608.800546,5773.606348
949.506677,-296.082377,1532.190996,6957.935855
949.507006,-1628.453072,2374.896044,8438.347739
949.507336,-3108.864956,3064.381992,9696.697840
949.507666,-3701.029710,3600.648841,10732.986159
949.507995,-3034.844362,4366.744339,11399.171507
949.508325,-2368.659014,5362.668486,11473.192101
949.508654,-1258.350101,5515.887586,10955.047942
949.508984,-740.205942,5515.887586,9992.780217
949.509314,74.020594,5745.716235,9474.636058
949.509643,74.020594,5515.887586,8660.409521
949.509973,-222.061783,4979.620737,7772.162391
949.510303,-962.267725,4596.572988,7105.977043
949.510632,-1184.329507,3140.991542,6365.771101
949.510962,-1184.329507,1149.143247,5773.606348
949.511291,-1036.288319,-383.047749,6365.771101
949.511621,-1258.350101,-1072.533697,7550.100608
949.511951,-1924.535449,0.000000,9918.759623
949.512280,-2368.659014,2604.724693,11695.253884
949.512610,-2146.597232,4366.744339,12731.542202
949.512940,-1184.329507,4749.792088,12731.542202
949.513269,-296.082377,4903.011187,13175.665768
949.513599,296.082377,5362.668486,12731.542202
949.513928,444.123565,5439.278036,11547.212695
949.514258,-148.041188,4443.353888,9696.697840
949.514588,-370.102971,2145.067394,9104.533087
949.514917,-1258.350101,766.095498,8734.430116
949.515247,-1702.473667,689.485948,9030.512492
949.515577,-2960.823768,1302.362347,8734.430116
949.515906,-2442.679609,306.438199,7994.224174
949.516236,-1406.391290,-612.876398,7772.162391
949.516565,-444.123565,-153.219100,8808.450710
949.516895,148.041188,1149.143247,9622.677246
949.517225,0.000000,1838.629195,10140.821405
949.517554,-518.144159,3677.258390,10732.986159
949.517884,-1480.411884,4826.401637,11769.274478
949.518214,-1702.473667,4979.620737,12139.377449
949.518543,-1702.473667,4213.525239,12139.377449
949.518873,-1924.535449,4060.306139,10584.944971
949.519202,-2146.597232,3370.820191,8290.306550
949.519532,-1332.370696,2068.457845,6365.771101
949.519862,0.000000,995.924147,5403.503377
949.520191,592.164754,153.219100,4811.338623
949.520521,1332.370696,536.266849,4737.318029
949.520850,888.247130,383.047749,5847.626942
949.521180,148.041188,459.657299,7254.018232
949.521510,-1332.370696,612.876398,9474.636058
949.521839,-3182.885551,919.314598,11843.295072
949.522169,-4737.318029,2374.896044,13175.665768
949.522499,-5403.503377,2145.067394,14137.933492
949.522828,-5551.544565,2374.896044,14359.995275
949.523158,-4441.235652,2604.724693,12953.603985
949.523487,-2664.741391,2374.896044,10510.924376
949.523817,-296.082377,1378.971896,7328.038826
949.524147,2146.597232,0.000000,4589.276840
949.524476,4145.153275,-306.438199,4367.215058
949.524806,5181.441594,-306.438199,5551.544565
949.525136,4219.173869,612.876398,7328.038826
949.525465,1850.514855,1455.581446,9548.656652
949.525795,-1332.370696,536.266849,12139.377449
949.526124,-3701.029710,1455.581446,15100.201217
949.526454,-5477.523971,2451.505594,17172.777854
949.526784,-6217.729913,2681.334243,16950.716072
949.527113,-5551.544565,2451.505594,14508.036463
949.527443,-4293.194464,1225.752797,9844.739029
949.527773,-2146.597232,-153.219100,6217.729913
949.528102,888.247130,-1685.410096,3256.906145
949.528432,4145.153275,-1838.629195,1850.514855
949.528761,5255.462188,-1225.752797,1554.432478
949.529091,4589.276840,-229.828649,2590.720797
949.529421,1628.453072,153.219100,6069.688724
949.529750,-2072.576638,766.095498,10881.027347
949.530080,-5329.482782,2451.505594,15322.262999
949.530410,-7179.997637,3524.039291,18209.066173
949.530739,-7846.182985,3140.991542,18653.189738
949.531069,-7402.059420,2757.943793,16580.613101
949.531398,-4885.359217,536.266849,12139.377449
949.531728,-1406.391290,-842.705048,7179.997637
949.532058,2516.700203,-1762.019645,2886.803174
949.532387,5699.585753,-1302.362347,740.205942
949.532717,7328.038826,-1685.410096,888.247130
949.533047,6661.853478,-306.438199,3108.864956
949.533376,2812.782580,612.876398,5921.647536
949.533706,-1850.514855,1608.800546,9844.739029
949.534035,-5107.421000,2298.286494,14952.160028
949.534365,-6883.915261,2604.724693,18801.230927
949.534695,-7698.141797,2145.067394,20059.581028
949.535024,-7846.182985,1915.238745,17912.983796
949.535354,-5625.565159,612.876398,13101.645173
949.535684,-1406.391290,-1532.190996,8142.265362
949.536013,2812.782580,-1685.410096,4589.276840
949.536343,6069.688724,-612.876398,1998.556043
949.536672,7328.038826,459.657299,1998.556043
949.537002,6661.853478,1838.629195,3182.885551
949.537332,2738.761985,2451.505594,5625.565159
949.537661,-2368.659014,3217.601092,9844.739029
949.537991,-5625.565159,3447.429741,15396.283594
949.538321,-8142.265362,2834.553343,18653.189738
949.538650,-9474.636058,1762.019645,18801.230927
949.538980,-8882.471304,459.657299,16210.510130
949.539309,-5625.565159,-842.705048,12879.583391
949.539639,-1406.391290,-1149.143247,8734.430116
949.539969,2368.659014,-1149.143247,2812.782580
949.540298,6439.791695,383.047749,74.020594
949.540628,9326.594869,1302.362347,740.205942
949.540957,8142.265362,3677.258390,3330.926739
