#time,accel_x,accel_y,accel_z
995.398028,-592.164754,766.095498,9622.677246
995.398358,-962.267725,842.705048,9474.636058
995.398687,-962.267725,842.705048,9548.656652
995.399017,-1184.329507,766.095498,9548.656652
995.399346,-962.267725,919.314598,9548.656652
995.399676,-592.164754,1149.143247,9548.656652
995.400005,-1036.288319,842.705048,9326.594869
995.400335,-1184.329507,1072.533697,9548.656652
995.400664,-1184.329507,995.924147,9548.656652
995.400994,-1036.288319,919.314598,9548.656652
995.401323,-1110.308913,1302.362347,9326.594869
995.401653,-1036.288319,995.924147,9474.636058
995.401983,-1036.288319,689.485948,9548.656652
995.402312,-1036.288319,842.705048,9400.615463
995.402642,-962.267725,842.705048,9548.656652
995.402971,-1184.329507,995.924147,9474.636058
995.403301,-888.247130,919.314598,9326.594869
995.403630,-1036.288319,995.924147,9474.636058
995.403960,-1110.308913,995.924147,9400.615463
995.404289,-814.226536,459.657299,9548.656652
995.404619,-1110.308913,1149.143247,9474.636058
995.404948,-1110.308913,689.485948,9548.656652
995.405278,-1110.308913,995.924147,9696.697840
995.405608,-962.267725,766.095498,9474.636058
995.405937,-1110.308913,995.924147,9548.656652
995.406267,-1110.308913,919.314598,9548.656652
995.406596,-888.247130,842.705048,9474.636058
995.406926,-592.164754,995.924147,9622.677246
995.407255,-962.267725,1225.752797,9326.594869
995.407585,-1110.308913,919.314598,9548.656652
995.407914,-962.267725,995.924147,9474.636058
995.408244,-962.267725,842.705048,9548.656652
995.408574,-1110.308913,1149.143247,9252.574275
995.408903,-666.185348,842.705048,9696.697840
995.409233,-1110.308913,766.095498,9548.656652
995.409562,-962.267725,995.924147,9548.656652
995.409892,-1036.288319,842.705048,9474.636058
995.410221,-518.144159,1762.019645,9696.697840
995.410551,-1184.329507,689.485948,9400.615463
995.410880,-1110.308913,1072.533697,9622.677246
995.411210,-888.247130,1149.143247,9622.677246
995.411539,-1184.329507,842.705048,9474.636058
995.411869,-888.247130,842.705048,9474.636058
995.412199,-740.205942,1072.533697,9474.636058
995.412528,-1036.288319,995.924147,9474.636058
995.412858,-888.247130,842.705048,9770.718434
995.413187,-962.267725,842.705048,9474.636058
995.413517,-814.226536,919.314598,9474.636058
995.413846,-888.247130,995.924147,9474.636058
995.414176,-1036.288319,995.924147,9548.656652
995.414505,-1036.288319,995.924147,9622.677246
995.414835,-1110.308913,919.314598,9622.677246
995.415164,-1036.288319,919.314598,9548.656652
995.415494,-814.226536,766.095498,9474.636058
995.415824,-1332.370696,1072.533697,9326.594869
995.416153,-962.267725,919.314598,9548.656652
995.416483,-814.226536,995.924147,9548.656652
995.416812,-1036.288319,919.314598,9548.656652
995.417142,-1258.350101,306.438199,9548.656652
995.417471,-666.185348,1149.143247,9696.697840
995.417801,-962.267725,842.705048,9548.656652
995.418130,-1110.308913,842.705048,9548.656652
995.418460,-1184.329507,919.314598,9474.636058
995.418790,-1110.308913,842.705048,9252.574275
995.419119,-814.226536,459.657299,9474.636058
995.419449,-1036.288319,536.266849,9474.636058
995.419778,-888.247130,919.314598,9622.677246
995.420108,-888.247130,842.705048,9326.594869
995.420437,-296.082377,842.705048,9104.533087
995.420767,592.164754,1072.533697,8808.450710
995.421096,1036.288319,383.047749,9474.636058
995.421426,1110.308913,842.705048,9326.594869
995.421755,518.144159,766.095498,9622.677246
995.422085,0.000000,766.095498,10066.800811
995.422415,-222.061783,995.924147,10288.862594
995.422744,-518.144159,766.095498,10584.944971
995.423074,-518.144159,459.657299,10214.842000
995.423403,0.000000,306.438199,9548.656652
995.423733,888.247130,0.000000,9252.574275
995.424062,1776.494261,0.000000,8882.471304
995.424392,2590.720797,842.705048,8808.450710
995.424721,3256.906145,919.314598,8808.450710
995.425051,3478.967927,1455.581446,9178.553681
995.425380,3404.947333,2221.676944,9548.656652
995.425710,3182.885551,1762.019645,9918.759623
995.426040,2664.741391,995.924147,10214.842000
995.426369,1850.514855,995.924147,10436.903782
995.426699,1406.391290,842.705048,10807.006753
995.427028,1332.370696,0.000000,10510.924376
995.427358,1628.453072,-383.047749,10436.903782
995.427687,1998.556043,0.000000,9622.677246
995.428017,2886.803174,-689.485948,9252.574275
995.428346,3997.112087,0.000000,9178.553681
995.428676,4515.256246,1378.971896,9252.574275
995.429005,4293.194464,2221.676944,9548.656652
995.429335,3404.947333,2911.162892,10066.800811
995.429665,2146.597232,3217.601092,10436.903782
995.429994,148.041188,3064.381992,10584.944971
995.430324,-1924.535449,2374.896044,9770.718434
995.430653,-2368.659014,995.924147,9104.533087
995.430983,-1406.391290,-383.047749,8142.265362
995.431312,592.164754,-1149.143247,7105.977043
995.431642,1924.535449,-1225.752797,6439.791695
995.431971,3034.844362,-536.266849,6587.832884
995.432301,3701.029710,766.095498,7698.141797
995.432631,2960.823768,2757.943793,9400.615463
995.432960,2368.659014,4136.915689,11103.089130
995.433290,1480.411884,3907.087040,12287.418637
995.433619,518.144159,3140.991542,12731.542202
995.433949,-296.082377,1532.190996,12435.459826
995.434278,-592.164754,-536.266849,11695.253884
995.434608,-518.144159,-1378.971896,10510.924376
995.434937,592.164754,-2145.067394,9474.636058
995.435267,1776.494261,-1685.410096,8142.265362
995.435596,3034.844362,-1455.581446,7105.977043
995.435926,4663.297435,-229.828649,7031.956449
995.436256,5107.421000,1149.143247,7179.997637
995.436585,4663.297435,2911.162892,7624.121203
995.436915,3627.009116,3830.477490,9178.553681
995.437244,2812.782580,3907.087040,10436.903782
995.437574,1924.535449,3217.601092,11251.130318
995.437903,1110.308913,2068.457845,11547.212695
995.438233,296.082377,766.095498,11399.171507
995.438562,-370.102971,-689.485948,10510.924376
995.438892,-1184.329507,-1608.800546,10214.842000
995.439221,-1110.308913,-1915.238745,10510.924376
995.439551,0.000000,-995.924147,10658.965565
995.439881,592.164754,-919.314598,10140.821405
995.440210,1184.329507,-536.266849,9252.574275
995.440540,2368.659014,306.438199,8438.347739
995.440869,3701.029710,995.924147,8290.306550
995.441199,4663.297435,689.485948,8364.327145
995.441528,5107.421000,842.705048,8216.285956
995.441858,4885.359217,689.485948,8512.368333
995.442187,3997.112087,919.314598,9622.677246
995.442517,2590.720797,1455.581446,10436.903782
995.442847,1924.535449,1685.410096,10955.047942
995.443176,1258.350101,1455.581446,11251.130318
995.443506,1184.329507,2221.676944,10436.903782
995.443835,962.267725,1685.410096,9918.759623
995.444165,1110.308913,1302.362347,9104.533087
995.444494,2072.576638,383.047749,7846.182985
995.444824,2442.679609,76.609550,7328.038826
995.445153,2368.659014,153.219100,7550.100608
995.445483,1924.535449,995.924147,8438.347739
995.445812,518.144159,842.705048,8882.471304
995.446142,-296.082377,766.095498,9474.636058
995.446472,-592.164754,306.438199,10436.903782
995.446801,-148.041188,612.876398,11547.212695
995.447131,222.061783,229.828649,11917.315666
995.447460,-592.164754,536.266849,11769.274478
995.447790,-296.082377,1302.362347,10436.903782
995.448119,666.185348,1072.533697,9178.553681
995.448449,2664.741391,1072.533697,7846.182985
995.448778,4737.318029,2145.067394,7402.059420
995.449108,6513.812290,2451.505594,7254.018232
995.449437,7402.059420,2298.286494,8660.409521
995.449767,7254.018232,3140.991542,9474.636058
995.450097,5551.544565,4596.572988,10140.821405
995.450426,3775.050304,4443.353888,10658.965565
995.450756,1776.494261,1685.410096,12731.542202
995.451085,-666.185348,1072.533697,14211.954086
995.451415,-3997.112087,612.876398,13397.727550
995.451744,-6291.750507,-919.314598,11769.274478
995.452074,-6365.771101,-1762.019645,9696.697840
995.452403,-3997.112087,-1455.581446,6661.853478
995.452733,592.164754,-2604.724693,3330.926739
995.453062,6365.771101,-3830.477490,1776.494261
995.453392,9918.759623,-1762.019645,2442.679609
995.453722,9918.759623,2834.553343,5181.441594
995.454051,8512.368333,6358.592633,8734.430116
995.454381,5995.668130,8733.488677,11547.212695
995.454710,3182.885551,9882.631924,13397.727550
995.455040,-222.061783,6128.763984,14878.139434
995.455369,-3478.967927,842.705048,17320.819043
995.455699,-6883.915261,-766.095498,16654.633695
995.456028,-9030.512492,-2068.457845,13249.686362
995.456358,-7179.997637,-4903.011187,10658.965565
995.456688,-2886.803174,-6358.592633,8142.265362
995.457017,1850.514855,-6281.983084,3330.926739
995.457347,7179.997637,-4979.620737,-0.000000
995.457676,11917.315666,-2221.676944,1332.370696
995.458006,12879.583391,3677.258390,5921.647536
995.458335,9030.512492,7890.783629,10362.883188
995.458665,2664.741391,9576.193725,13471.748144
995.458994,-3034.844362,9806.022374,14878.139434
995.459324,-5847.626942,5975.544884,16062.468941
995.459653,-5847.626942,612.876398,16580.613101
995.459983,-6513.812290,-3983.696590,13619.789333
995.460313,-5625.565159,-7048.078582,8068.244768
995.460642,-2368.659014,-9193.145976,4737.318029
995.460972,1406.391290,-8350.440928,4811.338623
995.461301,3330.926739,-4366.744339,6809.894666
995.461631,2220.617826,1302.362347,7920.203579
995.461960,814.226536,4443.353888,8660.409521
995.462290,888.247130,7814.174080,10436.903782
995.462619,1924.535449,7354.516781,12805.562797
995.462949,888.247130,4443.353888,12805.562797
995.463278,-1924.535449,1762.019645,11769.274478
995.463608,-3627.009116,-1225.752797,10584.944971
995.463938,-3404.947333,-2528.115143,10436.903782
995.464267,-3404.947333,-3907.087040,9622.677246
995.464597,-3478.967927,-5439.278036,7179.997637
995.464926,-2294.638420,-3907.087040,6365.771101
995.465256,74.020594,-1838.629195,6883.915261
995.465585,3330.926739,2068.457845,7994.224174
995.465915,4219.173869,4596.572988,7254.018232
995.466244,3478.967927,5439.278036,7402.059420
995.466574,2294.638420,5209.449386,9548.656652
995.466904,888.247130,5745.716235,13619.789333
995.467233,-1850.514855,4903.011187,14952.160028
995.467563,-5995.668130,2374.896044,13545.768739
995.467892,-9030.512492,0.000000,11325.150913
995.468222,-8586.388927,-2374.896044,9622.677246
995.468551,-5255.462188,-4903.011187,8734.430116
995.468881,-814.226536,-5056.230287,6587.832884
995.469210,1554.432478,-3140.991542,4737.318029
995.469540,2812.782580,-612.876398,5403.503377
995.469869,3627.009116,2987.772442,7624.121203
995.470199,3182.885551,5515.887586,9992.780217
995.470528,296.082377,7201.297681,10732.986159
995.470858,-1850.514855,7660.954980,11843.295072
995.471187,-2220.617826,5592.497135,13101.645173
995.471517,-1258.350101,2451.505594,12583.501014
995.471846,-592.164754,-995.924147,9844.739029
995.472175,-518.144159,-2528.115143,7328.038826
995.472505,296.082377,-2068.457845,7254.018232
995.472834,740.205942,-76.609550,8956.491898
995.473164,0.000000,2987.772442,9030.512492
995.473493,-1110.308913,4290.134789,8438.347739
995.473823,-1480.411884,4443.353888,8142.265362
995.474152,-1554.432478,4903.011187,9844.739029
995.474482,-962.267725,3600.648841,10510.924376
995.474811,-1924.535449,2221.676944,9770.718434
995.475140,-2590.720797,995.924147,8586.388927
995.475470,-2886.803174,-689.485948,8290.306550
995.475799,-3182.885551,-1762.019645,9548.656652
995.476129,-3923.091493,-1532.190996,10066.800811
995.476458,-3552.988522,-1072.533697,9548.656652
995.476788,-2368.659014,-536.266849,9252.574275
995.477117,-888.247130,1991.848295,9104.533087
995.477447,1850.514855,2068.457845,9474.636058
995.477776,3627.009116,1532.190996,9104.533087
995.478105,4441.235652,2757.943793,8364.327145
995.478435,3701.029710,2451.505594,8956.491898
995.478764,2590.720797,2528.115143,10658.965565
995.479094,148.041188,2068.457845,11917.315666
995.479423,-2738.761985,1302.362347,10881.027347
995.479753,-4367.215058,-612.876398,10658.965565
995.480082,-4293.194464,-2451.505594,10807.006753
995.480412,-3182.885551,-2911.162892,10881.027347
995.480741,-1554.432478,-2987.772442,9178.553681
995.481070,-888.247130,-2451.505594,8068.244768
995.481400,148.041188,-1378.971896,7698.141797
995.481729,0.000000,-153.219100,8586.388927
995.482059,-1184.329507,1225.752797,9474.636058
995.482388,-2294.638420,1991.848295,10436.903782
995.482718,-2368.659014,1762.019645,11103.089130
995.483047,-1628.453072,1915.238745,11695.253884
995.483377,-1036.288319,306.438199,9844.739029
995.483706,-666.185348,-1532.190996,7846.182985
995.484036,0.000000,-1455.581446,7105.977043
995.484365,-296.082377,-766.095498,9178.553681
995.484694,-1776.494261,919.314598,11103.089130
995.485024,-4293.194464,1608.800546,11621.233289
995.485353,-5477.523971,2221.676944,11251.130318
995.485683,-4367.215058,1838.629195,10955.047942
995.486012,-1850.514855,229.828649,10658.965565
995.486342,370.102971,-1149.143247,9178.553681
995.486671,2294.638420,-1532.190996,7624.121203
995.487001,2368.659014,-536.266849,7254.018232
995.487330,2294.638420,842.705048,9474.636058
995.487659,222.061783,3064.381992,10807.006753
995.487989,-1924.535449,4136.915689,10658.965565
995.488318,-2220.617826,3294.210641,10214.842000
995.488648,-1184.329507,2834.553343,9696.697840
995.488977,0.000000,2528.115143,9622.677246
995.489307,666.185348,1149.143247,7920.203579
995.489636,518.144159,689.485948,6809.894666
995.489966,592.164754,1532.190996,7031.956449
995.490295,148.041188,2604.724693,8734.430116
995.490624,-1110.308913,2757.943793,10436.903782
995.490954,-2812.782580,3217.601092,10066.800811
995.491283,-3775.050304,3753.867940,9252.574275
995.491613,-3108.864956,2681.334243,9622.677246
995.491942,-1776.494261,1991.848295,9548.656652
995.492272,-592.164754,1225.752797,8438.347739
995.492601,0.000000,76.609550,7105.977043
995.492931,1036.288319,612.876398,7772.162391
995.493260,1554.432478,1225.752797,9474.636058
995.493589,740.205942,2068.457845,10140.821405
995.493919,-1258.350101,2987.772442,9622.677246
995.494248,-1628.453072,2528.115143,9104.533087
995.494578,666.185348,1915.238745,10362.883188
995.494907,1776.494261,1378.971896,10658.965565
995.495237,1628.453072,1455.581446,9770.718434
995.495566,1406.391290,459.657299,8512.368333
995.495896,1480.411884,0.000000,8882.471304
995.496225,1184.329507,76.609550,10288.862594
995.496554,-1184.329507,0.000000,10955.047942
995.496884,-2960.823768,536.266849,11029.068536
995.497213,-3775.050304,536.266849,10732.986159
995.497543,-3404.947333,229.828649,11251.130318
995.497872,-2368.659014,-536.266849,10807.006753
995.498202,-1702.473667,-1991.848295,8586.388927
995.498531,-444.123565,-2757.943793,7179.997637
995.498861,74.020594,-2451.505594,8586.388927
995.499190,0.000000,-842.705048,10362.883188
995.499519,-2220.617826,0.000000,10584.944971
995.499849,-4219.173869,153.219100,9918.759623
995.500178,-4737.318029,919.314598,9252.574275
995.500508,-2220.617826,612.876398,10066.800811
995.500837,148.041188,-842.705048,9844.739029
995.501167,814.226536,-842.705048,8290.306550
995.501496,518.144159,-306.438199,6883.915261
995.501826,518.144159,-383.047749,8438.347739
995.502155,-222.061783,0.000000,11473.192101
995.502484,-2368.659014,1302.362347,13101.645173
995.502814,-4663.297435,2221.676944,11843.295072
995.503143,-4885.359217,1915.238745,11177.109724
995.503473,-2442.679609,689.485948,10807.006753
995.503802,-888.247130,-1455.581446,9696.697840
995.504132,-592.164754,-2068.457845,7476.080014
995.504461,-740.205942,-1302.362347,6957.935855
995.504791,-444.123565,383.047749,8512.368333
995.505120,-518.144159,1762.019645,9844.739029
995.505449,-1924.535449,2221.676944,9696.697840
995.505779,-3034.844362,2374.896044,8882.471304
995.506108,-2072.576638,2528.115143,8734.430116
995.506438,74.020594,2451.505594,10140.821405
995.506767,1332.370696,2145.067394,9844.739029
995.507097,888.247130,2528.115143,8216.285956
995.507426,296.082377,2221.676944,7254.018232
995.507756,592.164754,2528.115143,8808.450710
995.508085,444.123565,2987.772442,11473.192101
995.508414,-1998.556043,3677.258390,11251.130318
995.508744,-3404.947333,3753.867940,9178.553681
995.509073,-3404.947333,2528.115143,8734.430116
995.509403,-888.247130,1685.410096,9178.553681
995.509732,1036.288319,842.705048,8364.327145
995.510062,1406.391290,229.828649,6587.832884
995.510391,814.226536,153.219100,6957.935855
995.510721,888.247130,2757.943793,9474.636058
995.511050,148.041188,3830.477490,10807.006753
995.511380,-1184.329507,2987.772442,10510.924376
995.511709,-1998.556043,2145.067394,10066.800811
995.512038,-1702.473667,2145.067394,10584.944971
995.512368,74.020594,1378.971896,10955.047942
995.512697,1406.391290,689.485948,9252.574275
995.513027,1554.432478,689.485948,7476.080014
995.513356,1628.453072,536.266849,7698.141797
995.513686,1480.411884,689.485948,9770.718434
995.514015,222.061783,1608.800546,10658.965565
995.514345,-2368.659014,2681.334243,10288.862594
995.514674,-3627.009116,2298.286494,10066.800811
995.515003,-2960.823768,995.924147,11177.109724
995.515333,-2072.576638,-383.047749,10658.965565
995.515662,-1628.453072,-1838.629195,8438.347739
995.515992,-1332.370696,-2681.334243,7328.038826
995.516321,-1036.288319,-2221.676944,8142.265362
995.516651,-888.247130,-1762.019645,10732.986159
995.516980,-2072.576638,-612.876398,11251.130318
995.517310,-4145.153275,229.828649,9918.759623
995.517639,-5181.441594,1072.533697,8956.491898
995.517968,-3627.009116,612.876398,9992.780217
995.518298,-2368.659014,-153.219100,10584.944971
995.518627,-1850.514855,-1149.143247,9252.574275
995.518957,-1184.329507,-612.876398,8142.265362
995.519286,-592.164754,-1532.190996,8660.409521
995.519616,-814.226536,-1685.410096,11547.212695
995.519945,-2294.638420,-1378.971896,12361.439231
995.520275,-3627.009116,0.000000,11991.336260
995.520604,-3552.988522,1302.362347,11991.336260
995.520933,-1776.494261,919.314598,12435.459826
995.521263,-148.041188,1149.143247,10807.006753
995.521592,444.123565,-229.828649,8068.244768
995.521922,1480.411884,-1838.629195,6365.771101
995.522251,2220.617826,306.438199,7476.080014
995.522581,814.226536,1455.581446,9548.656652
995.522910,-1332.370696,1762.019645,10066.800811
995.523240,-3997.112087,2451.505594,9030.512492
995.523569,-3627.009116,2528.115143,9104.533087
995.523898,-1628.453072,1532.190996,9622.677246
995.524228,-296.082377,1149.143247,9030.512492
995.524557,296.082377,2068.457845,7254.018232
995.524887,592.164754,383.047749,7105.977043
995.525216,518.144159,1378.971896,9178.553681
995.525546,-1036.288319,4366.744339,10658.965565
995.525875,-2886.803174,5362.668486,10807.006753
995.526205,-3849.070898,4366.744339,9326.594869
995.526534,-2220.617826,3677.258390,9548.656652
995.526863,370.102971,1838.629195,9400.615463
995.527193,1702.473667,383.047749,7920.203579
995.527522,1480.411884,842.705048,6661.853478
995.527852,1702.473667,1991.848295,7179.997637
995.528181,1628.453072,1685.410096,9178.553681
995.528511,444.123565,1991.848295,11399.171507
995.528840,-1406.391290,3140.991542,11251.130318
995.529170,-2072.576638,3140.991542,10214.842000
995.529499,-814.226536,2757.943793,10807.006753
995.529828,666.185348,2221.676944,9992.780217
995.530158,1850.514855,766.095498,7846.182985
995.530487,2368.659014,-612.876398,6513.812290
995.530817,2146.597232,306.438199,8956.491898
995.531146,962.267725,2834.553343,10881.027347
995.531476,-2368.659014,3830.477490,10955.047942
995.531805,-4145.153275,2298.286494,10881.027347
995.532135,-4737.318029,1302.362347,10288.862594
995.532464,-3997.112087,153.219100,10584.944971
995.532793,-2738.761985,-1762.019645,9992.780217
995.533123,-2294.638420,-2834.553343,8142.265362
995.533452,-2294.638420,-2604.724693,7105.977043
995.533782,-2072.576638,-2374.896044,8734.430116
995.534111,-2590.720797,-1455.581446,9918.759623
995.534441,-3627.009116,536.266849,9918.759623
995.534770,-4145.153275,1378.971896,8660.409521
995.535100,-2664.741391,612.876398,8882.471304
995.535429,0.000000,0.000000,9696.697840
995.535758,1110.308913,-919.314598,9400.615463
995.536088,814.226536,-1149.143247,8512.368333
995.536417,-222.061783,-689.485948,9104.533087
995.536747,-370.102971,76.609550,11399.171507
995.537076,-1480.411884,383.047749,13545.768739
995.537406,-3478.967927,612.876398,13471.748144
995.537735,-4885.359217,229.828649,11917.315666
995.538065,-4663.297435,-153.219100,10955.047942
995.538394,-2738.761985,-383.047749,10955.047942
995.538724,-1628.453072,-1532.190996,9548.656652
995.539053,-740.205942,-1838.629195,7772.162391
995.539382,-148.041188,-1072.533697,6957.935855
995.539712,74.020594,153.219100,7772.162391
995.540041,-666.185348,1302.362347,8956.491898
995.540371,-1998.556043,1685.410096,9400.615463
995.540700,-2442.679609,2374.896044,9474.636058
995.541030,-1850.514855,2298.286494,9548.656652
995.541359,-370.102971,2757.943793,9844.739029
995.541689,666.185348,1225.752797,8882.471304
995.542018,444.123565,842.705048,7476.080014
995.542347,1036.288319,1685.410096,8142.265362
995.542677,1406.391290,2987.772442,10510.924376
995.543006,1036.288319,4596.572988,11399.171507
995.543336,-1258.350101,4903.011187,10066.800811
995.543665,-1924.535449,4290.134789,7846.182985
995.543995,-1628.453072,2528.115143,8882.471304
995.544324,-444.123565,2068.457845,9178.553681
995.544654,222.061783,1991.848295,8660.409521
995.544983,296.082377,766.095498,7550.100608
995.545312,296.082377,0.000000,7402.059420
995.545642,296.082377,919.314598,9326.594869
995.545971,-444.123565,1685.410096,10658.965565
995.546301,-1480.411884,3140.991542,9918.759623
995.546630,-1998.556043,3907.087040,8956.491898
995.546960,-592.164754,3677.258390,8956.491898
995.547289,1776.494261,2528.115143,8956.491898
995.547619,2368.659014,1302.362347,7994.224174
995.547948,2294.638420,1072.533697,7846.182985
995.548277,1332.370696,2374.896044,9252.574275
995.548607,0.000000,2987.772442,11177.109724
995.548936,-1480.411884,2987.772442,11991.336260
995.549266,-3404.947333,1685.410096,11177.109724
995.549595,-3997.112087,1072.533697,10140.821405
995.549925,-3182.885551,229.828649,10584.944971
995.550254,-1480.411884,-306.438199,10288.862594
995.550584,-740.205942,-1608.800546,9252.574275
995.550913,-1554.432478,-1762.019645,7476.080014
995.551242,-2368.659014,-842.705048,8068.244768
995.551572,-3108.864956,-153.219100,9252.574275
995.551901,-4441.235652,-842.705048,9696.697840
995.552231,-5255.462188,-1378.971896,9844.739029
995.552560,-4737.318029,-1455.581446,10362.883188
995.552890,-3256.906145,-1532.190996,10436.903782
995.553219,-1702.473667,-1608.800546,9104.533087
995.553549,518.144159,-2145.067394,7328.038826
995.553878,2368.659014,-2068.457845,7698.141797
995.554207,2812.782580,-383.047749,10066.800811
995.554537,1406.391290,2298.286494,12879.583391
995.554866,-1554.432478,3524.039291,13471.748144
995.555196,-3701.029710,2987.772442,12213.398043
995.555525,-4367.215058,1378.971896,11547.212695
995.555855,-2812.782580,-1072.533697,11399.171507
995.556184,-1184.329507,-2757.943793,9548.656652
995.556514,-666.185348,-3600.648841,7402.059420
995.556843,-1184.329507,-3370.820191,6661.853478
995.557172,-1480.411884,-2528.115143,8290.306550
995.557502,-3182.885551,0.000000,9992.780217
995.557831,-4663.297435,2145.067394,10658.965565
995.558161,-4515.256246,3447.429741,10140.821405
995.558490,-2812.782580,2911.162892,9770.718434
995.558820,-888.247130,2221.676944,9770.718434
995.559149,666.185348,1149.143247,8660.409521
995.559479,1184.329507,1149.143247,6661.853478
995.559808,1702.473667,766.095498,7698.141797
995.560137,1628.453072,2528.115143,10214.842000
995.560467,-148.041188,4213.525239,11547.212695
995.560796,-2072.576638,3677.258390,11325.150913
995.561126,-2294.638420,3830.477490,11029.068536
995.561455,-518.144159,4519.963438,10066.800811
995.561785,592.164754,3907.087040,9548.656652
995.562114,1480.411884,1838.629195,7994.224174
995.562444,1480.411884,1302.362347,6439.791695
995.562773,1628.453072,1302.362347,6735.874072
995.563103,1258.350101,1532.190996,9104.533087
995.563432,-888.247130,2834.553343,10214.842000
995.563761,-3478.967927,3447.429741,9178.553681
995.564091,-3478.967927,1302.362347,8438.347739
995.564420,-1258.350101,1225.752797,8956.491898
995.564750,666.185348,1991.848295,8734.430116
995.565079,1850.514855,1685.410096,7624.121203
995.565409,2072.576638,1455.581446,7698.141797
995.565738,1850.514855,2987.772442,9178.553681
995.566068,444.123565,4290.134789,10881.027347
995.566397,-888.247130,4826.401637,11695.253884
995.566726,-2738.761985,4290.134789,11029.068536
995.567056,-3404.947333,2528.115143,10658.965565
995.567385,-2516.700203,766.095498,10807.006753
995.567715,-1628.453072,-1225.752797,9770.718434
995.568044,-1406.391290,-1838.629195,7920.203579
995.568374,-1332.370696,-2757.943793,7254.018232
995.568703,-1628.453072,-2298.286494,8586.388927
995.569033,-1554.432478,-1378.971896,10066.800811
995.569362,-2442.679609,-919.314598,10288.862594
995.569692,-3552.988522,0.000000,9844.739029
995.570021,-2960.823768,689.485948,10807.006753
995.570351,-1850.514855,306.438199,11473.192101
995.570680,-666.185348,-153.219100,10732.986159
995.571009,-444.123565,-689.485948,8660.409521
995.571339,0.000000,-1072.533697,7920.203579
995.571668,666.185348,-1608.800546,9400.615463
995.571998,-148.041188,-1072.533697,11029.068536
995.572327,-3034.844362,153.219100,11917.315666
995.572657,-5107.421000,536.266849,11177.109724
995.572986,-5181.441594,-229.828649,11103.089130
995.573316,-3330.926739,-1838.629195,11843.295072
995.573645,-2072.576638,-1302.362347,11177.109724
995.573975,-1406.391290,-2221.676944,8438.347739
995.574304,-592.164754,-2528.115143,7105.977043
995.574634,-296.082377,-1838.629195,8216.285956
995.574963,-1258.350101,-229.828649,9770.718434
995.575293,-2294.638420,0.000000,9474.636058
995.575622,-2960.823768,1225.752797,9474.636058
995.575952,-2220.617826,1762.019645,9178.553681
995.576281,0.000000,1072.533697,9474.636058
995.576611,1628.453072,689.485948,8956.491898
995.576940,1850.514855,995.924147,7179.997637
995.577270,2294.638420,1838.629195,7698.141797
995.577599,2516.700203,2451.505594,10584.944971
995.577929,296.082377,4213.525239,12139.377449
995.578258,-3108.864956,4749.792088,11251.130318
995.578588,-4441.235652,4366.744339,10362.883188
995.578917,-2590.720797,4290.134789,10510.924376
995.579246,-370.102971,2451.505594,9844.739029
995.579576,888.247130,-229.828649,7920.203579
995.579905,962.267725,-536.266849,5995.668130
995.580235,1258.350101,0.000000,6513.812290
995.580564,1628.453072,995.924147,9030.512492
995.580894,-222.061783,3370.820191,10214.842000
995.581223,-1924.535449,4749.792088,9104.533087
995.581553,-1406.391290,3600.648841,8068.244768
995.581882,1554.432478,2681.334243,8660.409521
995.582212,3034.844362,3217.601092,9326.594869
995.582541,3182.885551,2911.162892,8068.244768
995.582871,1850.514855,2145.067394,7772.162391
995.583200,1036.288319,3370.820191,9474.636058
995.583530,74.020594,3907.087040,11769.274478
995.583859,-1554.432478,3677.258390,11991.336260
995.584189,-3034.844362,3370.820191,10584.944971
995.584518,-2960.823768,1915.238745,9770.718434
995.584848,-2146.597232,612.876398,10140.821405
995.585177,-1776.494261,0.000000,9696.697840
995.585507,-3034.844362,-229.828649,7624.121203
995.585836,-3849.070898,-1532.190996,6291.750507
995.586166,-3182.885551,-1991.848295,8068.244768
995.586495,-2960.823768,-1302.362347,9918.759623
995.586825,-3256.906145,-1455.581446,10140.821405
995.587154,-3997.112087,-1302.362347,9178.553681
995.587483,-3182.885551,-766.095498,9326.594869
995.587813,-1110.308913,-919.314598,10584.944971
995.588142,1036.288319,-842.705048,11029.068536
995.588472,1480.411884,459.657299,9770.718434
995.588801,740.205942,2068.457845,9104.533087
995.589131,1776.494261,2145.067394,9844.739029
995.589460,1184.329507,766.095498,11473.192101
995.589790,-1332.370696,76.609550,11843.295072
995.590119,-3923.091493,-306.438199,10881.027347
995.590449,-5033.400406,-842.705048,11177.109724
995.590778,-4663.297435,-1685.410096,11991.336260
995.591108,-3330.926739,-2451.505594,10436.903782
995.591437,-2812.782580,-3907.087040,8068.244768
995.591767,-1480.411884,-4136.915689,7105.977043
995.592096,-518.144159,-2604.724693,7846.182985
995.592426,-1110.308913,-766.095498,9696.697840
995.592755,-2368.659014,383.047749,9992.780217
995.593085,-3627.009116,2145.067394,9326.594869
995.593414,-2072.576638,1532.190996,10288.862594
995.593744,222.061783,689.485948,10881.027347
995.594073,1628.453072,1225.752797,9548.656652
995.594403,2220.617826,612.876398,8142.265362
995.594732,2368.659014,229.828649,8068.244768
995.595062,2442.679609,1378.971896,10658.965565
995.595391,518.144159,3370.820191,12213.398043
995.595721,-1554.432478,4673.182538,11917.315666
995.596050,-2072.576638,4060.306139,10288.862594
995.596379,-962.267725,2911.162892,9622.677246
995.596709,962.267725,1915.238745,9326.594869
995.597038,1702.473667,0.000000,7920.203579
995.597368,962.267725,0.000000,6291.750507
995.597697,148.041188,766.095498,6883.915261
995.598027,-666.185348,459.657299,8808.450710
995.598356,-1110.308913,1225.752797,9992.780217
995.598686,-2590.720797,3064.381992,9400.615463
995.599015,-1998.556043,3064.381992,8586.388927
995.599345,0.000000,2528.115143,9178.553681
995.599674,2220.617826,3677.258390,9326.594869
995.600004,2664.741391,3217.601092,7624.121203
995.600333,2072.576638,3140.991542,7698.141797
995.600663,1628.453072,4213.525239,9474.636058
995.600992,444.123565,5286.058936,11325.150913
995.601322,-1332.370696,4749.792088,11621.233289
995.601651,-2960.823768,3064.381992,10066.800811
995.601981,-3478.967927,2528.115143,8882.471304
995.602310,-2442.679609,612.876398,9400.615463
995.602640,-1702.473667,-383.047749,8882.471304
995.602969,-1332.370696,-1378.971896,7698.141797
995.603299,-1036.288319,-995.924147,6957.935855
995.603628,-740.205942,-612.876398,8364.327145
995.603958,-814.226536,229.828649,9992.780217
995.604287,-2368.659014,842.705048,10362.883188
995.604616,-3701.029710,1302.362347,10436.903782
995.604946,-3034.844362,1225.752797,11029.068536
995.605275,-2146.597232,919.314598,11917.315666
995.605605,-1258.350101,0.000000,10881.027347
995.605934,-666.185348,-1915.238745,8438.347739
995.606264,222.061783,-2757.943793,8438.347739
995.606593,444.123565,-1149.143247,10881.027347
995.606923,-1184.329507,1378.971896,11473.192101
995.607252,-3256.906145,1532.190996,10584.944971
995.607582,-4515.256246,1149.143247,9178.553681
995.607911,-3775.050304,76.609550,9622.677246
995.608241,-2294.638420,-1072.533697,10436.903782
995.608570,-888.247130,-2068.457845,9696.697840
995.608900,-1850.514855,-1838.629195,7846.182985
995.609229,-2368.659014,-2374.896044,7402.059420
995.609559,-2368.659014,-2911.162892,9474.636058
995.609888,-2442.679609,-1991.848295,11177.109724
995.610218,-3478.967927,-383.047749,10732.986159
995.610547,-3701.029710,459.657299,10140.821405
995.610877,-1924.535449,306.438199,9992.780217
995.611206,444.123565,-383.047749,10066.800811
995.611536,1554.432478,-536.266849,9326.594869
995.611865,1406.391290,612.876398,8808.450710
995.612195,1554.432478,2068.457845,10066.800811
995.612524,1110.308913,3217.601092,11473.192101
995.612853,-296.082377,3447.429741,11769.274478
995.613183,-1924.535449,2987.772442,10288.862594
995.613512,-2294.638420,1608.800546,8956.491898
995.613842,-444.123565,1225.752797,9252.574275
995.614171,666.185348,766.095498,9326.594869
995.614501,962.267725,-383.047749,8438.347739
995.614830,148.041188,-383.047749,7105.977043
995.615160,0.000000,1072.533697,7846.182985
995.615489,222.061783,3370.820191,9030.512492
995.615819,0.000000,3524.039291,9548.656652
995.616148,-1036.288319,3370.820191,8882.471304
995.616478,-1184.329507,2987.772442,8364.327145
995.616807,-296.082377,3064.381992,8882.471304
995.617137,1036.288319,3217.601092,9252.574275
995.617466,1776.494261,3677.258390,8660.409521
995.617796,1406.391290,2528.115143,7179.997637
995.618125,1850.514855,2451.505594,8290.306550
995.618455,2146.597232,2987.772442,10288.862594
995.618784,0.000000,3600.648841,11399.171507
995.619114,-2960.823768,4749.792088,9844.739029
995.619443,-4737.318029,4749.792088,8586.388927
995.619773,-3034.844362,1991.848295,9474.636058
995.620102,-1924.535449,-612.876398,9696.697840
995.620432,-1406.391290,-1072.533697,8660.409521
995.620761,-666.185348,-306.438199,7254.018232
995.621090,74.020594,-612.876398,8068.244768
995.621420,148.041188,-536.266849,9844.739029
995.621749,-1110.308913,383.047749,10214.842000
995.622079,-1998.556043,842.705048,9622.677246
995.622408,-1480.411884,2451.505594,10436.903782
995.622738,0.000000,2911.162892,11843.295072
995.623067,1406.391290,1838.629195,11473.192101
995.623397,1406.391290,-766.095498,9178.553681
995.623726,444.123565,-1455.581446,8068.244768
995.624056,-370.102971,-612.876398,9770.718434
995.624385,-1702.473667,306.438199,11843.295072
995.624715,-4589.276840,536.266849,11769.274478
995.625044,-6143.709319,-766.095498,10510.924376
995.625374,-5847.626942,-1838.629195,10140.821405
995.625703,-3627.009116,-1991.848295,9622.677246
995.626033,-1924.535449,-2604.724693,9030.512492
995.626362,-1036.288319,-2987.772442,7476.080014
995.626692,-1554.432478,-2221.676944,7105.977043
995.627021,-1628.453072,-1149.143247,8586.388927
995.627351,-1850.514855,-536.266849,10732.986159
995.627680,-3108.864956,919.314598,10658.965565
995.628010,-4145.153275,1608.800546,9622.677246
995.628339,-2664.741391,153.219100,9992.780217
995.628669,0.000000,-1149.143247,10658.965565
995.628998,1480.411884,-842.705048,10288.862594
995.629327,1184.329507,0.000000,8808.450710
995.629657,592.164754,766.095498,8882.471304
995.629986,518.144159,1378.971896,11103.089130
995.630316,-296.082377,2757.943793,12361.439231
995.630645,-1850.514855,3370.820191,10955.047942
995.630975,-2664.741391,2145.067394,9326.594869
995.631304,-1628.453072,2145.067394,9474.636058
995.631634,-592.164754,229.828649,9474.636058
995.631963,148.041188,-1455.581446,8364.327145
995.632293,0.000000,-1225.752797,7476.080014
995.632622,-740.205942,689.485948,7994.224174
995.632952,-666.185348,919.314598,9548.656652
995.633281,-370.102971,2374.896044,10658.965565
995.633611,-1036.288319,3753.867940,9474.636058
995.633940,-1110.308913,4060.306139,8438.347739
995.634270,518.144159,3294.210641,8660.409521
995.634599,1998.556043,4060.306139,8882.471304
995.634929,2590.720797,4290.134789,7772.162391
995.635258,2294.638420,2757.943793,7179.997637
995.635588,1924.535449,3217.601092,8290.306550
995.635917,592.164754,4519.963438,10140.821405
995.636247,-814.226536,4136.915689,11029.068536
995.636576,-2812.782580,3753.867940,9548.656652
995.636906,-3627.009116,3064.381992,9030.512492
995.637235,-2294.638420,1225.752797,10140.821405
995.637565,-370.102971,1072.533697,9918.759623
995.637894,0.000000,1225.752797,7179.997637
995.638223,0.000000,383.047749,6439.791695
995.638553,370.102971,-459.657299,7550.100608
995.638882,-296.082377,1608.800546,9770.718434
995.639212,-1258.350101,2068.457845,10140.821405
995.639541,-2516.700203,2374.896044,9844.739029
995.639871,-1924.535449,2451.505594,10288.862594
995.640200,-592.164754,1072.533697,10658.965565
995.640530,222.061783,153.219100,10658.965565
995.640859,370.102971,0.000000,9030.512492
995.641189,592.164754,0.000000,9622.677246
995.641518,148.041188,383.047749,11621.233289
995.641848,-2072.576638,1762.019645,12361.439231
995.642177,-4145.153275,919.314598,11029.068536
995.642507,-4737.318029,-459.657299,9252.574275
995.642836,-3256.906145,-995.924147,9844.739029
995.643166,-1924.535449,-2145.067394,10955.047942
995.643495,-2072.576638,-2145.067394,9474.636058
995.643825,-3256.906145,-2911.162892,7550.100608
995.644154,-3034.844362,-2145.067394,7328.038826
995.644484,-2072.576638,-1915.238745,9474.636058
995.644813,-1776.494261,-995.924147,11103.089130
995.645143,-3108.864956,-1225.752797,10362.883188
995.645472,-4071.132681,-766.095498,9400.615463
995.645802,-2442.679609,0.000000,9918.759623
995.646131,-666.185348,0.000000,11029.068536
995.646460,148.041188,0.000000,10510.924376
995.646790,222.061783,919.314598,8512.368333
995.647119,1628.453072,229.828649,8142.265362
995.647449,1628.453072,-689.485948,10288.862594
995.647778,74.020594,1455.581446,11769.274478
995.648108,-2960.823768,2145.067394,10658.965565
995.648437,-3997.112087,1455.581446,9696.697840
995.648767,-3404.947333,842.705048,9992.780217
995.649096,-1702.473667,612.876398,9992.780217
995.649426,-814.226536,-1685.410096,8438.347739
995.649755,-740.205942,-1915.238745,7179.997637
995.650085,-666.185348,-306.438199,8364.327145
995.650414,-666.185348,536.266849,10510.924376
995.650744,-1332.370696,1991.848295,10807.006753
995.651073,-2590.720797,3370.820191,9918.759623
995.651403,-1924.535449,3217.601092,9400.615463
995.651732,666.185348,3294.210641,9918.759623
995.652062,2960.823768,2987.772442,9400.615463
995.652391,3552.988522,2374.896044,7179.997637
995.652721,2738.761985,3217.601092,6439.791695
995.653050,2220.617826,3983.696590,8142.265362
995.653380,1258.350101,4979.620737,10955.047942
995.653709,-1628.453072,4826.401637,11251.130318
995.654039,-3330.926739,4290.134789,9474.636058
995.654368,-3108.864956,2757.943793,9548.656652
995.654697,-740.205942,766.095498,10510.924376
995.655027,518.144159,306.438199,9622.677246
995.655356,444.123565,306.438199,7105.977043
995.655686,370.102971,459.657299,5847.626942
995.656015,888.247130,919.314598,7402.059420
995.656345,1036.288319,2068.457845,9770.718434
995.656674,-740.205942,3983.696590,10066.800811
995.657004,-1628.453072,3677.258390,8956.491898
995.657333,-740.205942,3140.991542,8882.471304
995.657663,740.205942,2374.896044,9326.594869
995.657992,888.247130,612.876398,8438.347739
995.658322,666.185348,153.219100,8142.265362
995.658651,222.061783,-229.828649,9252.574275
995.658981,0.000000,1685.410096,11473.192101
995.659310,-2072.576638,2528.115143,12583.501014
995.659640,-3997.112087,689.485948,10807.006753
995.659969,-5107.421000,-689.485948,10288.862594
995.660299,-4589.276840,-1608.800546,11473.192101
995.660628,-3627.009116,-1378.971896,12065.356855
995.660958,-3256.906145,-1378.971896,10510.924376
995.661287,-2886.803174,-2451.505594,7698.141797
995.661617,-2146.597232,-3600.648841,6883.915261
995.661946,-888.247130,-3140.991542,8586.388927
995.662276,-1850.514855,-1838.629195,9400.615463
995.662605,-3182.885551,-306.438199,10066.800811
995.662934,-3478.967927,-229.828649,11177.109724
995.663264,-2738.761985,1378.971896,12731.542202
995.663593,-2294.638420,995.924147,11251.130318
995.663923,-888.247130,229.828649,8364.327145
995.664252,592.164754,-1302.362347,6587.832884
995.664582,1998.556043,-1685.410096,8068.244768
995.664911,740.205942,-459.657299,11251.130318
995.665241,-1850.514855,383.047749,12805.562797
995.665570,-5033.400406,1532.190996,12065.356855
995.665900,-5921.647536,1991.848295,11917.315666
995.666229,-4589.276840,1072.533697,11399.171507
995.666559,-1628.453072,-842.705048,9770.718434
995.666888,592.164754,-2604.724693,6735.874072
995.667218,1406.391290,-2987.772442,5477.523971
995.667547,814.226536,-1455.581446,7254.018232
995.667877,-888.247130,153.219100,10362.883188
995.668206,-3404.947333,2681.334243,10732.986159
995.668536,-4441.235652,3447.429741,10288.862594
995.668865,-2368.659014,2298.286494,10288.862594
995.669195,592.164754,2068.457845,10584.944971
995.669524,2368.659014,1915.238745,9030.512492
995.669854,3034.844362,1685.410096,6513.812290
995.670183,3404.947333,2604.724693,5995.668130
995.670513,3182.885551,3677.258390,8438.347739
995.670842,2072.576638,4903.011187,10807.006753
995.671172,-592.164754,5669.106685,11251.130318
995.671501,-2146.597232,5592.497135,10140.821405
995.671831,-1258.350101,3677.258390,9474.636058
995.672161,0.000000,2451.505594,9622.677246
995.672490,296.082377,1149.143247,8734.430116
995.672820,-222.061783,76.609550,7402.059420
995.673150,-814.226536,383.047749,6809.894666
995.673479,-370.102971,1378.971896,7846.182985
995.673809,-518.144159,2451.505594,9622.677246
995.674139,-1998.556043,2604.724693,9622.677246
995.674468,-3034.844362,3140.991542,8586.388927
995.674798,-2294.638420,2834.553343,8956.491898
995.675127,370.102971,2604.724693,9992.780217
995.675457,1258.350101,2911.162892,9474.636058
995.675787,814.226536,1608.800546,8216.285956
995.676116,666.185348,612.876398,8956.491898
995.676446,518.144159,1762.019645,10584.944971
995.676776,-1110.308913,2068.457845,11547.212695
995.677105,-3627.009116,1532.190996,11843.295072
995.677435,-5033.400406,1378.971896,11621.233289
995.677764,-4737.318029,995.924147,11251.130318
995.678094,-2960.823768,-1225.752797,10362.883188
995.678424,-1850.514855,-2987.772442,8734.430116
995.678753,-1480.411884,-2528.115143,6809.894666
995.679083,-592.164754,-2834.553343,7476.080014
995.679413,-666.185348,-2145.067394,8734.430116
995.679742,-1776.494261,0.000000,9622.677246
995.680072,-3701.029710,76.609550,9400.615463
995.680402,-4145.153275,-536.266849,10214.842000
995.680731,-3108.864956,-229.828649,11473.192101
995.681061,-1776.494261,-459.657299,11917.315666
995.681390,-666.185348,-1302.362347,10658.965565
995.681720,-296.082377,-1915.238745,9030.512492
995.682050,-592.164754,-1302.362347,9548.656652
995.682379,-444.123565,0.000000,10658.965565
995.682709,-1702.473667,536.266849,11103.089130
995.683039,-2442.679609,612.876398,10288.862594
995.683368,-2738.761985,153.219100,9844.739029
995.683698,-1850.514855,-383.047749,10066.800811
995.684027,-222.061783,-995.924147,9548.656652
995.684357,444.123565,-1762.019645,7476.080014
995.684687,962.267725,-2374.896044,7846.182985
995.685016,814.226536,-1225.752797,10140.821405
995.685346,-518.144159,536.266849,12287.418637
995.685676,-2812.782580,2221.676944,11547.212695
995.686005,-3849.070898,3370.820191,9178.553681
995.686335,-3552.988522,1762.019645,8290.306550
995.686665,-962.267725,0.000000,9252.574275
995.686994,592.164754,76.609550,9474.636058
995.687324,888.247130,1455.581446,7550.100608
995.687653,1258.350101,1302.362347,6957.935855
995.687983,1924.535449,2221.676944,8882.471304
995.688313,1258.350101,3677.258390,10955.047942
995.688642,-222.061783,3294.210641,11399.171507
995.688972,-1406.391290,3907.087040,11399.171507
995.689302,-1332.370696,5362.668486,11177.109724
995.689631,-592.164754,4290.134789,10362.883188
995.689961,962.267725,1532.190996,8660.409521
995.690291,2146.597232,306.438199,6365.771101
995.690620,2442.679609,306.438199,5625.565159
995.690950,2368.659014,1455.581446,7031.956449
995.691279,740.205942,3677.258390,8660.409521
995.691609,-1332.370696,5056.230287,9400.615463
995.691939,-2664.741391,4596.572988,8438.347739
995.692268,-2146.597232,3753.867940,8438.347739
995.692598,-1036.288319,3677.258390,9326.594869
995.692928,-296.082377,1762.019645,8660.409521
995.693257,-888.247130,1225.752797,7994.224174
995.693587,-888.247130,1378.971896,9178.553681
995.693916,-1480.411884,2298.286494,11251.130318
995.694246,-3034.844362,1762.019645,11917.315666
995.694576,-5181.441594,1915.238745,11251.130318
995.694905,-5625.565159,1838.629195,10881.027347
995.695235,-3849.070898,766.095498,10732.986159
995.695565,-1554.432478,0.000000,9770.718434
995.695894,148.041188,-1072.533697,8068.244768
995.696224,444.123565,-1685.410096,6069.688724
995.696554,370.102971,-1378.971896,6809.894666
995.696883,74.020594,-383.047749,9400.615463
995.697213,-1406.391290,1608.800546,11029.068536
995.697542,-3034.844362,1455.581446,10955.047942
995.697872,-4219.173869,306.438199,11103.089130
995.698202,-3478.967927,-842.705048,11325.150913
995.698531,-2368.659014,-1378.971896,11177.109724
995.698861,-1554.432478,-2298.286494,9030.512492
995.699191,-1258.350101,-2757.943793,8216.285956
995.699520,-740.205942,-1838.629195,9844.739029
995.699850,-1110.308913,-536.266849,11325.150913
995.700180,-2442.679609,459.657299,11251.130318
995.700509,-3775.050304,383.047749,9770.718434
995.700839,-3108.864956,76.609550,9252.574275
995.701168,-962.267725,-842.705048,10288.862594
995.701498,74.020594,-2298.286494,10362.883188
995.701828,0.000000,-2221.676944,8586.388927
995.702157,-666.185348,-1608.800546,7254.018232
995.702487,0.000000,-1685.410096,9104.533087
995.702817,-592.164754,-1532.190996,11843.295072
995.703146,-2146.597232,0.000000,12731.542202
995.703476,-4145.153275,1378.971896,10807.006753
995.703805,-2442.679609,1225.752797,10066.800811
995.704135,-296.082377,766.095498,9844.739029
995.704465,1776.494261,766.095498,8586.388927
995.704794,2886.803174,153.219100,6439.791695
995.705124,3923.091493,306.438199,6661.853478
995.705454,3404.947333,2604.724693,8438.347739
995.705783,1258.350101,4443.353888,10732.986159
995.706113,-1554.432478,4060.306139,11325.150913
995.706443,-3256.906145,3294.210641,10510.924376
995.706772,-3330.926739,3140.991542,10510.924376
995.707102,-1776.494261,1685.410096,11103.089130
995.707431,-740.205942,842.705048,9696.697840
995.707761,0.000000,689.485948,7105.977043
995.708091,222.061783,766.095498,6217.729913
995.708420,1036.288319,1685.410096,7402.059420
995.708750,592.164754,3370.820191,8734.430116
995.709080,-1332.370696,4673.182538,9104.533087
995.709409,-2442.679609,4979.620737,8512.368333
995.709739,-2146.597232,4903.011187,8956.491898
995.710069,-444.123565,3983.696590,9400.615463
995.710398,296.082377,2834.553343,8438.347739
995.710728,296.082377,1225.752797,7105.977043
995.711057,-296.082377,1225.752797,8068.244768
995.711387,-592.164754,2145.067394,10510.924376
995.711717,-2220.617826,2604.724693,11843.295072
995.712046,-4293.194464,3217.601092,11843.295072
995.712376,-4737.318029,3524.039291,10807.006753
995.712706,-3256.906145,1991.848295,10436.903782
995.713035,-1776.494261,229.828649,10362.883188
995.713365,-370.102971,-306.438199,8586.388927
995.713694,-444.123565,-306.438199,6587.832884
995.714024,-444.123565,-689.485948,7105.977043
995.714354,-740.205942,-536.266849,9252.574275
995.714683,-2664.741391,842.705048,10436.903782
995.715013,-4589.276840,689.485948,10066.800811
995.715343,-5181.441594,536.266849,10881.027347
995.715672,-3923.091493,612.876398,11473.192101
995.716002,-2146.597232,-766.095498,11399.171507
995.716332,-1036.288319,-1915.238745,9030.512492
995.716661,-814.226536,-2068.457845,7550.100608
995.716991,518.144159,-1302.362347,8808.450710
995.717320,962.267725,-919.314598,10066.800811
995.717650,-888.247130,306.438199,10066.800811
995.717980,-2294.638420,0.000000,10140.821405
995.718309,-2516.700203,-1225.752797,10807.006753
995.718639,-1628.453072,-1072.533697,11843.295072
995.718969,-666.185348,-1225.752797,11621.233289
995.719298,740.205942,-2221.676944,10436.903782
995.719628,1332.370696,-2298.286494,9178.553681
995.719958,1702.473667,-1838.629195,9400.615463
995.720287,1036.288319,-1302.362347,10288.862594
995.720617,-1332.370696,842.705048,9770.718434
995.720946,-3256.906145,2911.162892,8290.306550
995.721276,-3330.926739,1225.752797,8216.285956
995.721606,-888.247130,0.000000,10658.965565
995.721935,148.041188,0.000000,10288.862594
995.722265,74.020594,-612.876398,8142.265362
995.722595,0.000000,-459.657299,7105.977043
995.722924,814.226536,0.000000,9400.615463
995.723254,592.164754,689.485948,12065.356855
995.723583,-1110.308913,1378.971896,11917.315666
995.723913,-2368.659014,3524.039291,10955.047942
995.724243,-1036.288319,2911.162892,10362.883188
995.724572,1406.391290,1838.629195,10214.842000
995.724902,2960.823768,1302.362347,8660.409521
995.725232,3627.009116,689.485948,6143.709319
995.725561,3552.988522,766.095498,5699.585753
995.725891,2886.803174,2757.943793,8068.244768
995.726221,1184.329507,4290.134789,9844.739029
995.726550,-2146.597232,4519.963438,9844.739029
995.726880,-3849.070898,4136.915689,8808.450710
995.727209,-3552.988522,3830.477490,9178.553681
995.727539,-1924.535449,2987.772442,10362.883188
995.727869,-1258.350101,1685.410096,9030.512492
995.728198,-1850.514855,919.314598,7254.018232
995.728528,-1924.535449,1532.190996,7328.038826
995.728858,-1406.391290,1915.238745,9770.718434
995.729187,-2368.659014,3217.601092,11473.192101
995.729517,-4663.297435,3983.696590,10436.903782
995.729846,-4885.359217,3370.820191,8734.430116
995.730176,-2516.700203,2221.676944,9030.512492
995.730506,592.164754,1149.143247,9696.697840
995.730835,1406.391290,0.000000,8216.285956
995.731165,518.144159,0.000000,6735.874072
995.731495,222.061783,1072.533697,7550.100608
995.731824,962.267725,2145.067394,10584.944971
995.732154,-592.164754,2298.286494,11917.315666
995.732484,-3256.906145,3064.381992,11325.150913
995.732813,-4219.173869,2145.067394,9992.780217
995.733143,-2738.761985,306.438199,10732.986159
995.733472,-1998.556043,0.000000,10584.944971
995.733802,-1406.391290,-459.657299,8290.306550
995.734132,-1258.350101,-2451.505594,7031.956449
995.734461,-1036.288319,-2374.896044,7920.203579
995.734791,-1776.494261,-383.047749,10214.842000
995.735121,-3034.844362,-229.828649,10658.965565
995.735450,-4219.173869,-306.438199,9696.697840
995.735780,-4293.194464,153.219100,9918.759623
995.736110,-2368.659014,-536.266849,11177.109724
995.736439,-518.144159,-1915.238745,11029.068536
995.736769,296.082377,-1991.848295,8734.430116
995.737098,296.082377,-2451.505594,7994.224174
995.737428,814.226536,-2145.067394,9696.697840
995.737758,518.144159,-536.266849,11991.336260
995.738087,-1184.329507,306.438199,12139.377449
995.738417,-2368.659014,0.000000,10807.006753
995.738747,-2072.576638,995.924147,9548.656652
995.739076,0.000000,0.000000,10288.862594
995.739406,2072.576638,-919.314598,10066.800811
995.739735,1998.556043,-919.314598,7846.182985
995.740065,1924.535449,-459.657299,7550.100608
995.740395,1850.514855,612.876398,9030.512492
995.740724,370.102971,1302.362347,11843.295072
995.741054,-1776.494261,2068.457845,12583.501014
995.741384,-3330.926739,2757.943793,11325.150913
995.741713,-2812.782580,1685.410096,10510.924376
995.742043,-814.226536,995.924147,10436.903782
995.742373,740.205942,229.828649,9030.512492
995.742702,962.267725,0.000000,6735.874072
995.743032,888.247130,-229.828649,6365.771101
995.743361,814.226536,1378.971896,8512.368333
995.743691,0.000000,3983.696590,10140.821405
995.744021,-1998.556043,4443.353888,10066.800811
995.744350,-3034.844362,4596.572988,8660.409521
995.744680,-2072.576638,4290.134789,8512.368333
995.745010,-370.102971,2911.162892,8882.471304
995.745339,888.247130,2068.457845,7846.182985
995.745669,666.185348,1532.190996,6883.915261
995.745999,0.000000,1838.629195,7550.100608
995.746328,0.000000,2604.724693,9400.615463
995.746658,-1480.411884,3217.601092,10584.944971
995.746987,-2664.741391,3370.820191,10288.862594
995.747317,-3256.906145,2604.724693,9622.677246
995.747647,-2072.576638,2451.505594,9844.739029
995.747976,-518.144159,2221.676944,10510.924376
995.748306,0.000000,1378.971896,8586.388927
995.748636,-222.061783,1149.143247,6661.853478
995.748965,518.144159,766.095498,7772.162391
995.749295,370.102971,995.924147,10288.862594
995.749624,-1628.453072,2145.067394,11695.253884
995.749954,-4515.256246,2757.943793,10658.965565
995.750284,-4737.318029,2221.676944,9770.718434
995.750613,-3182.885551,842.705048,10140.821405
995.750943,-1480.411884,-229.828649,9992.780217
995.751273,-296.082377,-1532.190996,7698.141797
995.751602,-296.082377,-2298.286494,6587.832884
995.751932,-148.041188,-766.095498,8734.430116
995.752262,-740.205942,919.314598,11325.150913
995.752591,-3108.864956,1532.190996,12065.356855
995.752921,-4515.256246,1225.752797,11177.109724
995.753250,-3923.091493,0.000000,10658.965565
995.753580,-1702.473667,-1378.971896,11473.192101
995.753910,666.185348,-2681.334243,11547.212695
995.754239,888.247130,-1838.629195,8882.471304
995.754569,444.123565,-1608.800546,7179.997637
995.754899,148.041188,-1532.190996,7624.121203
995.755228,-296.082377,0.000000,8882.471304
995.755558,-2072.576638,689.485948,9992.780217
995.755888,-3330.926739,-153.219100,10436.903782
995.756217,-3923.091493,536.266849,10807.006753
995.756547,-2812.782580,536.266849,11621.233289
995.756876,-1406.391290,-1072.533697,10510.924376
995.757206,-814.226536,-1915.238745,8364.327145
995.757536,666.185348,-2145.067394,7698.141797
995.757865,2146.597232,-2374.896044,9474.636058
995.758195,1480.411884,-842.705048,11399.171507
995.758525,-962.267725,2374.896044,12065.356855
995.758854,-2886.803174,2681.334243,11177.109724
995.759184,-2220.617826,1762.019645,10732.986159
995.759513,148.041188,1608.800546,10362.883188
995.759843,1998.556043,153.219100,9400.615463
995.760173,2886.803174,-766.095498,7179.997637
995.760502,2368.659014,229.828649,6217.729913
995.760832,1998.556043,1225.752797,8438.347739
995.761162,740.205942,2911.162892,10658.965565
995.761491,-1554.432478,4826.401637,10362.883188
995.761821,-2812.782580,4749.792088,9696.697840
995.762151,-2442.679609,3600.648841,9474.636058
995.762480,-888.247130,2681.334243,9696.697840
995.762810,370.102971,1685.410096,8734.430116
995.763139,0.000000,76.609550,6513.812290
995.763469,-518.144159,919.314598,7179.997637
995.763799,-1184.329507,2451.505594,9622.677246
995.764128,-2368.659014,3064.381992,10658.965565
995.764458,-3701.029710,4290.134789,9770.718434
995.764788,-3108.864956,4366.744339,8364.327145
995.765117,-666.185348,2757.943793,8734.430116
995.765447,962.267725,2145.067394,8808.450710
995.765777,1332.370696,1302.362347,7698.141797
995.766106,1110.308913,1378.971896,7179.997637
995.766436,740.205942,2451.505594,8808.450710
995.766765,0.000000,2451.505594,10732.986159
995.767095,-1776.494261,2451.505594,11399.171507
995.767425,-4071.132681,2145.067394,10584.944971
995.767754,-4145.153275,1225.752797,10510.924376
995.768084,-2664.741391,1225.752797,11325.150913
995.768414,-1332.370696,1149.143247,11029.068536
995.768743,-1258.350101,76.609550,8142.265362
995.769073,-1110.308913,-766.095498,6587.832884
995.769402,-444.123565,-383.047749,7698.141797
995.769732,0.000000,536.266849,10436.903782
995.770062,-1554.432478,1225.752797,10807.006753
995.770392,-3923.091493,1685.410096,10584.944971
995.770721,-4367.215058,229.828649,9844.739029
995.771051,-3108.864956,-1302.362347,10510.924376
995.771381,-1554.432478,-2451.505594,10658.965565
995.771710,-1036.288319,-2528.115143,9178.553681
995.772040,-962.267725,-2911.162892,8734.430116
995.772370,-370.102971,-1455.581446,9918.759623
995.772700,-814.226536,-995.924147,11547.212695
995.773029,-2220.617826,306.438199,11547.212695
995.773359,-3256.906145,1455.581446,10288.862594
995.773689,-2368.659014,1225.752797,9770.718434
995.774018,0.000000,229.828649,9992.780217
995.774348,1406.391290,-1149.143247,9474.636058
995.774678,1628.453072,-1378.971896,7920.203579
995.775008,1184.329507,-1149.143247,7105.977043
995.775337,888.247130,-842.705048,9178.553681
995.775667,222.061783,76.609550,11325.150913
995.775997,-2442.679609,612.876398,11991.336260
995.776326,-4219.173869,842.705048,11325.150913
995.776656,-3701.029710,919.314598,10955.047942
995.776986,-1998.556043,0.000000,11177.109724
995.777315,518.144159,-842.705048,9844.739029
995.777645,740.205942,-995.924147,7624.121203
995.777975,1332.370696,-229.828649,7105.977043
995.778305,1776.494261,1685.410096,8882.471304
995.778634,814.226536,2987.772442,10140.821405
995.778964,-962.267725,4673.182538,9104.533087
995.779294,-2220.617826,3907.087040,8438.347739
995.779623,-1628.453072,2604.724693,9178.553681
995.779953,0.000000,2604.724693,10140.821405
995.780283,148.041188,2298.286494,9030.512492
995.780613,-518.144159,1149.143247,6957.935855
995.780942,74.020594,1455.581446,7031.956449
995.781272,444.123565,1991.848295,9178.553681
995.781602,0.000000,2681.334243,10584.944971
995.781931,-2072.576638,3217.601092,10288.862594
995.782261,-2812.782580,4443.353888,9548.656652
995.782591,-1628.453072,3907.087040,9474.636058
995.782921,74.020594,2298.286494,10066.800811
995.783250,740.205942,1685.410096,8512.368333
995.783580,444.123565,1225.752797,7105.977043
995.783910,370.102971,995.924147,8438.347739
995.784239,-666.185348,2298.286494,10732.986159
995.784569,-2442.679609,3064.381992,11177.109724
995.784899,-5033.400406,3294.210641,9844.739029
995.785228,-5107.421000,2528.115143,9326.594869
995.785558,-3108.864956,1915.238745,9918.759623
995.785888,-1184.329507,1225.752797,9326.594869
995.786218,-444.123565,-229.828649,7624.121203
995.786547,-666.185348,-229.828649,7105.977043
995.786877,-1184.329507,995.924147,8586.388927
995.787207,-1554.432478,1302.362347,9844.739029
995.787536,-2738.761985,995.924147,10436.903782
995.787866,-3552.988522,0.000000,9992.780217
995.788196,-2886.803174,-1302.362347,11399.171507
995.788526,-1998.556043,-1149.143247,12879.583391
995.788855,-1554.432478,-459.657299,12139.377449
995.789185,-1406.391290,-153.219100,8586.388927
995.789515,-444.123565,-766.095498,6735.874072
995.789844,1332.370696,-1915.238745,7476.080014
995.790174,888.247130,-1991.848295,10140.821405
995.790504,-1332.370696,153.219100,11325.150913
995.790834,-4589.276840,1685.410096,10214.842000
995.791163,-4811.338623,612.876398,10436.903782
995.791493,-2072.576638,-995.924147,11325.150913
995.791823,222.061783,-2528.115143,10140.821405
995.792152,1110.308913,-3524.039291,7402.059420
995.792482,1258.350101,-2757.943793,7698.141797
995.792812,1258.350101,-229.828649,10362.883188
995.793142,-296.082377,1225.752797,12879.583391
995.793471,-2368.659014,1838.629195,12509.480420
995.793801,-2590.720797,2068.457845,10658.965565
995.794131,-1036.288319,1225.752797,10214.842000
995.794460,1332.370696,0.000000,10288.862594
995.794790,2072.576638,-1225.752797,8364.327145
995.795120,1776.494261,-1378.971896,7105.977043
995.795449,1258.350101,0.000000,7254.018232
995.795779,740.205942,1302.362347,9622.677246
995.796109,-814.226536,2451.505594,10955.047942
995.796439,-2812.782580,1991.848295,9844.739029
995.796768,-3552.988522,2145.067394,9104.533087
995.797098,-2220.617826,2374.896044,10066.800811
995.797428,0.000000,2757.943793,10658.965565
995.797757,148.041188,2451.505594,8438.347739
995.798087,148.041188,1302.362347,6069.688724
995.798417,222.061783,1685.410096,6957.935855
995.798747,888.247130,2528.115143,9252.574275
995.799076,-518.144159,3294.210641,10732.986159
995.799406,-2960.823768,4213.525239,10066.800811
995.799736,-3997.112087,4213.525239,9178.553681
995.800065,-2146.597232,2911.162892,9770.718434
995.800395,296.082377,1378.971896,10362.883188
995.800725,740.205942,1915.238745,8364.327145
995.801055,370.102971,1378.971896,6661.853478
995.801384,0.000000,1072.533697,7476.080014
995.801714,74.020594,2145.067394,10214.842000
995.802044,-1258.350101,2911.162892,10658.965565
995.802373,-3404.947333,3140.991542,10066.800811
995.802703,-3701.029710,3600.648841,9252.574275
995.803033,-2368.659014,2298.286494,9474.636058
995.803362,-518.144159,842.705048,9474.636058
995.803692,296.082377,306.438199,7994.224174
995.804022,-222.061783,76.609550,7254.018232
995.804352,-592.164754,1149.143247,9178.553681
995.804681,-1628.453072,1838.629195,11547.212695
995.805011,-3330.926739,1762.019645,11843.295072
995.805341,-5033.400406,1149.143247,10732.986159
995.805670,-5033.400406,689.485948,10658.965565
995.806000,-3404.947333,76.609550,11473.192101
995.806330,-1554.432478,-1149.143247,10658.965565
995.806660,-666.185348,-1991.848295,7920.203579
995.806989,-444.123565,-2298.286494,6217.729913
995.807319,296.082377,-2298.286494,7698.141797
995.807649,-296.082377,-766.095498,9770.718434
995.807978,-1554.432478,153.219100,10732.986159
995.808308,-3330.926739,612.876398,10140.821405
995.808638,-2590.720797,689.485948,10288.862594
995.808968,-1110.308913,-766.095498,10288.862594
995.809297,592.164754,-1608.800546,10140.821405
995.809627,962.267725,-1149.143247,8808.450710
995.809957,814.226536,-919.314598,8586.388927
995.810286,888.247130,-153.219100,10214.842000
995.810616,-74.020594,0.000000,12065.356855
995.810946,-2368.659014,919.314598,12213.398043
995.811275,-3701.029710,689.485948,11177.109724
995.811605,-3256.906145,0.000000,10955.047942
995.811935,-1258.350101,-229.828649,11103.089130
995.812265,740.205942,-1378.971896,9104.533087
995.812594,1554.432478,-2451.505594,7105.977043
995.812924,1110.308913,-1072.533697,7105.977043
995.813254,740.205942,842.705048,8808.450710
995.813583,-592.164754,2374.896044,10214.842000
995.813913,-1998.556043,3524.039291,10288.862594
995.814243,-2886.803174,3907.087040,9844.739029
995.814573,-1628.453072,3064.381992,9844.739029
995.814902,148.041188,1991.848295,9844.739029
995.815232,1258.350101,1302.362347,7846.182985
995.815562,1332.370696,842.705048,6809.894666
995.815891,1332.370696,842.705048,7698.141797
995.816221,814.226536,2528.115143,10066.800811
995.816551,-1332.370696,3524.039291,11325.150913
995.816881,-3552.988522,4136.915689,10288.862594
995.817210,-3552.988522,3983.696590,9770.718434
995.817540,-1998.556043,2604.724693,9844.739029
995.817870,-222.061783,1685.410096,9918.759623
995.818199,444.123565,1302.362347,8068.244768
995.818529,222.061783,1225.752797,6291.750507
995.818859,444.123565,1149.143247,7105.977043
995.819189,0.000000,2451.505594,8956.491898
995.819518,-1702.473667,3524.039291,9326.594869
995.819848,-2812.782580,3294.210641,8438.347739
995.820178,-2812.782580,3294.210641,8364.327145
995.820507,-1702.473667,2757.943793,9918.759623
995.820837,-666.185348,1608.800546,10510.924376
995.821167,-962.267725,1072.533697,8290.306550
995.821496,-962.267725,612.876398,7772.162391
995.821826,0.000000,-229.828649,10214.842000
995.822156,-740.205942,766.095498,13027.624579
995.822486,-2886.803174,2221.676944,12879.583391
995.822815,-5107.421000,2298.286494,10066.800811
995.823145,-4589.276840,1378.971896,8956.491898
995.823475,-2294.638420,0.000000,9474.636058
995.823804,-296.082377,-1915.238745,9400.615463
995.824134,-518.144159,-2145.067394,7328.038826
995.824464,-1036.288319,-1608.800546,6735.874072
995.824794,-444.123565,-1225.752797,8586.388927
995.825123,-962.267725,-1072.533697,11103.089130
995.825453,-3330.926739,153.219100,11325.150913
995.825783,-4515.256246,76.609550,10362.883188
995.826112,-2886.803174,306.438199,10510.924376
995.826442,-814.226536,-459.657299,11251.130318
995.826772,666.185348,-919.314598,10436.903782
995.827102,888.247130,-2068.457845,8216.285956
995.827431,814.226536,-2374.896044,7994.224174
995.827761,1036.288319,-689.485948,10510.924376
995.828091,444.123565,995.924147,12435.459826
995.828420,-2146.597232,1302.362347,12139.377449
995.828750,-3775.050304,689.485948,10584.944971
995.829080,-2812.782580,229.828649,10066.800811
995.829409,-518.144159,-1149.143247,9918.759623
995.829739,1406.391290,-2221.676944,8956.491898
995.830069,1110.308913,-2298.286494,7550.100608
995.830399,148.041188,-919.314598,7994.224174
995.830728,-296.082377,536.266849,9918.759623
995.831058,-1036.288319,1915.238745,11473.192101
995.831388,-2812.782580,2987.772442,11103.089130
995.831717,-3552.988522,3294.210641,9696.697840
995.832047,-1998.556043,2298.286494,9992.780217
995.832377,148.041188,1072.533697,9326.594869
995.832707,1480.411884,229.828649,7476.080014
995.833036,1184.329507,766.095498,6365.771101
995.833366,1628.453072,1838.629195,7624.121203
995.833696,1406.391290,2451.505594,9770.718434
995.834025,0.000000,3677.258390,10881.027347
995.834355,-2220.617826,4519.963438,10288.862594
995.834685,-2738.761985,3830.477490,9992.780217
995.835015,-1776.494261,2604.724693,10362.883188
995.835344,-666.185348,2221.676944,10807.006753
995.835674,444.123565,1225.752797,8660.409521
995.836004,740.205942,229.828649,6439.791695
995.836333,666.185348,612.876398,6809.894666
995.836663,444.123565,1838.629195,9326.594869
995.836993,-1332.370696,3370.820191,10436.903782
995.837322,-2886.803174,4213.525239,9548.656652
995.837652,-3627.009116,4903.011187,8438.347739
995.837982,-1924.535449,3830.477490,8364.327145
995.838312,518.144159,1838.629195,8512.368333
995.838641,1332.370696,0.000000,7328.038826
995.838971,592.164754,1149.143247,7624.121203
995.839301,-888.247130,2068.457845,9252.574275
995.839630,-2146.597232,1838.629195,11769.274478
995.839960,-3997.112087,1838.629195,12805.562797
995.840290,-5255.462188,2221.676944,11695.253884
995.840620,-4441.235652,1072.533697,10288.862594
995.840949,-2072.576638,-459.657299,10140.821405
995.841279,-444.123565,-689.485948,9474.636058
995.841609,0.000000,-1762.019645,7846.182985
995.841938,0.000000,-1685.410096,7105.977043
995.842268,370.102971,383.047749,8808.450710
995.842598,-962.267725,689.485948,10066.800811
995.842928,-2812.782580,1302.362347,10066.800811
995.843257,-3627.009116,842.705048,9400.615463
995.843587,-2886.803174,-612.876398,9770.718434
995.843917,-888.247130,-459.657299,10881.027347
995.844246,-740.205942,-612.876398,9548.656652
995.844576,-222.061783,-1608.800546,8290.306550
995.844906,0.000000,-2528.115143,8586.388927
995.845235,-370.102971,-1378.971896,11029.068536
995.845565,-1258.350101,612.876398,12953.603985
995.845895,-3182.885551,1149.143247,12213.398043
995.846225,-3627.009116,689.485948,10881.027347
995.846554,-2368.659014,0.000000,10584.944971
995.846884,-370.102971,-1455.581446,10362.883188
995.847214,740.205942,-2604.724693,8586.388927
995.847543,1110.308913,-2221.676944,6957.935855
995.847873,1036.288319,-995.924147,7698.141797
995.848203,740.205942,383.047749,9844.739029
995.848533,-148.041188,1532.190996,11325.150913
995.848862,-1332.370696,2374.896044,10807.006753
995.849192,-2368.659014,2451.505594,9474.636058
995.849522,-1332.370696,2145.067394,10288.862594
995.849851,-296.082377,1762.019645,10288.862594
995.850181,-296.082377,766.095498,8808.450710
995.850511,0.000000,689.485948,7550.100608
995.850841,666.185348,919.314598,7772.162391
995.851170,888.247130,1685.410096,9252.574275
995.851500,-1628.453072,2298.286494,10214.842000
995.851830,-3256.906145,2987.772442,9844.739029
995.852159,-2738.761985,3524.039291,9992.780217
995.852489,-1258.350101,3064.381992,10140.821405
995.852819,-222.061783,2604.724693,9548.656652
995.853149,592.164754,2145.067394,7550.100608
995.853478,1406.391290,919.314598,6439.791695
995.853808,1628.453072,1378.971896,7328.038826
995.854138,888.247130,2528.115143,9696.697840
995.854467,-962.267725,3907.087040,10288.862594
995.854797,-2664.741391,3830.477490,9400.615463
995.855127,-2590.720797,2911.162892,8512.368333
995.855456,-296.082377,2451.505594,9252.574275
995.855786,1332.370696,1532.190996,9030.512492
995.856116,1702.473667,1915.238745,7179.997637
995.856446,962.267725,2451.505594,6809.894666
995.856775,296.082377,3140.991542,7624.121203
995.857105,-296.082377,2604.724693,9400.615463
995.857435,-2812.782580,995.924147,10658.965565
995.857764,-5033.400406,1762.019645,11917.315666
995.858094,-5773.606348,1532.190996,12287.418637
995.858424,-4737.318029,0.000000,12805.562797
995.858754,-3404.947333,-1149.143247,11547.212695
995.859083,-1702.473667,-2911.162892,8586.388927
995.859413,74.020594,-3064.381992,7105.977043
995.859743,1628.453072,-1915.238745,8882.471304
995.860072,666.185348,459.657299,9844.739029
995.860402,-1554.432478,2604.724693,9622.677246
995.860732,-2442.679609,2604.724693,9326.594869
995.861062,-1332.370696,1685.410096,9474.636058
995.861391,-74.020594,689.485948,10066.800811
995.861721,888.247130,-306.438199,9252.574275
995.862051,148.041188,-1225.752797,8438.347739
995.862380,-592.164754,-1455.581446,9326.594869
995.862710,-1628.453072,-1225.752797,11103.089130
995.863040,-2516.700203,-1225.752797,12435.459826
995.863369,-4071.132681,-383.047749,12287.418637
995.863699,-5033.400406,-612.876398,11029.068536
995.864029,-4293.194464,-1302.362347,10955.047942
995.864359,-1850.514855,-1532.190996,10436.903782
995.864688,370.102971,-1685.410096,8586.388927
995.865018,1628.453072,-2068.457845,6513.812290
995.865348,1554.432478,-766.095498,6957.935855
995.865677,1184.329507,0.000000,9104.533087
995.866007,0.000000,995.924147,10881.027347
995.866337,-2294.638420,2681.334243,11103.089130
995.866667,-2812.782580,2834.553343,10362.883188
995.866996,-1036.288319,1149.143247,10066.800811
995.867326,444.123565,0.000000,10066.800811
995.867656,1110.308913,0.000000,7994.224174
995.867985,1184.329507,-383.047749,7031.956449
995.868315,1776.494261,459.657299,8364.327145
995.868645,814.226536,2374.896044,10732.986159
995.868975,-1628.453072,2911.162892,11695.253884
995.869304,-3478.967927,3064.381992,11103.089130
995.869634,-3552.988522,2987.772442,10510.924376
995.869964,-1702.473667,2604.724693,10658.965565
995.870293,74.020594,1838.629195,9770.718434
995.870623,666.185348,689.485948,7328.038826
995.870953,1184.329507,76.609550,6513.812290
995.871282,1258.350101,842.705048,7179.997637
995.871612,296.082377,3140.991542,9252.574275
995.871942,-1628.453072,4979.620737,9178.553681
995.872271,-2664.741391,4366.744339,8956.491898
995.872601,-2220.617826,3677.258390,9030.512492
995.872931,-666.185348,2911.162892,9844.739029
995.873260,148.041188,2757.943793,9400.615463
995.873590,222.061783,2145.067394,7994.224174
995.873920,0.000000,1762.019645,7550.100608
995.874249,0.000000,1762.019645,9326.594869
995.874579,-1036.288319,2068.457845,10658.965565
995.874908,-2590.720797,1762.019645,10807.006753
995.875238,-3849.070898,2451.505594,10584.944971
995.875568,-3404.947333,1991.848295,10510.924376
995.875897,-1776.494261,842.705048,10214.842000
995.876227,-740.205942,-306.438199,8734.430116
995.876557,0.000000,-995.924147,6735.874072
995.876886,370.102971,-842.705048,6661.853478
995.877216,592.164754,0.000000,8586.388927
995.877545,-148.041188,689.485948,10955.047942
995.877875,-3404.947333,1838.629195,10140.821405
995.878205,-4737.318029,1762.019645,9474.636058
995.878534,-3256.906145,459.657299,10658.965565
995.878864,-1036.288319,-153.219100,11769.274478
995.879194,-740.205942,-536.266849,10140.821405
995.879523,-814.226536,-1608.800546,8142.265362
995.879853,-592.164754,-1915.238745,7698.141797
995.880182,74.020594,-1378.971896,10362.883188
995.880512,-962.267725,-689.485948,11843.295072
995.880842,-3182.885551,689.485948,11473.192101
995.881171,-4367.215058,229.828649,10732.986159
995.881501,-3108.864956,-766.095498,11399.171507
995.881831,-1480.411884,-842.705048,11399.171507
995.882160,444.123565,-1455.581446,9696.697840
995.882490,1554.432478,-2221.676944,7254.018232
995.882819,1776.494261,-2451.505594,7772.162391
995.883149,814.226536,-689.485948,10066.800811
995.883479,-1110.308913,842.705048,11251.130318
995.883808,-3330.926739,1685.410096,11029.068536
995.884138,-3552.988522,2604.724693,11029.068536
995.884468,-1850.514855,1685.410096,10658.965565
995.884797,222.061783,-306.438199,9474.636058
995.885127,1258.350101,-1225.752797,7328.038826
995.885456,1184.329507,-842.705048,6439.791695
995.885786,814.226536,842.705048,8586.388927
995.886116,148.041188,1838.629195,10881.027347
995.886445,-2368.659014,3217.601092,11621.233289
995.886775,-4589.276840,3524.039291,10584.944971
995.887105,-4145.153275,2681.334243,10140.821405
995.887434,-1776.494261,1455.581446,10732.986159
995.887764,444.123565,459.657299,9548.656652
995.888093,1036.288319,306.438199,7254.018232
995.888423,1258.350101,0.000000,5625.565159
995.888753,1998.556043,459.657299,6957.935855
995.889082,1998.556043,2221.676944,9326.594869
995.889412,518.144159,4903.011187,9622.677246
995.889742,-1628.453072,5745.716235,8956.491898
995.890071,-962.267725,5056.230287,8882.471304
995.890401,148.041188,4673.182538,8956.491898
995.890730,814.226536,3830.477490,7846.182985
995.891060,740.205942,1455.581446,6513.812290
995.891390,-222.061783,919.314598,7402.059420
995.891719,-1628.453072,1762.019645,10732.986159
995.892049,-2960.823768,2068.457845,12805.562797
995.892379,-4589.276840,1608.800546,12287.418637
995.892708,-4959.379811,1149.143247,10732.986159
995.893038,-3182.885551,689.485948,10436.903782
995.893367,-370.102971,-842.705048,10362.883188
995.893697,962.267725,229.828649,9104.533087
995.894027,1332.370696,919.314598,7254.018232
995.894356,1554.432478,766.095498,7254.018232
995.894686,2072.576638,1455.581446,9252.574275
995.895016,518.144159,2145.067394,10732.986159
995.895345,-1480.411884,2298.286494,10214.842000
995.895675,-2960.823768,1685.410096,9474.636058
995.896004,-2368.659014,919.314598,10807.006753
995.896334,-1406.391290,-153.219100,11103.089130
995.896664,-962.267725,-1455.581446,9548.656652
995.896993,-1258.350101,-1762.019645,7624.121203
995.897323,-1036.288319,-1685.410096,8364.327145
995.897653,-1406.391290,-1149.143247,10658.965565
995.897982,-2960.823768,-383.047749,11769.274478
995.898312,-5329.482782,0.000000,11103.089130
995.898641,-5625.565159,536.266849,10510.924376
995.898971,-4219.173869,-153.219100,10807.006753
995.899301,-1628.453072,-1762.019645,10732.986159
995.899630,-148.041188,-2451.505594,8364.327145
995.899960,0.000000,-2451.505594,6217.729913
995.900290,1258.350101,-1685.410096,7624.121203
995.900619,740.205942,153.219100,10140.821405
995.900949,-666.185348,1838.629195,11399.171507
995.901278,-2368.659014,2145.067394,10732.986159
995.901608,-2368.659014,2604.724693,10436.903782
995.901938,-518.144159,1608.800546,11177.109724
995.902267,814.226536,229.828649,10436.903782
995.902597,814.226536,-459.657299,8660.409521
995.902927,444.123565,-383.047749,7550.100608
995.903256,296.082377,-229.828649,9030.512492
995.903586,-222.061783,383.047749,11103.089130
995.903915,-2368.659014,2221.676944,11695.253884
995.904245,-4367.215058,2374.896044,10658.965565
995.904575,-3404.947333,1838.629195,9844.739029
995.904904,-1110.308913,1378.971896,10066.800811
995.905234,518.144159,919.314598,8808.450710
995.905564,1628.453072,-842.705048,6883.915261
995.905893,1406.391290,76.609550,6587.832884
995.906223,1184.329507,2068.457845,7994.224174
995.906552,296.082377,3140.991542,10436.903782
995.906882,-1110.308913,4136.915689,10436.903782
995.907212,-2146.597232,4903.011187,9326.594869
995.907541,-1406.391290,4060.306139,9252.574275
995.907871,370.102971,2528.115143,9622.677246
995.908201,1036.288319,2068.457845,8882.471304
995.908530,888.247130,1991.848295,6883.915261
995.908860,1110.308913,1685.410096,7476.080014
995.909189,1258.350101,2298.286494,9918.759623
995.909519,-370.102971,2757.943793,11029.068536
995.909849,-2738.761985,2681.334243,10510.924376
995.910178,-4293.194464,2987.772442,9474.636058
995.910508,-3034.844362,2068.457845,9548.656652
995.910838,-1184.329507,995.924147,10584.944971
995.911167,0.000000,0.000000,8660.409521
995.911497,74.020594,-536.266849,6735.874072
995.911826,962.267725,-842.705048,7105.977043
995.912156,1258.350101,919.314598,9326.594869
995.912486,-296.082377,2604.724693,10955.047942
995.912815,-3034.844362,2681.334243,10732.986159
995.913145,-4367.215058,2221.676944,10288.862594
995.913475,-3552.988522,1762.019645,11325.150913
995.913804,-2220.617826,919.314598,11473.192101
995.914134,-1702.473667,-766.095498,9844.739029
995.914463,-1184.329507,-1532.190996,7254.018232
995.914793,-1184.329507,-1762.019645,7624.121203
995.915123,-962.267725,-1225.752797,10362.883188
995.915452,-2220.617826,0.000000,11547.212695
995.915782,-4219.173869,536.266849,10955.047942
995.916111,-4737.318029,766.095498,10288.862594
995.916441,-2886.803174,-612.876398,10955.047942
995.916771,-518.144159,-1378.971896,10807.006753
995.917100,444.123565,-1532.190996,8882.471304
995.917430,740.205942,-2068.457845,6957.935855
995.917760,518.144159,-1762.019645,7920.203579
995.918089,74.020594,-766.095498,10584.944971
995.918419,-1998.556043,1072.533697,11769.274478
995.918748,-3701.029710,1991.848295,10955.047942
995.919078,-3478.967927,1455.581446,10214.842000
995.919408,-1480.411884,919.314598,9844.739029
995.919737,592.164754,-766.095498,9918.759623
995.920067,666.185348,-1378.971896,8364.327145
995.920397,222.061783,-229.828649,7624.121203
995.920726,0.000000,842.705048,9104.533087
995.921056,-962.267725,1072.533697,10510.924376
995.921385,-2590.720797,1378.971896,11473.192101
995.921715,-3997.112087,1685.410096,10066.800811
995.922045,-3552.988522,766.095498,9918.759623
995.922374,-1628.453072,612.876398,10584.944971
995.922704,666.185348,689.485948,9326.594869
995.923034,1776.494261,-383.047749,6957.935855
995.923363,1554.432478,-383.047749,5699.585753
995.923693,2590.720797,1149.143247,7920.203579
995.924022,2442.679609,2757.943793,11103.089130
995.924352,444.123565,4519.963438,11473.192101
995.924682,-1702.473667,5439.278036,9918.759623
995.925011,-1628.453072,4903.011187,9474.636058
995.925341,-148.041188,3140.991542,8734.430116
995.925671,1036.288319,1762.019645,7550.100608
995.926000,814.226536,229.828649,6661.853478
995.926330,148.041188,919.314598,7920.203579
995.926659,-592.164754,1532.190996,10066.800811
995.926989,-2442.679609,2451.505594,11769.274478
995.927319,-4293.194464,1991.848295,11251.130318
995.927648,-4663.297435,2834.553343,10214.842000
995.927978,-2738.761985,1915.238745,10066.800811
995.928308,74.020594,1225.752797,10510.924376
995.928637,1258.350101,1149.143247,8808.450710
995.928967,1258.350101,995.924147,6809.894666
995.929296,1628.453072,-383.047749,6587.832884
995.929626,1406.391290,766.095498,9030.512492
995.929956,0.000000,2451.505594,10436.903782
995.930285,-2146.597232,2451.505594,10140.821405
995.930615,-3108.864956,1991.848295,9844.739029
995.930945,-2368.659014,1302.362347,10436.903782
995.931274,-1036.288319,459.657299,11103.089130
995.931604,-370.102971,-612.876398,9252.574275
995.931933,-888.247130,-306.438199,7624.121203
995.932263,-666.185348,-459.657299,8438.347739
995.932593,-962.267725,-306.438199,10955.047942
995.932922,-2664.741391,459.657299,11917.315666
995.933252,-4367.215058,536.266849,11251.130318
995.933582,-5255.462188,459.657299,9918.759623
995.933911,-3701.029710,-995.924147,10807.006753
995.934241,-1702.473667,-2068.457845,10807.006753
995.934570,-962.267725,-2374.896044,8808.450710
995.934900,-222.061783,-2298.286494,6587.832884
995.935230,518.144159,-1685.410096,7328.038826
995.935559,814.226536,-919.314598,10066.800811
995.935889,-1184.329507,842.705048,11103.089130
995.936219,-3182.885551,1838.629195,10658.965565
995.936548,-3404.947333,2528.115143,10732.986159
995.936878,-1998.556043,1225.752797,10955.047942
995.937207,0.000000,306.438199,10955.047942
995.937537,0.000000,-995.924147,8142.265362
995.937867,148.041188,-1608.800546,7105.977043
995.938196,148.041188,-1378.971896,8956.491898
995.938526,-666.185348,153.219100,10881.027347
995.938856,-2960.823768,1608.800546,11695.253884
995.939185,-4515.256246,919.314598,11029.068536
995.939515,-3775.050304,1532.190996,10510.924376
995.939844,-1554.432478,995.924147,10140.821405
995.940174,888.247130,0.000000,9104.533087
995.940504,1776.494261,-536.266849,6735.874072
995.940833,1554.432478,76.609550,6439.791695
995.941163,1628.453072,1838.629195,8290.306550
995.941493,962.267725,3140.991542,10362.883188
995.941822,-962.267725,4136.915689,10436.903782
995.942152,-2146.597232,4366.744339,9252.574275
995.942481,-2294.638420,3294.210641,10066.800811
995.942811,-814.226536,2604.724693,10807.006753
995.943141,74.020594,2068.457845,9622.677246
995.943470,-296.082377,1608.800546,7476.080014
995.943800,-222.061783,1072.533697,7254.018232
995.944130,592.164754,1991.848295,8586.388927
995.944459,-222.061783,2451.505594,10140.821405
995.944789,-1480.411884,2911.162892,9474.636058
995.945118,-2368.659014,3370.820191,8734.430116
995.945448,-1406.391290,3064.381992,9400.615463
995.945778,222.061783,1762.019645,10214.842000
995.946107,1184.329507,1608.800546,9326.594869
995.946437,740.205942,766.095498,6587.832884
995.946767,1036.288319,306.438199,6957.935855
995.947096,1332.370696,306.438199,9918.759623
995.947426,0.000000,1991.848295,11325.150913
995.947755,-2368.659014,3064.381992,10510.924376
995.948085,-3701.029710,2604.724693,9474.636058
995.948415,-2442.679609,2068.457845,9844.739029
995.948744,-1184.329507,1072.533697,11103.089130
995.949074,-814.226536,0.000000,9622.677246
995.949404,-1258.350101,229.828649,7254.018232
995.949733,-1406.391290,153.219100,7550.100608
995.950063,-1110.308913,0.000000,10066.800811
995.950392,-2368.659014,-459.657299,11547.212695
995.950722,-4589.276840,0.000000,10807.006753
995.951052,-5181.441594,536.266849,9992.780217
995.951381,-4145.153275,-536.266849,10658.965565
995.951711,-1998.556043,-612.876398,11029.068536
995.952041,-296.082377,-1915.238745,9400.615463
995.952370,370.102971,-2604.724693,7698.141797
995.952700,1036.288319,-1991.848295,8216.285956
995.953029,74.020594,-689.485948,10510.924376
995.953359,-1628.453072,766.095498,11547.212695
995.953689,-3701.029710,1455.581446,10807.006753
995.954018,-4145.153275,1685.410096,10584.944971
995.954348,-1998.556043,383.047749,10881.027347
995.954678,-148.041188,-536.266849,10066.800811
995.955007,666.185348,-1378.971896,7920.203579
995.955337,296.082377,-2145.067394,6809.894666
995.955666,444.123565,-612.876398,8808.450710
995.955996,-296.082377,1455.581446,11695.253884
995.956326,-2442.679609,1762.019645,11695.253884
995.956655,-4071.132681,2068.457845,9622.677246
995.956985,-3478.967927,1378.971896,9400.615463
995.957315,-1184.329507,-153.219100,10510.924376
995.957644,296.082377,-689.485948,10288.862594
995.957974,444.123565,-842.705048,7550.100608
995.958303,-148.041188,-76.609550,6587.832884
995.958633,1184.329507,153.219100,8956.491898
995.958963,1184.329507,1455.581446,11251.130318
995.959292,-222.061783,3370.820191,10955.047942
995.959622,-1406.391290,4290.134789,9252.574275
995.959952,-1184.329507,4443.353888,8438.347739
995.960281,74.020594,3830.477490,9178.553681
995.960611,962.267725,2221.676944,8586.388927
995.960940,666.185348,459.657299,7105.977043
995.961270,0.000000,1455.581446,7920.203579
995.961600,-370.102971,1762.019645,10214.842000
995.961929,-1554.432478,1532.190996,12065.356855
995.962259,-3182.885551,1532.190996,11325.150913
995.962589,-3701.029710,2298.286494,9992.780217
995.962918,-2146.597232,1991.848295,9622.677246
995.963248,370.102971,1608.800546,10436.903782
995.963577,1406.391290,1685.410096,9400.615463
995.963907,740.205942,1455.581446,6809.894666
995.964237,1110.308913,842.705048,6883.915261
995.964566,666.185348,2298.286494,9178.553681
995.964896,-814.226536,3677.258390,10214.842000
995.965226,-3627.009116,3140.991542,9696.697840
995.965555,-5403.503377,2528.115143,9030.512492
995.965885,-4737.318029,1455.581446,9770.718434
995.966214,-3256.906145,919.314598,10214.842000
995.966544,-2738.761985,229.828649,9178.553681
995.966874,-2738.761985,76.609550,7772.162391
995.967203,-2664.741391,459.657299,7772.162391
995.967533,-2664.741391,612.876398,9622.677246
995.967863,-3701.029710,1378.971896,11103.089130
995.968192,-6661.853478,1225.752797,11177.109724
995.968522,-8364.327145,1455.581446,10807.006753
995.968851,-7698.141797,459.657299,11621.233289
995.969181,-5551.544565,-1455.581446,11473.192101
995.969511,-3404.947333,-2911.162892,9178.553681
995.969840,-2368.659014,-3524.039291,6217.729913
995.970170,-740.205942,-2451.505594,6661.853478
995.970500,592.164754,-1149.143247,9178.553681
995.970829,-592.164754,995.924147,11399.171507
995.971159,-3552.988522,2834.553343,11695.253884
995.971488,-5921.647536,3064.381992,11103.089130
995.971818,-6143.709319,2451.505594,11325.150913
995.972148,-5033.400406,919.314598,11991.336260
995.972477,-4441.235652,-1455.581446,9770.718434
995.972807,-4219.173869,-3064.381992,7179.997637
995.973137,-3034.844362,-3677.258390,6661.853478
995.973466,-1554.432478,-2374.896044,8290.306550
995.973796,-666.185348,-229.828649,9770.718434
995.974126,-2072.576638,1225.752797,9918.759623
995.974455,-4071.132681,2834.553343,9770.718434
995.974785,-5625.565159,3907.087040,10436.903782
995.975114,-5773.606348,3294.210641,11695.253884
995.975444,-5995.668130,2221.676944,11621.233289
995.975774,-5477.523971,229.828649,10214.842000
995.976103,-4885.359217,-1378.971896,8734.430116
995.976433,-2960.823768,-1991.848295,7994.224174
995.976763,-592.164754,-1838.629195,7994.224174
995.977092,962.267725,-842.705048,8216.285956
995.977422,592.164754,1225.752797,8882.471304
995.977751,-1258.350101,2834.553343,10436.903782
995.978081,-3256.906145,4366.744339,12139.377449
995.978411,-5921.647536,5822.325785,12583.501014
995.978740,-7846.182985,6052.154434,11547.212695
995.979070,-7254.018232,4519.963438,9104.533087
995.979400,-4737.318029,842.705048,6587.832884
995.979729,-1258.350101,-2221.676944,5107.421000
995.980059,444.123565,-2604.724693,4515.256246
995.980389,222.061783,-536.266849,5181.441594
995.980718,148.041188,2911.162892,6587.832884
995.981048,-518.144159,5592.497135,8956.491898
995.981377,-2146.597232,7048.078582,10436.903782
995.981707,-3478.967927,6511.811733,11991.336260
995.982037,-6365.771101,5362.668486,13249.686362
995.982366,-9252.574275,4826.401637,13767.830521
995.982696,-11769.274478,2145.067394,13101.645173
995.983026,-11473.192101,-1072.533697,12213.398043
995.983355,-10584.944971,-3217.601092,9844.739029
995.983685,-7846.182985,-4443.353888,7105.977043
995.984015,-3478.967927,-5209.449386,4885.359217
995.984344,370.102971,-3140.991542,4367.215058
995.984674,3034.844362,842.705048,4885.359217
995.985003,3701.029710,3677.258390,6587.832884
995.985333,2886.803174,6205.373534,9252.574275
995.985663,740.205942,8197.221829,11843.295072
995.985992,-2294.638420,8427.050478,13693.809927
995.986322,-4737.318029,5209.449386,13841.851115
995.986652,-7476.080014,689.485948,12879.583391
995.986981,-9030.512492,-3217.601092,12213.398043
995.987311,-9918.759623,-5592.497135,11325.150913
995.987641,-9770.718434,-6052.154434,9474.636058
995.987970,-7846.182985,-6281.983084,7402.059420
995.988300,-5329.482782,-4979.620737,5921.647536
995.988629,-2072.576638,-2068.457845,6291.750507
995.988959,370.102971,1072.533697,7328.038826
995.989289,1036.288319,3907.087040,8290.306550
995.989618,-444.123565,6358.592633,8956.491898
995.989948,-2960.823768,6588.421283,10584.944971
995.990278,-5107.421000,4519.963438,12361.439231
995.990607,-7550.100608,1149.143247,12065.356855
995.990937,-9178.553681,-1685.410096,10807.006753
995.991267,-8882.471304,-4519.963438,9474.636058
995.991596,-6809.894666,-6511.811733,9474.636058
995.991926,-4589.276840,-5515.887586,8956.491898
995.992255,-2368.659014,-3524.039291,7920.203579
995.992585,0.000000,-919.314598,7254.018232
995.992915,1924.535449,1991.848295,8660.409521
995.993244,2368.659014,5056.230287,10436.903782
995.993574,888.247130,7584.345430,11399.171507
995.993904,-1184.329507,6358.592633,11843.295072
995.994233,-3330.926739,3370.820191,13175.665768
995.994563,-6069.688724,1608.800546,13915.871710
995.994892,-8512.368333,766.095498,11991.336260
995.995222,-9252.574275,-2374.896044,8808.450710
995.995552,-6809.894666,-4903.011187,5625.565159
995.995881,-3256.906145,-5056.230287,4885.359217
995.996211,-740.205942,-2451.505594,5107.421000
995.996541,0.000000,0.000000,5773.606348
995.996870,-592.164754,4596.572988,6957.935855
995.997200,-2220.617826,8350.440928,9252.574275
995.997530,-3478.967927,9882.631924,11547.212695
995.997859,-4811.338623,8120.612279,13027.624579
995.998189,-6217.729913,4903.011187,13101.645173
995.998518,-7254.018232,2681.334243,12657.521608
995.998848,-7328.038826,459.657299,11843.295072
995.999178,-6883.915261,-1685.410096,9844.739029
995.999507,-5625.565159,-2604.724693,7846.182985
995.999837,-3701.029710,-1378.971896,6587.832884
996.000167,-1036.288319,1991.848295,5551.544565
996.000496,1406.391290,2681.334243,6217.729913
996.000826,1998.556043,5209.449386,7105.977043
996.001156,1258.350101,7277.907231,8290.306550
996.001485,-444.123565,7354.516781,10140.821405
996.001815,-2294.638420,6435.202183,11251.130318
996.002144,-4441.235652,4903.011187,12065.356855
996.002474,-4959.379811,2604.724693,10807.006753
996.002804,-4959.379811,-229.828649,9474.636058
996.003133,-3923.091493,-1915.238745,8586.388927
996.003463,-2368.659014,-2221.676944,8438.347739
996.003793,-1850.514855,-229.828649,8142.265362
996.004122,-1924.535449,2987.772442,8364.327145
996.004452,-2294.638420,4443.353888,9474.636058
996.004782,-2368.659014,5056.230287,10658.965565
996.005111,-2294.638420,6511.811733,11695.253884
996.005441,-2664.741391,6281.983084,11325.150913
996.005770,-2738.761985,4290.134789,11177.109724
996.006100,-2590.720797,1532.190996,10658.965565
996.006430,-1628.453072,766.095498,9844.739029
996.006759,-1258.350101,383.047749,8808.450710
996.007089,-814.226536,383.047749,8364.327145
996.007419,0.000000,1762.019645,8882.471304
996.007748,740.205942,3677.258390,9918.759623
996.008078,370.102971,5439.278036,10955.047942
996.008408,-962.267725,7201.297681,10955.047942
996.008737,-1850.514855,6894.859482,10288.862594
996.009067,-2368.659014,7201.297681,9770.718434
996.009396,-3034.844362,5209.449386,9326.594869
996.009726,-2960.823768,2604.724693,7994.224174
996.010056,-2220.617826,1149.143247,6439.791695
996.010385,-1110.308913,0.000000,5847.626942
996.010715,-1184.329507,0.000000,6069.688724
996.011045,-1258.350101,1149.143247,7402.059420
996.011374,-1924.535449,3677.258390,8438.347739
996.011704,-2590.720797,5745.716235,9622.677246
996.012034,-2368.659014,7354.516781,10732.986159
996.012363,-1776.494261,6511.811733,11103.089130
996.012693,-740.205942,6741.640382,11029.068536
996.013022,-518.144159,4749.792088,10510.924376
996.013352,-740.205942,3677.258390,10214.842000
996.013682,-962.267725,3217.601092,9844.739029
996.014011,-1110.308913,2604.724693,9252.574275
996.014341,-518.144159,2834.553343,8882.471304
996.014671,148.041188,3140.991542,8586.388927
996.015000,1036.288319,2911.162892,8956.491898
996.015330,888.247130,3294.210641,9178.553681
996.015659,-518.144159,4826.401637,9844.739029
996.015989,-1110.308913,6128.763984,11029.068536
996.016319,-1924.535449,6435.202183,11325.150913
996.016648,-1480.411884,6052.154434,11621.233289
996.016978,-1332.370696,4903.011187,10658.965565
996.017308,-1036.288319,3600.648841,9770.718434
996.017637,-814.226536,3983.696590,9548.656652
996.017967,-222.061783,4673.182538,9918.759623
996.018297,0.000000,5056.230287,9400.615463
996.018626,0.000000,4979.620737,7994.224174
996.018956,148.041188,4213.525239,6883.915261
996.019285,74.020594,2834.553343,6587.832884
996.019615,-222.061783,2374.896044,7328.038826
996.019945,-1406.391290,2528.115143,8216.285956
996.020274,-2886.803174,2987.772442,9326.594869
996.020604,-3849.070898,3370.820191,10066.800811
996.020934,-3478.967927,3600.648841,10955.047942
996.021263,-2590.720797,3983.696590,11177.109724
996.021593,-1702.473667,4979.620737,10807.006753
996.021923,-1110.308913,5439.278036,9474.636058
996.022252,0.000000,5898.935335,9474.636058
996.022582,666.185348,6052.154434,9622.677246
996.022911,74.020594,6281.983084,9104.533087
996.023241,-666.185348,5822.325785,7550.100608
996.023571,-1258.350101,3447.429741,6809.894666
996.023900,-1258.350101,1838.629195,6661.853478
996.024230,-1332.370696,0.000000,7105.977043
996.024560,-1628.453072,-995.924147,7402.059420
996.024889,-1850.514855,-1302.362347,8512.368333
996.025219,-1924.535449,0.000000,10140.821405
996.025549,-1480.411884,2681.334243,12065.356855
996.025878,-1036.288319,4596.572988,13027.624579
996.026208,-296.082377,5669.106685,13323.706956
996.026537,0.000000,5822.325785,12805.562797
996.026867,148.041188,6894.859482,12435.459826
996.027197,222.061783,6052.154434,11473.192101
996.027526,-74.020594,4366.744339,10510.924376
996.027856,-888.247130,2987.772442,9622.677246
996.028186,-1702.473667,2374.896044,8512.368333
996.028515,-2368.659014,2298.286494,8290.306550
996.028845,-2442.679609,1532.190996,8142.265362
996.029175,-1924.535449,919.314598,7550.100608
996.029504,-962.267725,766.095498,7994.224174
996.029834,-370.102971,2145.067394,8808.450710
996.030163,-222.061783,3294.210641,10288.862594
996.030493,-666.185348,4673.182538,10732.986159
996.030823,-1480.411884,7048.078582,11103.089130
996.031152,-1258.350101,7890.783629,11843.295072
996.031482,-962.267725,7048.078582,11917.315666
996.031812,-1332.370696,6665.030833,10881.027347
996.032141,-1998.556043,5439.278036,8364.327145
996.032471,-1554.432478,4903.011187,5921.647536
996.032800,148.041188,3294.210641,3849.070898
996.033130,2368.659014,1838.629195,3627.009116
996.033460,3330.926739,1378.971896,4737.318029
996.033789,1850.514855,2604.724693,5847.626942
996.034119,-1406.391290,4290.134789,7772.162391
996.034449,-3849.070898,4979.620737,10214.842000
996.034778,-4737.318029,5209.449386,12805.562797
996.035108,-5181.441594,5362.668486,14582.057057
996.035438,-5625.565159,4673.182538,13545.768739
996.035767,-5181.441594,3907.087040,12065.356855
996.036097,-3775.050304,2298.286494,9326.594869
996.036426,-740.205942,1685.410096,7031.956449
996.036756,2590.720797,919.314598,5625.565159
996.037086,4959.379811,919.314598,5255.462188
996.037415,5773.606348,2681.334243,6439.791695
996.037745,3923.091493,3983.696590,8142.265362
996.038075,814.226536,4366.744339,10955.047942
996.038404,-2590.720797,5822.325785,14137.933492
996.038734,-4811.338623,6435.202183,16580.613101
996.039064,-5551.544565,4903.011187,15988.448347
996.039393,-5329.482782,1762.019645,13175.665768
996.039723,-3256.906145,-1378.971896,9474.636058
996.040052,-592.164754,-3830.477490,7105.977043
996.040382,740.205942,-3600.648841,5477.523971
996.040712,740.205942,-689.485948,5847.626942
996.041041,1332.370696,1685.410096,7179.997637
996.041371,592.164754,3064.381992,7846.182985
996.041701,-740.205942,3753.867940,8216.285956
996.042030,-1258.350101,1532.190996,9474.636058
996.042360,-2368.659014,612.876398,10658.965565
996.042690,-2812.782580,1072.533697,12435.459826
996.043019,-3108.864956,229.828649,13027.624579
996.043349,-2516.700203,-1072.533697,12435.459826
996.043678,-1924.535449,-689.485948,11399.171507
996.044008,-1850.514855,229.828649,10288.862594
996.044338,-148.041188,1532.190996,9030.512492
996.044667,74.020594,1915.238745,7402.059420
996.044997,888.247130,1072.533697,5477.523971
996.045327,1776.494261,-919.314598,5107.421000
996.045656,1628.453072,-1455.581446,6291.750507
996.045986,1110.308913,-459.657299,8438.347739
996.046316,-666.185348,-842.705048,10436.903782
996.046645,-2590.720797,-689.485948,12139.377449
996.046975,-3849.070898,919.314598,14211.954086
996.047304,-3775.050304,1991.848295,15248.242405
996.047634,-3108.864956,1838.629195,14063.912898
996.047964,-2886.803174,2221.676944,11103.089130
996.048293,-1110.308913,1838.629195,8734.430116
996.048623,1184.329507,383.047749,7476.080014
996.048953,2220.617826,459.657299,7624.121203
996.049282,1850.514855,2374.896044,7550.100608
996.049612,888.247130,1838.629195,7994.224174
996.049941,-1036.288319,2068.457845,8586.388927
996.050271,-2442.679609,2145.067394,9474.636058
996.050601,-2738.761985,1608.800546,10140.821405
996.050930,-2590.720797,459.657299,9844.739029
996.051260,-2516.700203,1302.362347,9622.677246
996.051590,-1702.473667,1072.533697,9474.636058
996.051919,-370.102971,689.485948,9770.718434
996.052249,0.000000,1685.410096,8882.471304
996.052579,-296.082377,3294.210641,8290.306550
996.052908,222.061783,4290.134789,8882.471304
996.053238,-296.082377,5286.058936,9622.677246
996.053567,-1184.329507,4903.011187,8734.430116
996.053897,-1850.514855,2757.943793,7105.977043
996.054227,-1554.432478,459.657299,7179.997637
996.054556,-1406.391290,229.828649,8512.368333
996.054886,-1702.473667,995.924147,10066.800811
996.055216,-2812.782580,1225.752797,9696.697840
996.055545,-2886.803174,1302.362347,9770.718434
996.055875,-2294.638420,1455.581446,11103.089130
996.056205,-1998.556043,2834.553343,11917.315666
996.056534,-1998.556043,3140.991542,10140.821405
996.056864,-1110.308913,1838.629195,7698.141797
996.057193,444.123565,-306.438199,6587.832884
996.057523,1554.432478,-766.095498,7179.997637
996.057853,1776.494261,-459.657299,8364.327145
996.058182,1480.411884,459.657299,9252.574275
996.058512,0.000000,995.924147,9770.718434
996.058842,-1110.308913,1225.752797,12361.439231
996.059171,-2442.679609,2221.676944,13767.830521
996.059501,-3256.906145,2374.896044,13101.645173
996.059831,-3034.844362,1149.143247,10881.027347
996.060160,-1258.350101,-229.828649,9178.553681
996.060490,444.123565,-2221.676944,9326.594869
996.060819,444.123565,-1838.629195,8734.430116
996.061149,-518.144159,-153.219100,7772.162391
996.061479,-1036.288319,306.438199,7920.203579
996.061808,-1184.329507,842.705048,9918.759623
996.062138,-1776.494261,1149.143247,9844.739029
996.062468,-2442.679609,0.000000,8660.409521
996.062797,-2294.638420,-2451.505594,7920.203579
996.063127,-740.205942,-2681.334243,8586.388927
996.063457,-296.082377,-2604.724693,9992.780217
996.063786,-962.267725,-919.314598,11177.109724
996.064116,-1480.411884,306.438199,11325.150913
996.064445,-962.267725,1225.752797,11769.274478
996.064775,-518.144159,1991.848295,11769.274478
996.065105,-296.082377,2221.676944,10288.862594
996.065434,0.000000,995.924147,8438.347739
996.065764,222.061783,-229.828649,7550.100608
996.066094,444.123565,-1149.143247,8068.244768
996.066423,222.061783,-612.876398,9030.512492
996.066753,-1332.370696,-306.438199,9104.533087
996.067082,-2516.700203,76.609550,9622.677246
996.067412,-2812.782580,689.485948,11695.253884
996.067742,-2664.741391,1991.848295,12213.398043
996.068071,-3108.864956,2068.457845,10288.862594
996.068401,-2368.659014,536.266849,8142.265362
996.068731,-518.144159,-306.438199,7772.162391
996.069060,888.247130,229.828649,8882.471304
996.069390,1184.329507,2145.067394,9030.512492
996.069720,518.144159,3140.991542,8660.409521
996.070049,-296.082377,3524.039291,8956.491898
996.070379,-666.185348,3677.258390,11103.089130
996.070708,-888.247130,3830.477490,12361.439231
996.071038,-2590.720797,3753.867940,11177.109724
996.071368,-3108.864956,2834.553343,8734.430116
996.071697,-2368.659014,1072.533697,8364.327145
996.072027,-814.226536,383.047749,9030.512492
996.072357,-74.020594,1378.971896,8882.471304
996.072686,-888.247130,2987.772442,7846.182985
996.073015,-1332.370696,3600.648841,7550.100608
996.073345,-1110.308913,3830.477490,8808.450710
996.073674,-1110.308913,4366.744339,9252.574275
996.074004,-1184.329507,3370.820191,7476.080014
996.074333,-1554.432478,1302.362347,5773.606348
996.074663,-296.082377,536.266849,6587.832884
996.074993,888.247130,-153.219100,7994.224174
996.075322,222.061783,229.828649,9326.594869
996.075652,-814.226536,1378.971896,9474.636058
996.075981,-1110.308913,1762.019645,10140.821405
996.076311,-888.247130,2298.286494,11843.295072
996.076640,-1110.308913,2681.334243,12287.418637
996.076970,-1776.494261,1991.848295,10732.986159
996.077300,-1258.350101,612.876398,9770.718434
996.077629,-148.041188,-766.095498,9474.636058
996.077959,74.020594,-689.485948,10288.862594
996.078288,-1036.288319,-995.924147,9548.656652
996.078618,-1998.556043,-1149.143247,9178.553681
996.078947,-2220.617826,-1608.800546,10140.821405
996.079277,-2072.576638,-995.924147,11103.089130
996.079607,-2516.700203,-766.095498,11621.233289
996.079936,-2886.803174,-1378.971896,10436.903782
996.080266,-2368.659014,-1685.410096,9696.697840
996.080595,-888.247130,-1991.848295,9918.759623
996.080925,592.164754,-2451.505594,9696.697840
996.081254,888.247130,-1762.019645,9400.615463
996.081584,444.123565,-1225.752797,9326.594869
996.081914,666.185348,-459.657299,10584.944971
996.082243,370.102971,383.047749,11843.295072
996.082573,-814.226536,766.095498,11547.212695
996.082902,-1998.556043,536.266849,9474.636058
996.083232,-1554.432478,-459.657299,9030.512492
996.083561,-444.123565,-1685.410096,9178.553681
996.083891,296.082377,-2145.067394,8956.491898
996.084220,-740.205942,-1455.581446,7846.182985
996.084550,-1258.350101,-153.219100,7846.182985
996.084880,-1554.432478,0.000000,9400.615463
996.085209,-2220.617826,1915.238745,10955.047942
996.085539,-2812.782580,2451.505594,10362.883188
996.085868,-2516.700203,1302.362347,8364.327145
996.086198,-1258.350101,0.000000,7994.224174
996.086527,0.000000,-612.876398,8512.368333
996.086857,444.123565,0.000000,9104.533087
996.087187,0.000000,1225.752797,9104.533087
996.087516,-1036.288319,2298.286494,9104.533087
996.087846,-1332.370696,2911.162892,10584.944971
996.088175,-1406.391290,3140.991542,11695.253884
996.088505,-1850.514855,4213.525239,11103.089130
996.088834,-1924.535449,3524.039291,8586.388927
996.089164,-592.164754,1762.019645,7476.080014
996.089494,1036.288319,536.266849,8216.285956
996.089823,1110.308913,1072.533697,8290.306550
996.090153,0.000000,2451.505594,8512.368333
996.090482,-1110.308913,3064.381992,8734.430116
996.090812,-1702.473667,3830.477490,10214.842000
996.091141,-2368.659014,3677.258390,10584.944971
996.091471,-2368.659014,2604.724693,10214.842000
996.091801,-2072.576638,1532.190996,8808.450710
996.092130,-1184.329507,1149.143247,8364.327145
996.092460,-296.082377,0.000000,8438.347739
996.092789,0.000000,-229.828649,9252.574275
996.093119,-518.144159,1838.629195,9770.718434
996.093448,-888.247130,3294.210641,10510.924376
996.093778,-1480.411884,4213.525239,11325.150913
996.094108,-2072.576638,3907.087040,10732.986159
996.094437,-1702.473667,1762.019645,9030.512492
996.094767,-1184.329507,-153.219100,7920.203579
996.095096,0.000000,-1378.971896,7920.203579
996.095426,592.164754,-842.705048,8142.265362
996.095755,-222.061783,-842.705048,8512.368333
996.096085,-1110.308913,-766.095498,8956.491898
996.096414,-1776.494261,689.485948,10510.924376
996.096744,-1924.535449,2068.457845,11843.295072
996.097074,-1998.556043,2528.115143,11103.089130
996.097403,-2072.576638,-383.047749,9252.574275
996.097733,-1332.370696,-1455.581446,8068.244768
996.098062,0.000000,-2834.553343,8512.368333
996.098392,0.000000,-3064.381992,9178.553681
996.098721,-592.164754,-1608.800546,9474.636058
996.099051,-1036.288319,0.000000,9548.656652
996.099381,-740.205942,-306.438199,10881.027347
996.099710,0.000000,-229.828649,12287.418637
996.100040,-962.267725,0.000000,11843.295072
996.100369,-1554.432478,766.095498,9696.697840
996.100699,-1110.308913,-689.485948,8956.491898
996.101028,0.000000,-1991.848295,9178.553681
996.101358,518.144159,-2757.943793,9622.677246
996.101688,148.041188,-2374.896044,9622.677246
996.102017,-592.164754,-919.314598,9770.718434
996.102347,-1628.453072,766.095498,10436.903782
996.102676,-2072.576638,766.095498,11473.192101
996.103006,-2220.617826,766.095498,10955.047942
996.103335,-2294.638420,689.485948,9548.656652
996.103665,-1332.370696,153.219100,8882.471304
996.103995,0.000000,-383.047749,9178.553681
996.104324,74.020594,-306.438199,9696.697840
996.104654,-444.123565,383.047749,9400.615463
996.104983,-1184.329507,1915.238745,10066.800811
996.105313,-1184.329507,2834.553343,11399.171507
996.105642,-1776.494261,3447.429741,11399.171507
996.105972,-2664.741391,3370.820191,9474.636058
996.106301,-2146.597232,1991.848295,7772.162391
996.106631,-370.102971,689.485948,7402.059420
996.106961,1110.308913,689.485948,7846.182985
996.107290,518.144159,1685.410096,7550.100608
996.107620,148.041188,2987.772442,7846.182985
996.107949,-592.164754,3830.477490,8512.368333
996.108279,-1036.288319,4903.011187,9992.780217
996.108608,-1332.370696,4979.620737,10436.903782
996.108938,-1776.494261,4366.744339,9770.718434
996.109268,-2146.597232,3294.210641,7994.224174
996.109597,-1850.514855,995.924147,6957.935855
996.109927,-370.102971,-306.438199,8364.327145
996.110256,-592.164754,1072.533697,9178.553681
996.110586,-1554.432478,3217.601092,9030.512492
996.110915,-1628.453072,2757.943793,9474.636058
996.111245,-1480.411884,2604.724693,10881.027347
996.111575,-1702.473667,3370.820191,11251.130318
996.111904,-1998.556043,3600.648841,9474.636058
996.112234,-1258.350101,1838.629195,7698.141797
996.112563,148.041188,76.609550,7476.080014
996.112893,740.205942,-612.876398,8438.347739
996.113222,370.102971,0.000000,9252.574275
996.113552,-666.185348,536.266849,9400.615463
996.113882,-888.247130,1072.533697,10510.924376
996.114211,-1258.350101,1225.752797,11621.233289
996.114541,-1998.556043,306.438199,11473.192101
996.114870,-2368.659014,-766.095498,9474.636058
996.115200,-1924.535449,-1991.848295,9030.512492
996.115529,-1036.288319,-1838.629195,9622.677246
996.115859,-888.247130,-1072.533697,9992.780217
996.116189,-666.185348,-1302.362347,9844.739029
996.116518,-666.185348,-1149.143247,9622.677246
996.116848,-370.102971,-229.828649,10658.965565
996.117177,-370.102971,459.657299,11917.315666
996.117507,-1184.329507,0.000000,11325.150913
996.117836,-2146.597232,-612.876398,10066.800811
996.118166,-2220.617826,-1532.190996,9696.697840
996.118495,-962.267725,-1991.848295,10140.821405
996.118825,0.000000,-1991.848295,10066.800811
996.119155,0.000000,-1838.629195,9252.574275
996.119484,-74.020594,-995.924147,8586.388927
996.119814,-222.061783,0.000000,9622.677246
996.120143,-518.144159,1685.410096,10881.027347
996.120473,-1036.288319,2298.286494,10510.924376
996.120802,-1554.432478,1762.019645,8734.430116
996.121132,-1184.329507,383.047749,8734.430116
996.121462,444.123565,-612.876398,9178.553681
996.121791,518.144159,-229.828649,9400.615463
996.122121,-592.164754,766.095498,8586.388927
996.122450,-1776.494261,1302.362347,8956.491898
996.122780,-1776.494261,1608.800546,10955.047942
996.123109,-2146.597232,2987.772442,12065.356855
996.123439,-3034.844362,4519.963438,10510.924376
996.123769,-2664.741391,2911.162892,7994.224174
996.124098,-1110.308913,1225.752797,6957.935855
996.124428,740.205942,1302.362347,7624.121203
996.124757,888.247130,2451.505594,8142.265362
996.125087,0.000000,3830.477490,7328.038826
996.125416,-740.205942,3677.258390,7624.121203
996.125746,-888.247130,3753.867940,9326.594869
996.126076,-1554.432478,3830.477490,10732.986159
996.126405,-2294.638420,3753.867940,9770.718434
996.126735,-1850.514855,2987.772442,8364.327145
996.127064,-1036.288319,995.924147,7846.182985
996.127394,148.041188,612.876398,9030.512492
996.127723,0.000000,1915.238745,10658.965565
996.128053,-888.247130,3830.477490,10510.924376
996.128382,-1628.453072,4290.134789,10362.883188
996.128712,-1480.411884,4596.572988,11103.089130
996.129042,-1554.432478,3907.087040,12065.356855
996.129371,-2368.659014,3294.210641,10807.006753
996.129701,-2220.617826,2298.286494,8734.430116
996.130030,-1406.391290,612.876398,7476.080014
996.130360,148.041188,-306.438199,7920.203579
996.130689,0.000000,-383.047749,8956.491898
996.131019,-962.267725,0.000000,8290.306550
996.131349,-1258.350101,229.828649,9030.512492
996.131678,-888.247130,1072.533697,11029.068536
996.132008,-1480.411884,2374.896044,11177.109724
996.132337,-1998.556043,1378.971896,10066.800811
996.132667,-1850.514855,-995.924147,8512.368333
996.132996,-370.102971,-1915.238745,8956.491898
996.133326,296.082377,-995.924147,9696.697840
996.133656,0.000000,-383.047749,9252.574275
996.133985,-592.164754,-612.876398,8808.450710
996.134315,-444.123565,0.000000,10140.821405
996.134644,-814.226536,229.828649,11769.274478
996.134974,-1776.494261,766.095498,11399.171507
996.135303,-2960.823768,-306.438199,9326.594869
996.135633,-2516.700203,-1455.581446,8216.285956
996.135963,-962.267725,-2298.286494,9178.553681
996.136292,0.000000,-2604.724693,9770.718434
996.136622,0.000000,-1915.238745,9252.574275
996.136951,-888.247130,-612.876398,8512.368333
996.137281,-1036.288319,-229.828649,9770.718434
996.137610,-518.144159,766.095498,11473.192101
996.137940,-814.226536,1532.190996,11103.089130
996.138270,-1258.350101,1072.533697,9104.533087
996.138599,0.000000,-766.095498,8956.491898
996.138929,1184.329507,-612.876398,9992.780217
996.139258,962.267725,-766.095498,9992.780217
996.139588,-296.082377,306.438199,9918.759623
996.139917,-1406.391290,1455.581446,10510.924376
996.140247,-1998.556043,2145.067394,12361.439231
996.140576,-2516.700203,2987.772442,13027.624579
996.140906,-2886.803174,2987.772442,11251.130318
996.141236,-3034.844362,1455.581446,8438.347739
996.141565,-1702.473667,536.266849,7179.997637
996.141895,-222.061783,76.609550,7994.224174
996.142224,74.020594,1455.581446,8660.409521
996.142554,-296.082377,3140.991542,8142.265362
996.142883,-740.205942,3753.867940,7920.203579
996.143213,-962.267725,4060.306139,9622.677246
996.143543,-1332.370696,4596.572988,10510.924376
996.143872,-1924.535449,4519.963438,9252.574275
996.144202,-1702.473667,2451.505594,7254.018232
996.144531,-592.164754,1378.971896,7328.038826
996.144861,296.082377,1685.410096,8734.430116
996.145190,222.061783,2451.505594,9178.553681
996.145520,-962.267725,3447.429741,8438.347739
996.145850,-1480.411884,3677.258390,8290.306550
996.146179,-1184.329507,4596.572988,9992.780217
996.146509,-1480.411884,4290.134789,10288.862594
996.146838,-2368.659014,3524.039291,9030.512492
996.147168,-2220.617826,2451.505594,7476.080014
996.147497,-814.226536,1225.752797,7624.121203
996.147827,-370.102971,919.314598,7846.182985
996.148157,-592.164754,229.828649,8512.368333
996.148486,-1406.391290,1149.143247,9104.533087
996.148816,-1776.494261,2068.457845,9992.780217
996.149145,-1480.411884,2145.067394,11325.150913
996.149475,-1480.411884,2221.676944,10658.965565
996.149804,-1554.432478,459.657299,9474.636058
996.150134,-592.164754,-689.485948,8882.471304
996.150463,444.123565,-689.485948,9474.636058
996.150793,888.247130,-306.438199,9770.718434
996.151123,296.082377,-229.828649,9474.636058
996.151452,0.000000,-306.438199,9844.739029
996.151782,-888.247130,0.000000,11325.150913
996.152111,-1480.411884,459.657299,12509.480420
996.152441,-2368.659014,76.609550,11695.253884
996.152770,-3182.885551,-1225.752797,9474.636058
996.153100,-2516.700203,-2528.115143,8956.491898
996.153430,-1332.370696,-3447.429741,9770.718434
996.153759,-370.102971,-2604.724693,10510.924376
996.154089,-1036.288319,-1838.629195,9696.697840
996.154418,-1554.432478,-1149.143247,8956.491898
996.154748,-1036.288319,-459.657299,10214.842000
996.155077,-666.185348,153.219100,12065.356855
996.155407,-1406.391290,1149.143247,11029.068536
996.155737,-1480.411884,153.219100,8438.347739
996.156066,-444.123565,-2068.457845,8142.265362
996.156396,1258.350101,-3140.991542,9474.636058
996.156725,518.144159,-1762.019645,10214.842000
996.157055,-814.226536,306.438199,10066.800811
996.157384,-1702.473667,459.657299,9400.615463
996.157714,-1184.329507,766.095498,10807.006753
996.158044,-1406.391290,1455.581446,11843.295072
996.158373,-2072.576638,2528.115143,10658.965565
996.158703,-1850.514855,2221.676944,8364.327145
996.159032,-1110.308913,1608.800546,7254.018232
996.159362,-370.102971,919.314598,7920.203579
996.159691,-370.102971,536.266849,8438.347739
996.160021,-888.247130,2068.457845,8142.265362
996.160350,-1998.556043,2604.724693,8068.244768
996.160680,-2442.679609,3294.210641,9400.615463
996.161010,-2442.679609,2987.772442,10436.903782
996.161339,-2368.659014,2987.772442,9474.636058
996.161669,-1554.432478,2451.505594,8290.306550
996.161998,0.000000,1685.410096,7476.080014
996.162328,740.205942,1991.848295,8364.327145
996.162657,666.185348,2987.772442,9252.574275
996.162987,-222.061783,3753.867940,9178.553681
996.163317,-666.185348,4673.182538,9622.677246
996.163646,-296.082377,4673.182538,10584.944971
996.163976,-666.185348,4443.353888,10732.986159
996.164305,-1850.514855,3370.820191,9326.594869
996.164635,-2072.576638,1762.019645,8068.244768
996.164964,-592.164754,306.438199,8068.244768
996.165294,0.000000,229.828649,8364.327145
996.165624,-592.164754,1838.629195,8364.327145
996.165953,-1406.391290,1302.362347,8734.430116
996.166283,-1628.453072,1378.971896,10214.842000
996.166612,-2146.597232,3140.991542,11769.274478
996.166942,-2812.782580,4290.134789,11029.068536
996.167271,-2220.617826,2528.115143,9030.512492
996.167601,-1110.308913,-612.876398,8068.244768
996.167931,0.000000,-2145.067394,8364.327145
996.168260,296.082377,-2374.896044,9400.615463
996.168590,-518.144159,-612.876398,9400.615463
996.168919,-1258.350101,842.705048,9178.553681
996.169249,-1480.411884,995.924147,11251.130318
996.169578,-1702.473667,1149.143247,12213.398043
996.169908,-1776.494261,842.705048,11103.089130
996.170238,-1332.370696,-383.047749,8956.491898
996.170567,-444.123565,-1455.581446,7476.080014
996.170897,74.020594,-2604.724693,7994.224174
996.171226,814.226536,-2757.943793,9696.697840
996.171556,-148.041188,-1685.410096,9770.718434
996.171885,-1258.350101,-459.657299,9770.718434
996.172215,-1554.432478,-383.047749,10436.903782
996.172544,-1850.514855,0.000000,11547.212695
996.172874,-2220.617826,0.000000,10807.006753
996.173204,-1924.535449,-1225.752797,8660.409521
996.173533,-740.205942,-2604.724693,8290.306550
996.173863,370.102971,-2757.943793,9622.677246
996.174192,222.061783,-1762.019645,10436.903782
996.174522,-1480.411884,-459.657299,10140.821405
996.174851,-1702.473667,383.047749,10881.027347
996.175181,-1850.514855,1608.800546,12213.398043
996.175510,-1924.535449,2298.286494,11917.315666
996.175840,-1924.535449,306.438199,10214.842000
996.176170,-1110.308913,-842.705048,7994.224174
996.176499,-444.123565,-1378.971896,8068.244768
996.176829,0.000000,-612.876398,8956.491898
996.177158,-592.164754,612.876398,9104.533087
996.177488,-962.267725,1149.143247,8364.327145
996.177817,-1480.411884,2451.505594,9918.759623
996.178147,-1480.411884,3370.820191,11029.068536
996.178476,-1776.494261,3677.258390,10510.924376
996.178806,-1554.432478,2681.334243,8882.471304
996.179135,-1184.329507,1608.800546,7624.121203
996.179465,0.000000,612.876398,7846.182985
996.179794,814.226536,995.924147,8734.430116
996.180124,0.000000,2374.896044,8882.471304
996.180453,-1110.308913,3677.258390,8808.450710
996.180783,-1628.453072,3524.039291,9474.636058
996.181112,-1332.370696,3600.648841,10732.986159
996.181442,-1554.432478,3983.696590,11029.068536
996.181771,-2220.617826,4136.915689,8364.327145
996.182101,-1702.473667,2374.896044,6661.853478
996.182430,74.020594,995.924147,7105.977043
996.182760,370.102971,1302.362347,8512.368333
996.183089,-296.082377,3524.039291,8364.327145
996.183419,-1332.370696,4213.525239,7846.182985
996.183748,-1850.514855,3064.381992,8512.368333
996.184078,-2146.597232,2374.896044,9548.656652
996.184407,-2590.720797,1915.238745,9844.739029
996.184737,-2590.720797,306.438199,8512.368333
996.185066,-1850.514855,-612.876398,7698.141797
996.185396,-962.267725,-1378.971896,8438.347739
996.185725,-518.144159,-1225.752797,10288.862594
996.186055,-888.247130,229.828649,11547.212695
996.186384,-1184.329507,2221.676944,11547.212695
996.186714,-740.205942,2221.676944,11917.315666
996.187043,-888.247130,1378.971896,12213.398043
996.187373,-962.267725,612.876398,11695.253884
996.187702,-962.267725,-306.438199,9918.759623
996.188032,-518.144159,-2068.457845,8438.347739
996.188362,296.082377,-2528.115143,9104.533087
996.188691,222.061783,-2911.162892,9770.718434
996.189021,-518.144159,-1991.848295,10214.842000
996.189350,-1110.308913,-1455.581446,10436.903782
996.189680,-1406.391290,-536.266849,11029.068536
996.190009,-1110.308913,459.657299,11251.130318
996.190339,-1702.473667,-766.095498,9844.739029
996.190668,-1628.453072,-2145.067394,8734.430116
996.190998,-740.205942,-2681.334243,8882.471304
996.191327,-296.082377,-2221.676944,9252.574275
996.191657,-740.205942,-1685.410096,9030.512492
996.191986,-1554.432478,-1455.581446,8882.471304
996.192316,-1998.556043,-919.314598,10066.800811
996.192645,-1702.473667,-383.047749,11547.212695
996.192975,-2368.659014,1608.800546,11547.212695
996.193304,-2368.659014,1762.019645,9252.574275
996.193634,-2146.597232,-229.828649,7624.121203
996.193963,-592.164754,-1378.971896,8142.265362
996.194293,666.185348,-383.047749,9252.574275
996.194622,592.164754,689.485948,8512.368333
996.194952,-74.020594,1762.019645,8512.368333
996.195281,-888.247130,2068.457845,8882.471304
996.195611,-370.102971,2068.457845,11177.109724
996.195940,-1036.288319,2604.724693,11843.295072
996.196270,-1924.535449,3600.648841,9918.759623
996.196599,-1924.535449,2145.067394,7994.224174
996.196929,-740.205942,-306.438199,8142.265362
996.197258,222.061783,229.828649,9770.718434
996.197588,-148.041188,2374.896044,9770.718434
996.197917,-962.267725,3753.867940,9178.553681
996.198247,-1554.432478,4213.525239,9844.739029
996.198576,-1406.391290,4290.134789,10658.965565
996.198906,-2072.576638,4290.134789,11029.068536
996.199235,-1998.556043,3524.039291,9696.697840
996.199565,-1924.535449,3217.601092,7994.224174
996.199895,-1036.288319,2221.676944,7920.203579
996.200224,222.061783,1532.190996,8660.409521
996.200554,-296.082377,1915.238745,8216.285956
996.200883,-740.205942,2604.724693,8512.368333
996.201213,-962.267725,3447.429741,9474.636058
996.201542,-1184.329507,4519.963438,10214.842000
996.201872,-1702.473667,4060.306139,9474.636058
996.202201,-1554.432478,1685.410096,7994.224174
996.202531,-518.144159,306.438199,7328.038826
996.202860,518.144159,383.047749,8142.265362
996.203190,518.144159,766.095498,9030.512492
996.203519,-592.164754,766.095498,8660.409521
996.203849,-1258.350101,919.314598,9252.574275
996.204178,-592.164754,1685.410096,10732.986159
996.204508,-1406.391290,2068.457845,11917.315666
996.204837,-2368.659014,2221.676944,10807.006753
996.205167,-2368.659014,0.000000,9400.615463
996.205496,-1036.288319,-1532.190996,9030.512492
996.205826,0.000000,-1302.362347,9252.574275
996.206155,-370.102971,-1685.410096,9400.615463
996.206485,-444.123565,-1225.752797,9770.718434
996.206814,-1184.329507,76.609550,10214.842000
996.207144,-1184.329507,383.047749,10955.047942
996.207473,-1332.370696,306.438199,10955.047942
996.207803,-1480.411884,-536.266849,10066.800811
996.208132,-1702.473667,0.000000,9326.594869
996.208462,-1036.288319,-1378.971896,9178.553681
996.208791,0.000000,-2757.943793,9400.615463
996.209121,444.123565,-2604.724693,9844.739029
996.209450,-148.041188,-1378.971896,9992.780217
996.209780,-1332.370696,-383.047749,10881.027347
996.210109,-1702.473667,306.438199,12139.377449
996.210439,-2146.597232,995.924147,12139.377449
996.210768,-2294.638420,1072.533697,10362.883188
996.211098,-1998.556043,-536.266849,9474.636058
996.211427,-518.144159,-919.314598,9252.574275
996.211757,296.082377,-1378.971896,8808.450710
996.212087,-148.041188,-1072.533697,8586.388927
996.212416,-740.205942,0.000000,8586.388927
996.212746,-592.164754,1455.581446,9992.780217
996.213075,-666.185348,2374.896044,11325.150913
996.213405,-1924.535449,3294.210641,10732.986159
996.213734,-2072.576638,2757.943793,9252.574275
996.214064,-666.185348,1608.800546,8364.327145
996.214393,666.185348,459.657299,8290.306550
996.214723,592.164754,229.828649,8290.306550
996.215052,-296.082377,1991.848295,8808.450710
996.215382,-1036.288319,3064.381992,8956.491898
996.215711,-1628.453072,3600.648841,9770.718434
996.216041,-1924.535449,4443.353888,10584.944971
996.216370,-1776.494261,4290.134789,9770.718434
996.216700,-2220.617826,3140.991542,8290.306550
996.217029,-1554.432478,2374.896044,7550.100608
996.217359,-592.164754,1685.410096,7624.121203
996.217688,222.061783,1378.971896,7920.203579
996.218018,-370.102971,2528.115143,8068.244768
996.218347,-666.185348,3600.648841,8956.491898
996.218677,-1036.288319,4366.744339,10214.842000
996.219006,-1554.432478,4903.011187,10955.047942
996.219336,-1776.494261,4290.134789,9918.759623
996.219665,-1258.350101,2374.896044,7994.224174
996.219995,-296.082377,459.657299,7772.162391
996.220324,666.185348,0.000000,8882.471304
996.220654,296.082377,842.705048,9696.697840
996.220983,-962.267725,1915.238745,9326.594869
996.221313,-1036.288319,2145.067394,9474.636058
996.221642,-740.205942,2451.505594,10955.047942
996.221972,-1184.329507,2604.724693,11843.295072
996.222301,-1924.535449,2298.286494,10584.944971
996.222631,-2072.576638,306.438199,8882.471304
996.222960,-1110.308913,-919.314598,8364.327145
996.223290,-666.185348,-1455.581446,8882.471304
996.223620,-666.185348,-1455.581446,9548.656652
996.223949,-1406.391290,-612.876398,9992.780217
996.224279,-1850.514855,76.609550,10288.862594
996.224608,-1776.494261,383.047749,10881.027347
996.224938,-1036.288319,689.485948,11547.212695
996.225267,-1258.350101,-383.047749,10066.800811
996.225597,-962.267725,-995.924147,8808.450710
996.225926,148.041188,-1762.019645,8882.471304
996.226256,888.247130,-2145.067394,9400.615463
996.226585,296.082377,-1762.019645,9770.718434
996.226915,-518.144159,-229.828649,9548.656652
996.227244,-962.267725,76.609550,10510.924376
996.227574,-740.205942,459.657299,11251.130318
996.227903,-1184.329507,459.657299,11399.171507
996.228233,-1776.494261,383.047749,9918.759623
996.228562,-1924.535449,-306.438199,8808.450710
996.228892,-1184.329507,-1225.752797,8290.306550
996.229221,-518.144159,-1608.800546,8660.409521
996.229551,-592.164754,-766.095498,9400.615463
996.229880,-1184.329507,766.095498,9548.656652
996.230210,-1406.391290,1685.410096,9992.780217
996.230539,-1480.411884,1378.971896,10881.027347
996.230869,-1776.494261,2451.505594,10955.047942
