#time,accel_x,accel_y,accel_z
861.934719,-1258.350101,995.924147,9474.636058
861.935048,-1036.288319,995.924147,9622.677246
861.935378,-666.185348,995.924147,9474.636058
861.935707,-1036.288319,995.924147,9474.636058
861.936037,-888.247130,995.924147,9548.656652
861.936367,-1036.288319,842.705048,9474.636058
861.936696,-1110.308913,766.095498,9696.697840
861.937026,-888.247130,1455.581446,9474.636058
861.937355,-1184.329507,842.705048,9400.615463
861.937685,-1036.288319,842.705048,9622.677246
861.938015,-1036.288319,766.095498,9696.697840
861.938344,-814.226536,995.924147,9622.677246
861.938674,-1110.308913,919.314598,9770.718434
861.939003,-1110.308913,536.266849,9326.594869
861.939333,-1036.288319,995.924147,9696.697840
861.939663,-1036.288319,919.314598,9622.677246
861.939992,-1036.288319,919.314598,9548.656652
861.940322,-1110.308913,1072.533697,9104.533087
861.940651,-962.267725,1378.971896,9326.594869
861.940981,-1036.288319,1072.533697,9326.594869
861.941310,-888.247130,995.924147,9400.615463
861.941640,-888.247130,766.095498,9548.656652
861.941970,-1036.288319,842.705048,9474.636058
861.942299,-666.185348,995.924147,9622.677246
861.942629,-962.267725,995.924147,9474.636058
861.942958,-962.267725,842.705048,9548.656652
861.943288,-1036.288319,842.705048,9474.636058
861.943618,-814.226536,1072.533697,9474.636058
861.943947,-814.226536,995.924147,9622.677246
861.944277,-962.267725,1072.533697,9252.574275
861.944606,-1258.350101,1072.533697,9548.656652
861.944936,-1184.329507,1225.752797,9548.656652
861.945266,-962.267725,919.314598,9622.677246
861.945595,-1110.308913,1149.143247,9400.615463
861.945925,-962.267725,995.924147,9326.594869
861.946254,-962.267725,612.876398,9548.656652
861.946584,-1110.308913,919.314598,9548.656652
861.946914,-1184.329507,842.705048,9474.636058
861.947243,-1184.329507,766.095498,9548.656652
861.947573,-1184.329507,536.266849,9252.574275
861.947902,-1184.329507,842.705048,9696.697840
861.948232,-1184.329507,919.314598,9548.656652
861.948561,-962.267725,842.705048,9770.718434
861.948891,-888.247130,842.705048,9548.656652
861.949221,-1036.288319,995.924147,9474.636058
861.949550,-666.185348,1225.752797,9326.594869
861.949880,-888.247130,766.095498,9622.677246
861.950209,-1110.308913,919.314598,9474.636058
861.950539,-962.267725,766.095498,9770.718434
861.950869,-888.247130,766.095498,9326.594869
861.951198,-666.185348,689.485948,9474.636058
861.951528,-1110.308913,995.924147,9548.656652
861.951857,-888.247130,766.095498,9696.697840
861.952187,-962.267725,919.314598,9400.615463
861.952517,-1036.288319,766.095498,9474.636058
861.952846,-962.267725,1302.362347,9474.636058
861.953176,-962.267725,842.705048,9622.677246
861.953505,-962.267725,995.924147,9474.636058
861.953835,-1184.329507,919.314598,9400.615463
861.954165,-1036.288319,995.924147,9474.636058
861.954494,-740.205942,842.705048,9178.553681
861.954824,-1036.288319,612.876398,9178.553681
861.955153,-1110.308913,842.705048,9622.677246
861.955483,-1110.308913,842.705048,9622.677246
861.955812,-1036.288319,842.705048,9548.656652
861.956142,-1036.288319,1225.752797,9178.553681
861.956472,-1110.308913,919.314598,9622.677246
861.956801,-888.247130,842.705048,9622.677246
861.957131,-888.247130,842.705048,9696.697840
861.957460,-962.267725,766.095498,9622.677246
861.957790,-1110.308913,995.924147,9548.656652
861.958120,-1110.308913,536.266849,9326.594869
861.958449,-666.185348,689.485948,9696.697840
861.958779,-1184.329507,842.705048,9770.718434
861.959108,-1036.288319,689.485948,9770.718434
861.959438,-962.267725,919.314598,9474.636058
861.959768,-444.123565,1225.752797,9030.512492
861.960097,518.144159,689.485948,9178.553681
861.960427,1184.329507,459.657299,9474.636058
861.960756,666.185348,612.876398,9474.636058
861.961086,296.082377,766.095498,9696.697840
861.961415,0.000000,842.705048,10140.821405
861.961745,-444.123565,995.924147,10214.842000
861.962075,-740.205942,766.095498,10288.862594
861.962404,-370.102971,383.047749,10066.800811
861.962734,0.000000,76.609550,9474.636058
861.963063,814.226536,0.000000,8808.450710
861.963393,1554.432478,766.095498,8586.388927
861.963723,2368.659014,842.705048,8512.368333
861.964052,3256.906145,1378.971896,8660.409521
861.964382,3478.967927,1608.800546,9030.512492
861.964711,3552.988522,2221.676944,9548.656652
861.965041,3182.885551,1608.800546,9400.615463
861.965371,3034.844362,1225.752797,9992.780217
861.965700,1776.494261,919.314598,10140.821405
861.966030,1036.288319,612.876398,10510.924376
861.966359,1110.308913,0.000000,10658.965565
861.966689,1406.391290,-536.266849,10214.842000
861.967019,1776.494261,0.000000,9696.697840
861.967348,2664.741391,-383.047749,9252.574275
861.967678,3701.029710,153.219100,9400.615463
861.968007,4737.318029,1149.143247,9326.594869
861.968337,4441.235652,2145.067394,9400.615463
861.968666,3627.009116,2987.772442,9770.718434
861.968996,2368.659014,3294.210641,10362.883188
861.969326,666.185348,2911.162892,10658.965565
861.969655,-1184.329507,2451.505594,10140.821405
861.969985,-2072.576638,995.924147,9252.574275
861.970314,-666.185348,76.609550,8216.285956
861.970644,814.226536,-1149.143247,7698.141797
861.970974,2220.617826,-995.924147,6365.771101
861.971303,3552.988522,-536.266849,6217.729913
861.971633,4293.194464,383.047749,7105.977043
861.971962,4145.153275,2451.505594,9326.594869
861.972292,2294.638420,4366.744339,11251.130318
861.972622,444.123565,4979.620737,12213.398043
861.972951,-666.185348,3983.696590,12509.480420
861.973281,-1406.391290,1532.190996,12287.418637
861.973610,-1554.432478,-995.924147,11843.295072
861.973940,-1998.556043,-2451.505594,11103.089130
861.974270,-2072.576638,-2681.334243,9770.718434
861.974599,-1258.350101,-2145.067394,9104.533087
861.974929,0.000000,-1378.971896,8438.347739
861.975258,2220.617826,-612.876398,7846.182985
861.975588,3627.009116,536.266849,7105.977043
861.975917,4515.256246,2221.676944,7031.956449
861.976247,4219.173869,3677.258390,8438.347739
861.976577,3701.029710,4290.134789,9622.677246
861.976906,2368.659014,4366.744339,9992.780217
861.977236,962.267725,3753.867940,9992.780217
861.977565,0.000000,2604.724693,10881.027347
861.977895,-1110.308913,153.219100,11177.109724
861.978225,-2812.782580,-995.924147,11103.089130
861.978554,-4515.256246,-1149.143247,10732.986159
861.978884,-4293.194464,-689.485948,10881.027347
861.979213,-3552.988522,-383.047749,10436.903782
861.979543,-2368.659014,-229.828649,9474.636058
861.979873,-1110.308913,-229.828649,8438.347739
861.980202,222.061783,-536.266849,7476.080014
861.980532,1776.494261,-306.438199,7698.141797
861.980861,2368.659014,459.657299,8290.306550
861.981191,3034.844362,1072.533697,8882.471304
861.981520,2516.700203,1072.533697,9474.636058
861.981850,1924.535449,1072.533697,10140.821405
861.982180,1406.391290,1838.629195,11103.089130
861.982509,148.041188,2298.286494,11621.233289
861.982839,-814.226536,2757.943793,12139.377449
861.983168,-2072.576638,2451.505594,11621.233289
861.983498,-2442.679609,2145.067394,10436.903782
861.983828,-1924.535449,689.485948,9252.574275
861.984157,-888.247130,-459.657299,7772.162391
861.984487,0.000000,-459.657299,6883.915261
861.984816,0.000000,-306.438199,6513.812290
861.985146,-444.123565,536.266849,7179.997637
861.985476,-1110.308913,1302.362347,7624.121203
861.985805,-1850.514855,2145.067394,8882.471304
861.986135,-2738.761985,2374.896044,10140.821405
861.986464,-3256.906145,2374.896044,11029.068536
861.986794,-3627.009116,1991.848295,11621.233289
861.987124,-3627.009116,1149.143247,11029.068536
861.987453,-2738.761985,536.266849,10140.821405
861.987783,-1554.432478,-689.485948,9474.636058
861.988112,592.164754,-766.095498,8956.491898
861.988442,1406.391290,-153.219100,9178.553681
861.988771,1628.453072,536.266849,9252.574275
861.989101,1850.514855,2145.067394,10140.821405
861.989431,1184.329507,2987.772442,10881.027347
861.989760,444.123565,3677.258390,11251.130318
861.990090,-148.041188,3677.258390,11177.109724
861.990419,-666.185348,3064.381992,10214.842000
861.990749,-1332.370696,1302.362347,9178.553681
861.991079,-1036.288319,-459.657299,8438.347739
861.991408,-740.205942,-1225.752797,7920.203579
861.991738,-1258.350101,-1302.362347,8068.244768
861.992067,-1998.556043,-536.266849,8142.265362
861.992397,-1924.535449,153.219100,8290.306550
861.992727,-1702.473667,1378.971896,9178.553681
861.993056,-1554.432478,2221.676944,10288.862594
861.993386,-2812.782580,2911.162892,11029.068536
861.993715,-2960.823768,3064.381992,10807.006753
861.994045,-3256.906145,2145.067394,10732.986159
861.994375,-2664.741391,1225.752797,10066.800811
861.994704,-1850.514855,0.000000,9696.697840
861.995034,-666.185348,-1072.533697,9104.533087
861.995363,-222.061783,-1072.533697,8438.347739
861.995693,222.061783,-383.047749,8438.347739
861.996022,444.123565,306.438199,8660.409521
861.996352,296.082377,612.876398,9178.553681
861.996682,74.020594,1838.629195,9030.512492
861.997011,0.000000,2221.676944,9252.574275
861.997341,-148.041188,2221.676944,9844.739029
861.997670,0.000000,1838.629195,9400.615463
861.998000,0.000000,536.266849,9326.594869
861.998330,-592.164754,0.000000,9400.615463
861.998659,-1776.494261,229.828649,9030.512492
861.998989,-1998.556043,459.657299,9474.636058
861.999318,-2294.638420,0.000000,10214.842000
861.999648,-2516.700203,383.047749,10955.047942
861.999978,-3256.906145,689.485948,11029.068536
862.000307,-3478.967927,1532.190996,10288.862594
862.000637,-3182.885551,1149.143247,10288.862594
862.000966,-2516.700203,919.314598,9844.739029
862.001296,-1184.329507,229.828649,9622.677246
862.001625,0.000000,-459.657299,8660.409521
862.001955,592.164754,-459.657299,8216.285956
862.002285,1036.288319,-306.438199,8364.327145
862.002614,1110.308913,383.047749,9474.636058
862.002944,444.123565,1302.362347,10288.862594
862.003273,0.000000,2145.067394,10881.027347
862.003603,-370.102971,2681.334243,10436.903782
862.003933,-592.164754,2068.457845,9844.739029
862.004262,0.000000,1532.190996,9474.636058
862.004592,592.164754,612.876398,8882.471304
862.004921,740.205942,153.219100,8438.347739
862.005251,222.061783,306.438199,8364.327145
862.005581,74.020594,995.924147,8512.368333
862.005910,0.000000,1532.190996,9030.512492
862.006240,-370.102971,1455.581446,9474.636058
862.006569,-888.247130,1455.581446,9548.656652
862.006899,-1036.288319,1608.800546,9474.636058
862.007229,-1332.370696,1915.238745,8734.430116
862.007558,-1554.432478,1072.533697,9622.677246
862.007888,-1480.411884,459.657299,9252.574275
862.008217,-1258.350101,-229.828649,9400.615463
862.008547,-1480.411884,-459.657299,9030.512492
862.008876,-1406.391290,-306.438199,9178.553681
862.009206,-1036.288319,536.266849,9844.739029
862.009536,-1184.329507,536.266849,10510.924376
862.009865,-1702.473667,1378.971896,10807.006753
862.010195,-1702.473667,1762.019645,10436.903782
862.010524,-1332.370696,1915.238745,10288.862594
862.010854,-666.185348,1762.019645,9770.718434
862.011184,-222.061783,766.095498,9252.574275
862.011513,74.020594,153.219100,9178.553681
862.011843,0.000000,536.266849,8660.409521
862.012172,-666.185348,1072.533697,8290.306550
862.012502,-592.164754,689.485948,8882.471304
862.012832,-1332.370696,689.485948,9474.636058
862.013161,-2368.659014,383.047749,10436.903782
862.013491,-3478.967927,689.485948,10732.986159
862.013820,-3775.050304,1302.362347,10955.047942
862.014150,-3182.885551,459.657299,10955.047942
862.014480,-2664.741391,459.657299,9992.780217
862.014809,-1776.494261,-842.705048,9474.636058
862.015139,-666.185348,-612.876398,8956.491898
862.015468,74.020594,0.000000,8438.347739
862.015798,444.123565,76.609550,8808.450710
862.016128,444.123565,995.924147,9548.656652
862.016457,0.000000,995.924147,10066.800811
862.016787,-814.226536,1532.190996,9918.759623
862.017116,-1036.288319,1991.848295,9992.780217
862.017446,-592.164754,1762.019645,9622.677246
862.017776,0.000000,612.876398,8882.471304
862.018105,814.226536,229.828649,8808.450710
862.018435,1110.308913,306.438199,9030.512492
862.018764,518.144159,995.924147,8882.471304
862.019094,222.061783,1838.629195,9400.615463
862.019423,0.000000,2068.457845,10140.821405
862.019753,-444.123565,1532.190996,10584.944971
862.020083,-1258.350101,1762.019645,10584.944971
862.020412,-2072.576638,1378.971896,10362.883188
862.020742,-2294.638420,1225.752797,9622.677246
862.021071,-2368.659014,306.438199,9178.553681
862.021401,-1776.494261,-459.657299,8512.368333
862.021731,-1332.370696,-1455.581446,8586.388927
862.022060,-814.226536,-459.657299,8956.491898
862.022390,-740.205942,383.047749,9104.533087
862.022719,-592.164754,536.266849,9918.759623
862.023049,-1110.308913,995.924147,10140.821405
862.023379,-1184.329507,2604.724693,10288.862594
862.023708,-1332.370696,2834.553343,10510.924376
862.024038,-962.267725,2528.115143,10140.821405
862.024367,-444.123565,1532.190996,9474.636058
862.024697,0.000000,612.876398,8660.409521
862.025027,-370.102971,612.876398,8364.327145
862.025356,-962.267725,612.876398,8216.285956
862.025686,-1628.453072,1225.752797,8660.409521
862.026015,-1924.535449,1072.533697,9474.636058
862.026345,-2442.679609,1072.533697,9696.697840
862.026675,-2812.782580,2068.457845,10140.821405
862.027004,-3330.926739,1378.971896,10214.842000
862.027334,-2812.782580,766.095498,10214.842000
862.027663,-2590.720797,229.828649,9918.759623
862.027993,-1924.535449,0.000000,9696.697840
862.028323,-1036.288319,-383.047749,8882.471304
862.028652,-518.144159,-383.047749,8734.430116
862.028982,-222.061783,153.219100,8956.491898
862.029311,148.041188,459.657299,9326.594869
862.029641,0.000000,995.924147,10214.842000
862.029970,-740.205942,2145.067394,10362.883188
862.030300,-1554.432478,2834.553343,10362.883188
862.030630,-1406.391290,2681.334243,10288.862594
862.030959,-740.205942,2145.067394,9548.656652
862.031289,0.000000,995.924147,8438.347739
862.031618,814.226536,76.609550,8216.285956
862.031948,888.247130,0.000000,8290.306550
862.032278,148.041188,995.924147,8808.450710
862.032607,-444.123565,1149.143247,9548.656652
862.032937,-1406.391290,1532.190996,10066.800811
862.033266,-1850.514855,1608.800546,10288.862594
862.033596,-1702.473667,1991.848295,10214.842000
862.033926,-1924.535449,306.438199,9548.656652
862.034255,-1702.473667,612.876398,9252.574275
862.034585,-1258.350101,306.438199,8956.491898
862.034914,-740.205942,-383.047749,8956.491898
862.035244,-444.123565,-306.438199,8956.491898
862.035574,-592.164754,-229.828649,8882.471304
862.035903,0.000000,689.485948,9622.677246
862.036233,-296.082377,1225.752797,10066.800811
862.036562,-666.185348,1685.410096,10066.800811
862.036892,-1110.308913,2298.286494,10066.800811
862.037222,-1776.494261,1991.848295,9696.697840
862.037551,-1406.391290,1302.362347,9696.697840
862.037881,-888.247130,766.095498,9622.677246
862.038210,-814.226536,459.657299,9030.512492
862.038540,-962.267725,306.438199,8142.265362
862.038870,-814.226536,76.609550,7476.080014
862.039199,-1332.370696,766.095498,8290.306550
862.039529,-1184.329507,919.314598,9992.780217
862.039858,-1998.556043,1149.143247,10658.965565
862.040188,-3108.864956,2145.067394,11103.089130
862.040518,-3330.926739,1532.190996,10955.047942
862.040847,-3627.009116,919.314598,10288.862594
862.041177,-2368.659014,153.219100,10584.944971
862.041506,-1554.432478,-229.828649,9918.759623
862.041836,-1110.308913,-612.876398,9178.553681
862.042165,-370.102971,-229.828649,9030.512492
862.042495,-444.123565,459.657299,9030.512492
862.042825,-370.102971,1149.143247,9770.718434
862.043154,-296.082377,1608.800546,10362.883188
862.043484,-296.082377,2911.162892,10214.842000
862.043813,-296.082377,2834.553343,9548.656652
862.044143,444.123565,2298.286494,9104.533087
862.044473,814.226536,1532.190996,8586.388927
862.044802,1110.308913,1149.143247,8290.306550
862.045132,740.205942,612.876398,8068.244768
862.045461,296.082377,919.314598,8290.306550
862.045791,148.041188,995.924147,8660.409521
862.046121,-518.144159,1072.533697,9326.594869
862.046450,-1554.432478,766.095498,10362.883188
862.046780,-2368.659014,1685.410096,10288.862594
862.047109,-2590.720797,1915.238745,10288.862594
862.047439,-2368.659014,766.095498,9770.718434
862.047769,-1702.473667,536.266849,9326.594869
862.048098,-1184.329507,153.219100,9030.512492
862.048428,-666.185348,-612.876398,8660.409521
862.048757,-444.123565,-459.657299,8660.409521
862.049087,-444.123565,153.219100,9030.512492
862.049417,-222.061783,919.314598,9622.677246
862.049746,-1184.329507,306.438199,9918.759623
862.050076,-1332.370696,1378.971896,10658.965565
862.050405,-1406.391290,1685.410096,10510.924376
862.050735,-1258.350101,995.924147,10362.883188
862.051065,-592.164754,1608.800546,9918.759623
862.051394,222.061783,306.438199,9474.636058
862.051724,148.041188,306.438199,9104.533087
862.052053,-148.041188,766.095498,8808.450710
862.052383,-370.102971,1302.362347,9252.574275
862.052712,-518.144159,1378.971896,9918.759623
862.053042,-1036.288319,1225.752797,10066.800811
862.053372,-2368.659014,1225.752797,10658.965565
862.053701,-3108.864956,842.705048,10584.944971
862.054031,-3478.967927,0.000000,10732.986159
862.054360,-3552.988522,-229.828649,10510.924376
862.054690,-2960.823768,-612.876398,10140.821405
862.055020,-2146.597232,-995.924147,8956.491898
862.055349,-1332.370696,-1072.533697,8364.327145
862.055679,-740.205942,-536.266849,8364.327145
862.056008,0.000000,153.219100,8956.491898
862.056338,-148.041188,1225.752797,9548.656652
862.056668,0.000000,2604.724693,10066.800811
862.056997,-444.123565,3140.991542,9844.739029
862.057327,0.000000,2221.676944,9696.697840
862.057656,370.102971,1455.581446,9252.574275
862.057986,666.185348,1302.362347,8660.409521
862.058316,444.123565,612.876398,8290.306550
862.058645,-148.041188,689.485948,8882.471304
862.058975,-814.226536,1149.143247,9104.533087
862.059304,-1258.350101,1455.581446,9696.697840
862.059634,-1332.370696,919.314598,10066.800811
862.059964,-1702.473667,1532.190996,10214.842000
862.060293,-2294.638420,1762.019645,10214.842000
862.060623,-2812.782580,995.924147,9474.636058
862.060952,-2442.679609,459.657299,9474.636058
862.061282,-1924.535449,459.657299,9326.594869
862.061612,-1406.391290,-153.219100,8660.409521
862.061941,-1258.350101,-306.438199,8882.471304
862.062271,-1036.288319,0.000000,9252.574275
862.062600,-666.185348,459.657299,9474.636058
862.062930,-740.205942,766.095498,10214.842000
862.063259,-1036.288319,1762.019645,10658.965565
862.063589,-1554.432478,2451.505594,10436.903782
862.063919,-1554.432478,2298.286494,10362.883188
862.064248,-962.267725,2068.457845,9844.739029
862.064578,0.000000,1225.752797,9622.677246
862.064907,222.061783,536.266849,9104.533087
862.065237,0.000000,919.314598,8734.430116
862.065567,-592.164754,1455.581446,8142.265362
862.065896,-740.205942,1072.533697,8216.285956
862.066226,-1036.288319,1302.362347,9104.533087
862.066555,-1924.535449,1225.752797,9918.759623
862.066885,-2664.741391,1991.848295,10066.800811
862.067215,-3108.864956,1532.190996,9992.780217
862.067544,-3182.885551,689.485948,9844.739029
862.067874,-2738.761985,306.438199,9844.739029
862.068203,-1924.535449,-383.047749,9696.697840
862.068533,-1258.350101,229.828649,8956.491898
862.068863,-740.205942,76.609550,8734.430116
862.069192,74.020594,383.047749,9030.512492
862.069522,296.082377,689.485948,9770.718434
862.069851,0.000000,1302.362347,10140.821405
862.070181,-444.123565,2298.286494,10288.862594
862.070511,-1036.288319,2681.334243,9844.739029
862.070840,-444.123565,2068.457845,9696.697840
862.071170,148.041188,919.314598,9400.615463
862.071499,518.144159,0.000000,8956.491898
862.071829,518.144159,-153.219100,8882.471304
862.072159,-148.041188,842.705048,8808.450710
862.072488,-148.041188,1302.362347,9252.574275
862.072818,-444.123565,1532.190996,9326.594869
862.073147,-370.102971,1072.533697,10140.821405
862.073477,-666.185348,1608.800546,10510.924376
862.073807,-1480.411884,1608.800546,10214.842000
862.074136,-1702.473667,2068.457845,10214.842000
862.074466,-2220.617826,1072.533697,9622.677246
862.074795,-1554.432478,0.000000,9548.656652
862.075125,-1406.391290,-612.876398,9326.594869
862.075454,-1628.453072,-536.266849,8734.430116
862.075784,-1554.432478,-383.047749,8882.471304
862.076114,-1554.432478,153.219100,9178.553681
862.076443,-1628.453072,612.876398,10066.800811
862.076773,-1702.473667,1608.800546,10214.842000
862.077102,-1850.514855,2221.676944,9844.739029
862.077432,-1036.288319,1915.238745,9622.677246
862.077762,-370.102971,1608.800546,9400.615463
862.078091,0.000000,1149.143247,9400.615463
862.078421,-148.041188,1149.143247,9104.533087
862.078750,-370.102971,1608.800546,8290.306550
862.079080,-518.144159,1225.752797,8438.347739
862.079410,-296.082377,1149.143247,8882.471304
862.079739,-888.247130,1149.143247,10436.903782
862.080069,-1924.535449,1762.019645,10584.944971
862.080398,-3034.844362,1915.238745,10362.883188
862.080728,-3330.926739,1685.410096,10510.924376
862.081058,-3034.844362,919.314598,9992.780217
862.081387,-2664.741391,76.609550,9474.636058
862.081717,-1924.535449,-689.485948,8734.430116
862.082046,-1554.432478,-459.657299,8586.388927
862.082376,-1554.432478,76.609550,8512.368333
862.082706,-1406.391290,536.266849,8586.388927
862.083035,-1776.494261,536.266849,9326.594869
862.083365,-1628.453072,1149.143247,10288.862594
862.083694,-1110.308913,2451.505594,10436.903782
862.084024,-666.185348,1685.410096,10140.821405
862.084354,296.082377,919.314598,9622.677246
862.084683,1332.370696,306.438199,8808.450710
862.085013,2294.638420,0.000000,9030.512492
862.085342,2442.679609,536.266849,9104.533087
862.085672,2368.659014,1838.629195,9326.594869
862.086001,1924.535449,2068.457845,9326.594869
862.086331,1628.453072,1838.629195,9770.718434
862.086661,666.185348,1762.019645,10214.842000
862.086990,-666.185348,1991.848295,9918.759623
862.087320,-1702.473667,1608.800546,9770.718434
862.087649,-2442.679609,842.705048,9844.739029
862.087979,-2442.679609,-229.828649,9474.636058
862.088309,-2812.782580,-995.924147,9474.636058
862.088638,-3330.926739,-1225.752797,8734.430116
862.088968,-3034.844362,-919.314598,8882.471304
862.089297,-2368.659014,-383.047749,9326.594869
862.089627,-1998.556043,229.828649,9622.677246
862.089957,-2368.659014,1149.143247,10214.842000
862.090286,-2146.597232,2068.457845,9992.780217
862.090616,-1998.556043,2298.286494,10066.800811
862.090945,-1110.308913,1915.238745,9992.780217
862.091275,-370.102971,1762.019645,9918.759623
862.091605,0.000000,1532.190996,9474.636058
862.091934,0.000000,842.705048,9030.512492
862.092264,-370.102971,1302.362347,8290.306550
862.092593,0.000000,1072.533697,8512.368333
862.092923,0.000000,689.485948,9400.615463
862.093253,-814.226536,1378.971896,9918.759623
862.093582,-1924.535449,1915.238745,10510.924376
862.093912,-2368.659014,1455.581446,10436.903782
862.094241,-2368.659014,766.095498,10362.883188
862.094571,-2146.597232,612.876398,10214.842000
862.094901,-1776.494261,229.828649,9400.615463
862.095230,-1406.391290,-306.438199,8882.471304
862.095560,-1184.329507,-536.266849,8586.388927
862.095889,-888.247130,0.000000,8734.430116
862.096219,-1036.288319,229.828649,9474.636058
862.096548,-1480.411884,689.485948,10214.842000
862.096878,-2072.576638,2068.457845,9474.636058
862.097208,-2146.597232,2451.505594,10066.800811
862.097537,-1332.370696,1608.800546,9474.636058
862.097867,-444.123565,1532.190996,8734.430116
862.098196,518.144159,689.485948,8364.327145
862.098526,592.164754,536.266849,8068.244768
862.098856,592.164754,1302.362347,8142.265362
862.099185,148.041188,1225.752797,8808.450710
862.099515,0.000000,1149.143247,9770.718434
862.099844,-962.267725,1608.800546,10807.006753
862.100174,-1628.453072,2145.067394,10510.924376
862.100504,-1258.350101,1378.971896,10214.842000
862.100833,-1850.514855,612.876398,9844.739029
862.101163,-1850.514855,459.657299,9474.636058
862.101492,-1110.308913,-459.657299,9474.636058
862.101822,-1184.329507,-536.266849,9030.512492
862.102152,-814.226536,536.266849,8808.450710
862.102481,-740.205942,459.657299,8882.471304
862.102811,-444.123565,76.609550,9252.574275
862.103140,-592.164754,689.485948,9918.759623
862.103470,-1110.308913,1685.410096,10066.800811
862.103800,-1628.453072,2068.457845,9992.780217
862.104129,-2294.638420,1378.971896,9918.759623
862.104459,-1998.556043,1072.533697,10140.821405
862.104788,-1850.514855,76.609550,10066.800811
862.105118,-1628.453072,536.266849,9548.656652
862.105448,-1554.432478,1225.752797,8512.368333
862.105777,-1702.473667,995.924147,8216.285956
862.106107,-888.247130,766.095498,9030.512492
862.106436,-962.267725,842.705048,9696.697840
862.106766,-1554.432478,1915.238745,9992.780217
862.107096,-1924.535449,2528.115143,9992.780217
862.107425,-2294.638420,1915.238745,9918.759623
862.107755,-1776.494261,766.095498,10214.842000
862.108084,-1480.411884,153.219100,9844.739029
862.108414,-888.247130,-689.485948,9326.594869
862.108743,-296.082377,-153.219100,8956.491898
862.109073,222.061783,153.219100,8956.491898
862.109402,74.020594,689.485948,9548.656652
862.109732,-666.185348,1378.971896,10140.821405
862.110061,-888.247130,2221.676944,10807.006753
862.110391,-1036.288319,3064.381992,10584.944971
862.110721,-888.247130,2757.943793,9918.759623
862.111050,0.000000,1608.800546,8882.471304
862.111380,370.102971,383.047749,8512.368333
862.111709,592.164754,-153.219100,8142.265362
862.112039,0.000000,383.047749,8142.265362
862.112368,0.000000,1455.581446,8290.306550
862.112698,-296.082377,1455.581446,8956.491898
862.113027,-888.247130,766.095498,9326.594869
862.113357,-1184.329507,1532.190996,9844.739029
862.113687,-1554.432478,1915.238745,9844.739029
862.114016,-1776.494261,2145.067394,10066.800811
862.114346,-1776.494261,2068.457845,9622.677246
862.114675,-1258.350101,1378.971896,9770.718434
862.115005,-740.205942,153.219100,9400.615463
862.115334,-518.144159,-306.438199,9178.553681
862.115664,-370.102971,306.438199,8956.491898
862.115993,0.000000,383.047749,9400.615463
862.116323,-148.041188,0.000000,9474.636058
862.116652,-740.205942,919.314598,10066.800811
862.116982,-1406.391290,1455.581446,10214.842000
862.117312,-1924.535449,1532.190996,9844.739029
862.117641,-1332.370696,1302.362347,9844.739029
862.117971,-740.205942,306.438199,9326.594869
862.118300,-666.185348,-229.828649,9548.656652
862.118630,-1406.391290,306.438199,9252.574275
862.118959,-1554.432478,1608.800546,8956.491898
862.119289,-1258.350101,1532.190996,8956.491898
862.119618,-814.226536,1302.362347,9400.615463
862.119948,-1258.350101,689.485948,10066.800811
862.120278,-2220.617826,1072.533697,10436.903782
862.120607,-2960.823768,995.924147,10732.986159
862.120937,-3256.906145,1225.752797,10658.965565
862.121266,-3330.926739,612.876398,9992.780217
862.121596,-1924.535449,-612.876398,9844.739029
862.121925,-1110.308913,-995.924147,8808.450710
862.122255,-592.164754,-306.438199,8512.368333
862.122584,296.082377,76.609550,8882.471304
862.122914,518.144159,766.095498,9474.636058
862.123244,296.082377,1915.238745,10140.821405
862.123573,-814.226536,2681.334243,10066.800811
862.123903,-666.185348,2834.553343,9548.656652
862.124232,-148.041188,2451.505594,9400.615463
862.124562,592.164754,1532.190996,9104.533087
862.124891,666.185348,459.657299,8512.368333
862.125221,222.061783,153.219100,8068.244768
862.125550,148.041188,459.657299,8290.306550
862.125880,-222.061783,1225.752797,8512.368333
862.126209,-444.123565,1455.581446,9474.636058
862.126539,-888.247130,1302.362347,9474.636058
862.126869,-962.267725,1302.362347,9622.677246
862.127198,-1480.411884,2145.067394,9844.739029
862.127528,-1702.473667,1915.238745,10140.821405
862.127857,-1554.432478,1225.752797,9770.718434
862.128187,-1332.370696,459.657299,9400.615463
862.128516,-1258.350101,-383.047749,9178.553681
862.128846,-1184.329507,-689.485948,9030.512492
862.129175,-962.267725,-306.438199,9326.594869
862.129505,-888.247130,-229.828649,9622.677246
862.129835,-1184.329507,0.000000,10214.842000
862.130164,-1480.411884,1685.410096,10510.924376
862.130494,-1036.288319,1532.190996,10584.944971
862.130823,-814.226536,1685.410096,10288.862594
862.131153,-222.061783,1455.581446,10066.800811
862.131482,296.082377,842.705048,9918.759623
862.131812,0.000000,766.095498,9474.636058
862.132141,0.000000,1532.190996,9104.533087
862.132471,-740.205942,1762.019645,8586.388927
862.132801,-740.205942,919.314598,9104.533087
862.133130,-1332.370696,459.657299,9548.656652
862.133460,-1998.556043,536.266849,10140.821405
862.133789,-3034.844362,612.876398,10066.800811
862.134119,-3701.029710,383.047749,10140.821405
862.134448,-3478.967927,306.438199,10140.821405
862.134778,-2664.741391,-306.438199,10214.842000
862.135107,-1776.494261,-689.485948,9622.677246
862.135437,-1554.432478,-459.657299,9104.533087
862.135766,-592.164754,383.047749,9104.533087
862.136096,0.000000,612.876398,9474.636058
862.136426,0.000000,1378.971896,9696.697840
862.136755,-592.164754,1762.019645,9918.759623
862.137085,-592.164754,2451.505594,9770.718434
862.137414,-592.164754,2374.896044,9474.636058
862.137744,0.000000,1225.752797,8956.491898
862.138073,444.123565,383.047749,8808.450710
862.138403,222.061783,229.828649,8438.347739
862.138732,296.082377,842.705048,8290.306550
862.139062,518.144159,1225.752797,9030.512492
862.139392,0.000000,1302.362347,9548.656652
862.139721,-888.247130,1455.581446,10214.842000
862.140051,-1554.432478,1608.800546,10510.924376
862.140380,-2294.638420,1991.848295,10436.903782
862.140710,-2442.679609,1532.190996,9992.780217
862.141039,-2368.659014,1149.143247,9622.677246
862.141369,-2294.638420,306.438199,9548.656652
862.141698,-1924.535449,-919.314598,9326.594869
862.142028,-1850.514855,-766.095498,8956.491898
862.142358,-1480.411884,-459.657299,8882.471304
862.142687,-518.144159,0.000000,9326.594869
862.143017,-666.185348,229.828649,9844.739029
862.143346,-888.247130,1302.362347,10214.842000
862.143676,-1036.288319,2451.505594,10214.842000
862.144005,-592.164754,2298.286494,9474.636058
862.144335,222.061783,2528.115143,9548.656652
862.144664,740.205942,1149.143247,9622.677246
862.144994,518.144159,612.876398,9622.677246
862.145323,0.000000,995.924147,9252.574275
862.145653,-592.164754,1455.581446,9104.533087
862.145983,-888.247130,1685.410096,9326.594869
862.146312,-1554.432478,766.095498,9770.718434
862.146642,-2220.617826,1072.533697,9844.739029
862.146971,-2738.761985,919.314598,9622.677246
862.147301,-2886.803174,766.095498,9696.697840
862.147630,-2812.782580,1225.752797,9770.718434
862.147960,-2664.741391,306.438199,9548.656652
862.148289,-2220.617826,-383.047749,9548.656652
862.148619,-1258.350101,0.000000,9400.615463
862.148949,-814.226536,306.438199,9030.512492
862.149278,0.000000,612.876398,9474.636058
862.149608,-222.061783,919.314598,9548.656652
862.149937,-666.185348,1455.581446,10066.800811
862.150267,-962.267725,2221.676944,9844.739029
862.150596,-592.164754,2145.067394,10066.800811
862.150926,-222.061783,1608.800546,9696.697840
862.151255,444.123565,766.095498,9178.553681
862.151585,814.226536,306.438199,8660.409521
862.151914,740.205942,459.657299,8512.368333
862.152244,740.205942,1302.362347,8734.430116
862.152574,962.267725,1762.019645,8882.471304
862.152903,814.226536,1378.971896,9326.594869
862.153233,0.000000,1991.848295,9400.615463
862.153562,-962.267725,1991.848295,9622.677246
862.153892,-1998.556043,1915.238745,9474.636058
862.154221,-2220.617826,1149.143247,9770.718434
862.154551,-2368.659014,995.924147,9844.739029
862.154880,-2442.679609,459.657299,9770.718434
862.155210,-2294.638420,-459.657299,9104.533087
862.155540,-2294.638420,-536.266849,9252.574275
862.155869,-1776.494261,0.000000,9252.574275
862.156199,-1332.370696,229.828649,9770.718434
862.156528,-814.226536,1302.362347,10362.883188
862.156858,-1110.308913,1915.238745,9918.759623
862.157187,-1036.288319,2451.505594,9992.780217
862.157517,-370.102971,2298.286494,9918.759623
862.157846,296.082377,1915.238745,9474.636058
862.158176,370.102971,612.876398,9104.533087
862.158506,148.041188,459.657299,8882.471304
862.158835,-962.267725,1072.533697,9178.553681
862.159165,-1184.329507,1072.533697,9326.594869
862.159494,-1480.411884,612.876398,9696.697840
862.159824,-1850.514855,612.876398,9548.656652
862.160153,-2812.782580,536.266849,9844.739029
862.160483,-3330.926739,1149.143247,9918.759623
862.160812,-3627.009116,689.485948,9844.739029
862.161142,-3034.844362,612.876398,9992.780217
862.161471,-2294.638420,76.609550,9770.718434
862.161801,-1702.473667,-689.485948,9252.574275
862.162131,-666.185348,-306.438199,9104.533087
862.162460,-296.082377,536.266849,9252.574275
862.162790,444.123565,306.438199,9252.574275
862.163119,592.164754,766.095498,9548.656652
862.163449,666.185348,1762.019645,10140.821405
862.163778,148.041188,2604.724693,9696.697840
862.164108,0.000000,1838.629195,9400.615463
862.164437,444.123565,1608.800546,9178.553681
862.164767,1184.329507,919.314598,9030.512492
862.165097,1554.432478,0.000000,8956.491898
862.165426,1036.288319,306.438199,8512.368333
862.165756,444.123565,1378.971896,8808.450710
862.166085,0.000000,1608.800546,9104.533087
862.166415,-666.185348,1378.971896,9770.718434
862.166744,-1628.453072,1685.410096,10066.800811
862.167074,-1850.514855,2068.457845,10066.800811
862.167403,-2738.761985,1302.362347,10066.800811
862.167733,-2960.823768,995.924147,9622.677246
862.168063,-2664.741391,306.438199,9474.636058
862.168392,-2294.638420,-766.095498,9252.574275
862.168722,-1924.535449,-612.876398,9030.512492
862.169051,-1480.411884,153.219100,9326.594869
862.169381,-1258.350101,0.000000,9474.636058
862.169710,-1110.308913,459.657299,9992.780217
862.170040,-1406.391290,1455.581446,10214.842000
862.170369,-1184.329507,2145.067394,10140.821405
862.170699,-1036.288319,2221.676944,9844.739029
862.171028,-222.061783,1838.629195,9918.759623
862.171358,148.041188,1149.143247,9696.697840
862.171688,370.102971,536.266849,9326.594869
862.172017,222.061783,459.657299,9400.615463
862.172347,370.102971,1455.581446,9252.574275
862.172676,-148.041188,1455.581446,9400.615463
862.173006,-592.164754,1149.143247,9474.636058
862.173335,-1110.308913,1302.362347,9326.594869
862.173665,-1628.453072,1225.752797,9696.697840
862.173994,-1924.535449,842.705048,9918.759623
862.174324,-2146.597232,1072.533697,9696.697840
862.174654,-2516.700203,766.095498,9770.718434
862.174983,-2368.659014,0.000000,9400.615463
862.175313,-2220.617826,-536.266849,9474.636058
862.175642,-1924.535449,-229.828649,9252.574275
862.175972,-1258.350101,536.266849,9622.677246
862.176301,-1628.453072,612.876398,9622.677246
862.176631,-1702.473667,995.924147,9992.780217
862.176960,-1406.391290,1685.410096,9548.656652
862.177290,-962.267725,1762.019645,9178.553681
862.177620,222.061783,1685.410096,8734.430116
862.177949,1258.350101,995.924147,8586.388927
862.178279,1258.350101,536.266849,8734.430116
862.178608,888.247130,919.314598,8512.368333
862.178938,666.185348,1072.533697,8660.409521
862.179267,962.267725,1685.410096,9252.574275
862.179597,222.061783,1149.143247,9770.718434
862.179926,-814.226536,1302.362347,10955.047942
862.180256,-1998.556043,1532.190996,10955.047942
862.180585,-2590.720797,1072.533697,10436.903782
862.180915,-2812.782580,612.876398,9844.739029
862.181245,-2368.659014,153.219100,9918.759623
862.181574,-1924.535449,-766.095498,9474.636058
862.181904,-1702.473667,-1072.533697,8882.471304
862.182233,-1850.514855,-612.876398,8660.409521
862.182563,-1628.453072,-383.047749,8882.471304
862.182892,-1776.494261,536.266849,8956.491898
862.183222,-2072.576638,689.485948,9992.780217
862.183551,-2368.659014,1608.800546,10288.862594
862.183881,-2368.659014,1378.971896,10214.842000
862.184211,-1850.514855,1302.362347,10140.821405
862.184540,-1110.308913,1455.581446,9918.759623
862.184870,-296.082377,1225.752797,9326.594869
862.185199,-148.041188,995.924147,9030.512492
862.185529,0.000000,1225.752797,8956.491898
862.185858,222.061783,1685.410096,9178.553681
862.186188,148.041188,1455.581446,9696.697840
862.186517,-444.123565,1302.362347,10436.903782
862.186847,-1776.494261,1532.190996,10658.965565
862.187176,-2590.720797,1455.581446,9992.780217
862.187506,-2664.741391,612.876398,9844.739029
862.187836,-2368.659014,0.000000,9474.636058
862.188165,-1850.514855,0.000000,9178.553681
862.188495,-1258.350101,-612.876398,8956.491898
862.188824,-1036.288319,0.000000,8734.430116
862.189154,-518.144159,766.095498,9030.512492
862.189483,-222.061783,1608.800546,9696.697840
862.189813,-962.267725,2528.115143,9918.759623
862.190142,-962.267725,2681.334243,10066.800811
862.190472,-1184.329507,2604.724693,9622.677246
862.190802,-740.205942,2145.067394,9178.553681
862.191131,0.000000,1225.752797,8660.409521
862.191461,444.123565,306.438199,8290.306550
862.191790,444.123565,229.828649,8660.409521
862.192120,0.000000,689.485948,8438.347739
862.192449,0.000000,1378.971896,8882.471304
862.192779,444.123565,1608.800546,9696.697840
862.193108,222.061783,1685.410096,10066.800811
862.193438,-888.247130,2757.943793,9992.780217
862.193768,-1332.370696,2528.115143,9696.697840
862.194097,-1332.370696,1608.800546,9770.718434
862.194427,-1554.432478,995.924147,9770.718434
862.194756,-1702.473667,229.828649,9992.780217
862.195086,-1554.432478,-153.219100,9400.615463
862.195415,-1628.453072,-689.485948,9104.533087
862.195745,-1702.473667,-536.266849,9252.574275
862.196074,-1702.473667,-306.438199,9474.636058
862.196404,-1850.514855,229.828649,10214.842000
862.196733,-1776.494261,995.924147,10658.965565
862.197063,-2516.700203,2451.505594,10214.842000
862.197393,-2294.638420,1838.629195,10140.821405
862.197722,-1406.391290,1378.971896,9918.759623
862.198052,-740.205942,1072.533697,9400.615463
862.198381,-592.164754,995.924147,8734.430116
862.198711,-518.144159,689.485948,8068.244768
862.199040,-296.082377,612.876398,8512.368333
862.199370,-444.123565,842.705048,9474.636058
862.199699,-1184.329507,612.876398,10436.903782
862.200029,-2220.617826,1225.752797,11029.068536
862.200359,-2886.803174,1685.410096,10288.862594
862.200688,-3108.864956,919.314598,10288.862594
862.201018,-2812.782580,612.876398,10288.862594
862.201347,-1998.556043,153.219100,9696.697840
862.201677,-888.247130,-306.438199,9400.615463
862.202006,-296.082377,-153.219100,8956.491898
862.202336,-148.041188,1149.143247,8364.327145
862.202665,0.000000,766.095498,9030.512492
862.202995,0.000000,1302.362347,9548.656652
862.203325,-666.185348,2068.457845,9770.718434
862.203654,-888.247130,2911.162892,9696.697840
862.203984,-666.185348,1838.629195,9252.574275
862.204313,-444.123565,1072.533697,8882.471304
862.204643,0.000000,612.876398,8734.430116
862.204972,296.082377,229.828649,8734.430116
862.205302,148.041188,459.657299,8808.450710
862.205631,370.102971,1072.533697,8734.430116
862.205961,370.102971,1762.019645,8956.491898
862.206290,518.144159,1378.971896,9770.718434
862.206620,222.061783,1762.019645,10066.800811
862.206950,-592.164754,2604.724693,10214.842000
862.207279,-1110.308913,2681.334243,9770.718434
862.207609,-1480.411884,1685.410096,9474.636058
862.207938,-1702.473667,689.485948,9622.677246
862.208268,-1184.329507,-383.047749,9400.615463
862.208597,-1258.350101,-766.095498,9104.533087
862.208927,-1480.411884,-842.705048,9178.553681
862.209256,-1332.370696,-153.219100,9474.636058
862.209586,-1776.494261,229.828649,9992.780217
862.209916,-1924.535449,919.314598,10288.862594
862.210245,-1702.473667,1762.019645,10658.965565
862.210575,-1776.494261,2298.286494,10066.800811
862.210904,-1036.288319,1762.019645,9474.636058
862.211234,-296.082377,1302.362347,9474.636058
862.211564,0.000000,689.485948,9326.594869
862.211893,-296.082377,536.266849,8808.450710
862.212223,-740.205942,1225.752797,8068.244768
862.212552,-592.164754,1072.533697,8142.265362
862.212882,-888.247130,536.266849,8956.491898
862.213211,-1406.391290,459.657299,9770.718434
862.213541,-2294.638420,1225.752797,10510.924376
862.213871,-3256.906145,1072.533697,10732.986159
862.214200,-3552.988522,995.924147,10436.903782
862.214530,-3108.864956,459.657299,10362.883188
862.214859,-1776.494261,-383.047749,10362.883188
862.215189,-1110.308913,-612.876398,9474.636058
862.215519,-666.185348,153.219100,8808.450710
862.215848,-148.041188,306.438199,8882.471304
862.216178,222.061783,689.485948,9474.636058
862.216507,-296.082377,1149.143247,9474.636058
862.216837,-666.185348,1991.848295,9844.739029
862.217166,-1036.288319,2068.457845,9400.615463
862.217496,-740.205942,1685.410096,9326.594869
862.217826,-296.082377,1685.410096,8882.471304
862.218155,222.061783,306.438199,9178.553681
862.218485,0.000000,153.219100,8956.491898
862.218814,-296.082377,1149.143247,8956.491898
862.219144,-370.102971,1685.410096,9252.574275
862.219474,0.000000,2221.676944,9474.636058
862.219803,0.000000,1532.190996,9696.697840
862.220133,-814.226536,1608.800546,9844.739029
862.220462,-1036.288319,1991.848295,9770.718434
862.220792,-1628.453072,1915.238745,9474.636058
862.221121,-1776.494261,1225.752797,9770.718434
862.221451,-2146.597232,383.047749,9474.636058
862.221781,-1702.473667,-306.438199,9030.512492
862.222110,-1480.411884,-536.266849,9104.533087
862.222440,-1258.350101,0.000000,9178.553681
862.222769,-1184.329507,0.000000,8956.491898
862.223099,-1258.350101,0.000000,9622.677246
862.223429,-1332.370696,1072.533697,10288.862594
862.223758,-1776.494261,2068.457845,10288.862594
862.224088,-1850.514855,2298.286494,10066.800811
862.224417,-1184.329507,1838.629195,9992.780217
862.224747,-370.102971,919.314598,9622.677246
862.225076,-444.123565,536.266849,8882.471304
862.225406,-666.185348,612.876398,9030.512492
862.225736,-1184.329507,1072.533697,8734.430116
862.226065,-1258.350101,995.924147,9178.553681
862.226395,-1628.453072,459.657299,10214.842000
862.226724,-2220.617826,1149.143247,10732.986159
862.227054,-2886.803174,995.924147,10807.006753
862.227384,-3182.885551,536.266849,10436.903782
862.227713,-3108.864956,459.657299,10436.903782
862.228043,-2368.659014,0.000000,10362.883188
862.228372,-1628.453072,-459.657299,9844.739029
862.228702,-962.267725,0.000000,9030.512492
862.229031,-370.102971,229.828649,8882.471304
862.229361,74.020594,383.047749,9400.615463
862.229691,296.082377,842.705048,9844.739029
862.230020,-444.123565,1991.848295,9696.697840
862.230350,-666.185348,2221.676944,9696.697840
862.230679,-592.164754,2451.505594,9178.553681
862.231009,0.000000,1685.410096,8956.491898
862.231339,518.144159,536.266849,8512.368333
862.231668,740.205942,0.000000,8216.285956
862.231998,740.205942,766.095498,7772.162391
862.232327,370.102971,1762.019645,8512.368333
862.232657,74.020594,1608.800546,8808.450710
862.232987,-296.082377,1532.190996,9474.636058
862.233316,-814.226536,1991.848295,9992.780217
862.233646,-1184.329507,2145.067394,10140.821405
862.233975,-1554.432478,1838.629195,9622.677246
862.234305,-1924.535449,1455.581446,9770.718434
862.234634,-1776.494261,842.705048,9992.780217
862.234964,-1480.411884,0.000000,9622.677246
862.235294,-1554.432478,-229.828649,9474.636058
862.235623,-1184.329507,0.000000,9104.533087
862.235953,-1110.308913,229.828649,9474.636058
862.236282,-1332.370696,153.219100,9770.718434
862.236612,-1480.411884,689.485948,10066.800811
862.236942,-1776.494261,1685.410096,10140.821405
862.237271,-2220.617826,2145.067394,9918.759623
862.237601,-1776.494261,1762.019645,9992.780217
862.237930,-1258.350101,766.095498,9992.780217
862.238260,-666.185348,229.828649,9992.780217
862.238589,-888.247130,383.047749,9770.718434
862.238919,-814.226536,612.876398,9474.636058
862.239249,-296.082377,1302.362347,9178.553681
862.239578,0.000000,1532.190996,9252.574275
862.239908,74.020594,1149.143247,9696.697840
862.240237,-444.123565,1302.362347,9844.739029
862.240567,-1406.391290,1455.581446,9696.697840
862.240897,-1998.556043,1685.410096,9770.718434
862.241226,-2590.720797,612.876398,10362.883188
862.241556,-2368.659014,306.438199,10066.800811
862.241885,-2146.597232,0.000000,9474.636058
862.242215,-1850.514855,-612.876398,8808.450710
862.242544,-1332.370696,-536.266849,8808.450710
862.242874,-1184.329507,612.876398,9326.594869
862.243204,-1332.370696,919.314598,9992.780217
862.243533,-1776.494261,2374.896044,9844.739029
862.243863,-1480.411884,2451.505594,9474.636058
862.244192,-740.205942,2068.457845,9104.533087
862.244522,518.144159,1225.752797,8512.368333
862.244852,740.205942,1149.143247,8660.409521
862.245181,814.226536,689.485948,8586.388927
862.245511,814.226536,919.314598,8660.409521
862.245840,666.185348,1991.848295,8956.491898
862.246170,370.102971,1225.752797,9326.594869
862.246499,74.020594,1302.362347,10066.800811
862.246829,-740.205942,1991.848295,10140.821405
862.247159,-1258.350101,2145.067394,10140.821405
862.247488,-1850.514855,1532.190996,9844.739029
862.247818,-1702.473667,1149.143247,9918.759623
862.248147,-1850.514855,153.219100,9548.656652
862.248477,-1554.432478,-306.438199,9622.677246
862.248807,-1702.473667,-306.438199,9104.533087
862.249136,-1554.432478,0.000000,8956.491898
862.249466,-1036.288319,76.609550,9474.636058
862.249795,-1480.411884,306.438199,10140.821405
862.250125,-1924.535449,1072.533697,10362.883188
862.250454,-2220.617826,1608.800546,10140.821405
862.250784,-1776.494261,1991.848295,9918.759623
862.251114,-962.267725,2145.067394,9844.739029
862.251443,-296.082377,689.485948,9104.533087
862.251773,0.000000,153.219100,9326.594869
862.252102,-148.041188,919.314598,9178.553681
862.252432,-296.082377,1838.629195,9178.553681
862.252762,-518.144159,1838.629195,8956.491898
862.253091,-592.164754,1378.971896,9252.574275
862.253421,-1036.288319,1532.190996,9326.594869
862.253750,-1776.494261,1378.971896,9622.677246
862.254080,-2368.659014,1225.752797,9844.739029
862.254409,-2812.782580,612.876398,10436.903782
862.254739,-2886.803174,536.266849,10214.842000
862.255069,-2294.638420,-229.828649,9844.739029
862.255398,-1406.391290,-536.266849,9178.553681
862.255728,-518.144159,-383.047749,8956.491898
862.256057,0.000000,383.047749,9030.512492
862.256387,-296.082377,919.314598,9770.718434
862.256717,-592.164754,1302.362347,9844.739029
862.257046,-962.267725,1838.629195,9992.780217
862.257376,-962.267725,2221.676944,9918.759623
862.257705,-592.164754,1608.800546,9400.615463
862.258035,222.061783,459.657299,9030.512492
862.258365,740.205942,-766.095498,8438.347739
862.258694,444.123565,536.266849,8660.409521
862.259024,296.082377,919.314598,8808.450710
862.259353,296.082377,1455.581446,9178.553681
862.259683,0.000000,1378.971896,9548.656652
862.260012,-222.061783,1838.629195,9696.697840
862.260342,-888.247130,2068.457845,10066.800811
862.260672,-1776.494261,1762.019645,9770.718434
862.261001,-2072.576638,1378.971896,9696.697840
862.261331,-2072.576638,995.924147,10066.800811
862.261660,-1776.494261,0.000000,9474.636058
862.261990,-2220.617826,-536.266849,9104.533087
862.262320,-2368.659014,-766.095498,8808.450710
862.262649,-1924.535449,-689.485948,9400.615463
862.262979,-1702.473667,-306.438199,9918.759623
862.263308,-1850.514855,306.438199,10066.800811
862.263638,-1850.514855,1455.581446,9992.780217
862.263967,-1998.556043,2068.457845,9918.759623
862.264297,-1332.370696,2068.457845,9844.739029
862.264627,-592.164754,1455.581446,9696.697840
862.264956,0.000000,919.314598,9474.636058
862.265286,296.082377,766.095498,9178.553681
862.265615,-444.123565,1302.362347,8882.471304
862.265945,-148.041188,1225.752797,8808.450710
862.266275,-592.164754,1072.533697,9104.533087
862.266604,-1110.308913,766.095498,9770.718434
862.266934,-2146.597232,459.657299,10066.800811
862.267263,-2590.720797,1378.971896,10658.965565
862.267593,-3182.885551,1302.362347,10510.924376
862.267922,-3034.844362,842.705048,10288.862594
862.268252,-2294.638420,0.000000,9844.739029
862.268582,-1332.370696,-689.485948,9252.574275
862.268911,-444.123565,76.609550,8956.491898
862.269241,-222.061783,612.876398,9252.574275
862.269570,0.000000,919.314598,9474.636058
862.269900,-370.102971,1302.362347,9770.718434
862.270230,-962.267725,2145.067394,9844.739029
862.270559,-518.144159,1991.848295,9326.594869
862.270889,-370.102971,1455.581446,8956.491898
862.271218,0.000000,842.705048,8808.450710
862.271548,444.123565,153.219100,8734.430116
862.271877,444.123565,76.609550,8660.409521
862.272207,444.123565,1072.533697,9030.512492
862.272537,370.102971,1915.238745,9326.594869
862.272866,592.164754,1838.629195,9474.636058
862.273196,148.041188,2068.457845,9918.759623
862.273525,-222.061783,2298.286494,9770.718434
862.273855,-444.123565,2451.505594,9474.636058
862.274185,-1184.329507,1532.190996,9400.615463
862.274514,-1332.370696,1378.971896,9622.677246
862.274844,-1776.494261,229.828649,9474.636058
862.275173,-1998.556043,-689.485948,9326.594869
862.275503,-2146.597232,-612.876398,9104.533087
862.275832,-1554.432478,-766.095498,8956.491898
862.276162,-1850.514855,-459.657299,10066.800811
862.276492,-1998.556043,383.047749,10288.862594
862.276821,-1998.556043,842.705048,10436.903782
862.277151,-1998.556043,1915.238745,10362.883188
862.277480,-814.226536,1991.848295,10436.903782
862.277810,-666.185348,2068.457845,9770.718434
862.278140,296.082377,1455.581446,9474.636058
862.278469,222.061783,842.705048,9030.512492
862.278799,0.000000,919.314598,8734.430116
862.279128,-444.123565,1608.800546,8586.388927
862.279458,-740.205942,919.314598,8660.409521
862.279787,-962.267725,766.095498,9548.656652
862.280117,-1998.556043,689.485948,10214.842000
862.280447,-2738.761985,995.924147,10658.965565
862.280776,-3330.926739,995.924147,10510.924376
862.281106,-3330.926739,1302.362347,10436.903782
862.281435,-2738.761985,612.876398,9992.780217
862.281765,-1924.535449,-229.828649,9474.636058
862.282095,-1332.370696,-153.219100,9104.533087
862.282424,-296.082377,766.095498,8882.471304
862.282754,0.000000,1072.533697,9326.594869
862.283083,-370.102971,1762.019645,9252.574275
862.283413,-518.144159,1608.800546,9326.594869
862.283742,-814.226536,1991.848295,9326.594869
862.284072,-814.226536,1762.019645,9326.594869
862.284402,-222.061783,1378.971896,9326.594869
862.284731,370.102971,1225.752797,8586.388927
862.285061,888.247130,306.438199,8734.430116
862.285390,740.205942,536.266849,9030.512492
862.285720,518.144159,1685.410096,9104.533087
862.286050,666.185348,1991.848295,9474.636058
862.286379,518.144159,1991.848295,9474.636058
862.286709,0.000000,2145.067394,10140.821405
862.287038,-666.185348,1762.019645,9844.739029
862.287368,-1628.453072,1455.581446,9770.718434
862.287698,-2368.659014,1072.533697,9696.697840
862.288027,-2146.597232,306.438199,9548.656652
862.288357,-1998.556043,-612.876398,9326.594869
862.288686,-1924.535449,-1225.752797,9030.512492
862.289016,-1776.494261,-766.095498,9030.512492
862.289345,-1184.329507,-536.266849,9178.553681
862.289675,-740.205942,306.438199,9844.739029
862.290005,-814.226536,1149.143247,10066.800811
862.290334,-1258.350101,2145.067394,10288.862594
862.290664,-1406.391290,2451.505594,10140.821405
862.290993,-1036.288319,2068.457845,10214.842000
862.291323,-592.164754,1532.190996,9770.718434
862.291653,-518.144159,229.828649,9104.533087
862.291982,-962.267725,306.438199,8956.491898
862.292312,-1258.350101,536.266849,8216.285956
862.292641,-888.247130,536.266849,8734.430116
862.292971,-1258.350101,383.047749,9326.594869
862.293300,-1628.453072,459.657299,10362.883188
862.293630,-2368.659014,1149.143247,10732.986159
862.293960,-3034.844362,1915.238745,10658.965565
862.294289,-3108.864956,1302.362347,10658.965565
862.294619,-2516.700203,1072.533697,10214.842000
862.294948,-1628.453072,306.438199,9474.636058
862.295278,-666.185348,-689.485948,8882.471304
862.295608,-888.247130,-306.438199,8660.409521
862.295937,-592.164754,229.828649,9178.553681
862.296267,-518.144159,689.485948,9548.656652
862.296596,-962.267725,919.314598,9992.780217
862.296926,-740.205942,2145.067394,10214.842000
862.297255,-740.205942,1685.410096,9622.677246
862.297585,0.000000,1225.752797,9474.636058
862.297915,444.123565,1685.410096,8734.430116
862.298244,888.247130,766.095498,8660.409521
862.298574,1554.432478,229.828649,8586.388927
862.298903,1184.329507,1532.190996,8438.347739
862.299233,888.247130,1991.848295,8660.409521
862.299563,962.267725,1455.581446,8882.471304
862.299892,444.123565,1532.190996,9400.615463
862.300222,-296.082377,2068.457845,9474.636058
862.300551,-1850.514855,1991.848295,9400.615463
862.300881,-2072.576638,1302.362347,9844.739029
862.301210,-2368.659014,1378.971896,10362.883188
862.301540,-2516.700203,459.657299,10140.821405
862.301870,-2516.700203,-612.876398,9474.636058
862.302199,-2368.659014,-612.876398,8956.491898
862.302529,-1850.514855,-689.485948,9252.574275
862.302858,-1480.411884,-306.438199,9622.677246
862.303188,-1554.432478,306.438199,10288.862594
862.303518,-1480.411884,1378.971896,9992.780217
862.303847,-1480.411884,1762.019645,9622.677246
862.304177,-1480.411884,1302.362347,9622.677246
862.304506,-666.185348,1149.143247,9918.759623
862.304836,-296.082377,689.485948,9844.739029
862.305165,-592.164754,383.047749,9474.636058
862.305495,-888.247130,383.047749,9474.636058
862.305825,-1184.329507,995.924147,9178.553681
862.306154,-1036.288319,689.485948,9696.697840
862.306484,-1554.432478,612.876398,9992.780217
862.306813,-1998.556043,842.705048,10066.800811
862.307143,-2072.576638,1225.752797,9844.739029
862.307473,-2368.659014,919.314598,9622.677246
862.307802,-2368.659014,689.485948,9622.677246
862.308132,-2294.638420,689.485948,9622.677246
862.308461,-1776.494261,0.000000,9104.533087
862.308791,-1480.411884,0.000000,9030.512492
862.309120,-962.267725,536.266849,8660.409521
862.309450,-962.267725,306.438199,8882.471304
862.309780,-740.205942,536.266849,9622.677246
862.310109,-1406.391290,1455.581446,9992.780217
862.310439,-1702.473667,1838.629195,9770.718434
862.310768,-1554.432478,1532.190996,9474.636058
862.311098,-740.205942,995.924147,8882.471304
862.311428,518.144159,766.095498,9104.533087
862.311757,1184.329507,306.438199,8882.471304
862.312087,1184.329507,536.266849,8734.430116
862.312416,1184.329507,1685.410096,9178.553681
862.312746,1332.370696,2145.067394,9918.759623
862.313075,1036.288319,2451.505594,9992.780217
862.313405,0.000000,2068.457845,10288.862594
862.313734,-814.226536,2451.505594,9992.780217
862.314064,-1554.432478,1762.019645,9770.718434
862.314394,-1924.535449,1302.362347,9622.677246
862.314723,-1850.514855,229.828649,9474.636058
862.315053,-2368.659014,-842.705048,9400.615463
862.315382,-2590.720797,-1149.143247,9104.533087
862.315712,-2294.638420,-536.266849,9326.594869
862.316041,-1850.514855,-306.438199,9178.553681
862.316371,-1554.432478,76.609550,9992.780217
862.316700,-1332.370696,995.924147,10214.842000
862.317030,-1628.453072,1685.410096,10214.842000
862.317359,-1036.288319,2145.067394,10214.842000
862.317689,-518.144159,2068.457845,9918.759623
862.318019,296.082377,1608.800546,9696.697840
862.318348,962.267725,536.266849,9400.615463
862.318678,740.205942,459.657299,8808.450710
862.319007,592.164754,766.095498,9030.512492
862.319337,148.041188,1225.752797,9030.512492
862.319666,0.000000,1149.143247,9474.636058
862.319996,-370.102971,536.266849,9992.780217
862.320325,-1702.473667,995.924147,9696.697840
862.320655,-2294.638420,1378.971896,9918.759623
862.320985,-2886.803174,1378.971896,10066.800811
862.321314,-3034.844362,842.705048,9844.739029
862.321644,-3256.906145,153.219100,9474.636058
862.321973,-2886.803174,0.000000,9474.636058
862.322303,-2664.741391,76.609550,9474.636058
862.322632,-2220.617826,536.266849,9474.636058
862.322962,-1554.432478,459.657299,9548.656652
862.323291,-1554.432478,995.924147,9844.739029
862.323621,-962.267725,1685.410096,9622.677246
862.323950,-1036.288319,2145.067394,9326.594869
862.324280,-296.082377,1685.410096,9178.553681
862.324610,444.123565,1762.019645,9178.553681
862.324939,888.247130,919.314598,8660.409521
862.325269,1036.288319,536.266849,8660.409521
862.325598,888.247130,1072.533697,9252.574275
862.325928,888.247130,1532.190996,9252.574275
862.326257,962.267725,1608.800546,9844.739029
862.326587,296.082377,1685.410096,10140.821405
862.326916,0.000000,2298.286494,9548.656652
862.327246,-1036.288319,2145.067394,9548.656652
862.327576,-1184.329507,1378.971896,9770.718434
862.327905,-1480.411884,1072.533697,9844.739029
862.328235,-1850.514855,229.828649,9622.677246
862.328564,-2072.576638,76.609550,9030.512492
862.328894,-2220.617826,-536.266849,8956.491898
862.329223,-2146.597232,-459.657299,9030.512492
862.329553,-2072.576638,-229.828649,9326.594869
862.329882,-2220.617826,0.000000,9770.718434
862.330212,-2368.659014,919.314598,10140.821405
862.330541,-2220.617826,1685.410096,9992.780217
862.330871,-1702.473667,2068.457845,9548.656652
862.331201,-814.226536,1378.971896,9548.656652
862.331530,74.020594,1225.752797,9548.656652
862.331860,444.123565,1149.143247,9548.656652
862.332189,0.000000,1072.533697,9400.615463
862.332519,0.000000,1608.800546,9178.553681
862.332848,0.000000,1532.190996,9548.656652
862.333178,-518.144159,995.924147,10214.842000
862.333507,-1332.370696,689.485948,10658.965565
862.333837,-1998.556043,1608.800546,10510.924376
862.334167,-2146.597232,689.485948,10288.862594
862.334496,-2368.659014,536.266849,10066.800811
862.334826,-1776.494261,459.657299,9992.780217
862.335155,-1406.391290,-612.876398,9474.636058
862.335485,-1258.350101,153.219100,9178.553681
862.335814,-740.205942,766.095498,9178.553681
862.336144,-814.226536,1378.971896,9474.636058
862.336473,-888.247130,919.314598,9770.718434
862.336803,-1332.370696,1149.143247,9622.677246
862.337132,-1850.514855,1608.800546,9326.594869
862.337462,-1554.432478,995.924147,8882.471304
862.337792,-814.226536,919.314598,9326.594869
862.338121,-222.061783,612.876398,8956.491898
862.338451,-222.061783,459.657299,8512.368333
862.338780,0.000000,536.266849,8364.327145
862.339110,814.226536,1149.143247,8438.347739
862.339439,888.247130,1915.238745,9178.553681
862.339769,740.205942,1915.238745,9622.677246
862.340098,74.020594,2298.286494,9474.636058
862.340428,-296.082377,1991.848295,9548.656652
862.340758,-740.205942,1302.362347,9252.574275
862.341087,-1332.370696,1608.800546,10066.800811
862.341417,-1776.494261,766.095498,10214.842000
862.341746,-1998.556043,0.000000,9992.780217
862.342076,-2294.638420,-766.095498,9400.615463
862.342405,-2072.576638,-766.095498,9474.636058
862.342735,-1850.514855,-536.266849,9400.615463
862.343064,-1776.494261,76.609550,9696.697840
862.343394,-1850.514855,1225.752797,10510.924376
862.343723,-2220.617826,1915.238745,10066.800811
862.344053,-1776.494261,2068.457845,9622.677246
862.344383,-1036.288319,1302.362347,9252.574275
862.344712,-518.144159,995.924147,9474.636058
862.345042,-444.123565,766.095498,9474.636058
862.345371,-814.226536,612.876398,9178.553681
862.345701,-1110.308913,919.314598,9326.594869
862.346030,-1036.288319,842.705048,9326.594869
862.346360,-1184.329507,689.485948,9770.718434
862.346689,-1480.411884,383.047749,10214.842000
862.347019,-1998.556043,689.485948,10288.862594
862.347349,-2368.659014,1072.533697,10140.821405
862.347678,-2664.741391,1072.533697,9844.739029
862.348008,-2220.617826,995.924147,9474.636058
862.348337,-1480.411884,306.438199,9178.553681
862.348667,-814.226536,306.438199,9104.533087
862.348996,-666.185348,153.219100,8808.450710
862.349326,-370.102971,536.266849,9104.533087
862.349655,-444.123565,1149.143247,9400.615463
862.349985,-1184.329507,995.924147,9474.636058
862.350314,-1850.514855,1302.362347,9844.739029
862.350644,-2294.638420,1532.190996,9992.780217
862.350974,-2220.617826,919.314598,9474.636058
862.351303,-1406.391290,612.876398,8956.491898
862.351633,-666.185348,153.219100,8660.409521
862.351962,0.000000,-153.219100,8438.347739
862.352292,222.061783,612.876398,8660.409521
862.352621,814.226536,1455.581446,8956.491898
862.352951,1110.308913,2451.505594,9252.574275
862.353280,444.123565,2757.943793,10066.800811
862.353610,-222.061783,2604.724693,9918.759623
862.353940,-814.226536,2451.505594,9844.739029
862.354269,-1480.411884,1455.581446,9992.780217
862.354599,-1554.432478,689.485948,9844.739029
862.354928,-1554.432478,-229.828649,9844.739029
862.355258,-1776.494261,-1302.362347,9918.759623
862.355587,-2072.576638,-1072.533697,9770.718434
862.355917,-1924.535449,-459.657299,9770.718434
862.356246,-1628.453072,536.266849,9918.759623
862.356576,-740.205942,1149.143247,10140.821405
862.356905,-1406.391290,2374.896044,9400.615463
862.357235,-1036.288319,2528.115143,9252.574275
862.357565,-740.205942,2374.896044,9252.574275
862.357894,-518.144159,1991.848295,8956.491898
862.358224,-444.123565,1532.190996,8956.491898
862.358553,-370.102971,1225.752797,8956.491898
862.358883,-1036.288319,612.876398,8956.491898
862.359212,-962.267725,919.314598,9030.512492
862.359542,-1184.329507,612.876398,9178.553681
862.359871,-1480.411884,459.657299,9622.677246
862.360201,-2146.597232,995.924147,10436.903782
862.360531,-2146.597232,1838.629195,10584.944971
862.360860,-2738.761985,1838.629195,10436.903782
862.361190,-2368.659014,1762.019645,10066.800811
862.361519,-1480.411884,1072.533697,9770.718434
862.361849,-814.226536,536.266849,9622.677246
862.362178,-370.102971,76.609550,8734.430116
862.362508,-370.102971,153.219100,8734.430116
862.362837,-296.082377,766.095498,9252.574275
862.363167,-888.247130,1072.533697,9622.677246
862.363496,-1332.370696,1149.143247,10140.821405
862.363826,-1036.288319,1762.019645,9548.656652
862.364156,-1406.391290,1225.752797,9474.636058
862.364485,-666.185348,842.705048,9326.594869
862.364815,0.000000,612.876398,9104.533087
862.365144,148.041188,383.047749,9104.533087
862.365474,296.082377,689.485948,9104.533087
862.365803,370.102971,1455.581446,9178.553681
862.366133,740.205942,1378.971896,9104.533087
862.366462,666.185348,1225.752797,9622.677246
862.366792,0.000000,1455.581446,9992.780217
862.367122,-888.247130,1608.800546,9400.615463
862.367451,-2072.576638,1225.752797,9252.574275
862.367781,-2146.597232,919.314598,9844.739029
862.368110,-2072.576638,612.876398,9622.677246
862.368440,-1924.535449,-459.657299,9548.656652
862.368769,-1924.535449,-919.314598,9252.574275
862.369099,-1776.494261,-306.438199,8512.368333
862.369428,-1554.432478,0.000000,9178.553681
862.369758,-1406.391290,536.266849,10066.800811
862.370087,-1480.411884,1302.362347,10140.821405
862.370417,-1480.411884,1838.629195,10066.800811
862.370747,-888.247130,1762.019645,9770.718434
862.371076,-962.267725,1455.581446,9474.636058
862.371406,-666.185348,1225.752797,9622.677246
862.371735,-518.144159,612.876398,9548.656652
862.372065,-814.226536,536.266849,9474.636058
862.372394,-1184.329507,1072.533697,9178.553681
862.372724,-962.267725,1149.143247,9252.574275
862.373053,-962.267725,919.314598,9844.739029
862.373383,-1332.370696,1225.752797,10140.821405
862.373713,-1702.473667,1378.971896,10436.903782
862.374042,-2294.638420,1608.800546,9992.780217
862.374372,-2368.659014,1149.143247,9622.677246
862.374701,-2368.659014,1149.143247,9696.697840
862.375031,-1924.535449,459.657299,9696.697840
862.375360,-1332.370696,76.609550,9400.615463
862.375690,-1332.370696,76.609550,8956.491898
862.376019,-1110.308913,612.876398,8808.450710
862.376349,-1036.288319,612.876398,9178.553681
862.376678,-740.205942,919.314598,10066.800811
862.377008,-888.247130,1838.629195,10066.800811
862.377338,-962.267725,2451.505594,9474.636058
862.377667,0.000000,1838.629195,8512.368333
862.377997,962.267725,1225.752797,7846.182985
862.378326,1702.473667,766.095498,8068.244768
862.378656,1554.432478,766.095498,7920.203579
862.378985,1184.329507,1225.752797,7772.162391
862.379315,1036.288319,1915.238745,8290.306550
862.379644,518.144159,1838.629195,9326.594869
862.379974,-296.082377,1455.581446,10214.842000
862.380304,-1110.308913,1838.629195,10214.842000
862.380633,-1924.535449,1225.752797,9992.780217
862.380963,-2072.576638,536.266849,10288.862594
862.381292,-2146.597232,0.000000,10436.903782
862.381622,-1850.514855,0.000000,10732.986159
862.381951,-1850.514855,-536.266849,9844.739029
862.382281,-1554.432478,-612.876398,9252.574275
862.382610,-666.185348,-153.219100,9030.512492
862.382940,-370.102971,689.485948,9252.574275
862.383269,-592.164754,536.266849,9474.636058
862.383599,-1184.329507,1455.581446,9992.780217
862.383929,-1480.411884,1838.629195,9992.780217
862.384258,-1406.391290,1608.800546,9844.739029
862.384588,-1036.288319,1072.533697,9844.739029
862.384917,-444.123565,153.219100,9918.759623
862.385247,-962.267725,229.828649,9770.718434
862.385576,-962.267725,306.438199,9622.677246
862.385906,-1110.308913,689.485948,9474.636058
862.386235,-1184.329507,842.705048,9548.656652
862.386565,-1628.453072,919.314598,9844.739029
862.386895,-2072.576638,1072.533697,10140.821405
862.387224,-2368.659014,1149.143247,9252.574275
862.387554,-2368.659014,766.095498,9178.553681
862.387883,-2368.659014,229.828649,9178.553681
862.388213,-1850.514855,0.000000,8882.471304
862.388542,-1628.453072,0.000000,8956.491898
862.388872,-1480.411884,229.828649,8956.491898
862.389201,-1036.288319,766.095498,9178.553681
862.389531,-962.267725,919.314598,9548.656652
862.389860,-814.226536,995.924147,10214.842000
862.390190,-962.267725,1302.362347,9992.780217
862.390520,-1480.411884,2374.896044,9844.739029
862.390849,-1406.391290,2221.676944,9548.656652
862.391179,-740.205942,1608.800546,9030.512492
862.391508,-148.041188,919.314598,8290.306550
862.391838,222.061783,-229.828649,7402.059420
862.392167,0.000000,0.000000,8068.244768
862.392497,-296.082377,995.924147,8660.409521
862.392826,-592.164754,1455.581446,9252.574275
862.393156,-888.247130,1608.800546,9992.780217
862.393486,-1258.350101,1608.800546,10436.903782
862.393815,-1776.494261,1532.190996,9844.739029
862.394145,-1702.473667,842.705048,10214.842000
862.394474,-1332.370696,306.438199,10658.965565
862.394804,-1110.308913,229.828649,11029.068536
862.395133,-740.205942,-459.657299,10362.883188
862.395463,-740.205942,-536.266849,9770.718434
862.395792,222.061783,-153.219100,9770.718434
862.396122,444.123565,383.047749,9326.594869
862.396451,666.185348,842.705048,9548.656652
862.396781,296.082377,1532.190996,9548.656652
862.397111,-444.123565,1991.848295,9030.512492
862.397440,-962.267725,2298.286494,9030.512492
862.397770,-1332.370696,1838.629195,9104.533087
862.398099,-1184.329507,1455.581446,9030.512492
862.398429,-1258.350101,306.438199,9104.533087
862.398758,-1628.453072,153.219100,9030.512492
862.399088,-2368.659014,1149.143247,8956.491898
862.399417,-2220.617826,766.095498,9474.636058
862.399747,-2590.720797,612.876398,9770.718434
862.400077,-2960.823768,766.095498,10066.800811
862.400406,-2960.823768,1072.533697,10288.862594
862.400736,-2516.700203,1149.143247,9770.718434
862.401065,-2294.638420,995.924147,9918.759623
862.401395,-1554.432478,612.876398,9622.677246
862.401724,-592.164754,229.828649,9178.553681
862.402054,0.000000,76.609550,9104.533087
862.402383,592.164754,459.657299,8734.430116
862.402713,1258.350101,842.705048,9400.615463
862.403042,370.102971,1225.752797,9770.718434
862.403372,0.000000,1532.190996,10288.862594
862.403702,-370.102971,1532.190996,10288.862594
862.404031,-296.082377,1991.848295,9770.718434
862.404361,-518.144159,1608.800546,9622.677246
862.404690,-148.041188,995.924147,9178.553681
862.405020,74.020594,306.438199,8512.368333
862.405349,0.000000,0.000000,8660.409521
862.405679,222.061783,1225.752797,8808.450710
862.406008,0.000000,1378.971896,8734.430116
862.406338,0.000000,1608.800546,9178.553681
862.406668,-444.123565,1532.190996,9548.656652
862.406997,-1406.391290,1915.238745,9696.697840
862.407327,-2072.576638,1532.190996,9696.697840
862.407656,-2368.659014,1225.752797,9918.759623
862.407986,-2664.741391,536.266849,9844.739029
862.408315,-2442.679609,0.000000,9770.718434
862.408645,-1850.514855,-919.314598,9326.594869
862.408974,-1406.391290,-612.876398,9030.512492
862.409304,-888.247130,459.657299,9104.533087
862.409633,-296.082377,306.438199,9474.636058
862.409963,-444.123565,1072.533697,9696.697840
862.410293,-370.102971,2068.457845,9844.739029
862.410622,-296.082377,2374.896044,9992.780217
862.410951,-222.061783,2604.724693,9770.718434
862.411281,-148.041188,1991.848295,9622.677246
862.411610,0.000000,1072.533697,9474.636058
862.411940,-518.144159,383.047749,9474.636058
862.412269,-888.247130,536.266849,9622.677246
862.412598,-1554.432478,842.705048,9770.718434
862.412928,-2220.617826,229.828649,9252.574275
862.413257,-2368.659014,612.876398,9918.759623
862.413587,-2886.803174,842.705048,10436.903782
862.413916,-3330.926739,842.705048,10362.883188
862.414246,-3108.864956,919.314598,10288.862594
862.414575,-2516.700203,612.876398,9622.677246
862.414904,-1924.535449,766.095498,9030.512492
862.415234,-1036.288319,0.000000,9104.533087
862.415563,0.000000,306.438199,9030.512492
862.415893,148.041188,995.924147,9030.512492
862.416222,0.000000,995.924147,9400.615463
862.416551,0.000000,1762.019645,9696.697840
862.416881,-666.185348,2068.457845,9992.780217
862.417210,-1036.288319,1838.629195,9918.759623
862.417540,-592.164754,1532.190996,9474.636058
862.417869,0.000000,1302.362347,9178.553681
862.418199,740.205942,229.828649,8142.265362
862.418528,814.226536,0.000000,7994.224174
862.418857,814.226536,995.924147,8364.327145
862.419187,666.185348,1762.019645,8438.347739
862.419516,1036.288319,1838.629195,9104.533087
862.419846,592.164754,1532.190996,9548.656652
862.420175,-296.082377,2451.505594,9844.739029
862.420504,-1480.411884,1532.190996,9844.739029
862.420834,-2072.576638,919.314598,10288.862594
862.421163,-2516.700203,995.924147,10436.903782
862.421493,-2886.803174,459.657299,10214.842000
862.421822,-2368.659014,-612.876398,9400.615463
862.422152,-1776.494261,-842.705048,8956.491898
862.422481,-1036.288319,-306.438199,8956.491898
862.422810,-592.164754,0.000000,9326.594869
862.423140,-444.123565,612.876398,9474.636058
862.423469,-222.061783,1915.238745,10066.800811
862.423799,-814.226536,2298.286494,9770.718434
862.424128,-740.205942,2221.676944,9918.759623
862.424457,-370.102971,1915.238745,9918.759623
862.424787,-370.102971,995.924147,9770.718434
862.425116,-148.041188,-306.438199,9400.615463
862.425446,-888.247130,76.609550,9252.574275
862.425775,-1628.453072,76.609550,9474.636058
862.426105,-1924.535449,306.438199,9918.759623
862.426434,-2294.638420,306.438199,10140.821405
862.426763,-2220.617826,842.705048,10214.842000
862.427093,-2146.597232,995.924147,10066.800811
862.427422,-2220.617826,766.095498,9548.656652
862.427752,-1924.535449,1072.533697,9548.656652
862.428081,-1480.411884,842.705048,9622.677246
862.428410,-814.226536,689.485948,9178.553681
862.428740,-370.102971,76.609550,8734.430116
862.429069,-592.164754,76.609550,9030.512492
862.429399,-740.205942,612.876398,9400.615463
862.429728,-1036.288319,612.876398,9992.780217
862.430058,-1332.370696,842.705048,10658.965565
862.430387,-2072.576638,2145.067394,10140.821405
862.430716,-1776.494261,1608.800546,9252.574275
862.431046,-1184.329507,1455.581446,9178.553681
862.431375,0.000000,919.314598,8586.388927
862.431705,814.226536,459.657299,8364.327145
862.432034,1036.288319,536.266849,8142.265362
862.432363,444.123565,612.876398,7994.224174
862.432693,222.061783,1991.848295,8956.491898
862.433022,74.020594,1838.629195,9474.636058
862.433352,-444.123565,1762.019645,9770.718434
862.433681,-1184.329507,1762.019645,9622.677246
862.434011,-1776.494261,1149.143247,9400.615463
862.434340,-2368.659014,766.095498,9992.780217
862.434669,-2664.741391,612.876398,10510.924376
862.434999,-2368.659014,76.609550,10362.883188
862.435328,-2220.617826,-306.438199,9844.739029
862.435658,-1406.391290,-229.828649,9622.677246
862.435987,-370.102971,153.219100,9400.615463
862.436316,-222.061783,612.876398,9252.574275
862.436646,-148.041188,1149.143247,9474.636058
862.436975,-740.205942,1991.848295,9474.636058
862.437305,-1036.288319,2451.505594,9474.636058
862.437634,-888.247130,2298.286494,9400.615463
862.437964,-740.205942,1378.971896,9474.636058
862.438293,-666.185348,689.485948,9474.636058
862.438622,-1258.350101,0.000000,9548.656652
862.438952,-1850.514855,536.266849,9844.739029
862.439281,-2368.659014,612.876398,9770.718434
862.439611,-2146.597232,919.314598,9844.739029
862.439940,-2072.576638,1072.533697,10214.842000
862.440269,-1776.494261,1072.533697,9992.780217
862.440599,-1628.453072,1072.533697,9474.636058
862.440928,-1184.329507,995.924147,8956.491898
862.441258,-1258.350101,1149.143247,9326.594869
862.441587,-814.226536,919.314598,9474.636058
862.441917,-370.102971,229.828649,9474.636058
862.442246,-592.164754,536.266849,9178.553681
862.442575,-148.041188,689.485948,9178.553681
862.442905,-444.123565,842.705048,9770.718434
862.443234,-962.267725,689.485948,10140.821405
862.443564,-1258.350101,1149.143247,10140.821405
862.443893,-1332.370696,1762.019645,9696.697840
862.444222,-740.205942,1762.019645,9252.574275
862.444552,222.061783,1149.143247,8808.450710
862.444881,592.164754,1149.143247,8142.265362
862.445211,814.226536,919.314598,7994.224174
862.445540,592.164754,1455.581446,8586.388927
862.445870,0.000000,2298.286494,8882.471304
862.446199,0.000000,1838.629195,9474.636058
862.446528,-814.226536,1149.143247,9474.636058
862.446858,-1702.473667,1225.752797,10066.800811
862.447187,-2146.597232,995.924147,9770.718434
862.447517,-2146.597232,459.657299,9918.759623
862.447846,-2072.576638,459.657299,10066.800811
862.448176,-1850.514855,0.000000,10288.862594
862.448505,-1776.494261,-306.438199,9770.718434
862.448834,-1406.391290,0.000000,9696.697840
862.449164,-740.205942,612.876398,9178.553681
862.449493,0.000000,995.924147,9548.656652
862.449823,0.000000,1532.190996,9474.636058
862.450152,0.000000,1455.581446,9770.718434
862.450481,-1110.308913,1991.848295,9474.636058
862.450811,-1480.411884,2068.457845,9474.636058
862.451140,-1480.411884,1608.800546,9474.636058
862.451470,-1332.370696,995.924147,9400.615463
862.451799,-962.267725,-306.438199,9622.677246
862.452129,-1702.473667,229.828649,9696.697840
862.452458,-1924.535449,842.705048,9844.739029
862.452787,-1924.535449,1149.143247,9992.780217
862.453117,-1924.535449,1072.533697,10362.883188
862.453446,-2146.597232,1072.533697,10140.821405
862.453776,-2368.659014,1378.971896,9918.759623
862.454105,-2516.700203,842.705048,9696.697840
862.454434,-2146.597232,612.876398,9622.677246
862.454764,-1924.535449,459.657299,9622.677246
862.455093,-814.226536,153.219100,9844.739029
862.455423,-888.247130,153.219100,9178.553681
862.455752,-148.041188,689.485948,9030.512492
862.456082,148.041188,1149.143247,9400.615463
862.456411,444.123565,1302.362347,9326.594869
862.456740,222.061783,1608.800546,9474.636058
862.457070,0.000000,2068.457845,9104.533087
862.457399,0.000000,2451.505594,8734.430116
862.457729,148.041188,2298.286494,8438.347739
862.458058,148.041188,1302.362347,8290.306550
862.458387,518.144159,842.705048,8438.347739
862.458717,370.102971,689.485948,8734.430116
862.459046,-518.144159,1302.362347,9104.533087
862.459376,-1036.288319,1225.752797,9400.615463
862.459705,-1110.308913,995.924147,9770.718434
862.460035,-1258.350101,995.924147,10288.862594
862.460364,-1702.473667,1532.190996,10362.883188
862.460693,-1998.556043,995.924147,10214.842000
862.461023,-2220.617826,383.047749,10140.821405
862.461352,-1554.432478,229.828649,10214.842000
862.461682,-592.164754,-689.485948,9770.718434
862.462011,0.000000,-919.314598,9326.594869
862.462340,0.000000,-306.438199,8438.347739
862.462670,148.041188,229.828649,9030.512492
862.462999,222.061783,383.047749,9844.739029
862.463329,-222.061783,1532.190996,10658.965565
862.463658,-1110.308913,2374.896044,10436.903782
862.463988,-888.247130,2451.505594,10658.965565
862.464317,-1480.411884,2145.067394,9770.718434
862.464646,-1184.329507,1378.971896,9474.636058
862.464976,-814.226536,0.000000,9474.636058
862.465305,-1332.370696,-229.828649,9178.553681
862.465635,-1850.514855,766.095498,8956.491898
862.465964,-2368.659014,383.047749,9104.533087
862.466293,-2368.659014,0.000000,9252.574275
862.466623,-2220.617826,0.000000,9770.718434
862.466952,-2294.638420,383.047749,9622.677246
862.467282,-2516.700203,689.485948,8808.450710
862.467611,-2368.659014,919.314598,9326.594869
862.467941,-2146.597232,1225.752797,9918.759623
862.468270,-1554.432478,766.095498,9548.656652
862.468599,-666.185348,459.657299,9622.677246
862.468929,-370.102971,1149.143247,9474.636058
862.469258,-370.102971,919.314598,9474.636058
862.469588,-296.082377,689.485948,9474.636058
862.469917,-370.102971,842.705048,9844.739029
862.470246,-962.267725,1455.581446,10140.821405
862.470576,-1258.350101,1455.581446,9474.636058
862.470905,-666.185348,1532.190996,9326.594869
862.471235,-370.102971,536.266849,8734.430116
862.471564,0.000000,229.828649,8586.388927
862.471894,74.020594,153.219100,8438.347739
862.472223,148.041188,995.924147,8956.491898
862.472552,444.123565,1762.019645,8808.450710
862.472882,0.000000,1685.410096,8882.471304
862.473211,-296.082377,1532.190996,9844.739029
862.473541,-1332.370696,2068.457845,10140.821405
862.473870,-1702.473667,1378.971896,10140.821405
862.474199,-2220.617826,689.485948,10214.842000
862.474529,-2516.700203,536.266849,9844.739029
862.474858,-2220.617826,0.000000,10214.842000
862.475188,-2072.576638,-383.047749,9474.636058
862.475517,-1924.535449,-459.657299,9104.533087
862.475847,-1110.308913,229.828649,8956.491898
862.476176,-666.185348,-153.219100,9030.512492
862.476505,-888.247130,1455.581446,9622.677246
862.476835,-1258.350101,2451.505594,9844.739029
862.477164,-1554.432478,2451.505594,9622.677246
862.477494,-1554.432478,2298.286494,9400.615463
862.477823,-1332.370696,1302.362347,9326.594869
862.478152,-962.267725,842.705048,9770.718434
862.478482,-962.267725,153.219100,9474.636058
862.478811,-1258.350101,153.219100,8956.491898
862.479141,-1628.453072,459.657299,9104.533087
862.479470,-1702.473667,919.314598,9474.636058
862.479800,-1554.432478,1072.533697,9918.759623
862.480129,-1998.556043,1149.143247,10066.800811
862.480458,-2072.576638,1302.362347,9844.739029
862.480788,-2072.576638,1378.971896,10214.842000
862.481117,-1406.391290,842.705048,10066.800811
862.481447,-888.247130,689.485948,10066.800811
862.481776,-296.082377,383.047749,9548.656652
862.482105,-74.020594,0.000000,9400.615463
862.482435,0.000000,459.657299,9474.636058
862.482764,0.000000,612.876398,9992.780217
862.483094,-666.185348,766.095498,10140.821405
862.483423,-740.205942,1455.581446,10066.800811
862.483753,-1406.391290,1685.410096,9622.677246
862.484082,-1036.288319,1685.410096,9252.574275
862.484411,-370.102971,1225.752797,8734.430116
862.484741,222.061783,153.219100,8142.265362
862.485070,666.185348,229.828649,7994.224174
862.485400,148.041188,842.705048,8068.244768
862.485729,148.041188,1455.581446,8660.409521
862.486058,148.041188,1838.629195,9104.533087
862.486388,0.000000,1838.629195,9622.677246
862.486717,-444.123565,1685.410096,9844.739029
862.487047,-1332.370696,1685.410096,9992.780217
862.487376,-1702.473667,919.314598,10214.842000
862.487706,-2072.576638,842.705048,10732.986159
862.488035,-2072.576638,536.266849,10658.965565
862.488364,-1998.556043,0.000000,10140.821405
862.488694,-1036.288319,-536.266849,9104.533087
862.489023,-962.267725,-229.828649,9104.533087
862.489353,-222.061783,383.047749,8882.471304
862.489682,0.000000,842.705048,9178.553681
862.490011,-370.102971,1532.190996,9474.636058
862.490341,-1702.473667,2681.334243,9474.636058
862.490670,-2220.617826,2528.115143,9918.759623
862.491000,-1998.556043,1991.848295,10214.842000
862.491329,-1480.411884,1532.190996,10214.842000
862.491659,-1628.453072,536.266849,9844.739029
862.491988,-1702.473667,-459.657299,9474.636058
862.492317,-1924.535449,76.609550,9622.677246
862.492647,-2368.659014,612.876398,9844.739029
862.492976,-2220.617826,612.876398,10066.800811
862.493306,-2146.597232,1149.143247,10362.883188
862.493635,-1998.556043,1608.800546,9770.718434
862.493964,-1554.432478,1302.362347,9400.615463
862.494294,-1184.329507,1225.752797,8956.491898
862.494623,-814.226536,1149.143247,9252.574275
862.494953,-296.082377,459.657299,9104.533087
862.495282,-888.247130,0.000000,9030.512492
862.495612,-296.082377,76.609550,8956.491898
862.495941,-814.226536,612.876398,9474.636058
862.496270,-888.247130,842.705048,10214.842000
862.496600,-1332.370696,1072.533697,10658.965565
862.496929,-1554.432478,1608.800546,10510.924376
862.497259,-888.247130,2374.896044,9474.636058
862.497588,-444.123565,1915.238745,8808.450710
862.497917,370.102971,1225.752797,8364.327145
862.498247,1184.329507,1149.143247,7698.141797
862.498576,1480.411884,612.876398,7624.121203
862.498906,1184.329507,1149.143247,7846.182985
862.499235,444.123565,2145.067394,8142.265362
862.499565,370.102971,1838.629195,9400.615463
862.499894,-518.144159,1378.971896,10066.800811
862.500223,-1776.494261,1225.752797,10214.842000
862.500553,-2368.659014,842.705048,10881.027347
862.500882,-2368.659014,-229.828649,11251.130318
862.501212,-2368.659014,0.000000,11695.253884
862.501541,-1924.535449,0.000000,10955.047942
862.501870,-1184.329507,-306.438199,9696.697840
862.502200,0.000000,-153.219100,8956.491898
862.502529,814.226536,229.828649,8512.368333
862.502859,1258.350101,995.924147,8290.306550
862.503188,888.247130,1455.581446,8956.491898
862.503518,-370.102971,2374.896044,9474.636058
862.503847,-1184.329507,2528.115143,9992.780217
862.504176,-1406.391290,2604.724693,9992.780217
862.504506,-1850.514855,1455.581446,9844.739029
862.504835,-2368.659014,153.219100,9474.636058
862.505165,-2146.597232,-689.485948,9622.677246
862.505494,-2442.679609,-612.876398,9844.739029
862.505823,-2738.761985,0.000000,9844.739029
862.506153,-2738.761985,153.219100,9548.656652
862.506482,-2294.638420,306.438199,9622.677246
862.506812,-1776.494261,842.705048,9844.739029
862.507141,-1702.473667,1149.143247,9474.636058
862.507471,-1480.411884,1149.143247,9252.574275
862.507800,-1110.308913,919.314598,9252.574275
862.508129,-740.205942,842.705048,9474.636058
862.508459,-296.082377,76.609550,9474.636058
862.508788,-592.164754,0.000000,9474.636058
862.509118,-444.123565,306.438199,9770.718434
862.509447,-592.164754,612.876398,10214.842000
862.509776,-1184.329507,1532.190996,10510.924376
862.510106,-1184.329507,1685.410096,10510.924376
862.510435,-1332.370696,2221.676944,9844.739029
862.510765,-1110.308913,2221.676944,9104.533087
862.511094,-740.205942,1378.971896,8290.306550
862.511424,-222.061783,919.314598,8290.306550
862.511753,222.061783,0.000000,7846.182985
862.512082,-148.041188,153.219100,8290.306550
862.512412,-888.247130,995.924147,8660.409521
862.512741,-962.267725,1149.143247,9178.553681
862.513071,-1184.329507,-76.609550,9326.594869
862.513400,-1850.514855,842.705048,10436.903782
862.513729,-2294.638420,1149.143247,10584.944971
862.514059,-2368.659014,919.314598,10362.883188
862.514388,-1554.432478,689.485948,10362.883188
862.514717,-444.123565,995.924147,10140.821405
862.515047,74.020594,-306.438199,8956.491898
862.515376,444.123565,-306.438199,8734.430116
862.515705,888.247130,306.438199,8734.430116
862.516035,888.247130,1302.362347,9030.512492
862.516364,296.082377,1532.190996,9770.718434
862.516693,-518.144159,2068.457845,10214.842000
862.517023,-1924.535449,2068.457845,10214.842000
862.517352,-2368.659014,1762.019645,10214.842000
862.517681,-2368.659014,1302.362347,9992.780217
862.518011,-2368.659014,612.876398,9622.677246
862.518340,-2072.576638,-383.047749,9252.574275
862.518670,-2146.597232,-459.657299,9104.533087
862.518999,-2294.638420,229.828649,9178.553681
862.519328,-2368.659014,536.266849,9400.615463
862.519658,-1628.453072,689.485948,9622.677246
862.519987,-1554.432478,1149.143247,9696.697840
862.520316,-1332.370696,1455.581446,9770.718434
862.520646,-1036.288319,1072.533697,9400.615463
862.520975,-962.267725,612.876398,9474.636058
862.521304,-592.164754,995.924147,9844.739029
862.521634,-518.144159,536.266849,10066.800811
862.521963,-592.164754,383.047749,10140.821405
862.522292,-518.144159,689.485948,9992.780217
862.522622,-148.041188,919.314598,9992.780217
862.522951,0.000000,1072.533697,10436.903782
862.523281,-592.164754,1608.800546,9992.780217
862.523610,-962.267725,2068.457845,9622.677246
862.523939,-1480.411884,1608.800546,8734.430116
862.524269,-1332.370696,1762.019645,8364.327145
862.524598,-888.247130,1225.752797,8142.265362
862.524927,-370.102971,76.609550,7920.203579
862.525257,-370.102971,536.266849,7994.224174
862.525586,-148.041188,1302.362347,7920.203579
862.525915,-148.041188,1378.971896,8586.388927
862.526245,0.000000,1225.752797,9474.636058
862.526574,-592.164754,1762.019645,10436.903782
862.526903,-1480.411884,1838.629195,10732.986159
862.527233,-2072.576638,2298.286494,10807.006753
862.527562,-1628.453072,1762.019645,10436.903782
862.527892,-1184.329507,1302.362347,10436.903782
862.528221,-296.082377,0.000000,9548.656652
862.528550,592.164754,-536.266849,8734.430116
862.528880,888.247130,-459.657299,8438.347739
862.529209,888.247130,536.266849,9252.574275
862.529538,0.000000,995.924147,9548.656652
862.529868,-1110.308913,1685.410096,10288.862594
862.530197,-1924.535449,2451.505594,10510.924376
862.530526,-2294.638420,2221.676944,9992.780217
862.530856,-2368.659014,1991.848295,9770.718434
862.531185,-2220.617826,1225.752797,9548.656652
862.531514,-1924.535449,153.219100,9474.636058
862.531844,-2294.638420,-459.657299,9252.574275
862.532173,-2442.679609,0.000000,9400.615463
862.532503,-2368.659014,383.047749,9400.615463
862.532832,-2294.638420,842.705048,10066.800811
862.533161,-1628.453072,766.095498,10066.800811
862.533491,-1554.432478,919.314598,10066.800811
862.533820,-1406.391290,1072.533697,9770.718434
862.534149,-1258.350101,1072.533697,9474.636058
862.534479,-666.185348,995.924147,9770.718434
862.534808,0.000000,1072.533697,9622.677246
862.535137,592.164754,76.609550,9178.553681
862.535467,814.226536,536.266849,8808.450710
862.535796,814.226536,1455.581446,8956.491898
862.536125,666.185348,1838.629195,9548.656652
862.536455,0.000000,2221.676944,9770.718434
862.536784,-888.247130,2451.505594,9918.759623
862.537114,-1480.411884,2298.286494,9326.594869
862.537443,-1850.514855,1608.800546,8956.491898
862.537772,-1776.494261,919.314598,8660.409521
862.538102,-1184.329507,229.828649,8586.388927
862.538431,-1258.350101,0.000000,8438.347739
862.538760,-1332.370696,-153.219100,8364.327145
862.539090,-1110.308913,689.485948,8512.368333
862.539419,-444.123565,995.924147,9030.512492
862.539748,-444.123565,383.047749,9548.656652
862.540078,-740.205942,1532.190996,10436.903782
862.540407,-1258.350101,1838.629195,10658.965565
862.540736,-1258.350101,1455.581446,10732.986159
862.541066,-444.123565,766.095498,10658.965565
862.541395,-518.144159,766.095498,10066.800811
862.541725,296.082377,-229.828649,9474.636058
862.542054,444.123565,-229.828649,9030.512492
862.542383,592.164754,536.266849,9252.574275
862.542713,222.061783,689.485948,9326.594869
862.543042,0.000000,612.876398,9474.636058
862.543371,-1184.329507,1838.629195,10140.821405
862.543701,-1998.556043,2834.553343,10066.800811
862.544030,-2294.638420,2374.896044,9696.697840
862.544359,-2368.659014,1991.848295,9104.533087
862.544689,-1998.556043,995.924147,8512.368333
862.545018,-1850.514855,-919.314598,8142.265362
862.545347,-2516.700203,-995.924147,8438.347739
862.545677,-3108.864956,-459.657299,8882.471304
862.546006,-3552.988522,0.000000,9696.697840
862.546336,-3552.988522,229.828649,10140.821405
862.546665,-3182.885551,306.438199,10732.986159
862.546994,-2516.700203,536.266849,10807.006753
862.547324,-1924.535449,612.876398,10140.821405
862.547653,-592.164754,229.828649,9918.759623
862.547982,370.102971,689.485948,9696.697840
862.548312,1480.411884,536.266849,9918.759623
862.548641,1998.556043,536.266849,9474.636058
862.548970,2072.576638,1302.362347,9178.553681
862.549300,2146.597232,1455.581446,9252.574275
862.549629,1628.453072,1532.190996,9696.697840
862.549958,592.164754,2451.505594,10214.842000
862.550288,-740.205942,2604.724693,9696.697840
862.550617,-1702.473667,1915.238745,9622.677246
862.550947,-2368.659014,1378.971896,9326.594869
862.551276,-1924.535449,766.095498,9030.512492
862.551605,-1480.411884,0.000000,8512.368333
862.551935,-1554.432478,-536.266849,8068.244768
862.552264,-1702.473667,919.314598,8438.347739
862.552593,-1406.391290,1072.533697,9030.512492
862.552923,-1554.432478,919.314598,9252.574275
862.553252,-1776.494261,1149.143247,10288.862594
862.553581,-1998.556043,1838.629195,10436.903782
862.553911,-1776.494261,919.314598,10288.862594
862.554240,-1702.473667,766.095498,10066.800811
862.554569,-1406.391290,536.266849,9918.759623
862.554899,-518.144159,0.000000,9474.636058
862.555228,148.041188,153.219100,8660.409521
862.555557,666.185348,536.266849,8882.471304
862.555887,1258.350101,1072.533697,9104.533087
862.556216,962.267725,1608.800546,9400.615463
862.556546,148.041188,2451.505594,9918.759623
862.556875,-1258.350101,3217.601092,9844.739029
862.557204,-1776.494261,2911.162892,9844.739029
862.557534,-1998.556043,2068.457845,9622.677246
862.557863,-2368.659014,842.705048,9252.574275
862.558192,-2146.597232,-842.705048,8734.430116
862.558522,-2664.741391,-1225.752797,8882.471304
862.558851,-2738.761985,-1378.971896,9178.553681
862.559180,-3478.967927,0.000000,9696.697840
862.559510,-3108.864956,0.000000,10066.800811
862.559839,-2590.720797,229.828649,10436.903782
862.560168,-2368.659014,995.924147,10658.965565
862.560498,-2368.659014,1378.971896,10214.842000
862.560827,-1628.453072,995.924147,9918.759623
862.561157,-814.226536,919.314598,10214.842000
862.561486,0.000000,459.657299,10362.883188
862.561815,370.102971,0.000000,9770.718434
862.562145,1110.308913,-153.219100,9696.697840
862.562474,962.267725,459.657299,9252.574275
862.562803,888.247130,459.657299,9696.697840
862.563133,222.061783,842.705048,10066.800811
862.563462,-370.102971,1762.019645,10288.862594
862.563791,-1110.308913,2145.067394,9770.718434
862.564121,-962.267725,1991.848295,8660.409521
862.564450,-518.144159,1838.629195,8290.306550
862.564779,74.020594,1072.533697,7772.162391
862.565109,296.082377,306.438199,7698.141797
862.565438,-222.061783,612.876398,7846.182985
862.565768,-1036.288319,1302.362347,8068.244768
862.566097,-814.226536,1532.190996,9178.553681
862.566426,-1332.370696,1225.752797,10066.800811
862.566756,-1776.494261,1225.752797,10658.965565
862.567085,-2220.617826,1149.143247,10658.965565
862.567414,-1850.514855,612.876398,10214.842000
862.567744,-1850.514855,459.657299,10140.821405
862.568073,-1258.350101,612.876398,9770.718434
862.568402,-296.082377,-306.438199,9178.553681
862.568732,74.020594,76.609550,8808.450710
862.569061,518.144159,842.705048,9030.512492
862.569390,666.185348,1455.581446,8808.450710
862.569720,740.205942,1915.238745,9548.656652
862.570049,0.000000,2221.676944,9918.759623
862.570379,-962.267725,2604.724693,9992.780217
862.570708,-1924.535449,2374.896044,9918.759623
862.571037,-2368.659014,1915.238745,9622.677246
862.571367,-2072.576638,766.095498,9474.636058
862.571696,-2294.638420,-229.828649,9696.697840
862.572025,-2812.782580,-383.047749,9474.636058
862.572355,-3034.844362,229.828649,9252.574275
862.572684,-3182.885551,919.314598,9548.656652
862.573013,-2812.782580,459.657299,9992.780217
862.573343,-2294.638420,842.705048,10140.821405
862.573672,-2072.576638,1455.581446,9918.759623
862.574001,-1628.453072,1225.752797,9622.677246
862.574331,-1332.370696,1378.971896,9696.697840
862.574660,-740.205942,1225.752797,9548.656652
862.574990,-444.123565,229.828649,10066.800811
862.575319,0.000000,153.219100,9696.697840
862.575648,0.000000,536.266849,9844.739029
862.575978,0.000000,995.924147,9770.718434
862.576307,370.102971,919.314598,9400.615463
862.576636,0.000000,995.924147,9622.677246
862.576966,-518.144159,2145.067394,9326.594869
862.577295,-666.185348,2451.505594,8586.388927
862.577624,0.000000,2221.676944,8142.265362
862.577954,592.164754,1378.971896,7846.182985
862.578283,444.123565,536.266849,7402.059420
862.578612,148.041188,306.438199,8216.285956
862.578942,-296.082377,1149.143247,8734.430116
862.579271,-962.267725,1225.752797,9326.594869
862.579601,-1332.370696,536.266849,10140.821405
862.579930,-2368.659014,0.000000,10955.047942
862.580259,-2590.720797,536.266849,11695.253884
862.580589,-2738.761985,689.485948,11325.150913
862.580918,-2220.617826,612.876398,10658.965565
862.581247,-1110.308913,689.485948,10066.800811
862.581577,148.041188,-383.047749,8808.450710
862.581906,888.247130,-153.219100,7920.203579
862.582235,1554.432478,536.266849,8142.265362
862.582565,1480.411884,1838.629195,8660.409521
862.582894,888.247130,1762.019645,9400.615463
862.583223,-370.102971,2145.067394,9844.739029
862.583553,-1776.494261,2911.162892,10214.842000
862.583882,-2368.659014,1532.190996,10584.944971
862.584212,-2664.741391,1072.533697,10510.924376
862.584541,-2812.782580,459.657299,9918.759623
862.584870,-2516.700203,-842.705048,9474.636058
862.585200,-2146.597232,-1225.752797,9178.553681
862.585529,-2072.576638,0.000000,9030.512492
862.585858,-1850.514855,995.924147,9178.553681
862.586188,-1554.432478,919.314598,9326.594869
862.586517,-1480.411884,1149.143247,9622.677246
862.586846,-1702.473667,2145.067394,9770.718434
862.587176,-1628.453072,1378.971896,9696.697840
862.587505,-2220.617826,1149.143247,9696.697840
862.587834,-2294.638420,842.705048,10140.821405
862.588164,-1776.494261,76.609550,10140.821405
862.588493,-962.267725,-153.219100,9622.677246
862.588823,-740.205942,0.000000,9696.697840
862.589152,-222.061783,459.657299,9844.739029
862.589481,0.000000,995.924147,10066.800811
862.589811,0.000000,1762.019645,10214.842000
862.590140,0.000000,3064.381992,9844.739029
862.590469,-592.164754,2451.505594,9104.533087
862.590799,-296.082377,2528.115143,8808.450710
862.591128,-296.082377,1915.238745,8216.285956
862.591457,370.102971,612.876398,7994.224174
862.591787,74.020594,0.000000,7698.141797
862.592116,-222.061783,306.438199,8068.244768
862.592445,-1332.370696,919.314598,8512.368333
862.592775,-1480.411884,766.095498,9252.574275
862.593104,-1480.411884,842.705048,10288.862594
862.593433,-1776.494261,1608.800546,10881.027347
862.593763,-2072.576638,1915.238745,10658.965565
862.594092,-1554.432478,1302.362347,10214.842000
862.594422,-1554.432478,995.924147,10140.821405
862.594751,-962.267725,1149.143247,9548.656652
862.595080,0.000000,-153.219100,9178.553681
862.595410,222.061783,-306.438199,8660.409521
862.595739,74.020594,459.657299,8586.388927
862.596068,0.000000,536.266849,9178.553681
862.596398,-370.102971,919.314598,9622.677246
862.596727,-1480.411884,1685.410096,10140.821405
862.597056,-2220.617826,2145.067394,10362.883188
862.597386,-2146.597232,1608.800546,10066.800811
862.597715,-2072.576638,1532.190996,9770.718434
862.598044,-1776.494261,306.438199,9770.718434
862.598374,-1554.432478,-612.876398,9474.636058
862.598703,-1924.535449,-689.485948,9474.636058
862.599033,-2220.617826,153.219100,9548.656652
862.599362,-1776.494261,842.705048,9696.697840
862.599691,-1776.494261,306.438199,10066.800811
862.600021,-1998.556043,536.266849,9992.780217
862.600350,-2220.617826,995.924147,10214.842000
862.600679,-2146.597232,612.876398,10288.862594
862.601009,-2146.597232,1378.971896,10510.924376
862.601338,-1628.453072,919.314598,10436.903782
862.601667,-1332.370696,76.609550,9548.656652
862.601997,-518.144159,-383.047749,8956.491898
862.602326,222.061783,0.000000,8882.471304
862.602655,888.247130,153.219100,8808.450710
862.602985,592.164754,536.266849,9400.615463
862.603314,-148.041188,1225.752797,9770.718434
862.603644,-1110.308913,2298.286494,10066.800811
862.603973,-1480.411884,2374.896044,9622.677246
862.604302,-888.247130,1838.629195,8734.430116
862.604632,0.000000,1225.752797,8586.388927
862.604961,296.082377,76.609550,8364.327145
862.605290,148.041188,0.000000,8142.265362
862.605620,-444.123565,1072.533697,8512.368333
862.605949,-592.164754,1762.019645,8660.409521
862.606278,-444.123565,1455.581446,9178.553681
862.606608,-740.205942,1685.410096,10436.903782
862.606937,-1332.370696,1838.629195,10584.944971
862.607266,-1480.411884,1225.752797,10288.862594
862.607596,-1554.432478,842.705048,10288.862594
862.607925,-1554.432478,1149.143247,10584.944971
862.608255,-814.226536,76.609550,10066.800811
862.608584,-666.185348,-612.876398,9548.656652
862.608913,-518.144159,76.609550,8956.491898
862.609243,0.000000,536.266849,9178.553681
862.609572,296.082377,1302.362347,9400.615463
862.609901,-444.123565,1685.410096,9992.780217
862.610231,-1332.370696,2987.772442,9992.780217
862.610560,-2072.576638,3140.991542,9992.780217
862.610889,-2146.597232,2604.724693,9622.677246
862.611219,-1628.453072,2374.896044,9326.594869
862.611548,-1406.391290,153.219100,9030.512492
862.611878,-1776.494261,-536.266849,8734.430116
862.612207,-2368.659014,0.000000,8808.450710
862.612536,-2664.741391,229.828649,9178.553681
862.612866,-2590.720797,383.047749,9696.697840
862.613195,-2516.700203,383.047749,10140.821405
862.613525,-1998.556043,919.314598,9992.780217
862.613854,-1924.535449,1608.800546,9770.718434
862.614184,-1554.432478,1149.143247,9622.677246
862.614513,-666.185348,1378.971896,9696.697840
862.614842,0.000000,1225.752797,9918.759623
862.615172,74.020594,766.095498,8956.491898
862.615501,444.123565,689.485948,9252.574275
862.615831,296.082377,842.705048,9400.615463
862.616160,222.061783,766.095498,9696.697840
862.616490,-370.102971,766.095498,9918.759623
862.616819,-1110.308913,1225.752797,10288.862594
862.617148,-1776.494261,1455.581446,10214.842000
862.617478,-1776.494261,1302.362347,9548.656652
862.617807,-1332.370696,766.095498,8882.471304
862.618137,-296.082377,0.000000,8586.388927
862.618466,148.041188,-459.657299,8438.347739
862.618796,0.000000,229.828649,8512.368333
862.619125,148.041188,1455.581446,8956.491898
862.619454,296.082377,1149.143247,9400.615463
862.619784,0.000000,1225.752797,9918.759623
862.620113,-592.164754,1225.752797,10732.986159
862.620443,-1110.308913,995.924147,10584.944971
862.620772,-1258.350101,459.657299,10732.986159
862.621102,-1554.432478,536.266849,10807.006753
862.621431,-1332.370696,383.047749,10584.944971
862.621760,-444.123565,-383.047749,9548.656652
862.622090,0.000000,-383.047749,8956.491898
862.622419,518.144159,383.047749,8438.347739
862.622749,1036.288319,612.876398,8660.409521
862.623078,444.123565,1149.143247,8956.491898
862.623408,-370.102971,2298.286494,9400.615463
862.623737,-1554.432478,3830.477490,9770.718434
862.624066,-2220.617826,2757.943793,9252.574275
862.624396,-2738.761985,2298.286494,9178.553681
862.624725,-3182.885551,689.485948,9030.512492
862.625055,-2960.823768,-689.485948,9252.574275
862.625384,-3478.967927,-689.485948,9252.574275
862.625713,-4219.173869,-459.657299,9400.615463
862.626043,-3701.029710,76.609550,9918.759623
862.626372,-3478.967927,76.609550,10288.862594
862.626702,-2516.700203,612.876398,10584.944971
862.627031,-1480.411884,1072.533697,10288.862594
862.627361,-814.226536,1685.410096,9696.697840
862.627690,0.000000,1378.971896,9400.615463
862.628019,814.226536,1532.190996,9474.636058
862.628349,1628.453072,1072.533697,9400.615463
862.628678,1258.350101,689.485948,9178.553681
862.629008,962.267725,1685.410096,8882.471304
862.629337,592.164754,1378.971896,9548.656652
862.629667,74.020594,1378.971896,10288.862594
862.629996,-666.185348,1532.190996,10584.944971
862.630325,-1554.432478,1532.190996,10436.903782
862.630655,-2072.576638,1685.410096,9548.656652
862.630984,-1998.556043,1838.629195,9326.594869
862.631314,-1776.494261,1378.971896,8808.450710
862.631643,-1184.329507,536.266849,8364.327145
862.631973,-1406.391290,0.000000,7772.162391
862.632302,-962.267725,766.095498,7698.141797
862.632631,-592.164754,995.924147,7994.224174
862.632961,-814.226536,689.485948,8882.471304
862.633290,-1036.288319,612.876398,9918.759623
862.633620,-1480.411884,919.314598,10140.821405
862.633949,-1554.432478,1072.533697,10436.903782
862.634279,-1184.329507,1378.971896,10807.006753
862.634608,-814.226536,919.314598,10881.027347
862.634937,296.082377,383.047749,10510.924376
862.635267,666.185348,459.657299,9474.636058
862.635596,1110.308913,766.095498,9030.512492
862.635926,1776.494261,1072.533697,8512.368333
862.636255,1406.391290,842.705048,9030.512492
862.636585,222.061783,1915.238745,9474.636058
862.636914,-666.185348,2298.286494,9474.636058
862.637243,-1776.494261,1991.848295,9474.636058
862.637573,-2368.659014,1608.800546,8808.450710
862.637902,-2886.803174,229.828649,9030.512492
862.638232,-3108.864956,-689.485948,9400.615463
862.638561,-3775.050304,-1225.752797,9474.636058
862.638891,-4589.276840,-459.657299,9622.677246
862.639220,-4219.173869,383.047749,9844.739029
862.639549,-3775.050304,-306.438199,10140.821405
862.639879,-2812.782580,229.828649,10288.862594
862.640208,-2590.720797,919.314598,9918.759623
862.640538,-1924.535449,766.095498,9918.759623
862.640867,-1258.350101,612.876398,9696.697840
862.641197,-518.144159,1302.362347,9844.739029
862.641526,-296.082377,766.095498,9548.656652
862.641855,370.102971,0.000000,9400.615463
862.642185,666.185348,76.609550,9548.656652
862.642514,740.205942,612.876398,9992.780217
862.642844,962.267725,766.095498,10066.800811
862.643173,444.123565,1302.362347,9696.697840
862.643502,0.000000,1991.848295,9844.739029
862.643832,-592.164754,1915.238745,9622.677246
862.644161,-888.247130,1915.238745,9400.615463
862.644491,-740.205942,1991.848295,8956.491898
862.644820,-518.144159,995.924147,8216.285956
862.645150,-592.164754,0.000000,8068.244768
862.645479,-814.226536,0.000000,8216.285956
862.645808,-1036.288319,536.266849,8512.368333
862.646138,-962.267725,229.828649,9104.533087
862.646467,-1480.411884,1149.143247,9622.677246
862.646797,-1480.411884,1072.533697,10140.821405
862.647126,-2146.597232,1378.971896,10658.965565
862.647456,-2146.597232,1149.143247,10584.944971
862.647785,-1480.411884,1532.190996,10510.924376
862.648114,-444.123565,1762.019645,9770.718434
862.648444,148.041188,229.828649,8586.388927
862.648773,1258.350101,383.047749,8586.388927
862.649103,1480.411884,995.924147,8586.388927
862.649432,1480.411884,1302.362347,9178.553681
862.649762,666.185348,1838.629195,9622.677246
862.650091,-444.123565,2451.505594,9696.697840
862.650420,-1332.370696,2451.505594,10288.862594
862.650750,-2072.576638,1991.848295,9992.780217
862.651079,-2294.638420,1838.629195,9548.656652
862.651409,-2072.576638,459.657299,9326.594869
862.651738,-1998.556043,-536.266849,9104.533087
862.652068,-2368.659014,-229.828649,8956.491898
862.652397,-2738.761985,383.047749,9178.553681
862.652726,-2368.659014,689.485948,9474.636058
862.653056,-2368.659014,919.314598,9918.759623
862.653385,-2294.638420,689.485948,9844.739029
862.653715,-2738.761985,1378.971896,9622.677246
862.654044,-2368.659014,995.924147,9992.780217
862.654374,-2072.576638,1072.533697,10436.903782
862.654703,-1776.494261,919.314598,10214.842000
862.655032,-1110.308913,153.219100,9696.697840
862.655362,-740.205942,-383.047749,8956.491898
862.655691,-148.041188,153.219100,8734.430116
862.656021,592.164754,612.876398,9474.636058
862.656350,666.185348,1149.143247,9474.636058
862.656680,444.123565,1838.629195,9696.697840
862.657009,0.000000,2604.724693,9400.615463
862.657338,148.041188,2757.943793,9030.512492
862.657668,-296.082377,1838.629195,9252.574275
862.657997,-370.102971,1378.971896,9104.533087
862.658327,-518.144159,153.219100,9030.512492
862.658656,-1036.288319,-536.266849,8956.491898
862.658986,-1258.350101,612.876398,8882.471304
862.659315,-1258.350101,459.657299,9252.574275
862.659644,-1110.308913,229.828649,9770.718434
862.659974,-1110.308913,612.876398,9992.780217
862.660303,-1406.391290,1302.362347,9918.759623
862.660633,-1332.370696,1608.800546,9770.718434
862.660962,-1036.288319,1072.533697,9696.697840
862.661291,-592.164754,1455.581446,9622.677246
862.661621,0.000000,536.266849,9326.594869
862.661950,74.020594,153.219100,8808.450710
862.662280,444.123565,306.438199,8734.430116
862.662609,444.123565,0.000000,9622.677246
862.662939,-296.082377,842.705048,10140.821405
862.663268,-1258.350101,1532.190996,10807.006753
862.663597,-1850.514855,2298.286494,10807.006753
862.663927,-2146.597232,2451.505594,9696.697840
862.664256,-1702.473667,1838.629195,9178.553681
862.664586,-1036.288319,1302.362347,9104.533087
862.664915,-592.164754,383.047749,8586.388927
862.665245,-1184.329507,0.000000,8142.265362
862.665574,-1702.473667,459.657299,8438.347739
862.665903,-1702.473667,766.095498,8660.409521
862.666233,-1776.494261,842.705048,9696.697840
862.666562,-2220.617826,766.095498,10214.842000
862.666892,-2886.803174,766.095498,10362.883188
862.667221,-2886.803174,459.657299,10436.903782
862.667551,-2886.803174,536.266849,10807.006753
862.667880,-2072.576638,306.438199,10955.047942
862.668209,-1554.432478,383.047749,10584.944971
862.668539,-814.226536,306.438199,9844.739029
862.668868,0.000000,536.266849,9178.553681
862.669198,592.164754,612.876398,9030.512492
862.669527,1036.288319,1455.581446,8956.491898
862.669857,814.226536,2068.457845,9178.553681
862.670186,148.041188,2298.286494,9104.533087
862.670515,-666.185348,2528.115143,9104.533087
862.670845,-962.267725,2068.457845,8808.450710
862.671174,-666.185348,1149.143247,9178.553681
862.671504,-444.123565,383.047749,8882.471304
862.671833,-592.164754,76.609550,9030.512492
862.672163,-814.226536,306.438199,9178.553681
862.672492,-666.185348,536.266849,9400.615463
862.672821,-444.123565,842.705048,9844.739029
862.673151,-370.102971,842.705048,10658.965565
862.673480,-962.267725,1225.752797,10510.924376
862.673810,-1184.329507,1685.410096,9992.780217
862.674139,-814.226536,1072.533697,9548.656652
862.674469,-740.205942,842.705048,9474.636058
862.674798,0.000000,689.485948,9622.677246
862.675127,-370.102971,0.000000,8956.491898
862.675457,-370.102971,229.828649,8808.450710
862.675786,-444.123565,689.485948,9104.533087
862.676116,-370.102971,612.876398,9474.636058
862.676445,-370.102971,612.876398,10436.903782
862.676775,-1110.308913,1762.019645,10288.862594
862.677104,-1628.453072,2221.676944,10140.821405
862.677433,-1776.494261,1915.238745,9844.739029
862.677763,-1554.432478,1762.019645,9622.677246
862.678092,-1332.370696,766.095498,9030.512492
862.678422,-1184.329507,-383.047749,8882.471304
862.678751,-1924.535449,0.000000,8586.388927
862.679080,-2220.617826,459.657299,8956.491898
862.679410,-2220.617826,383.047749,9400.615463
862.679739,-2294.638420,689.485948,9844.739029
862.680069,-2664.741391,1225.752797,10066.800811
862.680398,-2960.823768,536.266849,10140.821405
862.680728,-3182.885551,612.876398,10214.842000
862.681057,-2664.741391,689.485948,9918.759623
862.681386,-2146.597232,536.266849,10140.821405
862.681716,-814.226536,306.438199,9844.739029
862.682045,-444.123565,-459.657299,9326.594869
862.682375,0.000000,306.438199,9326.594869
862.682704,148.041188,612.876398,9622.677246
862.683034,-222.061783,1149.143247,10066.800811
862.683363,-592.164754,1915.238745,10288.862594
862.683692,-1110.308913,2068.457845,9696.697840
862.684022,-1184.329507,1762.019645,9474.636058
862.684351,-740.205942,1532.190996,9104.533087
862.684681,-518.144159,1149.143247,8660.409521
862.685010,0.000000,383.047749,8512.368333
862.685340,-148.041188,306.438199,8512.368333
862.685669,-740.205942,1072.533697,8734.430116
862.685998,-666.185348,919.314598,9104.533087
862.686328,-222.061783,919.314598,9844.739029
862.686657,-518.144159,842.705048,10362.883188
862.686987,-1258.350101,689.485948,10288.862594
862.687316,-1406.391290,919.314598,10362.883188
862.687646,-1998.556043,766.095498,10658.965565
862.687975,-1702.473667,689.485948,10510.924376
862.688304,-962.267725,153.219100,9992.780217
862.688634,-518.144159,383.047749,8734.430116
862.688963,888.247130,229.828649,8734.430116
862.689293,888.247130,919.314598,8734.430116
862.689622,740.205942,1608.800546,9178.553681
862.689952,0.000000,2374.896044,9474.636058
862.690281,-518.144159,2681.334243,9252.574275
862.690610,-666.185348,2834.553343,9326.594869
862.690940,-1036.288319,2145.067394,9548.656652
862.691269,-1480.411884,1378.971896,9400.615463
862.691599,-1258.350101,0.000000,9326.594869
862.691928,-2146.597232,-536.266849,9326.594869
862.692258,-2960.823768,0.000000,8956.491898
862.692587,-2590.720797,383.047749,9696.697840
862.692916,-2368.659014,0.000000,9992.780217
862.693246,-2146.597232,536.266849,10288.862594
862.693575,-2072.576638,995.924147,10140.821405
862.693905,-1850.514855,1532.190996,9696.697840
862.694234,-1184.329507,1685.410096,10140.821405
862.694564,-1036.288319,1685.410096,9918.759623
862.694893,-592.164754,1149.143247,9696.697840
862.695222,0.000000,229.828649,9178.553681
862.695552,148.041188,459.657299,9400.615463
862.695881,296.082377,919.314598,9252.574275
862.696211,0.000000,536.266849,10140.821405
862.696540,-592.164754,766.095498,10584.944971
862.696869,-1332.370696,1608.800546,10807.006753
862.697199,-1776.494261,2528.115143,10214.842000
862.697528,-1406.391290,1532.190996,9474.636058
862.697858,-666.185348,1302.362347,9030.512492
862.698187,-74.020594,689.485948,8364.327145
862.698517,0.000000,0.000000,7846.182985
862.698846,-444.123565,919.314598,7698.141797
862.699175,-666.185348,995.924147,8068.244768
862.699505,-592.164754,766.095498,9104.533087
862.699834,-1184.329507,612.876398,9770.718434
862.700164,-1998.556043,1225.752797,10066.800811
862.700493,-2072.576638,842.705048,10362.883188
862.700823,-1628.453072,612.876398,10732.986159
862.701152,-1110.308913,1225.752797,10881.027347
862.701481,-740.205942,842.705048,10510.924376
862.701811,74.020594,536.266849,9400.615463
862.702140,370.102971,995.924147,8956.491898
862.702470,888.247130,1378.971896,8808.450710
862.702799,1258.350101,1838.629195,9178.553681
862.703129,296.082377,2451.505594,9178.553681
862.703458,-1110.308913,2834.553343,9326.594869
862.703787,-1850.514855,2298.286494,9326.594869
862.704117,-2442.679609,1608.800546,9474.636058
862.704446,-3034.844362,536.266849,8956.491898
862.704776,-3108.864956,-383.047749,9030.512492
862.705105,-3182.885551,-1378.971896,9548.656652
862.705435,-3478.967927,-995.924147,9918.759623
862.705764,-3404.947333,-153.219100,9992.780217
862.706093,-2146.597232,-306.438199,9918.759623
862.706423,-1850.514855,459.657299,10140.821405
862.706752,-888.247130,995.924147,10510.924376
862.707082,-518.144159,1608.800546,9696.697840
862.707411,-148.041188,1532.190996,9474.636058
862.707741,148.041188,1532.190996,9622.677246
862.708070,1036.288319,1685.410096,9844.739029
862.708399,444.123565,383.047749,9326.594869
862.708729,148.041188,536.266849,8956.491898
862.709058,0.000000,612.876398,9178.553681
862.709388,0.000000,766.095498,9622.677246
862.709717,-296.082377,1378.971896,10066.800811
862.710047,-1036.288319,1608.800546,10214.842000
862.710376,-1998.556043,1838.629195,9548.656652
862.710705,-2294.638420,1991.848295,9326.594869
862.711035,-1776.494261,1455.581446,9104.533087
862.711364,-1110.308913,995.924147,8512.368333
862.711694,-740.205942,383.047749,7846.182985
862.712023,-1036.288319,153.219100,7994.224174
862.712353,-1258.350101,536.266849,8142.265362
862.712682,-592.164754,383.047749,8808.450710
862.713011,-740.205942,306.438199,9474.636058
862.713341,-888.247130,689.485948,10658.965565
862.713670,-1480.411884,1149.143247,10658.965565
862.714000,-1406.391290,1149.143247,10807.006753
862.714329,-666.185348,1455.581446,10732.986159
862.714659,0.000000,1302.362347,10362.883188
862.714988,740.205942,766.095498,9918.759623
862.715318,1258.350101,1072.533697,9474.636058
862.715647,1110.308913,842.705048,8956.491898
862.715977,962.267725,995.924147,9104.533087
862.716306,370.102971,919.314598,9400.615463
862.716636,-814.226536,1302.362347,9474.636058
862.716965,-1628.453072,1455.581446,9770.718434
862.717295,-2516.700203,1608.800546,9844.739029
862.717624,-2886.803174,1455.581446,9474.636058
862.717954,-2738.761985,689.485948,9548.656652
862.718283,-2516.700203,-229.828649,9474.636058
862.718613,-2146.597232,0.000000,9474.636058
862.718942,-2442.679609,612.876398,9178.553681
862.719272,-2294.638420,383.047749,9622.677246
862.719601,-2442.679609,766.095498,9696.697840
862.719931,-2516.700203,536.266849,10066.800811
862.720260,-2368.659014,1455.581446,9918.759623
862.720590,-2368.659014,842.705048,9844.739029
862.720919,-2146.597232,383.047749,9992.780217
862.721249,-1850.514855,689.485948,9622.677246
862.721578,-1332.370696,459.657299,9400.615463
862.721907,-444.123565,0.000000,9104.533087
862.722237,222.061783,689.485948,9178.553681
862.722566,814.226536,1072.533697,9326.594869
862.722896,592.164754,1225.752797,9474.636058
862.723225,296.082377,1685.410096,9844.739029
862.723555,-518.144159,2528.115143,9770.718434
862.723884,-962.267725,2451.505594,9474.636058
862.724214,-1110.308913,1838.629195,9326.594869
862.724543,-814.226536,1225.752797,8956.491898
862.724873,-740.205942,-153.219100,8438.347739
862.725202,-888.247130,-995.924147,8290.306550
862.725532,-1258.350101,0.000000,8512.368333
862.725861,-1184.329507,536.266849,9400.615463
862.726191,-1406.391290,459.657299,9918.759623
862.726520,-1480.411884,995.924147,10881.027347
862.726850,-1998.556043,1072.533697,10807.006753
862.727179,-2294.638420,1455.581446,10658.965565
862.727509,-1406.391290,1378.971896,10436.903782
862.727838,-962.267725,1302.362347,10510.924376
862.728168,-222.061783,689.485948,9696.697840
862.728497,444.123565,-306.438199,8734.430116
862.728827,666.185348,-459.657299,8586.388927
862.729156,962.267725,995.924147,9030.512492
862.729486,666.185348,842.705048,9400.615463
862.729815,296.082377,1149.143247,9844.739029
862.730145,-444.123565,1991.848295,10066.800811
862.730474,-1258.350101,2451.505594,9992.780217
862.730804,-1628.453072,1991.848295,9696.697840
862.731133,-1184.329507,1455.581446,9474.636058
862.731463,-1258.350101,1072.533697,9622.677246
862.731792,-1628.453072,229.828649,9178.553681
862.732122,-2294.638420,153.219100,9030.512492
862.732451,-2220.617826,153.219100,8586.388927
862.732781,-2516.700203,459.657299,8882.471304
862.733110,-2146.597232,459.657299,9474.636058
862.733440,-2368.659014,536.266849,9844.739029
862.733769,-2812.782580,766.095498,9844.739029
862.734099,-2738.761985,689.485948,9992.780217
862.734428,-2072.576638,919.314598,9696.697840
862.734758,-1628.453072,612.876398,9622.677246
862.735087,-666.185348,153.219100,9548.656652
862.735417,0.000000,383.047749,9326.594869
862.735746,666.185348,995.924147,9474.636058
862.736075,962.267725,919.314598,9474.636058
862.736405,370.102971,1685.410096,9918.759623
862.736734,0.000000,2298.286494,10214.842000
862.737064,-814.226536,2451.505594,9992.780217
862.737393,-592.164754,2221.676944,9696.697840
862.737723,-888.247130,1762.019645,8882.471304
862.738052,-296.082377,919.314598,8438.347739
862.738382,-444.123565,-459.657299,8290.306550
862.738711,-1036.288319,0.000000,8142.265362
862.739041,-1332.370696,1072.533697,8586.388927
862.739370,-1036.288319,1072.533697,8808.450710
862.739700,-814.226536,612.876398,9474.636058
862.740029,-1332.370696,1532.190996,10362.883188
862.740359,-1998.556043,1838.629195,10288.862594
862.740688,-1998.556043,1149.143247,10288.862594
862.741018,-1850.514855,1225.752797,10658.965565
862.741347,-1554.432478,842.705048,10436.903782
862.741677,-1184.329507,0.000000,9918.759623
862.742006,-592.164754,-229.828649,8956.491898
862.742336,-148.041188,-459.657299,8586.388927
862.742665,222.061783,76.609550,8882.471304
862.742995,74.020594,612.876398,9400.615463
862.743324,-296.082377,1455.581446,9474.636058
862.743654,-1184.329507,2374.896044,9474.636058
862.743983,-1332.370696,2451.505594,9474.636058
862.744313,-1036.288319,2068.457845,9326.594869
862.744642,-592.164754,1685.410096,9178.553681
862.744972,-444.123565,536.266849,9474.636058
862.745301,-1110.308913,0.000000,9326.594869
862.745631,-1924.535449,383.047749,9548.656652
862.745960,-2294.638420,536.266849,9770.718434
862.746290,-2738.761985,383.047749,10436.903782
862.746619,-2516.700203,229.828649,10510.924376
862.746949,-2664.741391,612.876398,10436.903782
862.747278,-2886.803174,459.657299,10140.821405
862.747608,-2516.700203,383.047749,9918.759623
862.747937,-1998.556043,919.314598,9844.739029
862.748267,-666.185348,383.047749,9770.718434
862.748596,0.000000,153.219100,8808.450710
862.748926,148.041188,689.485948,8734.430116
862.749255,444.123565,995.924147,8882.471304
862.749585,814.226536,995.924147,9474.636058
862.749914,148.041188,1838.629195,10140.821405
862.750244,-444.123565,3064.381992,9844.739029
862.750573,-962.267725,2221.676944,9474.636058
862.750902,-1110.308913,1991.848295,9400.615463
862.751232,-370.102971,1072.533697,9030.512492
862.751561,0.000000,306.438199,8660.409521
862.751891,-296.082377,306.438199,8142.265362
862.752220,0.000000,995.924147,8586.388927
862.752550,-148.041188,1302.362347,8808.450710
862.752879,0.000000,1072.533697,9252.574275
862.753209,-370.102971,995.924147,9770.718434
862.753538,-1110.308913,1685.410096,10288.862594
862.753868,-1924.535449,1378.971896,10140.821405
862.754197,-2368.659014,919.314598,10288.862594
862.754527,-2294.638420,766.095498,10584.944971
862.754856,-1628.453072,306.438199,10066.800811
862.755186,-1110.308913,-306.438199,9178.553681
862.755515,0.000000,0.000000,8808.450710
862.755845,0.000000,153.219100,8956.491898
862.756174,74.020594,689.485948,9548.656652
862.756504,0.000000,1838.629195,9918.759623
862.756833,-444.123565,2528.115143,10066.800811
862.757163,-740.205942,2834.553343,9622.677246
862.757492,-1184.329507,2145.067394,9548.656652
862.757822,-1258.350101,1685.410096,9326.594869
862.758151,-1036.288319,306.438199,9474.636058
862.758481,-1628.453072,-459.657299,9696.697840
862.758810,-2442.679609,306.438199,9252.574275
862.759140,-3034.844362,0.000000,9252.574275
862.759469,-2960.823768,0.000000,9474.636058
862.759799,-2812.782580,229.828649,10288.862594
862.760128,-2738.761985,612.876398,10362.883188
862.760458,-2442.679609,919.314598,9918.759623
862.760787,-2442.679609,842.705048,9992.780217
862.761117,-2220.617826,1378.971896,9844.739029
862.761446,-1332.370696,766.095498,9992.780217
862.761776,-592.164754,229.828649,9252.574275
862.762105,74.020594,229.828649,9030.512492
862.762435,222.061783,383.047749,8734.430116
862.762764,370.102971,689.485948,9252.574275
862.763094,-370.102971,1072.533697,9992.780217
862.763423,-1480.411884,1685.410096,10288.862594
862.763753,-1850.514855,2604.724693,10288.862594
862.764082,-1554.432478,2451.505594,9474.636058
862.764412,-814.226536,1378.971896,9104.533087
862.764741,0.000000,536.266849,8660.409521
862.765070,74.020594,0.000000,8142.265362
862.765400,0.000000,-229.828649,8512.368333
862.765729,-222.061783,919.314598,8808.450710
862.766059,-592.164754,842.705048,8956.491898
862.766388,-888.247130,612.876398,10214.842000
862.766718,-1184.329507,919.314598,10584.944971
862.767047,-1850.514855,1225.752797,10658.965565
862.767377,-1702.473667,612.876398,10436.903782
862.767706,-1480.411884,612.876398,10584.944971
862.768036,-1184.329507,612.876398,9844.739029
862.768365,-296.082377,76.609550,9400.615463
862.768695,296.082377,153.219100,8660.409521
862.769024,740.205942,766.095498,8660.409521
862.769354,740.205942,1149.143247,8660.409521
862.769683,1332.370696,1225.752797,9548.656652
862.770013,0.000000,2068.457845,9992.780217
862.770342,-1332.370696,2604.724693,10066.800811
862.770672,-1850.514855,2145.067394,9622.677246
862.771001,-1776.494261,1608.800546,9548.656652
862.771331,-1332.370696,766.095498,9696.697840
862.771660,-1554.432478,-383.047749,9178.553681
862.771990,-1850.514855,-459.657299,9178.553681
862.772319,-2368.659014,306.438199,9252.574275
862.772649,-2146.597232,766.095498,9622.677246
862.772978,-2072.576638,995.924147,9474.636058
862.773308,-1850.514855,1455.581446,10140.821405
862.773637,-1850.514855,1532.190996,9696.697840
862.773967,-1702.473667,919.314598,9548.656652
862.774296,-1554.432478,766.095498,9918.759623
862.774626,-1628.453072,842.705048,10214.842000
862.774955,-1184.329507,306.438199,9548.656652
862.775285,-888.247130,-229.828649,9474.636058
862.775614,-666.185348,229.828649,9326.594869
862.775944,0.000000,689.485948,9844.739029
862.776273,74.020594,612.876398,10066.800811
862.776603,-148.041188,1455.581446,9918.759623
862.776932,-814.226536,2681.334243,9696.697840
862.777262,-592.164754,2757.943793,9252.574275
862.777591,-666.185348,1915.238745,8438.347739
862.777921,0.000000,1685.410096,7994.224174
862.778250,814.226536,612.876398,7624.121203
