#time,accel_x,accel_y,accel_z
1114.589550,-888.247130,1378.971896,9548.656652
1114.589880,-1036.288319,612.876398,9548.656652
1114.590209,-888.247130,919.314598,9548.656652
1114.590539,-962.267725,689.485948,9474.636058
1114.590868,-888.247130,995.924147,9474.636058
1114.591198,-1036.288319,1378.971896,9474.636058
1114.591527,-888.247130,842.705048,9474.636058
1114.591857,-1036.288319,919.314598,9474.636058
1114.592186,-1110.308913,842.705048,9474.636058
1114.592516,-1036.288319,919.314598,9622.677246
1114.592845,-814.226536,1532.190996,9400.615463
1114.593175,-888.247130,1225.752797,9474.636058
1114.593504,-1184.329507,842.705048,9474.636058
1114.593834,-962.267725,842.705048,9474.636058
1114.594163,-1036.288319,842.705048,9474.636058
1114.594493,-962.267725,995.924147,9622.677246
1114.594823,-1110.308913,1225.752797,9474.636058
1114.595152,-1258.350101,1072.533697,9474.636058
1114.595482,-1184.329507,995.924147,9474.636058
1114.595811,-1036.288319,995.924147,9696.697840
1114.596141,-1110.308913,1302.362347,9622.677246
1114.596470,-1184.329507,766.095498,9178.553681
1114.596800,-962.267725,842.705048,9548.656652
1114.597129,-1110.308913,689.485948,9622.677246
1114.597459,-888.247130,1072.533697,9548.656652
1114.597788,-1036.288319,1072.533697,9474.636058
1114.598118,-666.185348,995.924147,9252.574275
1114.598447,-814.226536,842.705048,9622.677246
1114.598777,-1110.308913,1149.143247,9622.677246
1114.599106,-814.226536,919.314598,9770.718434
1114.599436,-962.267725,919.314598,9696.697840
1114.599765,-888.247130,1072.533697,9474.636058
1114.600095,-1036.288319,919.314598,9474.636058
1114.600424,-962.267725,766.095498,9474.636058
1114.600754,-1184.329507,919.314598,9548.656652
1114.601083,-1110.308913,995.924147,9400.615463
1114.601413,-1036.288319,1225.752797,9622.677246
1114.601742,-1258.350101,1149.143247,9178.553681
1114.602072,-1110.308913,919.314598,9548.656652
1114.602401,-814.226536,995.924147,9474.636058
1114.602731,-888.247130,766.095498,9548.656652
1114.603060,-1110.308913,689.485948,9548.656652
1114.603390,-1036.288319,995.924147,9400.615463
1114.603719,-962.267725,766.095498,9178.553681
1114.604049,-888.247130,995.924147,9474.636058
1114.604378,-888.247130,919.314598,9622.677246
1114.604708,-1110.308913,1072.533697,9474.636058
1114.605037,-888.247130,1072.533697,9474.636058
1114.605367,-1036.288319,1149.143247,9252.574275
1114.605696,-962.267725,919.314598,9548.656652
1114.606026,-1184.329507,995.924147,9548.656652
1114.606355,-962.267725,919.314598,9548.656652
1114.606685,-1036.288319,919.314598,9548.656652
1114.607014,-1258.350101,536.266849,9178.553681
1114.607344,-888.247130,919.314598,9622.677246
1114.607674,-888.247130,919.314598,9474.636058
1114.608003,-888.247130,842.705048,9548.656652
1114.608333,-888.247130,1072.533697,9696.697840
1114.608662,-370.102971,995.924147,9622.677246
1114.608992,-962.267725,1149.143247,9548.656652
1114.609321,-1036.288319,1149.143247,9622.677246
1114.609651,-1110.308913,842.705048,9548.656652
1114.609980,-1036.288319,766.095498,9622.677246
1114.610310,-1036.288319,612.876398,9548.656652
1114.610639,-888.247130,459.657299,9326.594869
1114.610969,-518.144159,995.924147,9178.553681
1114.611298,0.000000,766.095498,9104.533087
1114.611628,740.205942,766.095498,9178.553681
1114.611957,1036.288319,919.314598,9252.574275
1114.612287,1036.288319,306.438199,8882.471304
1114.612616,518.144159,612.876398,9622.677246
1114.612946,0.000000,995.924147,10288.862594
1114.613275,-592.164754,1149.143247,10510.924376
1114.613605,-740.205942,689.485948,10510.924376
1114.613934,-444.123565,0.000000,9844.739029
1114.614264,296.082377,306.438199,9474.636058
1114.614593,1110.308913,0.000000,9104.533087
1114.614923,2294.638420,0.000000,8882.471304
1114.615252,2886.803174,383.047749,8438.347739
1114.615582,3404.947333,1225.752797,8438.347739
1114.615911,3256.906145,1608.800546,8956.491898
1114.616241,3627.009116,2221.676944,9696.697840
1114.616570,3256.906145,1608.800546,9918.759623
1114.616900,2368.659014,1225.752797,10140.821405
1114.617229,1924.535449,1378.971896,10362.883188
1114.617559,1332.370696,612.876398,10362.883188
1114.617888,1184.329507,0.000000,10584.944971
1114.618218,1776.494261,-383.047749,10140.821405
1114.618547,2368.659014,-383.047749,9400.615463
1114.618877,3182.885551,-153.219100,9104.533087
1114.619206,4367.215058,842.705048,9178.553681
1114.619536,4589.276840,2068.457845,9252.574275
1114.619865,4441.235652,2604.724693,9696.697840
1114.620195,3256.906145,3294.210641,10140.821405
1114.620525,1406.391290,3370.820191,10510.924376
1114.620854,-444.123565,3064.381992,10214.842000
1114.621184,-1850.514855,2145.067394,9252.574275
1114.621513,-1554.432478,459.657299,8512.368333
1114.621843,-148.041188,-919.314598,7772.162391
1114.622172,1554.432478,-1225.752797,6957.935855
1114.622502,2738.761985,-306.438199,6587.832884
1114.622831,3478.967927,153.219100,6957.935855
1114.623161,3701.029710,1685.410096,8586.388927
1114.623490,2738.761985,3600.648841,10436.903782
1114.623820,1554.432478,4596.572988,11917.315666
1114.624149,518.144159,3983.696590,12361.439231
1114.624479,-296.082377,2451.505594,12731.542202
1114.624808,-1332.370696,1149.143247,11991.336260
1114.625138,-1924.535449,-919.314598,10955.047942
1114.625467,-1554.432478,-2145.067394,9548.656652
1114.625797,-444.123565,-2604.724693,8364.327145
1114.626126,1110.308913,-2451.505594,7476.080014
1114.626456,2960.823768,-1302.362347,7402.059420
1114.626785,4293.194464,-229.828649,7476.080014
1114.627115,4589.276840,1608.800546,7846.182985
1114.627444,4367.215058,3064.381992,8734.430116
1114.627774,4071.132681,3830.477490,9770.718434
1114.628103,3923.091493,3677.258390,11029.068536
1114.628433,3108.864956,3217.601092,11547.212695
1114.628762,2294.638420,1915.238745,11843.295072
1114.629092,1184.329507,-306.438199,11695.253884
1114.629421,444.123565,-1149.143247,11103.089130
1114.629751,-444.123565,-1149.143247,10807.006753
1114.630080,0.000000,-1608.800546,10807.006753
1114.630410,0.000000,-1225.752797,10066.800811
1114.630739,666.185348,-306.438199,9326.594869
1114.631069,1702.473667,153.219100,8290.306550
1114.631398,2812.782580,919.314598,7698.141797
1114.631728,3775.050304,919.314598,7698.141797
1114.632057,4293.194464,1455.581446,8142.265362
1114.632387,3849.070898,1532.190996,8364.327145
1114.632717,3330.926739,1455.581446,9326.594869
1114.633046,2442.679609,1378.971896,10140.821405
1114.633376,1184.329507,1225.752797,10140.821405
1114.633705,370.102971,1532.190996,10955.047942
1114.634035,592.164754,1225.752797,10732.986159
1114.634364,962.267725,1455.581446,10436.903782
1114.634694,1258.350101,1225.752797,9474.636058
1114.635023,2294.638420,1149.143247,8216.285956
1114.635353,3034.844362,766.095498,7328.038826
1114.635682,3849.070898,612.876398,7772.162391
1114.636012,3627.009116,1225.752797,8438.347739
1114.636341,2664.741391,2068.457845,9326.594869
1114.636671,1628.453072,2145.067394,9474.636058
1114.637000,888.247130,1149.143247,10214.842000
1114.637330,0.000000,1302.362347,11103.089130
1114.637659,0.000000,536.266849,11399.171507
1114.637989,-666.185348,0.000000,11621.233289
1114.638318,-1258.350101,0.000000,10881.027347
1114.638648,-666.185348,76.609550,10066.800811
1114.638977,222.061783,76.609550,9252.574275
1114.639307,2220.617826,1149.143247,8290.306550
1114.639636,4589.276840,1608.800546,7550.100608
1114.639966,7328.038826,1915.238745,7772.162391
1114.640295,8512.368333,2528.115143,7846.182985
1114.640625,7254.018232,3907.087040,8586.388927
1114.640954,5255.462188,4519.963438,10066.800811
1114.641284,3330.926739,3830.477490,11695.253884
1114.641613,1110.308913,2681.334243,13175.665768
1114.641943,-1924.535449,1378.971896,13619.789333
1114.642272,-4811.338623,-689.485948,12509.480420
1114.642602,-6513.812290,-1915.238745,11547.212695
1114.642931,-6143.709319,-2528.115143,8882.471304
1114.643261,-3182.885551,-2834.553343,5477.523971
1114.643590,1924.535449,-3294.210641,3849.070898
1114.643920,6735.874072,-3064.381992,2516.700203
1114.644249,9622.677246,-153.219100,4071.132681
1114.644579,9104.533087,3447.429741,6143.709319
1114.644908,8068.244768,6741.640382,9104.533087
1114.645238,6291.750507,8810.098227,12435.459826
1114.645568,3108.864956,9346.365076,13989.892304
1114.645897,-666.185348,4903.011187,15914.427753
1114.646227,-4589.276840,0.000000,16284.530724
1114.646556,-7105.977043,-1838.629195,15248.242405
1114.646886,-6957.935855,-3294.210641,12583.501014
1114.647215,-3552.988522,-5515.887586,9548.656652
1114.647545,1406.391290,-7354.516781,6661.853478
1114.647874,5477.523971,-5975.544884,2146.597232
1114.648204,10066.800811,-4060.306139,370.102971
1114.648533,13101.645173,-612.876398,3701.029710
1114.648863,11917.315666,4979.620737,8734.430116
1114.649192,5699.585753,9652.803275,12287.418637
1114.649522,296.082377,10112.460574,13841.851115
1114.649851,-2072.576638,6741.640382,14804.118840
1114.650181,-2368.659014,2911.162892,15100.201217
1114.650510,-2072.576638,-1532.190996,13693.809927
1114.650840,-2220.617826,-5515.887586,9252.574275
1114.651169,-666.185348,-6894.859482,5403.503377
1114.651499,2146.597232,-6894.859482,4737.318029
1114.651828,3478.967927,-4826.401637,6735.874072
1114.652158,3404.947333,-153.219100,7994.224174
1114.652487,2368.659014,3370.820191,8808.450710
1114.652817,2738.761985,6052.154434,10140.821405
1114.653146,3627.009116,5745.716235,11917.315666
1114.653476,3404.947333,4136.915689,12953.603985
1114.653805,2220.617826,1225.752797,12287.418637
1114.654135,-592.164754,-995.924147,11843.295072
1114.654464,-2294.638420,-1302.362347,12287.418637
1114.654794,-3330.926739,-1302.362347,10436.903782
1114.655123,-2368.659014,-3064.381992,7402.059420
1114.655453,666.185348,-4366.744339,4811.338623
1114.655782,5625.565159,-3677.258390,5699.585753
1114.656112,9770.718434,229.828649,7031.956449
1114.656441,9400.615463,4366.744339,6661.853478
1114.656771,7402.059420,5439.278036,7846.182985
1114.657100,4589.276840,6971.469032,10807.006753
1114.657430,1702.473667,8733.488677,13249.686362
1114.657759,-370.102971,6281.983084,14804.118840
1114.658089,-1480.411884,1762.019645,15174.221811
1114.658419,-3997.112087,-2528.115143,13249.686362
1114.658748,-6291.750507,-4060.306139,11621.233289
1114.659078,-6291.750507,-5898.935335,11103.089130
1114.659407,-4737.318029,-4826.401637,9770.718434
1114.659737,-4663.297435,-1455.581446,5847.626942
1114.660067,-666.185348,-306.438199,2516.700203
1114.660397,6217.729913,-612.876398,3182.885551
1114.660727,11325.150913,1685.410096,5625.565159
1114.661056,11325.150913,5898.935335,7031.956449
1114.661386,9844.739029,8963.317327,8068.244768
1114.661716,7031.956449,9652.803275,10288.862594
1114.662046,5033.400406,8656.879127,12879.583391
1114.662376,3256.906145,5286.058936,15100.201217
1114.662705,1628.453072,1685.410096,15026.180623
1114.663035,-370.102971,-383.047749,12583.501014
1114.663365,-1554.432478,-2757.943793,11991.336260
1114.663695,-1850.514855,-4060.306139,11991.336260
1114.664025,-3108.864956,-2068.457845,10436.903782
1114.664354,-4219.173869,383.047749,6735.874072
1114.664684,-2368.659014,1149.143247,3108.864956
1114.665014,3849.070898,-153.219100,666.185348
1114.665344,10140.821405,-459.657299,1406.391290
1114.665674,11843.295072,-842.705048,4737.318029
1114.666003,8290.306550,3524.039291,7846.182985
1114.666333,3701.029710,8120.612279,8512.368333
1114.666663,3552.988522,4749.792088,11325.150913
1114.666993,4811.338623,459.657299,15914.427753
1114.667323,962.267725,1532.190996,17468.860231
1114.667653,-3478.967927,459.657299,16136.489536
1114.667982,-4367.215058,-3677.258390,14434.015869
1114.668312,-4663.297435,-4060.306139,13249.686362
1114.668642,-5551.544565,-1685.410096,11843.295072
1114.668972,-4071.132681,-3447.429741,9844.739029
1114.669302,1406.391290,-4443.353888,4737.318029
1114.669631,7402.059420,-1608.800546,2664.741391
1114.669961,12361.439231,-2068.457845,2812.782580
1114.670291,11695.253884,153.219100,5181.441594
1114.670621,7402.059420,5515.887586,8660.409521
1114.670951,4737.318029,9806.022374,11325.150913
1114.671280,4071.132681,9269.755526,15026.180623
1114.671610,518.144159,6511.811733,17912.983796
1114.671940,-5181.441594,3370.820191,14137.933492
1114.672270,-8808.450710,-3447.429741,11621.233289
1114.672600,-7920.203579,-6281.983084,11917.315666
1114.672929,-5699.585753,-4826.401637,10955.047942
1114.673259,-3923.091493,-5515.887586,8438.347739
1114.673589,-2442.679609,-5592.497135,5033.400406
1114.673919,1924.535449,-2681.334243,2516.700203
1114.674249,9178.553681,-919.314598,3330.926739
1114.674578,13619.789333,2451.505594,7179.997637
1114.674908,10436.903782,7660.954980,10140.821405
1114.675238,4441.235652,11184.994271,11843.295072
1114.675568,-666.185348,8580.269578,14656.077652
1114.675898,-2886.803174,7354.516781,15840.407159
1114.676227,-3849.070898,6052.154434,14063.912898
1114.676557,-2886.803174,-1608.800546,10288.862594
1114.676887,-1332.370696,-6281.983084,5551.544565
1114.677217,1332.370696,-7277.907231,1036.288319
1114.677547,5403.503377,-8044.002729,-888.247130
1114.677876,7994.224174,-4826.401637,1702.473667
1114.678206,6883.915261,1685.410096,6513.812290
1114.678536,3775.050304,7431.126331,10510.924376
1114.678866,370.102971,10342.289223,12139.377449
1114.679196,-1628.453072,9422.974625,14211.954086
1114.679526,-4145.153275,6511.811733,16950.716072
1114.679855,-5699.585753,3217.601092,17764.942608
1114.680185,-6365.771101,-306.438199,14656.077652
1114.680515,-6291.750507,-3983.696590,9252.574275
1114.680845,-4071.132681,-6205.373534,3108.864956
1114.681175,-1110.308913,-7660.954980,962.267725
1114.681504,4071.132681,-9269.755526,5255.462188
1114.681834,6143.709319,-3064.381992,10807.006753
1114.682164,2442.679609,8044.002729,10584.944971
1114.682494,-518.144159,9652.803275,8290.306550
1114.682824,0.000000,7354.516781,10584.944971
1114.683153,296.082377,6894.859482,14434.015869
1114.683483,962.267725,5975.544884,17320.819043
1114.683813,148.041188,1685.410096,14656.077652
1114.684143,-1406.391290,2451.505594,9696.697840
1114.684473,-2442.679609,-1915.238745,6883.915261
1114.684802,-962.267725,-7890.783629,8438.347739
1114.685132,-592.164754,-6052.154434,10436.903782
1114.685462,-1332.370696,-153.219100,8142.265362
1114.685792,-2368.659014,1378.971896,5921.647536
1114.686122,-2442.679609,1685.410096,7624.121203
1114.686451,-1480.411884,2528.115143,9918.759623
1114.686781,0.000000,1991.848295,11843.295072
1114.687111,-962.267725,2681.334243,9992.780217
1114.687441,-2220.617826,3064.381992,7179.997637
1114.687771,-1554.432478,995.924147,7254.018232
1114.688100,-370.102971,-919.314598,8956.491898
1114.688430,74.020594,-2987.772442,9252.574275
1114.688760,-518.144159,-3294.210641,7105.977043
1114.689090,-2220.617826,-689.485948,5995.668130
1114.689420,-2516.700203,612.876398,7624.121203
1114.689750,-1776.494261,-229.828649,10658.965565
1114.690079,-1628.453072,-536.266849,11177.109724
1114.690409,-2886.803174,2528.115143,8808.450710
1114.690739,-2368.659014,4213.525239,6883.915261
1114.691069,148.041188,1302.362347,8068.244768
1114.691399,2812.782580,-229.828649,11473.192101
1114.691728,740.205942,-536.266849,12361.439231
1114.692058,-2960.823768,1072.533697,11843.295072
1114.692388,-5699.585753,1685.410096,11177.109724
1114.692718,-4737.318029,842.705048,12213.398043
1114.693048,-2738.761985,-536.266849,12879.583391
1114.693377,-2590.720797,-2451.505594,12139.377449
1114.693707,-2072.576638,-1915.238745,9326.594869
1114.694037,-296.082377,229.828649,7476.080014
1114.694367,1998.556043,1302.362347,8438.347739
1114.694697,3330.926739,1608.800546,10214.842000
1114.695026,2442.679609,2834.553343,10955.047942
1114.695356,1258.350101,3064.381992,9844.739029
1114.695686,222.061783,4136.915689,9104.533087
1114.696016,148.041188,4213.525239,10288.862594
1114.696346,-370.102971,2451.505594,11621.233289
1114.696675,-2294.638420,995.924147,10214.842000
1114.697005,-3775.050304,-306.438199,7550.100608
1114.697335,-1628.453072,76.609550,7031.956449
1114.697665,370.102971,153.219100,6661.853478
1114.697995,666.185348,-306.438199,7031.956449
1114.698324,-1110.308913,-229.828649,7550.100608
1114.698654,-1998.556043,1762.019645,6735.874072
1114.698984,-1776.494261,3140.991542,7031.956449
1114.699314,-1480.411884,2451.505594,8882.471304
1114.699644,-1554.432478,2145.067394,9844.739029
1114.699974,-2886.803174,1302.362347,8808.450710
1114.700303,-2812.782580,-1532.190996,7476.080014
1114.700633,-1554.432478,-919.314598,8512.368333
1114.700963,0.000000,995.924147,10066.800811
1114.701293,888.247130,306.438199,11547.212695
1114.701623,148.041188,-689.485948,11473.192101
1114.701952,-814.226536,1225.752797,10066.800811
1114.702282,-814.226536,2987.772442,9844.739029
1114.702612,1110.308913,2451.505594,11547.212695
1114.702942,2220.617826,2451.505594,12879.583391
1114.703272,-370.102971,1455.581446,11251.130318
1114.703601,-3404.947333,229.828649,9548.656652
1114.703931,-3923.091493,-536.266849,10214.842000
1114.704261,-1554.432478,459.657299,11991.336260
1114.704591,-666.185348,459.657299,11695.253884
1114.704921,-1628.453072,-2451.505594,10807.006753
1114.705250,-2960.823768,-1455.581446,10807.006753
1114.705580,-3182.885551,1685.410096,10436.903782
1114.705910,-1776.494261,3064.381992,10066.800811
1114.706240,-740.205942,1149.143247,9918.759623
1114.706570,-1110.308913,2451.505594,9918.759623
1114.706899,-1776.494261,3064.381992,7105.977043
1114.707229,-222.061783,229.828649,6365.771101
1114.707559,2072.576638,-766.095498,6439.791695
1114.707889,1184.329507,842.705048,7994.224174
1114.708219,-1110.308913,76.609550,9252.574275
1114.708548,-3404.947333,229.828649,9474.636058
1114.708878,-4441.235652,2374.896044,8142.265362
1114.709208,-3923.091493,2451.505594,7994.224174
1114.709538,-2294.638420,612.876398,9326.594869
1114.709868,-1924.535449,306.438199,8734.430116
1114.710198,-1924.535449,76.609550,6735.874072
1114.710527,-1554.432478,-153.219100,5551.544565
1114.710857,0.000000,689.485948,7179.997637
1114.711187,666.185348,1302.362347,9696.697840
1114.711517,-740.205942,766.095498,10658.965565
1114.711847,-2368.659014,1225.752797,9918.759623
1114.712176,-2368.659014,3217.601092,9474.636058
1114.712506,-740.205942,1608.800546,12139.377449
1114.712836,-888.247130,1302.362347,13619.789333
1114.713166,-2294.638420,1149.143247,12435.459826
1114.713496,-1924.535449,612.876398,10658.965565
1114.713825,-888.247130,766.095498,10510.924376
1114.714155,518.144159,2145.067394,11473.192101
1114.714485,888.247130,1685.410096,12361.439231
1114.714815,888.247130,919.314598,11325.150913
1114.715145,-296.082377,1762.019645,9548.656652
1114.715474,-370.102971,2451.505594,9104.533087
1114.715804,148.041188,1685.410096,10658.965565
1114.716134,-296.082377,1838.629195,10881.027347
1114.716464,-1628.453072,766.095498,9474.636058
1114.716794,-1258.350101,536.266849,7624.121203
1114.717123,370.102971,1302.362347,8216.285956
1114.717453,1924.535449,1991.848295,9252.574275
1114.717783,814.226536,1532.190996,8660.409521
1114.718113,-666.185348,1838.629195,7698.141797
1114.718443,-1184.329507,2451.505594,6957.935855
1114.718772,-962.267725,2298.286494,7105.977043
1114.719102,-1184.329507,1685.410096,7624.121203
1114.719432,-2220.617826,536.266849,7846.182985
1114.719762,-3182.885551,0.000000,7624.121203
1114.720092,-2738.761985,-153.219100,7105.977043
1114.720421,-962.267725,-1149.143247,7105.977043
1114.720751,222.061783,-842.705048,7402.059420
1114.721081,444.123565,-1378.971896,8216.285956
1114.721411,-370.102971,306.438199,9030.512492
1114.721741,-1110.308913,1378.971896,10066.800811
1114.722071,-592.164754,2757.943793,10807.006753
1114.722400,0.000000,3294.210641,12361.439231
1114.722730,-888.247130,919.314598,11991.336260
1114.723060,-2442.679609,-459.657299,11029.068536
1114.723390,-2516.700203,-766.095498,10140.821405
1114.723720,0.000000,-766.095498,10362.883188
1114.724049,1702.473667,-1302.362347,10881.027347
1114.724379,740.205942,-1991.848295,12435.459826
1114.724709,-1480.411884,-689.485948,12879.583391
1114.725039,-2590.720797,1685.410096,11917.315666
1114.725369,-1554.432478,1685.410096,11473.192101
1114.725698,-370.102971,919.314598,13545.768739
1114.726028,-1332.370696,2987.772442,13175.665768
1114.726358,-2220.617826,2757.943793,11547.212695
1114.726688,-1184.329507,-612.876398,8734.430116
1114.727018,0.000000,-306.438199,7920.203579
1114.727347,0.000000,1225.752797,8216.285956
1114.727677,-592.164754,-383.047749,8882.471304
1114.728007,-1924.535449,-2145.067394,7846.182985
1114.728337,-3256.906145,1302.362347,6513.812290
1114.728667,-3627.009116,1915.238745,6661.853478
1114.728996,-2368.659014,1302.362347,8586.388927
1114.729326,-2738.761985,2374.896044,9252.574275
1114.729656,-3552.988522,2528.115143,7624.121203
1114.729986,-3034.844362,2145.067394,6217.729913
1114.730316,-888.247130,1762.019645,6217.729913
1114.730645,814.226536,842.705048,7846.182985
1114.730975,0.000000,306.438199,7402.059420
1114.731305,-1554.432478,1302.362347,6661.853478
1114.731635,-1628.453072,1608.800546,7402.059420
1114.731965,-1480.411884,1532.190996,9918.759623
1114.732295,-1628.453072,2451.505594,11843.295072
1114.732624,-1850.514855,1762.019645,12065.356855
1114.732954,-1998.556043,383.047749,10140.821405
1114.733284,-1332.370696,536.266849,9178.553681
1114.733614,0.000000,689.485948,10584.944971
1114.733944,1406.391290,1378.971896,12879.583391
1114.734273,518.144159,1532.190996,12583.501014
1114.734603,-1110.308913,1915.238745,11473.192101
1114.734933,-1998.556043,1838.629195,10510.924376
1114.735263,-888.247130,1378.971896,11473.192101
1114.735593,222.061783,1149.143247,12731.542202
1114.735922,-148.041188,153.219100,11473.192101
1114.736252,-370.102971,459.657299,9104.533087
1114.736582,666.185348,306.438199,8956.491898
1114.736912,2072.576638,153.219100,10732.986159
1114.737242,2146.597232,2298.286494,10881.027347
1114.737571,518.144159,2528.115143,10214.842000
1114.737901,-1480.411884,1838.629195,9474.636058
1114.738231,-2960.823768,2681.334243,8438.347739
1114.738561,-2886.803174,3524.039291,8364.327145
1114.738891,-1480.411884,1225.752797,9622.677246
1114.739220,-1480.411884,-766.095498,8734.430116
1114.739550,-2812.782580,919.314598,5403.503377
1114.739880,-2664.741391,-306.438199,3256.906145
1114.740210,74.020594,-3064.381992,4885.359217
1114.740540,1036.288319,76.609550,7179.997637
1114.740869,-222.061783,2451.505594,8216.285956
1114.741199,-1998.556043,689.485948,7920.203579
1114.741529,-2738.761985,2145.067394,8586.388927
1114.741859,-2442.679609,3907.087040,9992.780217
1114.742189,-1110.308913,612.876398,11621.233289
1114.742519,-1036.288319,-1225.752797,12953.603985
1114.742848,-2294.638420,2068.457845,9548.656652
1114.743178,-2516.700203,766.095498,6883.915261
1114.743508,0.000000,-3983.696590,8956.491898
1114.743838,1850.514855,-612.876398,12213.398043
1114.744168,370.102971,1532.190996,12435.459826
1114.744497,-2072.576638,0.000000,10881.027347
1114.744827,-3552.988522,766.095498,11917.315666
1114.745157,-1998.556043,3753.867940,13397.727550
1114.745487,-740.205942,1149.143247,13249.686362
1114.745817,-1628.453072,-2911.162892,11991.336260
1114.746146,-1998.556043,1149.143247,11251.130318
1114.746476,-444.123565,2834.553343,10732.986159
1114.746806,2146.597232,-919.314598,10807.006753
1114.747136,1776.494261,-1455.581446,9474.636058
1114.747466,-444.123565,1302.362347,8364.327145
1114.747795,-740.205942,1455.581446,8290.306550
1114.748125,-1258.350101,995.924147,10140.821405
1114.748455,-1554.432478,3370.820191,10732.986159
1114.748785,-2960.823768,3294.210641,9178.553681
1114.749115,-3552.988522,-1072.533697,7328.038826
1114.749444,-2590.720797,-842.705048,7402.059420
1114.749774,-1258.350101,766.095498,6809.894666
1114.750104,-296.082377,229.828649,5773.606348
1114.750434,-592.164754,-919.314598,6291.750507
1114.750764,-2664.741391,76.609550,7550.100608
1114.751093,-3404.947333,3524.039291,7772.162391
1114.751423,-3627.009116,3064.381992,8290.306550
1114.751753,-2072.576638,2298.286494,8956.491898
1114.752083,-1850.514855,2911.162892,8956.491898
1114.752413,-1776.494261,689.485948,8364.327145
1114.752743,-740.205942,-1225.752797,7105.977043
1114.753072,1110.308913,0.000000,8142.265362
1114.753402,1480.411884,2068.457845,9844.739029
1114.753732,518.144159,1455.581446,11843.295072
1114.754062,-1554.432478,1302.362347,12213.398043
1114.754392,-1628.453072,3983.696590,11769.274478
1114.754721,-1258.350101,3217.601092,11917.315666
1114.755051,-370.102971,2451.505594,12583.501014
1114.755381,-370.102971,2298.286494,12583.501014
1114.755711,-1628.453072,-612.876398,11695.253884
1114.756041,-1258.350101,-995.924147,10955.047942
1114.756370,-370.102971,842.705048,9474.636058
1114.756700,962.267725,1991.848295,10214.842000
1114.757030,1480.411884,-383.047749,10881.027347
1114.757360,0.000000,459.657299,9400.615463
1114.757690,-370.102971,2681.334243,8586.388927
1114.758019,-222.061783,2145.067394,10140.821405
1114.758349,-1480.411884,2681.334243,12731.542202
1114.758679,-3256.906145,4596.572988,12805.562797
1114.759009,-3923.091493,1838.629195,9474.636058
1114.759339,-2368.659014,-612.876398,6217.729913
1114.759669,444.123565,-229.828649,4885.359217
1114.759999,3404.947333,-995.924147,5625.565159
1114.760328,2738.761985,-2681.334243,6661.853478
1114.760658,-592.164754,229.828649,7031.956449
1114.760988,-3701.029710,3983.696590,6661.853478
1114.761318,-2516.700203,3907.087040,9030.512492
1114.761648,-1702.473667,1762.019645,10362.883188
1114.761978,-3478.967927,2068.457845,9622.677246
1114.762308,-4811.338623,612.876398,6735.874072
1114.762637,-3478.967927,-2068.457845,5181.441594
1114.762967,-444.123565,-2604.724693,7550.100608
1114.763297,0.000000,-1532.190996,10140.821405
1114.763627,-1924.535449,-383.047749,11103.089130
1114.763957,-2368.659014,-383.047749,10066.800811
1114.764287,-1332.370696,612.876398,9918.759623
1114.764617,0.000000,1225.752797,11251.130318
1114.764946,0.000000,2298.286494,13323.706956
1114.765276,296.082377,1685.410096,14434.015869
1114.765606,-222.061783,383.047749,13175.665768
1114.765936,-1184.329507,536.266849,10658.965565
1114.766266,-296.082377,-689.485948,10807.006753
1114.766596,2294.638420,-919.314598,11695.253884
1114.766926,2368.659014,-842.705048,11695.253884
1114.767255,888.247130,-383.047749,10881.027347
1114.767585,0.000000,919.314598,10658.965565
1114.767915,-592.164754,2681.334243,11103.089130
1114.768245,-444.123565,2757.943793,11621.233289
1114.768575,-1184.329507,842.705048,11769.274478
1114.768905,-1702.473667,2757.943793,9622.677246
1114.769235,-1406.391290,2068.457845,5847.626942
1114.769565,0.000000,-2374.896044,6291.750507
1114.769894,444.123565,-1838.629195,8290.306550
1114.770224,-1998.556043,2068.457845,8290.306550
1114.770554,-4293.194464,536.266849,7254.018232
1114.770884,-5847.626942,612.876398,6587.832884
1114.771214,-5181.441594,3677.258390,7328.038826
1114.771544,-2738.761985,1915.238745,8068.244768
1114.771874,-1406.391290,-1225.752797,7179.997637
1114.772203,-2294.638420,995.924147,6069.688724
1114.772533,-2072.576638,3140.991542,5625.565159
1114.772863,0.000000,306.438199,6735.874072
1114.773193,1258.350101,766.095498,9548.656652
1114.773523,1110.308913,3370.820191,10510.924376
1114.773853,-518.144159,2068.457845,9104.533087
1114.774183,-962.267725,1302.362347,9992.780217
1114.774512,-370.102971,3447.429741,11695.253884
1114.774842,0.000000,2451.505594,12361.439231
1114.775172,-1036.288319,-689.485948,12953.603985
1114.775502,-2590.720797,-612.876398,12139.377449
1114.775832,-2960.823768,2681.334243,11029.068536
1114.776162,-888.247130,612.876398,9918.759623
1114.776492,2368.659014,-1991.848295,11177.109724
1114.776821,2146.597232,-229.828649,11103.089130
1114.777151,-666.185348,1378.971896,10881.027347
1114.777481,-1776.494261,766.095498,12435.459826
1114.777811,-2294.638420,3140.991542,13471.748144
1114.778141,-3108.864956,4673.182538,12583.501014
1114.778471,-3182.885551,-383.047749,10732.986159
1114.778801,-1776.494261,-1991.848295,8438.347739
1114.779130,370.102971,-306.438199,6735.874072
1114.779460,2220.617826,-2298.286494,7105.977043
1114.779790,1776.494261,-2451.505594,9696.697840
1114.780120,-1332.370696,1762.019645,9770.718434
1114.780450,-4811.338623,4519.963438,7254.018232
1114.780780,-4293.194464,1225.752797,7105.977043
1114.781110,-1406.391290,1915.238745,8216.285956
1114.781439,-592.164754,2911.162892,7254.018232
1114.781769,-1110.308913,-2987.772442,5773.606348
1114.782099,-2442.679609,-2451.505594,5551.544565
1114.782429,-1258.350101,2451.505594,6957.935855
1114.782759,1480.411884,919.314598,7476.080014
1114.783089,2368.659014,-2911.162892,8882.471304
1114.783419,74.020594,306.438199,9030.512492
1114.783749,-1258.350101,3907.087040,8512.368333
1114.784078,74.020594,153.219100,11177.109724
1114.784408,2294.638420,1838.629195,13545.768739
1114.784738,-888.247130,3907.087040,13841.851115
1114.785068,-3034.844362,153.219100,11251.130318
1114.785398,-2590.720797,-1225.752797,9548.656652
1114.785728,518.144159,-536.266849,9474.636058
1114.786058,3108.864956,-536.266849,9770.718434
1114.786387,1332.370696,-1608.800546,10436.903782
1114.786717,-296.082377,-459.657299,11547.212695
1114.787047,-1702.473667,3140.991542,10955.047942
1114.787377,-2368.659014,2834.553343,11547.212695
1114.787707,-1776.494261,2987.772442,12805.562797
1114.788037,-2368.659014,1991.848295,14434.015869
1114.788367,-3478.967927,689.485948,11769.274478
1114.788696,-3108.864956,0.000000,9178.553681
1114.789026,-962.267725,-1608.800546,8882.471304
1114.789356,592.164754,459.657299,8438.347739
1114.789686,-666.185348,-229.828649,8586.388927
1114.790016,-1628.453072,-1532.190996,9622.677246
1114.790346,-2368.659014,3294.210641,7994.224174
1114.790676,-2368.659014,5132.839837,6587.832884
1114.791005,-296.082377,3294.210641,7105.977043
1114.791335,222.061783,995.924147,8068.244768
1114.791665,-1110.308913,1838.629195,6809.894666
1114.791995,-1850.514855,2374.896044,4811.338623
1114.792325,-1110.308913,-536.266849,5847.626942
1114.792655,-444.123565,1991.848295,8216.285956
1114.792985,-1628.453072,1302.362347,9178.553681
1114.793314,-2664.741391,-1302.362347,9104.533087
1114.793644,-2590.720797,1608.800546,8956.491898
1114.793974,-2664.741391,3753.867940,9474.636058
1114.794304,-1924.535449,2757.943793,11029.068536
1114.794634,-2220.617826,383.047749,11621.233289
1114.794964,-2738.761985,1838.629195,9770.718434
1114.795294,-1258.350101,2145.067394,7698.141797
1114.795623,1332.370696,-995.924147,7698.141797
1114.795953,2812.782580,-459.657299,10362.883188
1114.796283,1406.391290,1072.533697,12213.398043
1114.796613,-1184.329507,1072.533697,11843.295072
1114.796943,-2220.617826,1685.410096,12139.377449
1114.797273,-2664.741391,3294.210641,13027.624579
1114.797603,-1480.411884,2681.334243,14211.954086
1114.797933,-1702.473667,-229.828649,13915.871710
1114.798262,-1924.535449,-306.438199,10807.006753
1114.798592,-1258.350101,919.314598,8068.244768
1114.798922,148.041188,-1225.752797,8586.388927
1114.799252,1554.432478,76.609550,11547.212695
1114.799582,-1258.350101,3294.210641,9696.697840
1114.799912,-3256.906145,1762.019645,5699.585753
1114.800242,-2442.679609,-1302.362347,5181.441594
1114.800571,-1110.308913,1991.848295,7328.038826
1114.800901,-1998.556043,2451.505594,8290.306550
1114.801231,-3404.947333,-2374.896044,8586.388927
1114.801561,-4959.379811,-919.314598,8364.327145
1114.801891,-4441.235652,2911.162892,6957.935855
1114.802221,-1406.391290,-1378.971896,7550.100608
1114.802551,444.123565,-3907.087040,8956.491898
1114.802880,-1406.391290,1225.752797,8956.491898
1114.803210,-2738.761985,1685.410096,9178.553681
1114.803540,-1332.370696,689.485948,10288.862594
1114.803870,370.102971,3983.696590,10584.944971
1114.804200,296.082377,2451.505594,10066.800811
1114.804530,296.082377,-2528.115143,9252.574275
1114.804860,444.123565,-612.876398,8216.285956
1114.805189,1184.329507,536.266849,7328.038826
1114.805519,2516.700203,-229.828649,8808.450710
1114.805849,2664.741391,153.219100,11695.253884
1114.806179,2442.679609,1838.629195,13397.727550
1114.806509,148.041188,1302.362347,12731.542202
1114.806839,-1554.432478,2528.115143,12065.356855
1114.807169,-888.247130,3294.210641,13323.706956
1114.807498,296.082377,919.314598,14508.036463
1114.807828,-222.061783,612.876398,12953.603985
1114.808158,-518.144159,306.438199,9696.697840
1114.808488,444.123565,-766.095498,7698.141797
1114.808818,1998.556043,76.609550,6957.935855
1114.809148,1924.535449,306.438199,9030.512492
1114.809478,1258.350101,-306.438199,10140.821405
1114.809807,-1110.308913,1915.238745,8364.327145
1114.810137,-3330.926739,4290.134789,7994.224174
1114.810467,-3182.885551,2604.724693,9326.594869
1114.810797,-2368.659014,1685.410096,10066.800811
1114.811127,-2960.823768,2145.067394,8512.368333
1114.811457,-3552.988522,383.047749,6291.750507
1114.811787,-2368.659014,-766.095498,5403.503377
1114.812117,-296.082377,1915.238745,5773.606348
1114.812446,962.267725,76.609550,7179.997637
1114.812776,-296.082377,-1072.533697,8290.306550
1114.813106,-2368.659014,2451.505594,7550.100608
1114.813436,-2960.823768,3983.696590,8364.327145
1114.813766,-1998.556043,1915.238745,10584.944971
1114.814096,-1850.514855,2068.457845,11843.295072
1114.814426,-3034.844362,2145.067394,10288.862594
1114.814755,-2220.617826,-459.657299,8068.244768
1114.815085,-740.205942,-1685.410096,7550.100608
1114.815415,666.185348,689.485948,9548.656652
1114.815745,370.102971,766.095498,12287.418637
1114.816075,-1110.308913,0.000000,12213.398043
1114.816405,-2960.823768,2757.943793,11399.171507
1114.816735,-2886.803174,3294.210641,11547.212695
1114.817064,-1258.350101,1685.410096,12583.501014
1114.817394,-740.205942,995.924147,12287.418637
1114.817724,-1258.350101,0.000000,9622.677246
1114.818054,-888.247130,-1838.629195,8660.409521
1114.818384,74.020594,-1225.752797,9696.697840
1114.818714,1258.350101,-229.828649,11991.336260
1114.819044,1110.308913,0.000000,13915.871710
1114.819373,-1480.411884,1532.190996,12065.356855
1114.819703,-3404.947333,5132.839837,7550.100608
1114.820033,-1924.535449,2221.676944,7031.956449
1114.820363,1258.350101,153.219100,9622.677246
1114.820693,0.000000,1532.190996,10288.862594
1114.821023,-3108.864956,842.705048,6883.915261
1114.821353,-4071.132681,0.000000,4737.318029
1114.821682,-1924.535449,76.609550,4885.359217
1114.822012,962.267725,-1685.410096,6661.853478
1114.822342,1480.411884,-3370.820191,7476.080014
1114.822672,-1332.370696,-536.266849,7254.018232
1114.823002,-3034.844362,2145.067394,7772.162391
1114.823332,-2886.803174,1455.581446,10807.006753
1114.823662,-1924.535449,3447.429741,12213.398043
1114.823991,-2220.617826,2068.457845,11769.274478
1114.824321,-1258.350101,0.000000,8808.450710
1114.824651,370.102971,766.095498,6439.791695
1114.824981,3478.967927,0.000000,6957.935855
1114.825311,4737.318029,-1762.019645,9252.574275
1114.825641,2590.720797,459.657299,10510.924376
1114.825971,0.000000,2068.457845,11029.068536
1114.826300,-740.205942,1685.410096,12361.439231
1114.826630,-1184.329507,2681.334243,13693.809927
1114.826960,-1480.411884,2757.943793,13693.809927
1114.827290,-1998.556043,-229.828649,13693.809927
1114.827620,-1554.432478,-1991.848295,12879.583391
1114.827950,-1036.288319,919.314598,10658.965565
1114.828280,74.020594,1225.752797,9548.656652
1114.828610,1776.494261,-383.047749,9474.636058
1114.828939,1850.514855,1302.362347,10362.883188
1114.829269,962.267725,2374.896044,9474.636058
1114.829599,-444.123565,2834.553343,7846.182985
1114.829929,-592.164754,4519.963438,9104.533087
1114.830259,-814.226536,4979.620737,10288.862594
1114.830589,-2516.700203,1762.019645,10288.862594
1114.830919,-4071.132681,-1225.752797,8438.347739
1114.831248,-3775.050304,689.485948,6735.874072
1114.831578,-2886.803174,459.657299,6217.729913
1114.831908,-1628.453072,-1072.533697,7550.100608
1114.832238,-1258.350101,-919.314598,8808.450710
1114.832568,-2738.761985,1302.362347,6957.935855
1114.832898,-3849.070898,1915.238745,5477.523971
1114.833228,-2664.741391,2374.896044,7179.997637
1114.833557,-1258.350101,4749.792088,9030.512492
1114.833887,-1554.432478,2298.286494,8808.450710
1114.834217,-2220.617826,-306.438199,6439.791695
1114.834547,-1480.411884,995.924147,5773.606348
1114.834877,444.123565,536.266849,9104.533087
1114.835207,740.205942,919.314598,12731.542202
1114.835537,-444.123565,2374.896044,11695.253884
1114.835866,-2368.659014,612.876398,10362.883188
1114.836196,-2368.659014,-383.047749,11769.274478
1114.836526,-2146.597232,2298.286494,14063.912898
1114.836856,-1332.370696,3064.381992,13397.727550
1114.837186,-1258.350101,-536.266849,11991.336260
1114.837516,-1332.370696,-1302.362347,10066.800811
1114.837846,0.000000,0.000000,9030.512492
1114.838175,2886.803174,-2298.286494,10584.944971
1114.838505,3256.906145,-689.485948,12139.377449
1114.838835,592.164754,4213.525239,8586.388927
1114.839165,-1184.329507,1915.238745,7624.121203
1114.839495,-518.144159,0.000000,9918.759623
1114.839825,-814.226536,3524.039291,12583.501014
1114.840155,-3034.844362,3140.991542,13175.665768
1114.840484,-5107.421000,919.314598,10955.047942
1114.840814,-5403.503377,689.485948,8956.491898
1114.841144,-2738.761985,-1608.800546,6809.894666
1114.841474,0.000000,-4979.620737,6069.688724
1114.841804,296.082377,-1915.238745,6809.894666
1114.842134,-962.267725,1225.752797,7402.059420
1114.842464,-1480.411884,459.657299,7105.977043
1114.842794,-1850.514855,2451.505594,7179.997637
1114.843123,-1480.411884,3677.258390,7920.203579
1114.843453,-666.185348,919.314598,8216.285956
1114.843783,148.041188,1455.581446,7550.100608
1114.844113,444.123565,1991.848295,7254.018232
1114.844443,1850.514855,229.828649,7698.141797
1114.844773,1924.535449,-383.047749,8438.347739
1114.845103,888.247130,1225.752797,10732.986159
1114.845432,0.000000,766.095498,12731.542202
1114.845762,-1998.556043,1225.752797,12287.418637
1114.846092,-3256.906145,3370.820191,11103.089130
1114.846422,-2072.576638,842.705048,11177.109724
1114.846752,-148.041188,-1378.971896,12361.439231
1114.847082,-962.267725,1072.533697,11473.192101
1114.847412,-1850.514855,995.924147,9104.533087
1114.847741,-666.185348,-842.705048,7920.203579
1114.848071,1184.329507,1072.533697,9474.636058
1114.848401,2368.659014,2068.457845,11473.192101
1114.848731,1850.514855,995.924147,11177.109724
1114.849061,-296.082377,2068.457845,9622.677246
1114.849391,-1924.535449,4060.306139,10214.842000
1114.849721,-1480.411884,2757.943793,12509.480420
1114.850050,-2146.597232,689.485948,13619.789333
1114.850380,-3182.885551,2451.505594,11399.171507
1114.850710,-3849.070898,689.485948,7550.100608
1114.851040,-1850.514855,-2528.115143,5699.585753
1114.851370,888.247130,-1608.800546,7105.977043
1114.851700,1628.453072,76.609550,7772.162391
1114.852030,74.020594,0.000000,6957.935855
1114.852359,-2812.782580,2221.676944,6365.771101
1114.852689,-3775.050304,4979.620737,6883.915261
1114.853019,-2294.638420,3064.381992,8290.306550
1114.853349,-1258.350101,459.657299,8660.409521
1114.853679,-1924.535449,1532.190996,8438.347739
1114.854009,-3404.947333,842.705048,7179.997637
1114.854339,-3108.864956,-1225.752797,7550.100608
1114.854668,-1184.329507,-459.657299,9030.512492
1114.854998,-444.123565,-766.095498,10362.883188
1114.855328,-1110.308913,-306.438199,11029.068536
1114.855658,-2072.576638,1378.971896,10510.924376
1114.855988,-1184.329507,2374.896044,10140.821405
1114.856318,222.061783,153.219100,11325.150913
1114.856648,-370.102971,536.266849,13175.665768
1114.856978,-740.205942,2221.676944,13397.727550
1114.857307,-814.226536,1608.800546,11103.089130
1114.857637,222.061783,612.876398,8068.244768
1114.857967,1924.535449,0.000000,8068.244768
1114.858297,3256.906145,-1685.410096,9696.697840
1114.858627,2072.576638,-1225.752797,10732.986159
1114.858957,-1184.329507,2068.457845,11991.336260
1114.859287,-3627.009116,4519.963438,11843.295072
1114.859616,-3108.864956,3064.381992,12287.418637
1114.859946,-2072.576638,306.438199,12805.562797
1114.860276,-1850.514855,-1072.533697,10288.862594
1114.860606,-2146.597232,-306.438199,7254.018232
1114.860936,-1702.473667,153.219100,6513.812290
1114.861265,444.123565,0.000000,8734.430116
1114.861595,370.102971,-383.047749,9400.615463
1114.861925,-2516.700203,612.876398,6809.894666
1114.862255,-3775.050304,1225.752797,4885.359217
1114.862584,-1480.411884,1608.800546,5847.626942
1114.862914,370.102971,2374.896044,8364.327145
1114.863244,-962.267725,995.924147,9548.656652
1114.863574,-2812.782580,1455.581446,7994.224174
1114.863903,-3182.885551,2451.505594,6735.874072
1114.864233,-592.164754,536.266849,8068.244768
1114.864563,1036.288319,0.000000,11473.192101
1114.864893,-444.123565,306.438199,11177.109724
1114.865222,-2738.761985,-76.609550,9326.594869
1114.865552,-2442.679609,-536.266849,9844.739029
1114.865882,-1258.350101,2834.553343,11843.295072
1114.866212,-888.247130,3140.991542,11917.315666
1114.866541,-1110.308913,-1378.971896,11177.109724
1114.866871,-740.205942,-612.876398,8956.491898
1114.867201,888.247130,2145.067394,8142.265362
1114.867531,3849.070898,766.095498,9030.512492
1114.867860,4293.194464,536.266849,10955.047942
1114.868190,1332.370696,1762.019645,11695.253884
1114.868520,-1480.411884,2757.943793,11843.295072
1114.868850,-2960.823768,2145.067394,13175.665768
1114.869179,-2516.700203,3217.601092,13841.851115
1114.869509,-3478.967927,3447.429741,13323.706956
1114.869839,-4737.318029,-1608.800546,10955.047942
1114.870169,-3923.091493,-2374.896044,8586.388927
1114.870499,-1480.411884,-1455.581446,6439.791695
1114.870828,740.205942,-536.266849,5477.523971
1114.871158,1702.473667,-306.438199,7105.977043
1114.871488,592.164754,995.924147,7772.162391
1114.871818,-740.205942,2834.553343,7328.038826
1114.872147,-962.267725,2757.943793,6661.853478
1114.872477,-222.061783,3753.867940,8068.244768
1114.872807,0.000000,4213.525239,9696.697840
1114.873137,-1480.411884,995.924147,10658.965565
1114.873466,-2960.823768,-766.095498,8956.491898
1114.873796,-3849.070898,-229.828649,7402.059420
1114.874126,-2294.638420,383.047749,7179.997637
1114.874456,-444.123565,-919.314598,8290.306550
1114.874785,148.041188,-2068.457845,8882.471304
1114.875115,222.061783,536.266849,7846.182985
1114.875445,-444.123565,0.000000,7254.018232
1114.875775,296.082377,1378.971896,11103.089130
1114.876104,-222.061783,4903.011187,13545.768739
1114.876434,-2072.576638,5439.278036,11251.130318
1114.876764,-2072.576638,919.314598,8068.244768
1114.877094,740.205942,-2298.286494,8882.471304
1114.877423,2294.638420,689.485948,10288.862594
1114.877753,296.082377,-536.266849,11917.315666
1114.878083,-2590.720797,-2604.724693,13397.727550
1114.878413,-4219.173869,3064.381992,13619.789333
1114.878742,-4293.194464,3983.696590,12509.480420
1114.879072,-962.267725,-995.924147,12287.418637
1114.879402,-148.041188,-383.047749,11251.130318
1114.879732,-1258.350101,3064.381992,8956.491898
1114.880061,-296.082377,919.314598,7846.182985
1114.880391,1702.473667,-153.219100,8142.265362
1114.880721,1702.473667,3830.477490,8290.306550
1114.881051,222.061783,1685.410096,8068.244768
1114.881380,-1110.308913,-1608.800546,7994.224174
1114.881710,-2590.720797,1072.533697,7920.203579
1114.882040,-3701.029710,2145.067394,8216.285956
1114.882370,-3627.009116,1455.581446,9178.553681
1114.882699,-3034.844362,2068.457845,9992.780217
1114.883029,-3552.988522,995.924147,9252.574275
1114.883359,-4293.194464,-383.047749,6661.853478
1114.883689,-3552.988522,536.266849,6291.750507
1114.884018,-1110.308913,995.924147,7994.224174
1114.884348,0.000000,0.000000,9252.574275
1114.884678,-740.205942,842.705048,8438.347739
1114.885008,-1702.473667,1685.410096,7624.121203
1114.885337,-2146.597232,689.485948,7550.100608
1114.885667,-1406.391290,1072.533697,9918.759623
1114.885997,-518.144159,1685.410096,11843.295072
1114.886327,-814.226536,919.314598,10510.924376
1114.886656,-444.123565,459.657299,7994.224174
1114.886986,1258.350101,-536.266849,8660.409521
1114.887316,3552.988522,0.000000,11399.171507
1114.887646,2812.782580,766.095498,13323.706956
1114.887975,148.041188,1532.190996,12879.583391
1114.888305,-2294.638420,3140.991542,12065.356855
1114.888635,-2664.741391,2451.505594,11843.295072
1114.888965,-1258.350101,1225.752797,12805.562797
1114.889295,-296.082377,0.000000,12065.356855
1114.889624,-444.123565,-306.438199,8660.409521
1114.889954,-666.185348,-919.314598,6217.729913
1114.890284,222.061783,-1225.752797,7179.997637
1114.890614,1776.494261,153.219100,10140.821405
1114.890943,740.205942,919.314598,10732.986159
1114.891273,-1184.329507,2374.896044,9104.533087
1114.891603,-2886.803174,2681.334243,8734.430116
1114.891933,-2664.741391,2068.457845,9548.656652
1114.892262,-1850.514855,1762.019645,10881.027347
1114.892592,-1998.556043,919.314598,11325.150913
1114.892922,-3108.864956,0.000000,8660.409521
1114.893252,-3108.864956,1455.581446,4811.338623
1114.893581,-888.247130,-1302.362347,4441.235652
1114.893911,2590.720797,-2757.943793,6957.935855
1114.894241,1924.535449,-383.047749,8438.347739
1114.894571,0.000000,1378.971896,8438.347739
1114.894900,-1258.350101,919.314598,9844.739029
1114.895230,-3182.885551,4596.572988,10510.924376
1114.895560,-4293.194464,5822.325785,9474.636058
1114.895890,-3256.906145,-306.438199,9992.780217
1114.896219,-1258.350101,-2068.457845,9844.739029
1114.896549,-1332.370696,1991.848295,7920.203579
1114.896879,-1332.370696,-1685.410096,7402.059420
1114.897209,-666.185348,-1915.238745,10807.006753
1114.897538,-1332.370696,1838.629195,13027.624579
1114.897868,-2516.700203,1915.238745,12435.459826
1114.898198,-2442.679609,0.000000,10881.027347
1114.898528,-2442.679609,2681.334243,10510.924376
1114.898857,-1480.411884,3600.648841,11769.274478
1114.899187,-518.144159,-766.095498,12583.501014
1114.899517,-962.267725,-229.828649,10658.965565
1114.899847,-1406.391290,1532.190996,8438.347739
1114.900176,148.041188,919.314598,8734.430116
1114.900506,1332.370696,229.828649,9844.739029
1114.900836,666.185348,919.314598,10658.965565
1114.901166,-518.144159,536.266849,8586.388927
1114.901495,-1554.432478,2911.162892,8068.244768
1114.901825,-962.267725,4366.744339,9474.636058
1114.902155,-1110.308913,2221.676944,10807.006753
1114.902485,-3404.947333,1532.190996,9696.697840
1114.902814,-4811.338623,995.924147,6883.915261
1114.903144,-3256.906145,-689.485948,6439.791695
1114.903474,-296.082377,-919.314598,7031.956449
1114.903804,1036.288319,-459.657299,7624.121203
1114.904133,222.061783,-1991.848295,7698.141797
1114.904463,-2220.617826,0.000000,7105.977043
1114.904793,-2738.761985,3447.429741,7920.203579
1114.905123,-814.226536,3447.429741,10955.047942
1114.905452,888.247130,3447.429741,11399.171507
1114.905782,-518.144159,3294.210641,10510.924376
1114.906112,0.000000,459.657299,7772.162391
1114.906442,1406.391290,-1225.752797,6883.915261
1114.906772,3034.844362,-306.438199,9178.553681
1114.907101,2886.803174,1149.143247,11917.315666
1114.907431,-148.041188,0.000000,12805.562797
1114.907761,-3478.967927,536.266849,12509.480420
1114.908091,-4589.276840,2374.896044,12213.398043
1114.908420,-2516.700203,1991.848295,13249.686362
1114.908750,-1406.391290,1991.848295,13027.624579
1114.909080,-1332.370696,689.485948,11029.068536
1114.909410,-1776.494261,536.266849,8290.306550
1114.909739,-222.061783,-612.876398,7105.977043
1114.910069,1332.370696,229.828649,8438.347739
1114.910399,1480.411884,2528.115143,9474.636058
1114.910729,148.041188,1149.143247,8882.471304
1114.911058,-1406.391290,76.609550,8364.327145
1114.911388,-2812.782580,1455.581446,9622.677246
1114.911718,-3478.967927,2298.286494,12435.459826
1114.912048,-4515.256246,1302.362347,13323.706956
1114.912377,-5625.565159,689.485948,11621.233289
1114.912707,-5255.462188,459.657299,7846.182985
1114.913037,-1998.556043,-1149.143247,5773.606348
1114.913367,1776.494261,-1762.019645,5551.544565
1114.913696,3256.906145,76.609550,6217.729913
1114.914026,1554.432478,689.485948,5995.668130
1114.914356,-592.164754,1532.190996,7550.100608
1114.914686,-2516.700203,4979.620737,9326.594869
1114.915015,-2812.782580,5669.106685,9622.677246
1114.915345,-2146.597232,1608.800546,9474.636058
1114.915675,-962.267725,-919.314598,8364.327145
1114.916005,-1628.453072,-1302.362347,6957.935855
1114.916334,-1554.432478,-3217.601092,7772.162391
1114.916664,-2368.659014,-1532.190996,11843.295072
1114.916994,-3627.009116,2911.162892,13693.809927
1114.917324,-4515.256246,2528.115143,12657.521608
1114.917653,-4071.132681,383.047749,11251.130318
1114.917983,-2960.823768,1991.848295,9696.697840
1114.918313,-1554.432478,3140.991542,10214.842000
1114.918643,-222.061783,229.828649,11251.130318
1114.918972,0.000000,459.657299,10955.047942
1114.919302,-1554.432478,2451.505594,8290.306550
1114.919632,-518.144159,-306.438199,7624.121203
1114.919962,1110.308913,-2451.505594,9918.759623
1114.920291,962.267725,766.095498,12287.418637
1114.920621,-1258.350101,1225.752797,12139.377449
1114.920951,-5107.421000,0.000000,11621.233289
1114.921281,-7031.956449,2145.067394,12435.459826
1114.921610,-6069.688724,4673.182538,12731.542202
1114.921940,-4441.235652,1838.629195,11177.109724
1114.922270,-2516.700203,-612.876398,7254.018232
1114.922600,-962.267725,-995.924147,3552.988522
1114.922929,1850.514855,-2374.896044,2960.823768
1114.923259,2590.720797,-1455.581446,5699.585753
1114.923589,888.247130,2145.067394,8660.409521
1114.923919,-2664.741391,4290.134789,10140.821405
1114.924248,-6883.915261,4749.792088,8808.450710
1114.924578,-8734.430116,2451.505594,9992.780217
1114.924908,-8660.409521,766.095498,11843.295072
1114.925238,-8808.450710,995.924147,12805.562797
1114.925568,-8734.430116,0.000000,9696.697840
1114.925897,-7179.997637,-2757.943793,6143.709319
1114.926227,-4219.173869,-4673.182538,4885.359217
1114.926557,-740.205942,-2451.505594,6069.688724
1114.926887,1110.308913,-1302.362347,7550.100608
1114.927216,2220.617826,1608.800546,9474.636058
1114.927546,666.185348,6741.640382,11251.130318
1114.927876,-2220.617826,6818.249932,11695.253884
1114.928206,-4219.173869,4213.525239,11991.336260
1114.928535,-6809.894666,2987.772442,13249.686362
1114.928865,-7328.038826,1915.238745,15322.262999
1114.929195,-7624.121203,536.266849,13915.871710
1114.929525,-7179.997637,-2374.896044,10510.924376
1114.929854,-6735.874072,-4749.792088,6587.832884
1114.930184,-4589.276840,-4519.963438,6143.709319
1114.930514,-1184.329507,-1685.410096,7105.977043
1114.930844,1480.411884,2757.943793,7698.141797
1114.931173,962.267725,4749.792088,9474.636058
1114.931503,-2442.679609,5286.058936,11621.233289
1114.931833,-7550.100608,6971.469032,12879.583391
1114.932163,-10881.027347,7354.516781,13989.892304
1114.932492,-11325.150913,4213.525239,12509.480420
1114.932822,-10066.800811,-229.828649,10066.800811
1114.933152,-7254.018232,-5056.230287,7624.121203
1114.933482,-5403.503377,-7967.393179,4737.318029
1114.933811,-4145.153275,-8044.002729,3701.029710
1114.934141,-1776.494261,-2987.772442,4589.276840
1114.934471,592.164754,2374.896044,6883.915261
1114.934801,3034.844362,5362.668486,9178.553681
1114.935130,3404.947333,8350.440928,9326.594869
1114.935460,2368.659014,8503.660028,8882.471304
1114.935790,-592.164754,7354.516781,9992.780217
1114.936120,-4663.297435,3830.477490,13693.809927
1114.936449,-8808.450710,3140.991542,14359.995275
1114.936779,-11621.233289,3217.601092,10955.047942
1114.937109,-9474.636058,-4060.306139,4959.379811
1114.937439,-4515.256246,-10572.117872,2886.803174
1114.937768,-740.205942,-10878.556072,4737.318029
1114.938098,0.000000,-5975.544884,6069.688724
1114.938428,-962.267725,0.000000,7920.203579
1114.938758,-962.267725,6894.859482,12435.459826
1114.939087,-1258.350101,12487.356617,14952.160028
1114.939417,-814.226536,9499.584175,15618.345376
1114.939747,-3182.885551,7354.516781,14137.933492
1114.940077,-5255.462188,4749.792088,12583.501014
1114.940406,-7105.977043,-1532.190996,14582.057057
1114.940736,-10510.924376,-4290.134789,14804.118840
1114.941066,-13323.706956,-4519.963438,11695.253884
1114.941396,-10584.944971,-7890.783629,6735.874072
1114.941725,-4145.153275,-10035.851024,4811.338623
1114.942055,2664.741391,-6665.030833,4071.132681
1114.942385,5921.647536,-1378.971896,4441.235652
1114.942715,6365.771101,2451.505594,7254.018232
1114.943045,3404.947333,11414.822920,11695.253884
1114.943374,666.185348,17160.539155,14063.912898
1114.943704,-2368.659014,13176.842566,13767.830521
1114.944034,-4959.379811,8503.660028,12509.480420
1114.944364,-7550.100608,3217.601092,10955.047942
1114.944693,-7402.059420,-3447.429741,9104.533087
1114.945023,-7105.977043,-8350.440928,7402.059420
1114.945353,-8438.347739,-9116.536426,6513.812290
1114.945683,-9696.697840,-8197.221829,5403.503377
1114.946012,-9548.656652,-5056.230287,4367.215058
1114.946342,-5699.585753,-1149.143247,5699.585753
1114.946672,-1924.535449,3217.601092,7328.038826
1114.947002,0.000000,6665.030833,8586.388927
1114.947331,1184.329507,9806.022374,9252.574275
1114.947661,0.000000,8580.269578,11251.130318
1114.947991,-2072.576638,5822.325785,12435.459826
1114.948321,-6217.729913,4749.792088,11695.253884
1114.948650,-9992.780217,1685.410096,10436.903782
1114.948980,-10510.924376,-2451.505594,9992.780217
1114.949310,-9030.512492,-5056.230287,9696.697840
1114.949640,-5921.647536,-6435.202183,8364.327145
1114.949969,-2812.782580,-5515.887586,6439.791695
1114.950299,-740.205942,-3294.210641,5107.421000
1114.950629,888.247130,766.095498,7254.018232
1114.950959,1110.308913,4903.011187,11251.130318
1114.951288,-962.267725,7890.783629,13841.851115
1114.951618,-4219.173869,9806.022374,14582.057057
1114.951948,-6957.935855,7201.297681,13989.892304
1114.952278,-7402.059420,3217.601092,14211.954086
1114.952607,-6513.812290,-995.924147,12731.542202
1114.952937,-5995.668130,-5439.278036,8882.471304
1114.953267,-6291.750507,-7737.564530,5033.400406
1114.953597,-5033.400406,-6741.640382,4737.318029
1114.953926,-2220.617826,-3907.087040,7179.997637
1114.954256,-592.164754,-612.876398,8438.347739
1114.954586,-1480.411884,2298.286494,8808.450710
1114.954916,-3182.885551,6128.763984,9030.512492
1114.955245,-3256.906145,8197.221829,10807.006753
1114.955575,-3330.926739,7048.078582,13397.727550
1114.955905,-4145.153275,4826.401637,13101.645173
1114.956235,-4885.359217,1838.629195,10288.862594
1114.956564,-3552.988522,-2298.286494,7772.162391
1114.956894,-2442.679609,-4136.915689,6883.915261
1114.957224,-888.247130,-4903.011187,7105.977043
1114.957554,-296.082377,-3370.820191,7328.038826
1114.957883,-814.226536,-459.657299,7105.977043
1114.958213,-2072.576638,2757.943793,9178.553681
1114.958543,-3701.029710,4903.011187,11177.109724
1114.958873,-4441.235652,6588.421283,12065.356855
1114.959202,-5181.441594,5745.716235,11843.295072
1114.959532,-5551.544565,4060.306139,10510.924376
1114.959862,-4219.173869,1149.143247,8660.409521
1114.960192,-2368.659014,-1378.971896,7254.018232
1114.960521,-1998.556043,-3600.648841,6735.874072
1114.960851,-2146.597232,-2681.334243,6439.791695
1114.961181,-1998.556043,-995.924147,7031.956449
1114.961511,-1110.308913,536.266849,8142.265362
1114.961841,-2368.659014,2528.115143,9918.759623
1114.962170,-5033.400406,4596.572988,12213.398043
1114.962500,-7402.059420,5362.668486,13545.768739
1114.962830,-8882.471304,5209.449386,14434.015869
1114.963159,-9474.636058,3294.210641,13619.789333
1114.963489,-9400.615463,536.266849,11991.336260
1114.963818,-7179.997637,-2374.896044,9326.594869
1114.964148,-3923.091493,-4290.134789,7179.997637
1114.964478,-740.205942,-4596.572988,6143.709319
1114.964807,1184.329507,-2145.067394,5921.647536
1114.965137,1332.370696,1378.971896,6291.750507
1114.965466,1036.288319,3217.601092,8142.265362
1114.965796,-1036.288319,5439.278036,10732.986159
1114.966126,-3256.906145,8197.221829,11769.274478
1114.966455,-4885.359217,6358.592633,12361.439231
1114.966785,-7179.997637,2834.553343,11991.336260
1114.967114,-9030.512492,0.000000,11843.295072
1114.967444,-9400.615463,-2298.286494,11473.192101
1114.967774,-8882.471304,-4290.134789,9770.718434
1114.968103,-7254.018232,-4596.572988,7254.018232
1114.968433,-5255.462188,-4213.525239,5551.544565
1114.968762,-2146.597232,-2451.505594,5181.441594
1114.969092,296.082377,229.828649,6365.771101
1114.969422,444.123565,2911.162892,7698.141797
1114.969751,-962.267725,5592.497135,9104.533087
1114.970081,-3627.009116,7507.735880,10362.883188
1114.970410,-5847.626942,6128.763984,12139.377449
1114.970740,-7846.182985,2911.162892,12731.542202
1114.971070,-8586.388927,76.609550,11399.171507
1114.971399,-8068.244768,-2681.334243,9844.739029
1114.971729,-6661.853478,-5439.278036,9104.533087
1114.972058,-4367.215058,-5286.058936,8068.244768
1114.972388,-1998.556043,-3294.210641,7105.977043
1114.972718,518.144159,-766.095498,6809.894666
1114.973047,2220.617826,2145.067394,7624.121203
1114.973377,2368.659014,4903.011187,9770.718434
1114.973706,1702.473667,7048.078582,11399.171507
1114.974036,-518.144159,6588.421283,12065.356855
1114.974365,-3849.070898,3600.648841,14063.912898
1114.974695,-6809.894666,2145.067394,15248.242405
1114.975025,-9992.780217,919.314598,13693.809927
1114.975354,-10584.944971,-2145.067394,10658.965565
1114.975684,-8290.306550,-5209.449386,6957.935855
1114.976013,-4293.194464,-6128.763984,5403.503377
1114.976343,-1036.288319,-4443.353888,4959.379811
1114.976673,962.267725,-1532.190996,5551.544565
1114.977002,740.205942,2757.943793,6587.832884
1114.977332,-666.185348,7277.907231,8660.409521
1114.977661,-1702.473667,9499.584175,10807.006753
1114.977991,-3330.926739,8733.488677,12583.501014
1114.978321,-4737.318029,5822.325785,13767.830521
1114.978650,-6365.771101,2374.896044,13693.809927
1114.978980,-7476.080014,153.219100,12065.356855
1114.979309,-7772.162391,-2451.505594,10362.883188
1114.979639,-7031.956449,-3753.867940,8734.430116
1114.979969,-5033.400406,-2681.334243,7105.977043
1114.980298,-2294.638420,-383.047749,5477.523971
1114.980628,592.164754,1225.752797,5033.400406
1114.980957,2294.638420,3677.258390,5847.626942
1114.981287,1554.432478,6511.811733,7402.059420
1114.981617,74.020594,7890.783629,9030.512492
1114.981946,-2072.576638,7507.735880,10436.903782
1114.982276,-4293.194464,6128.763984,11547.212695
1114.982605,-5551.544565,3064.381992,11621.233289
1114.982935,-6143.709319,1302.362347,10807.006753
1114.983265,-5847.626942,-1225.752797,9252.574275
1114.983594,-4663.297435,-2604.724693,8216.285956
1114.983924,-3256.906145,-1838.629195,8068.244768
1114.984253,-2442.679609,842.705048,8068.244768
1114.984583,-2368.659014,2834.553343,8734.430116
1114.984913,-2294.638420,4749.792088,9474.636058
1114.985242,-1998.556043,6894.859482,10732.986159
1114.985572,-1702.473667,7354.516781,11621.233289
1114.985901,-1924.535449,5592.497135,11843.295072
1114.986231,-1850.514855,4596.572988,11917.315666
1114.986561,-1406.391290,2604.724693,10584.944971
1114.986890,-592.164754,1378.971896,9622.677246
1114.987220,-666.185348,1149.143247,8956.491898
1114.987549,-518.144159,1455.581446,9104.533087
1114.987879,148.041188,2911.162892,9474.636058
1114.988209,444.123565,5132.839837,9992.780217
1114.988538,-740.205942,7354.516781,10732.986159
1114.988868,-1406.391290,7737.564530,10288.862594
1114.989197,-2146.597232,7048.078582,9770.718434
1114.989527,-2368.659014,5975.544884,8734.430116
1114.989857,-2368.659014,4290.134789,7772.162391
1114.990186,-1924.535449,1915.238745,6587.832884
1114.990516,-1110.308913,766.095498,5699.585753
1114.990845,-1406.391290,0.000000,6217.729913
1114.991175,-2146.597232,1149.143247,7031.956449
1114.991505,-2368.659014,2757.943793,7994.224174
1114.991834,-2590.720797,4903.011187,9326.594869
1114.992164,-2442.679609,6971.469032,10510.924376
1114.992493,-2368.659014,7277.907231,11177.109724
1114.992823,-1554.432478,6665.030833,10658.965565
1114.993152,-518.144159,5286.058936,10066.800811
1114.993482,-592.164754,4903.011187,10288.862594
1114.993812,-962.267725,4136.915689,9770.718434
1114.994141,-888.247130,2451.505594,9178.553681
1114.994471,-740.205942,1532.190996,8512.368333
1114.994800,0.000000,1991.848295,8734.430116
1114.995130,370.102971,2221.676944,9400.615463
1114.995460,592.164754,2221.676944,9992.780217
1114.995789,-518.144159,3830.477490,10658.965565
1114.996119,-1850.514855,5132.839837,10955.047942
1114.996448,-1924.535449,5822.325785,11917.315666
1114.996778,-1332.370696,5745.716235,12287.418637
1114.997108,-962.267725,5362.668486,11991.336260
1114.997437,-1332.370696,4443.353888,11103.089130
1114.997767,-814.226536,3753.867940,10214.842000
1114.998096,-666.185348,3983.696590,9770.718434
1114.998426,-592.164754,4443.353888,9252.574275
1114.998756,-444.123565,4749.792088,8216.285956
1114.999085,0.000000,3447.429741,6735.874072
1114.999415,74.020594,2528.115143,6143.709319
1114.999744,0.000000,1532.190996,6661.853478
1115.000074,-814.226536,1762.019645,7994.224174
1115.000404,-2368.659014,2834.553343,8734.430116
1115.000733,-3404.947333,3907.087040,9548.656652
1115.001063,-2738.761985,4213.525239,10732.986159
1115.001392,-1924.535449,4596.572988,11325.150913
1115.001722,-1332.370696,5362.668486,10807.006753
1115.002052,-222.061783,6205.373534,9844.739029
1115.002381,74.020594,6128.763984,9622.677246
1115.002711,444.123565,6052.154434,9400.615463
1115.003040,0.000000,6205.373534,8882.471304
1115.003370,-1110.308913,5439.278036,7920.203579
1115.003700,-1480.411884,4213.525239,6661.853478
1115.004029,-1776.494261,1838.629195,5921.647536
1115.004359,-1776.494261,383.047749,6069.688724
1115.004688,-1850.514855,-612.876398,6587.832884
1115.005018,-2368.659014,-1149.143247,8364.327145
1115.005348,-2442.679609,842.705048,10436.903782
1115.005677,-2368.659014,3370.820191,11473.192101
1115.006007,-2146.597232,4749.792088,12953.603985
1115.006336,-814.226536,5745.716235,13841.851115
1115.006666,-222.061783,6358.592633,14063.912898
1115.006996,-296.082377,7354.516781,12879.583391
1115.007325,74.020594,6665.030833,11399.171507
1115.007655,444.123565,4749.792088,10140.821405
1115.007984,370.102971,3677.258390,9326.594869
1115.008314,-592.164754,2451.505594,8586.388927
1115.008644,-1480.411884,2528.115143,8142.265362
1115.008973,-1702.473667,1838.629195,7624.121203
1115.009303,-1406.391290,1149.143247,7698.141797
1115.009632,-814.226536,1685.410096,8068.244768
1115.009962,0.000000,2068.457845,8808.450710
1115.010291,0.000000,2604.724693,9696.697840
1115.010621,-814.226536,4443.353888,10510.924376
1115.010951,-1554.432478,6588.421283,11399.171507
1115.011280,-1628.453072,6741.640382,12287.418637
1115.011610,-1406.391290,6588.421283,12805.562797
1115.011939,-2442.679609,6894.859482,11843.295072
1115.012269,-3404.947333,6511.811733,9770.718434
1115.012599,-2812.782580,5286.058936,6735.874072
1115.012928,-370.102971,3140.991542,4293.194464
1115.013258,1924.535449,1838.629195,3552.988522
1115.013587,3108.864956,1915.238745,4071.132681
1115.013917,2294.638420,2834.553343,5181.441594
1115.014247,296.082377,4826.401637,6661.853478
1115.014576,-2368.659014,5056.230287,8734.430116
1115.014906,-4293.194464,5362.668486,12139.377449
1115.015235,-4737.318029,6205.373534,15026.180623
1115.015565,-5699.585753,6128.763984,15174.221811
1115.015895,-5921.647536,4749.792088,13323.706956
1115.016224,-5033.400406,2834.553343,10140.821405
1115.016554,-2294.638420,1838.629195,9104.533087
1115.016883,888.247130,1455.581446,7994.224174
1115.017213,3182.885551,2681.334243,6513.812290
1115.017543,4589.276840,3983.696590,4811.338623
1115.017872,5477.523971,3370.820191,5403.503377
1115.018202,3627.009116,5209.449386,8660.409521
1115.018531,296.082377,7507.735880,12213.398043
1115.018861,-3627.009116,9039.926876,13989.892304
1115.019191,-5181.441594,7890.783629,14137.933492
1115.019520,-4737.318029,5056.230287,13397.727550
1115.019850,-2960.823768,1915.238745,11917.315666
1115.020179,-1110.308913,-1378.971896,9178.553681
1115.020509,-814.226536,-919.314598,6439.791695
1115.020839,-740.205942,536.266849,6217.729913
1115.021168,-888.247130,2911.162892,8068.244768
1115.021498,-1036.288319,5362.668486,8808.450710
1115.021827,-888.247130,5286.058936,7550.100608
1115.022157,0.000000,4060.306139,6735.874072
1115.022487,666.185348,2757.943793,8438.347739
1115.022816,-296.082377,3370.820191,10658.965565
1115.023146,-2516.700203,4826.401637,12879.583391
1115.023475,-3923.091493,6128.763984,14211.954086
1115.023805,-3627.009116,6971.469032,14063.912898
1115.024135,-3034.844362,6205.373534,11177.109724
1115.024464,-1332.370696,3217.601092,6957.935855
1115.024794,1406.391290,-766.095498,4145.153275
1115.025123,2812.782580,-1225.752797,3849.070898
1115.025453,2368.659014,2221.676944,5329.482782
1115.025783,962.267725,3830.477490,6513.812290
1115.026112,0.000000,4136.915689,8438.347739
1115.026442,-1702.473667,4443.353888,11029.068536
1115.026771,-3034.844362,4826.401637,12805.562797
1115.027101,-2886.803174,5515.887586,12731.542202
1115.027431,-1850.514855,3370.820191,12361.439231
1115.027760,-1110.308913,2374.896044,12361.439231
1115.028090,-1776.494261,2987.772442,12287.418637
1115.028419,-2220.617826,2451.505594,11621.233289
1115.028749,-1924.535449,5132.839837,10288.862594
1115.029078,-1628.453072,7277.907231,8068.244768
1115.029408,222.061783,5056.230287,6069.688724
1115.029738,2886.803174,1455.581446,5329.482782
1115.030067,3997.112087,459.657299,5921.647536
1115.030397,1850.514855,3524.039291,7105.977043
1115.030726,-1036.288319,5362.668486,9992.780217
1115.031056,-2516.700203,6435.202183,13027.624579
1115.031386,-3997.112087,7201.297681,14359.995275
1115.031715,-4515.256246,6588.421283,14063.912898
1115.032045,-2664.741391,5975.544884,12583.501014
1115.032374,-1628.453072,4060.306139,11399.171507
1115.032704,-2072.576638,2757.943793,8882.471304
1115.033034,-3256.906145,2451.505594,7105.977043
1115.033363,-2886.803174,2451.505594,6143.709319
1115.033693,-1702.473667,3370.820191,5773.606348
1115.034022,444.123565,4903.011187,4885.359217
1115.034352,2072.576638,4749.792088,4367.215058
1115.034682,2886.803174,4979.620737,4959.379811
1115.035011,2368.659014,5669.106685,7402.059420
1115.035341,1036.288319,7124.688131,10140.821405
1115.035670,-1480.411884,8273.831378,12583.501014
1115.036000,-3330.926739,8350.440928,13767.830521
1115.036330,-3404.947333,6205.373534,14137.933492
1115.036659,-3478.967927,3907.087040,12731.542202
1115.036989,-4145.153275,3064.381992,9696.697840
1115.037318,-3330.926739,1302.362347,7402.059420
1115.037648,-2886.803174,-995.924147,5551.544565
1115.037978,-1924.535449,-919.314598,4737.318029
1115.038307,666.185348,-383.047749,5033.400406
1115.038637,2812.782580,1302.362347,5921.647536
1115.038966,3034.844362,4366.744339,6217.729913
1115.039296,2590.720797,4826.401637,9178.553681
1115.039626,2368.659014,4979.620737,13619.789333
1115.039955,1184.329507,7431.126331,17172.777854
1115.040285,-1480.411884,9882.631924,18135.045579
1115.040614,-3108.864956,7277.907231,16580.613101
1115.040944,-3627.009116,2911.162892,14211.954086
1115.041274,-3849.070898,536.266849,11103.089130
1115.041603,-2442.679609,-1302.362347,8364.327145
1115.041933,0.000000,-1455.581446,6439.791695
1115.042262,1776.494261,-306.438199,5403.503377
1115.042592,2146.597232,383.047749,3849.070898
1115.042922,1628.453072,1532.190996,3701.029710
1115.043251,1850.514855,2298.286494,5551.544565
1115.043581,1628.453072,3830.477490,9770.718434
1115.043910,0.000000,6128.763984,13989.892304
1115.044240,-3552.988522,8886.707777,15840.407159
1115.044570,-5625.565159,6511.811733,14878.139434
1115.044899,-6513.812290,3370.820191,13323.706956
1115.045229,-6291.750507,2221.676944,10881.027347
1115.045558,-4515.256246,1302.362347,8364.327145
1115.045888,-1850.514855,-383.047749,4663.297435
1115.046217,-222.061783,-689.485948,2368.659014
1115.046547,1628.453072,-1685.410096,1554.432478
1115.046877,3034.844362,536.266849,1850.514855
1115.047206,2886.803174,3140.991542,4663.297435
1115.047536,814.226536,5056.230287,8586.388927
1115.047865,-2294.638420,7660.954980,12287.418637
1115.048195,-4515.256246,8580.269578,13989.892304
1115.048525,-4515.256246,5592.497135,13619.789333
1115.048854,-2886.803174,1149.143247,13101.645173
1115.049184,-1850.514855,-842.705048,10732.986159
1115.049513,-1258.350101,-2451.505594,7328.038826
1115.049843,-296.082377,-3907.087040,5477.523971
1115.050173,666.185348,-1915.238745,5477.523971
1115.050502,2220.617826,-153.219100,7698.141797
1115.050832,3034.844362,995.924147,10140.821405
1115.051161,2516.700203,3830.477490,11029.068536
1115.051491,0.000000,5209.449386,11621.233289
1115.051821,-740.205942,3677.258390,12731.542202
1115.052150,-1332.370696,2374.896044,15396.283594
1115.052480,-2220.617826,3294.210641,17542.880825
1115.052809,-2812.782580,3983.696590,16136.489536
1115.053139,-2442.679609,2528.115143,11251.130318
1115.053469,222.061783,-2451.505594,7698.141797
1115.053798,2294.638420,-4903.011187,7179.997637
1115.054128,1702.473667,-1838.629195,8512.368333
1115.054457,-740.205942,2604.724693,6883.915261
1115.054787,-2738.761985,2528.115143,5329.482782
1115.055117,-2294.638420,153.219100,6957.935855
1115.055446,-1776.494261,459.657299,9400.615463
1115.055776,-2294.638420,76.609550,10436.903782
1115.056105,-2368.659014,1991.848295,9474.636058
1115.056435,-1850.514855,995.924147,8956.491898
1115.056765,-222.061783,842.705048,9474.636058
1115.057094,-222.061783,689.485948,10436.903782
1115.057424,-666.185348,766.095498,10881.027347
1115.057753,-1406.391290,2528.115143,9252.574275
1115.058083,-2072.576638,4136.915689,7550.100608
1115.058413,-1480.411884,2298.286494,6883.915261
1115.058742,-1110.308913,-1532.190996,6809.894666
1115.059072,-1258.350101,-3447.429741,7031.956449
1115.059401,-1702.473667,-1685.410096,6291.750507
1115.059731,-1480.411884,-536.266849,5921.647536
1115.060061,0.000000,-1915.238745,6957.935855
1115.060390,518.144159,-3217.601092,9918.759623
1115.060720,-148.041188,-1072.533697,14359.995275
1115.061049,-1702.473667,4213.525239,14359.995275
1115.061379,-2368.659014,6128.763984,12583.501014
1115.061709,296.082377,1991.848295,10955.047942
1115.062038,1110.308913,229.828649,11177.109724
1115.062368,1406.391290,-842.705048,11325.150913
1115.062697,1332.370696,153.219100,9104.533087
1115.063027,1332.370696,536.266849,7179.997637
1115.063357,1628.453072,-1685.410096,7476.080014
1115.063686,1406.391290,-2221.676944,10955.047942
1115.064016,-1332.370696,-995.924147,13545.768739
1115.064345,-3701.029710,2834.553343,13101.645173
1115.064675,-4959.379811,4826.401637,12361.439231
1115.065005,-4145.153275,2987.772442,12287.418637
1115.065334,-2886.803174,2145.067394,13101.645173
1115.065664,-2368.659014,689.485948,11325.150913
1115.065993,-1480.411884,919.314598,6735.874072
1115.066323,-888.247130,766.095498,4293.194464
1115.066653,222.061783,-229.828649,4737.318029
1115.066982,222.061783,1072.533697,6513.812290
1115.067312,-444.123565,919.314598,8142.265362
1115.067641,-740.205942,2298.286494,7698.141797
1115.067971,-1628.453072,3907.087040,7846.182985
1115.068301,-1110.308913,2681.334243,8956.491898
1115.068630,-592.164754,1378.971896,9696.697840
1115.068960,-592.164754,995.924147,10881.027347
1115.069289,-518.144159,3294.210641,8734.430116
1115.069619,-518.144159,2528.115143,7254.018232
1115.069949,740.205942,0.000000,7328.038826
1115.070278,370.102971,689.485948,8660.409521
1115.070608,148.041188,919.314598,9030.512492
1115.070938,-518.144159,1915.238745,7105.977043
1115.071267,-740.205942,76.609550,7254.018232
1115.071597,-444.123565,-1225.752797,9770.718434
1115.071926,-1184.329507,612.876398,11843.295072
1115.072256,-2368.659014,-689.485948,12435.459826
1115.072586,-1924.535449,842.705048,10436.903782
1115.072915,-592.164754,0.000000,10955.047942
1115.073245,592.164754,-459.657299,13397.727550
1115.073574,0.000000,689.485948,14359.995275
1115.073904,-1036.288319,612.876398,13101.645173
1115.074234,-1480.411884,2604.724693,10881.027347
1115.074563,-1406.391290,2221.676944,9474.636058
1115.074893,-666.185348,-612.876398,9918.759623
1115.075222,-222.061783,-1762.019645,10436.903782
1115.075552,-1258.350101,-1072.533697,8808.450710
1115.075882,-1850.514855,1532.190996,6883.915261
1115.076211,-814.226536,153.219100,7105.977043
1115.076541,222.061783,-2757.943793,8808.450710
1115.076870,-444.123565,-1072.533697,10584.944971
1115.077200,-2590.720797,766.095498,11029.068536
1115.077530,-3478.967927,3294.210641,9474.636058
1115.077859,-3108.864956,1915.238745,9252.574275
1115.078189,-1998.556043,229.828649,10584.944971
1115.078519,-1924.535449,1225.752797,10658.965565
1115.078848,-2516.700203,383.047749,7846.182985
1115.079178,-1924.535449,459.657299,4219.173869
1115.079507,814.226536,-919.314598,3923.091493
1115.079837,2516.700203,-2221.676944,6143.709319
1115.080167,2146.597232,0.000000,9622.677246
1115.080496,370.102971,1072.533697,10214.842000
1115.080826,-2368.659014,2911.162892,9400.615463
1115.081155,-3330.926739,3217.601092,10584.944971
1115.081485,-2368.659014,1915.238745,12435.459826
1115.081815,-740.205942,766.095498,12879.583391
1115.082144,0.000000,-536.266849,10362.883188
1115.082474,148.041188,612.876398,6661.853478
1115.082803,1480.411884,-919.314598,7031.956449
1115.083133,1702.473667,-2145.067394,9252.574275
1115.083463,1036.288319,766.095498,11843.295072
1115.083792,-814.226536,3064.381992,12583.501014
1115.084122,-2220.617826,4903.011187,11399.171507
1115.084451,-2072.576638,2681.334243,10881.027347
1115.084781,-1332.370696,-229.828649,11991.336260
1115.085111,-814.226536,0.000000,13323.706956
1115.085440,-1628.453072,2221.676944,11917.315666
1115.085770,-1850.514855,3370.820191,8660.409521
1115.086099,-1110.308913,-306.438199,7920.203579
1115.086429,-518.144159,-2145.067394,9474.636058
1115.086759,-1184.329507,0.000000,10510.924376
1115.087088,-2072.576638,2298.286494,9992.780217
1115.087418,-2368.659014,3983.696590,7772.162391
1115.087748,-2146.597232,2068.457845,6365.771101
1115.088077,-666.185348,-1225.752797,5995.668130
1115.088407,148.041188,-2681.334243,8216.285956
1115.088736,-444.123565,306.438199,8364.327145
1115.089066,-962.267725,4596.572988,7476.080014
1115.089396,-370.102971,2068.457845,6291.750507
1115.089725,444.123565,-1838.629195,8068.244768
1115.090055,518.144159,-1302.362347,10955.047942
1115.090384,-1332.370696,1532.190996,10066.800811
1115.090714,-2738.761985,2987.772442,8586.388927
1115.091044,-2442.679609,536.266849,8734.430116
1115.091373,-1480.411884,-766.095498,10214.842000
1115.091703,-962.267725,-1455.581446,11399.171507
1115.092032,-1332.370696,229.828649,9474.636058
1115.092362,-1110.308913,1838.629195,7328.038826
1115.092692,296.082377,-306.438199,8290.306550
1115.093021,666.185348,-766.095498,10955.047942
1115.093351,-518.144159,0.000000,12583.501014
1115.093680,-2072.576638,1838.629195,11843.295072
1115.094010,-1998.556043,3140.991542,11325.150913
1115.094340,-1554.432478,1455.581446,11695.253884
1115.094669,-1480.411884,-842.705048,12287.418637
1115.094999,-1554.432478,-1532.190996,12287.418637
1115.095328,-1776.494261,153.219100,9548.656652
1115.095658,-1036.288319,842.705048,7698.141797
1115.095988,1258.350101,-76.609550,9252.574275
1115.096317,1702.473667,153.219100,10881.027347
1115.096647,-296.082377,612.876398,10362.883188
1115.096977,-1924.535449,2221.676944,8660.409521
1115.097306,-1924.535449,3294.210641,9696.697840
1115.097636,-1924.535449,2681.334243,10807.006753
1115.097965,-2294.638420,2528.115143,10584.944971
1115.098295,-2220.617826,-383.047749,8068.244768
1115.098625,-666.185348,-1915.238745,5625.565159
1115.098954,0.000000,153.219100,5995.668130
1115.099284,370.102971,842.705048,7179.997637
1115.099613,0.000000,-229.828649,8438.347739
1115.099943,-1184.329507,229.828649,9030.512492
1115.100273,-1702.473667,3064.381992,8586.388927
1115.100602,-1554.432478,3753.867940,9326.594869
1115.100932,-1258.350101,1302.362347,9030.512492
1115.101261,-740.205942,76.609550,9474.636058
1115.101591,-592.164754,-536.266849,9918.759623
1115.101921,-296.082377,1685.410096,8660.409521
1115.102250,74.020594,1455.581446,7402.059420
1115.102580,666.185348,-612.876398,8882.471304
1115.102909,0.000000,306.438199,11399.171507
1115.103239,-1554.432478,2681.334243,12583.501014
1115.103569,-2294.638420,4136.915689,10658.965565
1115.103898,-1776.494261,1532.190996,9474.636058
1115.104228,-1776.494261,-1149.143247,10214.842000
1115.104557,-1702.473667,0.000000,11991.336260
1115.104887,-2072.576638,0.000000,11917.315666
1115.105217,-2072.576638,1149.143247,9326.594869
1115.105546,-1480.411884,1302.362347,9030.512492
1115.105876,-592.164754,229.828649,11029.068536
1115.106206,-444.123565,689.485948,12879.583391
1115.106535,-1924.535449,1991.848295,11991.336260
1115.106865,-2812.782580,3677.258390,8882.471304
1115.107194,-2294.638420,2757.943793,8438.347739
1115.107524,-1332.370696,76.609550,9326.594869
1115.107854,-962.267725,-153.219100,9992.780217
1115.108183,-1332.370696,-306.438199,8364.327145
1115.108513,-1110.308913,1838.629195,6291.750507
1115.108842,0.000000,1072.533697,6069.688724
1115.109172,1480.411884,-1608.800546,8216.285956
1115.109502,888.247130,229.828649,9992.780217
1115.109831,-1110.308913,2757.943793,9474.636058
1115.110161,-2368.659014,4213.525239,7994.224174
1115.110490,-2368.659014,1838.629195,7476.080014
1115.110820,-1036.288319,-612.876398,8734.430116
1115.111150,-444.123565,-459.657299,10066.800811
1115.111479,-1332.370696,0.000000,8660.409521
1115.111809,-1036.288319,1302.362347,6365.771101
1115.112138,148.041188,-306.438199,7328.038826
1115.112468,1332.370696,-1149.143247,9992.780217
1115.112798,0.000000,2145.067394,12287.418637
1115.113127,-1480.411884,3217.601092,11843.295072
1115.113457,-2294.638420,3753.867940,11029.068536
1115.113786,-2294.638420,2068.457845,10955.047942
1115.114116,-1702.473667,536.266849,12657.521608
1115.114446,-1258.350101,0.000000,12435.459826
1115.114775,-1776.494261,-995.924147,10436.903782
1115.115105,-1628.453072,919.314598,8216.285956
1115.115435,-814.226536,0.000000,8660.409521
1115.115764,222.061783,-1685.410096,9918.759623
1115.116094,148.041188,306.438199,11399.171507
1115.116423,-1258.350101,2528.115143,10881.027347
1115.116753,-1998.556043,5286.058936,9622.677246
1115.117083,-2072.576638,3753.867940,9474.636058
1115.117412,-740.205942,0.000000,9326.594869
1115.117742,-592.164754,-1685.410096,9178.553681
1115.118071,-1776.494261,-612.876398,8290.306550
1115.118401,-1776.494261,2451.505594,7698.141797
1115.118731,-1258.350101,1149.143247,7179.997637
1115.119060,-814.226536,-995.924147,8512.368333
1115.119390,-444.123565,459.657299,9992.780217
1115.119719,-1554.432478,2834.553343,9992.780217
1115.120049,-2516.700203,4136.915689,8216.285956
1115.120379,-1924.535449,1762.019645,7772.162391
1115.120708,-888.247130,0.000000,8882.471304
1115.121038,-740.205942,-383.047749,9770.718434
1115.121367,-1036.288319,612.876398,8734.430116
1115.121697,-814.226536,2451.505594,7624.121203
1115.122027,0.000000,995.924147,8290.306550
1115.122356,814.226536,0.000000,9992.780217
1115.122686,148.041188,689.485948,11399.171507
1115.123015,-962.267725,1838.629195,10436.903782
1115.123345,-1332.370696,3370.820191,10510.924376
1115.123675,-1776.494261,3217.601092,10881.027347
1115.124004,-1332.370696,1225.752797,10214.842000
1115.124334,-518.144159,-1072.533697,10807.006753
1115.124664,148.041188,459.657299,10584.944971
1115.124993,-296.082377,3600.648841,9104.533087
1115.125323,-444.123565,1991.848295,9178.553681
1115.125652,296.082377,0.000000,10362.883188
1115.125982,-370.102971,1149.143247,11843.295072
1115.126312,-2220.617826,3600.648841,11695.253884
1115.126641,-3330.926739,5362.668486,9474.636058
1115.126971,-2738.761985,2068.457845,8808.450710
1115.127300,-2146.597232,-612.876398,8882.471304
1115.127630,-2146.597232,-842.705048,9844.739029
1115.127960,-1998.556043,689.485948,8364.327145
1115.128289,-1258.350101,1762.019645,6587.832884
1115.128619,0.000000,-536.266849,6883.915261
1115.128948,0.000000,0.000000,8808.450710
1115.129278,-888.247130,1149.143247,10510.924376
1115.129608,-1776.494261,3140.991542,9696.697840
1115.129937,-2072.576638,4366.744339,8068.244768
1115.130267,-1406.391290,1991.848295,8734.430116
1115.130596,-666.185348,383.047749,9770.718434
1115.130926,-740.205942,-842.705048,8734.430116
1115.131256,-1110.308913,-1991.848295,6513.812290
1115.131585,-814.226536,-1608.800546,6587.832884
1115.131915,-296.082377,-689.485948,9622.677246
1115.132244,-444.123565,689.485948,11843.295072
1115.132574,-1628.453072,1225.752797,12139.377449
1115.132904,-2072.576638,2681.334243,11251.130318
1115.133233,-1036.288319,3753.867940,10584.944971
1115.133563,-370.102971,1455.581446,11621.233289
1115.133893,0.000000,0.000000,11399.171507
1115.134222,-740.205942,-153.219100,11177.109724
1115.134552,-888.247130,919.314598,8956.491898
1115.134881,-740.205942,1455.581446,8808.450710
1115.135211,518.144159,-153.219100,9918.759623
1115.135541,0.000000,229.828649,11325.150913
1115.135870,-962.267725,919.314598,11695.253884
1115.136200,-2368.659014,2604.724693,10584.944971
1115.136529,-2738.761985,3600.648841,9770.718434
1115.136859,-2368.659014,1915.238745,10214.842000
1115.137189,-1850.514855,919.314598,9992.780217
1115.137518,-2072.576638,1455.581446,9400.615463
1115.137848,-1480.411884,2374.896044,6957.935855
1115.138177,-888.247130,995.924147,5477.523971
1115.138507,-296.082377,-1225.752797,6883.915261
1115.138837,-888.247130,153.219100,8956.491898
1115.139166,-2072.576638,2298.286494,10214.842000
1115.139496,-3182.885551,4136.915689,8364.327145
1115.139825,-2812.782580,2757.943793,7698.141797
1115.140155,-1776.494261,153.219100,8290.306550
1115.140485,-814.226536,383.047749,9252.574275
1115.140814,-518.144159,306.438199,9030.512492
1115.141144,-444.123565,1915.238745,7105.977043
1115.141473,444.123565,1378.971896,7179.997637
1115.141803,1554.432478,0.000000,9548.656652
1115.142133,814.226536,766.095498,11251.130318
1115.142462,-814.226536,1455.581446,11103.089130
1115.142792,-1184.329507,3140.991542,10362.883188
1115.143122,-1110.308913,2221.676944,10288.862594
1115.143451,-148.041188,-306.438199,10732.986159
1115.143781,0.000000,-689.485948,11843.295072
1115.144110,0.000000,306.438199,11473.192101
1115.144440,-1332.370696,3140.991542,9104.533087
1115.144770,-888.247130,995.924147,8734.430116
1115.145099,-148.041188,-2221.676944,11029.068536
1115.145429,-1184.329507,76.609550,13545.768739
1115.145758,-3034.844362,3370.820191,13545.768739
1115.146088,-3701.029710,4673.182538,9992.780217
1115.146418,-3404.947333,306.438199,7920.203579
1115.146747,-2072.576638,-2528.115143,9548.656652
1115.147077,-1702.473667,-1225.752797,11547.212695
1115.147406,-2886.803174,1608.800546,9844.739029
1115.147736,-1998.556043,3217.601092,6069.688724
1115.148066,-222.061783,153.219100,5329.482782
1115.148395,1628.453072,-2068.457845,8364.327145
1115.148725,518.144159,459.657299,10732.986159
1115.149054,-1480.411884,3524.039291,10214.842000
1115.149384,-2664.741391,5056.230287,7846.182985
1115.149714,-1702.473667,2451.505594,8438.347739
1115.150043,-666.185348,-612.876398,9400.615463
1115.150373,-888.247130,-2451.505594,9622.677246
1115.150702,-1258.350101,-1225.752797,7476.080014
1115.151032,-1332.370696,1532.190996,5921.647536
1115.151362,-444.123565,536.266849,6957.935855
1115.151691,0.000000,-2451.505594,8512.368333
1115.152021,-518.144159,-2145.067394,10584.944971
1115.152351,-1184.329507,1608.800546,11547.212695
1115.152680,-1924.535449,5592.497135,10362.883188
1115.153010,-1332.370696,3677.258390,9992.780217
1115.153339,222.061783,-689.485948,10510.924376
1115.153669,296.082377,-2068.457845,11695.253884
1115.153999,148.041188,76.609550,11325.150913
1115.154328,-148.041188,3140.991542,10140.821405
1115.154658,-296.082377,1149.143247,9770.718434
1115.154987,-518.144159,-612.876398,11769.274478
1115.155317,-1480.411884,-536.266849,13471.748144
1115.155647,-2368.659014,1685.410096,12583.501014
1115.155976,-2590.720797,3753.867940,10510.924376
1115.156306,-2442.679609,2604.724693,9104.533087
1115.156635,-1332.370696,612.876398,9326.594869
1115.156965,0.000000,-1149.143247,9770.718434
1115.157295,444.123565,1302.362347,8364.327145
1115.157624,0.000000,4826.401637,6143.709319
1115.157954,74.020594,3370.820191,6957.935855
1115.158283,0.000000,842.705048,8660.409521
1115.158613,-1702.473667,1608.800546,9622.677246
1115.158943,-3182.885551,2298.286494,8882.471304
1115.159272,-3701.029710,3294.210641,8068.244768
1115.159602,-4071.132681,1302.362347,7846.182985
1115.159931,-3034.844362,-1149.143247,8068.244768
1115.160261,-2146.597232,-3140.991542,8512.368333
1115.160593,-1406.391290,-842.705048,7105.977043
1115.160922,-370.102971,1991.848295,6883.915261
1115.161252,592.164754,919.314598,7624.121203
1115.161581,1332.370696,536.266849,9178.553681
1115.161911,740.205942,1149.143247,11325.150913
1115.162240,0.000000,2911.162892,11695.253884
1115.162570,-666.185348,4443.353888,10881.027347
1115.162899,-444.123565,1302.362347,11029.068536
1115.163229,-148.041188,-1149.143247,11769.274478
1115.163559,-296.082377,-2145.067394,11325.150913
1115.163888,-444.123565,-842.705048,9844.739029
1115.164218,0.000000,229.828649,8882.471304
1115.164547,518.144159,-612.876398,10288.862594
1115.164877,222.061783,-306.438199,11695.253884
1115.165206,-814.226536,306.438199,12065.356855
1115.165536,-1628.453072,2145.067394,10510.924376
1115.165865,-2368.659014,2757.943793,9474.636058
1115.166195,-2146.597232,536.266849,10584.944971
1115.166524,-2072.576638,0.000000,12065.356855
1115.166854,-3256.906145,-153.219100,10807.006753
1115.167184,-3404.947333,536.266849,8068.244768
1115.167513,-2072.576638,229.828649,7179.997637
1115.167843,-666.185348,-1225.752797,8068.244768
1115.168172,-592.164754,0.000000,9992.780217
1115.168502,-1628.453072,995.924147,10362.883188
1115.168831,-1702.473667,3907.087040,8142.265362
1115.169161,-2146.597232,3217.601092,7254.018232
1115.169490,-888.247130,459.657299,8364.327145
1115.169820,-148.041188,306.438199,9474.636058
1115.170149,-740.205942,689.485948,8660.409521
1115.170479,-740.205942,1915.238745,5847.626942
1115.170809,0.000000,1072.533697,5477.523971
1115.171138,1480.411884,-995.924147,7698.141797
1115.171468,1184.329507,536.266849,10214.842000
1115.171797,-814.226536,2068.457845,9622.677246
1115.172127,-1924.535449,3064.381992,7476.080014
1115.172456,-1184.329507,1685.410096,8068.244768
1115.172786,-518.144159,-383.047749,9622.677246
1115.173115,-962.267725,-766.095498,11103.089130
1115.173445,-1406.391290,-766.095498,11177.109724
1115.173774,-1110.308913,1378.971896,9178.553681
1115.174104,-592.164754,842.705048,9326.594869
1115.174434,0.000000,-919.314598,11843.295072
1115.174763,0.000000,306.438199,14508.036463
1115.175093,-1184.329507,2451.505594,14656.077652
1115.175422,-2294.638420,5056.230287,12731.542202
1115.175752,-2368.659014,3064.381992,11029.068536
1115.176081,-1406.391290,-919.314598,10066.800811
1115.176411,-666.185348,-1762.019645,11399.171507
1115.176740,-1480.411884,-306.438199,10288.862594
1115.177070,-1554.432478,2681.334243,7105.977043
1115.177400,-666.185348,1072.533697,6143.709319
1115.177729,814.226536,-1685.410096,7179.997637
1115.178059,148.041188,0.000000,9992.780217
1115.178388,-1184.329507,2757.943793,10658.965565
1115.178718,-2368.659014,5439.278036,7772.162391
1115.179047,-2886.803174,2451.505594,6883.915261
1115.179377,-1184.329507,-919.314598,8734.430116
1115.179706,-1110.308913,-1608.800546,10288.862594
1115.180036,-1850.514855,-383.047749,8660.409521
1115.180365,-2368.659014,1838.629195,5551.544565
1115.180695,-1184.329507,76.609550,5551.544565
1115.181025,444.123565,-2068.457845,7994.224174
1115.181354,518.144159,-919.314598,10955.047942
1115.181684,-1406.391290,2068.457845,10510.924376
1115.182013,-2368.659014,4366.744339,8364.327145
1115.182343,-1554.432478,1915.238745,9030.512492
1115.182672,-222.061783,-1072.533697,11029.068536
1115.183002,-370.102971,-1915.238745,12139.377449
1115.183331,-1184.329507,-1455.581446,10510.924376
1115.183661,-1036.288319,919.314598,8216.285956
1115.183990,0.000000,-919.314598,9622.677246
1115.184320,1332.370696,-2145.067394,12139.377449
1115.184650,814.226536,-536.266849,12361.439231
1115.184979,0.000000,766.095498,11695.253884
1115.185309,-296.082377,3524.039291,10140.821405
1115.185638,-888.247130,3830.477490,10658.965565
1115.185968,0.000000,1302.362347,11547.212695
1115.186297,296.082377,229.828649,11843.295072
1115.186627,-592.164754,229.828649,9252.574275
1115.186956,-962.267725,1532.190996,7772.162391
1115.187286,-1036.288319,-459.657299,8512.368333
1115.187615,-1776.494261,-1072.533697,9992.780217
1115.187945,-3256.906145,0.000000,10732.986159
1115.188275,-3478.967927,1762.019645,9844.739029
1115.188604,-3034.844362,2757.943793,8586.388927
1115.188934,-2516.700203,1455.581446,9696.697840
1115.189263,-2146.597232,459.657299,9252.574275
1115.189593,-2146.597232,0.000000,7624.121203
1115.189922,-1184.329507,-689.485948,6809.894666
1115.190252,-888.247130,1608.800546,6809.894666
1115.190581,-666.185348,2068.457845,7994.224174
1115.190911,-222.061783,1302.362347,9474.636058
1115.191240,-370.102971,536.266849,9474.636058
1115.191570,-740.205942,1072.533697,7698.141797
1115.191900,-740.205942,1225.752797,8142.265362
1115.192229,-444.123565,306.438199,9696.697840
1115.192559,-1332.370696,689.485948,9992.780217
1115.192888,-1110.308913,0.000000,9474.636058
1115.193218,-592.164754,-536.266849,7920.203579
1115.193547,-222.061783,689.485948,7550.100608
1115.193877,592.164754,612.876398,9400.615463
1115.194206,1184.329507,229.828649,10510.924376
1115.194536,1258.350101,0.000000,11251.130318
1115.194865,222.061783,1608.800546,11399.171507
1115.195195,-1258.350101,3447.429741,11843.295072
1115.195525,-2072.576638,2528.115143,12731.542202
1115.195854,-1110.308913,1532.190996,12879.583391
1115.196184,-1110.308913,842.705048,12287.418637
1115.196513,-888.247130,842.705048,10436.903782
1115.196843,-888.247130,536.266849,8808.450710
1115.197172,0.000000,-1072.533697,9104.533087
1115.197502,0.000000,306.438199,10140.821405
1115.197831,-1702.473667,1762.019645,10510.924376
1115.198161,-2886.803174,3064.381992,9474.636058
1115.198490,-2294.638420,2911.162892,9252.574275
1115.198820,-1406.391290,1455.581446,9400.615463
1115.199150,-962.267725,1762.019645,8734.430116
1115.199479,-962.267725,689.485948,7624.121203
1115.199809,-444.123565,383.047749,6143.709319
1115.200138,-740.205942,1225.752797,5921.647536
1115.200468,-296.082377,766.095498,7031.956449
1115.200797,-222.061783,995.924147,8364.327145
1115.201127,-1110.308913,1378.971896,8660.409521
1115.201456,-2294.638420,1455.581446,7994.224174
1115.201786,-2072.576638,689.485948,7994.224174
1115.202115,-666.185348,-1532.190996,8586.388927
1115.202445,-592.164754,-995.924147,9326.594869
1115.202775,-814.226536,-536.266849,10510.924376
1115.203104,-1258.350101,1455.581446,9696.697840
1115.203434,-592.164754,1225.752797,9992.780217
1115.203763,666.185348,-1532.190996,10955.047942
1115.204093,592.164754,612.876398,11769.274478
1115.204422,-370.102971,919.314598,11695.253884
1115.204752,-740.205942,1455.581446,10955.047942
1115.205081,-518.144159,1149.143247,11251.130318
1115.205411,0.000000,766.095498,12139.377449
1115.205740,0.000000,-229.828649,12287.418637
1115.206070,-962.267725,-383.047749,11103.089130
1115.206400,-1036.288319,689.485948,9548.656652
1115.206729,-740.205942,766.095498,9770.718434
1115.207059,74.020594,459.657299,10510.924376
1115.207388,-962.267725,1991.848295,11103.089130
1115.207718,-1850.514855,1685.410096,10732.986159
1115.208047,-3182.885551,2681.334243,9104.533087
1115.208377,-2960.823768,2298.286494,8734.430116
1115.208706,-1998.556043,766.095498,8586.388927
1115.209036,-1702.473667,229.828649,7624.121203
1115.209365,-1924.535449,0.000000,7105.977043
1115.209695,-1850.514855,1532.190996,6661.853478
1115.210025,-1110.308913,2451.505594,7105.977043
1115.210354,-518.144159,1685.410096,7994.224174
1115.210684,-370.102971,1915.238745,8142.265362
1115.211013,-888.247130,1838.629195,9030.512492
1115.211343,-1480.411884,2681.334243,7920.203579
1115.211672,-1184.329507,2145.067394,7772.162391
1115.212002,0.000000,612.876398,8364.327145
1115.212331,370.102971,76.609550,8734.430116
1115.212661,-370.102971,-306.438199,9104.533087
1115.212990,74.020594,919.314598,8216.285956
1115.213320,888.247130,919.314598,9104.533087
1115.213650,1406.391290,0.000000,10066.800811
1115.213979,888.247130,1378.971896,11695.253884
1115.214309,-518.144159,2145.067394,11843.295072
1115.214638,-1924.535449,2528.115143,11251.130318
1115.214968,-2294.638420,1991.848295,11843.295072
1115.215297,-1554.432478,536.266849,12139.377449
1115.215627,-1110.308913,-153.219100,12953.603985
1115.215956,-1628.453072,153.219100,11843.295072
1115.216286,-1776.494261,1762.019645,9178.553681
1115.216615,-888.247130,383.047749,9326.594869
1115.216945,74.020594,-306.438199,11029.068536
1115.217275,-888.247130,2451.505594,12287.418637
1115.217604,-2442.679609,4443.353888,11917.315666
1115.217934,-2664.741391,4213.525239,9104.533087
1115.218263,-1776.494261,1608.800546,7698.141797
1115.218593,0.000000,-842.705048,7624.121203
1115.218922,-148.041188,-306.438199,8586.388927
1115.219252,-1332.370696,1915.238745,7402.059420
1115.219581,-1998.556043,3907.087040,5551.544565
1115.219911,-1258.350101,153.219100,5995.668130
1115.220241,-296.082377,-1302.362347,7772.162391
1115.220570,-1036.288319,459.657299,10214.842000
1115.220900,-1924.535449,2604.724693,9622.677246
1115.221229,-2886.803174,3753.867940,6513.812290
1115.221559,-1628.453072,995.924147,6661.853478
1115.221888,296.082377,-689.485948,9622.677246
1115.222218,-518.144159,229.828649,11399.171507
1115.222547,-1998.556043,1608.800546,9104.533087
1115.222877,-1628.453072,1149.143247,6439.791695
1115.223206,222.061783,-1991.848295,7476.080014
1115.223536,1480.411884,-2068.457845,10732.986159
1115.223866,222.061783,-995.924147,12657.521608
1115.224195,-1480.411884,383.047749,11991.336260
1115.224525,-2590.720797,2451.505594,11325.150913
1115.224854,-2294.638420,1762.019645,12583.501014
1115.225184,-592.164754,-842.705048,13175.665768
1115.225513,370.102971,-1838.629195,12435.459826
1115.225843,1406.391290,-689.485948,10140.821405
1115.226172,1258.350101,1762.019645,8586.388927
1115.226502,1554.432478,842.705048,9548.656652
1115.226831,962.267725,842.705048,11103.089130
1115.227161,-814.226536,1608.800546,12435.459826
1115.227491,-2368.659014,3600.648841,11177.109724
1115.227820,-2294.638420,3064.381992,9918.759623
1115.228150,-1702.473667,0.000000,9400.615463
1115.228479,-2294.638420,229.828649,8660.409521
1115.228809,-2442.679609,-689.485948,9252.574275
1115.229138,-2812.782580,1532.190996,8142.265362
1115.229468,-2812.782580,3677.258390,7105.977043
1115.229797,-2368.659014,1455.581446,7031.956449
1115.230127,-1184.329507,383.047749,7698.141797
1115.230456,-1850.514855,612.876398,8290.306550
1115.230786,-2220.617826,2834.553343,7179.997637
1115.231116,-2590.720797,3600.648841,6143.709319
1115.231445,-2368.659014,612.876398,7476.080014
1115.231775,-1702.473667,0.000000,9326.594869
1115.232104,-1554.432478,76.609550,9844.739029
1115.232434,-2072.576638,1302.362347,8438.347739
1115.232763,-962.267725,1915.238745,7105.977043
1115.233093,814.226536,536.266849,8438.347739
1115.233422,2220.617826,459.657299,10140.821405
1115.233752,1480.411884,76.609550,10732.986159
1115.234081,592.164754,2834.553343,10584.944971
1115.234411,-296.082377,4596.572988,11103.089130
1115.234741,-592.164754,2681.334243,11177.109724
1115.235070,0.000000,766.095498,11621.233289
1115.235400,1036.288319,-689.485948,11769.274478
1115.235729,888.247130,919.314598,10214.842000
1115.236059,-148.041188,2068.457845,9252.574275
1115.236388,0.000000,-229.828649,10066.800811
1115.236718,-148.041188,459.657299,11917.315666
1115.237047,-1332.370696,2221.676944,11991.336260
1115.237377,-1924.535449,4366.744339,10658.965565
1115.237706,-1480.411884,3370.820191,8290.306550
1115.238036,-1332.370696,1455.581446,7846.182985
1115.238366,-1258.350101,306.438199,8586.388927
1115.238695,-1554.432478,-229.828649,9474.636058
1115.239025,-2442.679609,1225.752797,7846.182985
1115.239354,-2960.823768,1225.752797,7402.059420
1115.239684,-2812.782580,-919.314598,9400.615463
1115.240013,-2960.823768,-612.876398,11399.171507
1115.240343,-3997.112087,1532.190996,11251.130318
1115.240672,-4367.215058,4136.915689,9252.574275
1115.241002,-2886.803174,2757.943793,8068.244768
1115.241331,-814.226536,919.314598,8512.368333
1115.241661,666.185348,-612.876398,8364.327145
1115.241991,296.082377,-1378.971896,6291.750507
1115.242320,-222.061783,0.000000,4885.359217
1115.242650,666.185348,842.705048,6439.791695
1115.242979,1480.411884,306.438199,9918.759623
1115.243309,814.226536,-383.047749,11917.315666
1115.243638,-1184.329507,306.438199,11251.130318
1115.243968,-1850.514855,1455.581446,9696.697840
1115.244297,-1258.350101,-229.828649,10362.883188
1115.244627,0.000000,-689.485948,12213.398043
1115.244956,-592.164754,76.609550,12287.418637
1115.245286,-1110.308913,-306.438199,11103.089130
1115.245616,-1480.411884,536.266849,8586.388927
1115.245945,-1258.350101,-383.047749,7994.224174
1115.246275,-222.061783,-1991.848295,10436.903782
1115.246604,-148.041188,229.828649,12805.562797
1115.246934,-1628.453072,2451.505594,12731.542202
1115.247263,-3034.844362,3140.991542,10140.821405
1115.247593,-2738.761985,766.095498,9992.780217
1115.247922,-1776.494261,-536.266849,11251.130318
1115.248252,-1406.391290,459.657299,12805.562797
1115.248581,-1184.329507,1838.629195,10881.027347
1115.248911,-1184.329507,2834.553343,6957.935855
1115.249241,148.041188,383.047749,5847.626942
1115.249570,1554.432478,-383.047749,8068.244768
1115.249900,592.164754,1225.752797,9474.636058
1115.250229,-1332.370696,3524.039291,8586.388927
1115.250559,-1924.535449,4596.572988,7105.977043
1115.250888,-1702.473667,1991.848295,7179.997637
1115.251218,-592.164754,536.266849,7476.080014
1115.251547,-222.061783,-1072.533697,8290.306550
1115.251877,-1332.370696,76.609550,7179.997637
1115.252206,-2368.659014,3294.210641,6957.935855
1115.252536,-1998.556043,2528.115143,8216.285956
1115.252866,-1184.329507,459.657299,9548.656652
1115.253195,-1554.432478,-842.705048,10066.800811
1115.253525,-2368.659014,995.924147,10436.903782
1115.253854,-2960.823768,2451.505594,9326.594869
1115.254184,-2368.659014,1072.533697,9474.636058
1115.254513,-1332.370696,-229.828649,10066.800811
1115.254843,-814.226536,-766.095498,11251.130318
1115.255172,-740.205942,0.000000,11473.192101
1115.255502,-592.164754,1991.848295,10807.006753
1115.255831,0.000000,1455.581446,10288.862594
1115.256161,888.247130,459.657299,11029.068536
1115.256491,888.247130,689.485948,12509.480420
1115.256820,222.061783,1991.848295,12361.439231
1115.257150,-1332.370696,4443.353888,11399.171507
1115.257479,-1406.391290,2604.724693,10584.944971
1115.257809,0.000000,-153.219100,10584.944971
1115.258138,148.041188,-919.314598,11177.109724
1115.258468,-1110.308913,0.000000,8734.430116
1115.258797,-2146.597232,1302.362347,7328.038826
1115.259127,-1850.514855,536.266849,7772.162391
1115.259457,-1554.432478,0.000000,9326.594869
1115.259786,-2664.741391,0.000000,10658.965565
1115.260116,-4145.153275,2068.457845,10140.821405
1115.260445,-4293.194464,3447.429741,8290.306550
1115.260775,-3182.885551,1762.019645,7624.121203
1115.261104,-1702.473667,0.000000,8142.265362
1115.261434,-1628.453072,-1149.143247,8438.347739
1115.261763,-2072.576638,919.314598,7772.162391
1115.262093,-1998.556043,2451.505594,6365.771101
1115.262422,-962.267725,1378.971896,6217.729913
1115.262752,814.226536,-1149.143247,7550.100608
1115.263082,1332.370696,-1225.752797,9548.656652
1115.263411,0.000000,229.828649,9474.636058
1115.263741,-1036.288319,2298.286494,9622.677246
1115.264070,-370.102971,2221.676944,10510.924376
1115.264400,-370.102971,766.095498,10140.821405
1115.264729,370.102971,-1762.019645,10436.903782
1115.265059,370.102971,-766.095498,9548.656652
1115.265388,666.185348,2145.067394,8512.368333
1115.265718,1332.370696,842.705048,9252.574275
1115.266047,1184.329507,-612.876398,10955.047942
1115.266377,-370.102971,-1225.752797,11991.336260
1115.266706,-2590.720797,306.438199,11843.295072
1115.267036,-3701.029710,919.314598,11473.192101
1115.267366,-3256.906145,153.219100,11695.253884
1115.267695,-2146.597232,0.000000,13323.706956
1115.268025,-2220.617826,459.657299,13841.851115
1115.268354,-2294.638420,1532.190996,11103.089130
1115.268684,-1850.514855,1685.410096,9178.553681
1115.269013,-740.205942,229.828649,9104.533087
1115.269343,-666.185348,1302.362347,10288.862594
1115.269672,-2220.617826,1838.629195,9548.656652
1115.270002,-2812.782580,2604.724693,7698.141797
1115.270331,-2146.597232,1225.752797,6957.935855
1115.270661,-222.061783,459.657299,7994.224174
1115.270991,-370.102971,306.438199,8142.265362
1115.271320,-1110.308913,-842.705048,7550.100608
1115.271650,-1184.329507,306.438199,6069.688724
1115.271979,-1036.288319,1838.629195,6291.750507
1115.272309,0.000000,2604.724693,7846.182985
1115.272638,888.247130,1915.238745,9030.512492
1115.272968,74.020594,536.266849,9252.574275
1115.273297,-888.247130,2374.896044,8660.409521
1115.273627,-2146.597232,2221.676944,8586.388927
1115.273956,-2368.659014,1608.800546,8808.450710
1115.274286,-1998.556043,459.657299,9548.656652
1115.274616,-1924.535449,-842.705048,10288.862594
1115.274945,-1924.535449,842.705048,9178.553681
1115.275275,-1480.411884,0.000000,9104.533087
1115.275604,0.000000,-383.047749,10362.883188
1115.275934,-444.123565,766.095498,11769.274478
1115.276263,-1628.453072,1532.190996,12361.439231
1115.276593,-1850.514855,2604.724693,11103.089130
1115.276922,-740.205942,1225.752797,10658.965565
1115.277252,444.123565,612.876398,11473.192101
1115.277581,666.185348,1072.533697,12509.480420
1115.277911,74.020594,0.000000,11103.089130
1115.278241,-148.041188,766.095498,8956.491898
1115.278570,148.041188,995.924147,8734.430116
1115.278900,296.082377,689.485948,10510.924376
1115.279229,-370.102971,1149.143247,11621.233289
1115.279559,-2516.700203,1991.848295,10732.986159
1115.279888,-3034.844362,2451.505594,8068.244768
1115.280218,-2516.700203,306.438199,7846.182985
1115.280547,-1184.329507,-1225.752797,9104.533087
1115.280877,-740.205942,-153.219100,9844.739029
1115.281206,-2220.617826,766.095498,7994.224174
1115.281536,-3108.864956,2451.505594,6217.729913
1115.281866,-2738.761985,766.095498,6735.874072
1115.282195,-1480.411884,0.000000,9326.594869
1115.282525,-1924.535449,2068.457845,10732.986159
1115.282854,-2812.782580,1991.848295,8290.306550
1115.283184,-3034.844362,1302.362347,5921.647536
1115.283513,-2146.597232,-1225.752797,6217.729913
1115.283843,-518.144159,-1991.848295,8512.368333
1115.284172,-444.123565,-1225.752797,9474.636058
1115.284502,-888.247130,-229.828649,8290.306550
1115.284831,-370.102971,383.047749,6291.750507
1115.285161,814.226536,-1149.143247,8290.306550
1115.285491,1998.556043,-1072.533697,10881.027347
1115.285820,1480.411884,842.705048,13175.665768
1115.286150,-296.082377,2221.676944,12435.459826
1115.286479,-1702.473667,2298.286494,11547.212695
1115.286809,-1850.514855,153.219100,12583.501014
1115.287138,-1554.432478,-995.924147,13471.748144
1115.287468,-1628.453072,-842.705048,12805.562797
1115.287797,-1628.453072,-1608.800546,10436.903782
1115.288127,-1332.370696,-1149.143247,7624.121203
1115.288456,-666.185348,-2374.896044,7920.203579
1115.288786,296.082377,-2911.162892,9770.718434
1115.289116,0.000000,-1838.629195,11029.068536
1115.289445,-1702.473667,76.609550,10807.006753
1115.289775,-3330.926739,1915.238745,10214.842000
1115.290104,-3923.091493,306.438199,10584.944971
1115.290434,-2516.700203,-1608.800546,11695.253884
1115.290763,-1036.288319,-1762.019645,11695.253884
1115.291093,-1036.288319,-229.828649,9770.718434
1115.291422,-1332.370696,76.609550,5921.647536
1115.291752,-444.123565,-1608.800546,4219.173869
1115.292081,1332.370696,-3447.429741,5033.400406
1115.292411,2220.617826,-1455.581446,6069.688724
1115.292740,1776.494261,-459.657299,7179.997637
1115.293070,-296.082377,-1072.533697,7254.018232
1115.293400,-3182.885551,-2528.115143,7920.203579
1115.293729,-3701.029710,-3907.087040,9770.718434
1115.294059,-3108.864956,-4290.134789,11103.089130
1115.294388,-1850.514855,-4596.572988,11695.253884
1115.294718,-2146.597232,-2834.553343,10510.924376
1115.295047,-2368.659014,-2298.286494,8808.450710
1115.295377,-592.164754,-2987.772442,9104.533087
1115.295706,1628.453072,-2528.115143,10436.903782
1115.296036,3182.885551,-766.095498,11621.233289
1115.296365,1776.494261,1072.533697,12139.377449
1115.296695,-1036.288319,-459.657299,11621.233289
1115.297025,-2960.823768,-2757.943793,10584.944971
1115.297354,-3182.885551,-3983.696590,11103.089130
1115.297684,-2146.597232,-5056.230287,12583.501014
1115.298013,-1332.370696,-4136.915689,12657.521608
1115.298343,-1776.494261,-3753.867940,11843.295072
1115.298672,-2368.659014,-4290.134789,9400.615463
1115.299002,-1628.453072,-4213.525239,7624.121203
1115.299331,0.000000,-3140.991542,8512.368333
1115.299661,1850.514855,-612.876398,10140.821405
1115.299990,962.267725,536.266849,11547.212695
1115.300320,-1036.288319,689.485948,11177.109724
1115.300650,-2664.741391,0.000000,8956.491898
1115.300979,-3256.906145,-2068.457845,8808.450710
1115.301309,-2220.617826,-1072.533697,9474.636058
1115.301638,-592.164754,-1685.410096,9844.739029
1115.301968,222.061783,-2681.334243,8438.347739
1115.302297,-1036.288319,-2451.505594,6291.750507
1115.302627,-1628.453072,-2298.286494,5329.482782
1115.302956,-814.226536,-1378.971896,7179.997637
1115.303286,-296.082377,229.828649,7772.162391
1115.303615,0.000000,-612.876398,7994.224174
1115.303945,962.267725,-2298.286494,8808.450710
1115.304275,-1110.308913,-2834.553343,9178.553681
1115.304604,-2812.782580,-1455.581446,10658.965565
1115.304934,-3849.070898,-1149.143247,11695.253884
1115.305263,-3552.988522,-612.876398,11843.295072
1115.305593,-3552.988522,-229.828649,10288.862594
1115.305922,-2738.761985,-2221.676944,8956.491898
1115.306252,0.000000,-4366.744339,7772.162391
1115.306581,1628.453072,-3140.991542,7105.977043
1115.306911,2886.803174,-1225.752797,7624.121203
1115.307240,2442.679609,-766.095498,9474.636058
1115.307570,1184.329507,-612.876398,11547.212695
1115.307900,-296.082377,0.000000,12065.356855
1115.308229,-222.061783,-1915.238745,12731.542202
1115.308559,0.000000,-3370.820191,13767.830521
1115.308888,-1850.514855,-1455.581446,13767.830521
1115.309218,-3849.070898,-842.705048,12731.542202
1115.309547,-5107.421000,-2374.896044,11029.068536
1115.309877,-5107.421000,-2834.553343,8438.347739
1115.310206,-2368.659014,-3140.991542,7031.956449
1115.310536,518.144159,-4673.182538,5847.626942
1115.310865,2146.597232,-5209.449386,5107.421000
1115.311195,2442.679609,-3983.696590,4811.338623
1115.311525,2294.638420,-2604.724693,7328.038826
1115.311854,1110.308913,0.000000,11843.295072
1115.312184,-1480.411884,3370.820191,15618.345376
1115.312513,-4071.132681,4903.011187,16210.510130
1115.312843,-4811.338623,2145.067394,13989.892304
1115.313172,-3997.112087,-2298.286494,11769.274478
1115.313502,-2368.659014,-5286.058936,10362.883188
1115.313831,-1628.453072,-4903.011187,8364.327145
1115.314161,-1554.432478,-3370.820191,5847.626942
1115.314490,-962.267725,-2298.286494,4145.153275
1115.314820,74.020594,-2451.505594,4293.194464
1115.315150,1480.411884,-1915.238745,4441.235652
1115.315479,2664.741391,-995.924147,4811.338623
1115.315809,3627.009116,-689.485948,5477.523971
1115.316138,3627.009116,-919.314598,7105.977043
1115.316468,1480.411884,-1838.629195,10881.027347
1115.316797,-2220.617826,-1762.019645,14211.954086
1115.317127,-5773.606348,153.219100,17024.736666
1115.317456,-7105.977043,1685.410096,17838.963202
1115.317786,-7476.080014,1072.533697,15322.262999
1115.318115,-5995.668130,-2374.896044,10140.821405
1115.318445,-2812.782580,-7124.688131,5847.626942
1115.318774,592.164754,-7814.174080,3923.091493
1115.319104,2368.659014,-4903.011187,4293.194464
1115.319434,2812.782580,-2068.457845,5699.585753
1115.319763,2442.679609,-919.314598,7624.121203
1115.320093,148.041188,229.828649,10436.903782
1115.320422,-666.185348,229.828649,13471.748144
1115.320752,-1110.308913,-229.828649,14508.036463
1115.321081,-1258.350101,-1378.971896,13619.789333
1115.321411,-1850.514855,-3064.381992,12139.377449
1115.321740,-1850.514855,-5592.497135,10658.965565
1115.322070,-1184.329507,-7201.297681,10584.944971
1115.322399,-962.267725,-5362.668486,9992.780217
1115.322729,-1036.288319,-2374.896044,8808.450710
1115.323059,-518.144159,-1608.800546,7402.059420
1115.323388,740.205942,-2221.676944,7550.100608
1115.323718,1332.370696,-2834.553343,7772.162391
1115.324047,666.185348,-2145.067394,9252.574275
1115.324377,-1850.514855,0.000000,10584.944971
1115.324706,-3997.112087,536.266849,11843.295072
1115.325036,-4219.173869,-1532.190996,11917.315666
1115.325365,-3182.885551,-3677.258390,11251.130318
1115.325695,-1702.473667,-5132.839837,8808.450710
1115.326024,0.000000,-5822.325785,7105.977043
1115.326354,740.205942,-5592.497135,6513.812290
1115.326684,592.164754,-3907.087040,6809.894666
1115.327013,222.061783,-2528.115143,8290.306550
1115.327343,-444.123565,-229.828649,9918.759623
1115.327672,-666.185348,1762.019645,11177.109724
1115.328002,-444.123565,2298.286494,11473.192101
1115.328331,-518.144159,995.924147,9992.780217
1115.328661,-296.082377,-1072.533697,8956.491898
1115.328990,-148.041188,-1838.629195,8586.388927
1115.329320,0.000000,-2604.724693,8808.450710
1115.329649,-592.164754,-2451.505594,8216.285956
1115.329979,-1406.391290,-2834.553343,7772.162391
1115.330309,-1850.514855,-3753.867940,8290.306550
1115.330638,-2220.617826,-3677.258390,8808.450710
1115.330968,-2516.700203,-2221.676944,9770.718434
1115.331297,-2590.720797,-1302.362347,10584.944971
1115.331627,-2368.659014,-995.924147,11769.274478
1115.331956,-1628.453072,0.000000,12657.521608
1115.332286,-1628.453072,459.657299,13397.727550
1115.332615,-2072.576638,2528.115143,12657.521608
1115.332945,-1702.473667,2987.772442,10584.944971
1115.333274,0.000000,1532.190996,8142.265362
1115.333604,1850.514855,-1915.238745,5995.668130
1115.333934,3182.885551,-4979.620737,4885.359217
1115.334263,2368.659014,-5592.497135,5551.544565
1115.334593,74.020594,-4366.744339,7624.121203
1115.334922,-2146.597232,-2987.772442,10362.883188
1115.335252,-3552.988522,-1838.629195,12657.521608
1115.335581,-3552.988522,-306.438199,14211.954086
1115.335911,-2738.761985,153.219100,14582.057057
1115.336240,-2072.576638,536.266849,12805.562797
1115.336570,-1110.308913,-153.219100,10140.821405
1115.336899,-296.082377,-919.314598,7772.162391
1115.337229,740.205942,-1072.533697,6587.832884
1115.337559,1554.432478,-766.095498,6661.853478
1115.337888,1184.329507,-842.705048,6217.729913
1115.338218,0.000000,-2834.553343,5107.421000
1115.338547,-1184.329507,-4979.620737,5403.503377
1115.338877,-1924.535449,-6281.983084,7550.100608
1115.339206,-2294.638420,-4826.401637,10510.924376
1115.339536,-2590.720797,-3983.696590,11917.315666
1115.339865,-2442.679609,-3753.867940,13027.624579
1115.340195,-2738.761985,-2834.553343,13545.768739
1115.340524,-2590.720797,-1608.800546,13915.871710
1115.340854,-1628.453072,-689.485948,12583.501014
1115.341183,-666.185348,-1378.971896,10066.800811
1115.341513,-296.082377,-1455.581446,8586.388927
1115.341843,-370.102971,-2451.505594,8438.347739
1115.342172,-518.144159,-3907.087040,8364.327145
1115.342502,-1554.432478,-4290.134789,7105.977043
1115.342831,-1998.556043,-4443.353888,7031.956449
1115.343161,-1998.556043,-4290.134789,8364.327145
1115.343490,-1036.288319,-4443.353888,9696.697840
1115.343820,0.000000,-4979.620737,9622.677246
1115.344149,592.164754,-4826.401637,9400.615463
1115.344479,1554.432478,-4213.525239,10288.862594
1115.344808,370.102971,-2604.724693,12139.377449
1115.345138,-962.267725,-1225.752797,13101.645173
1115.345468,-2072.576638,-1225.752797,12583.501014
1115.345797,-2442.679609,-1838.629195,11695.253884
1115.346127,-2442.679609,-1608.800546,10807.006753
1115.346456,-1924.535449,-2757.943793,10066.800811
1115.346786,-1628.453072,-2987.772442,8956.491898
1115.347115,-1628.453072,-1991.848295,7920.203579
1115.347445,-1332.370696,-689.485948,8142.265362
1115.347774,-888.247130,-229.828649,8364.327145
1115.348104,-666.185348,766.095498,8882.471304
1115.348433,-1110.308913,229.828649,8660.409521
1115.348763,-1258.350101,-1149.143247,8734.430116
1115.349093,-2368.659014,-1532.190996,9696.697840
1115.349422,-3923.091493,-1378.971896,10658.965565
1115.349752,-4959.379811,-995.924147,11621.233289
1115.350081,-5551.544565,-459.657299,11399.171507
1115.350411,-5403.503377,0.000000,10288.862594
1115.350740,-4367.215058,153.219100,9030.512492
1115.351070,-3256.906145,459.657299,8142.265362
1115.351399,-1480.411884,1072.533697,7254.018232
1115.351729,-222.061783,1991.848295,6661.853478
1115.352058,0.000000,2221.676944,6809.894666
1115.352388,-222.061783,2374.896044,7105.977043
1115.352718,-962.267725,1302.362347,8586.388927
1115.353047,-2368.659014,1149.143247,9770.718434
1115.353377,-3478.967927,459.657299,11177.109724
1115.353706,-5329.482782,0.000000,11843.295072
1115.354036,-7179.997637,-766.095498,11991.336260
1115.354365,-7772.162391,-1225.752797,11399.171507
1115.354695,-6809.894666,-995.924147,10140.821405
1115.355024,-4959.379811,-842.705048,7920.203579
1115.355354,-3478.967927,-766.095498,6957.935855
1115.355683,-1998.556043,-306.438199,6957.935855
1115.356013,-1110.308913,306.438199,7846.182985
1115.356343,-1628.453072,1378.971896,8660.409521
1115.356672,-2886.803174,1608.800546,9918.759623
1115.357002,-4367.215058,1838.629195,11177.109724
1115.357331,-5699.585753,1225.752797,12583.501014
1115.357661,-6291.750507,383.047749,13619.789333
1115.357990,-6513.812290,-306.438199,12879.583391
1115.358320,-5699.585753,-995.924147,11621.233289
1115.358649,-4515.256246,-689.485948,10732.986159
1115.358979,-3404.947333,-995.924147,9400.615463
1115.359308,-2442.679609,-689.485948,8068.244768
1115.359638,-1924.535449,-842.705048,6883.915261
1115.359968,-1924.535449,-229.828649,6513.812290
1115.360297,-2812.782580,0.000000,7624.121203
1115.360627,-4071.132681,-536.266849,8734.430116
1115.360956,-5107.421000,-995.924147,8882.471304
1115.361286,-5995.668130,-1455.581446,9474.636058
1115.361615,-6365.771101,-1762.019645,9918.759623
1115.361945,-5995.668130,-1532.190996,10288.862594
1115.362274,-5329.482782,-153.219100,11029.068536
1115.362604,-4293.194464,1762.019645,10584.944971
1115.362933,-3478.967927,2834.553343,9696.697840
1115.363263,-2368.659014,3753.867940,8808.450710
1115.363593,-1258.350101,2911.162892,7994.224174
1115.363922,-1184.329507,2374.896044,7846.182985
1115.364252,-1850.514855,1608.800546,8586.388927
1115.364581,-3330.926739,229.828649,9252.574275
1115.364911,-4885.359217,-995.924147,10288.862594
1115.365240,-6513.812290,-1915.238745,10658.965565
1115.365570,-7772.162391,-2374.896044,10955.047942
1115.365899,-7624.121203,-1838.629195,11547.212695
1115.366229,-6143.709319,-229.828649,11695.253884
1115.366558,-4219.173869,1915.238745,11029.068536
1115.366888,-2368.659014,3447.429741,9622.677246
1115.367217,0.000000,4443.353888,8216.285956
1115.367547,1480.411884,4290.134789,7328.038826
1115.367876,1628.453072,4213.525239,7254.018232
1115.368206,74.020594,3600.648841,7476.080014
1115.368535,-2368.659014,2068.457845,8068.244768
1115.368865,-4589.276840,689.485948,9178.553681
1115.369194,-7179.997637,-153.219100,10288.862594
1115.369524,-8364.327145,-229.828649,10881.027347
1115.369854,-8290.306550,-995.924147,10658.965565
1115.370183,-6809.894666,-459.657299,10288.862594
1115.370513,-4737.318029,766.095498,9770.718434
1115.370842,-3478.967927,2681.334243,9104.533087
1115.371172,-1628.453072,3677.258390,8734.430116
1115.371501,-1258.350101,4826.401637,8290.306550
1115.371831,-1184.329507,4366.744339,8586.388927
1115.372160,-2220.617826,3294.210641,8808.450710
1115.372490,-3627.009116,1302.362347,8808.450710
1115.372819,-5255.462188,-1302.362347,8808.450710
1115.373149,-6439.791695,-2834.553343,9622.677246
1115.373478,-6809.894666,-3370.820191,10584.944971
1115.373808,-6809.894666,-2374.896044,10955.047942
1115.374137,-5921.647536,-919.314598,10214.842000
1115.374467,-4589.276840,612.876398,10140.821405
1115.374796,-2294.638420,3524.039291,10140.821405
1115.375126,0.000000,4903.011187,10066.800811
1115.375455,1702.473667,5745.716235,9474.636058
1115.375785,1998.556043,5056.230287,8512.368333
1115.376115,1036.288319,4136.915689,8586.388927
1115.376444,-2220.617826,1838.629195,9696.697840
1115.376774,-5847.626942,-306.438199,10066.800811
1115.377103,-8956.491898,-1762.019645,9770.718434
1115.377433,-10732.986159,-3370.820191,9548.656652
1115.377762,-10881.027347,-4903.011187,9474.636058
1115.378092,-9696.697840,-5286.058936,9400.615463
1115.378421,-7846.182985,-3983.696590,8734.430116
1115.378751,-5181.441594,-1762.019645,8068.244768
1115.379080,-2072.576638,1532.190996,8142.265362
1115.379410,666.185348,4673.182538,8586.388927
1115.379739,2960.823768,5975.544884,9326.594869
1115.380069,2960.823768,6435.202183,8956.491898
1115.380398,1036.288319,5515.887586,9104.533087
1115.380728,-2220.617826,3447.429741,10807.006753
1115.381057,-6069.688724,1225.752797,11843.295072
1115.381387,-9474.636058,-689.485948,12731.542202
1115.381716,-11621.233289,-2757.943793,12213.398043
1115.382046,-11769.274478,-4060.306139,10362.883188
1115.382376,-8882.471304,-4749.792088,9104.533087
1115.382705,-3849.070898,-3677.258390,8586.388927
1115.383035,1480.411884,-459.657299,7550.100608
1115.383364,3775.050304,3217.601092,6735.874072
1115.383694,4737.318029,6358.592633,6365.771101
1115.384023,3330.926739,7890.783629,7920.203579
1115.384353,444.123565,8503.660028,10140.821405
1115.384682,-3478.967927,7201.297681,11325.150913
1115.385012,-8512.368333,3907.087040,11917.315666
1115.385341,-11325.150913,-306.438199,11177.109724
1115.385671,-11621.233289,-3447.429741,10362.883188
1115.386000,-9918.759623,-6205.373534,10214.842000
1115.386330,-6735.874072,-6281.983084,8956.491898
1115.386659,-4367.215058,-3677.258390,6735.874072
1115.386989,-2146.597232,153.219100,6735.874072
1115.387318,-888.247130,4596.572988,8512.368333
1115.387648,0.000000,8273.831378,9992.780217
1115.387977,-148.041188,10418.898773,9844.739029
1115.388307,-1480.411884,9882.631924,8660.409521
1115.388637,-2442.679609,6205.373534,9252.574275
1115.388966,-2738.761985,1838.629195,9918.759623
1115.389296,-4145.153275,-2451.505594,9918.759623
1115.389625,-7105.977043,-4903.011187,8808.450710
1115.389955,-9400.615463,-6818.249932,7624.121203
1115.390284,-9770.718434,-6358.592633,8882.471304
1115.390614,-7846.182985,-2451.505594,9770.718434
1115.390943,-5033.400406,383.047749,9474.636058
1115.391273,-1776.494261,2528.115143,8512.368333
1115.391602,518.144159,4826.401637,7772.162391
1115.391932,2220.617826,6205.373534,9548.656652
1115.392261,1998.556043,6128.763984,10732.986159
1115.392591,-592.164754,4903.011187,11843.295072
1115.392920,-5255.462188,3140.991542,12139.377449
1115.393250,-9252.574275,842.705048,12509.480420
1115.393579,-10066.800811,-2987.772442,11103.089130
1115.393909,-8512.368333,-4979.620737,10066.800811
1115.394238,-6143.709319,-6281.983084,8808.450710
1115.394568,-4293.194464,-5592.497135,8216.285956
1115.394897,-2664.741391,-3064.381992,7254.018232
1115.395227,-1332.370696,459.657299,7105.977043
1115.395557,-518.144159,3677.258390,8142.265362
1115.395886,0.000000,6665.030833,9770.718434
1115.396216,888.247130,7354.516781,10955.047942
1115.396545,370.102971,6128.763984,11177.109724
1115.396875,-1702.473667,2911.162892,10362.883188
1115.397204,-4737.318029,0.000000,9992.780217
1115.397534,-6957.935855,-1378.971896,12435.459826
1115.397863,-9326.594869,-842.705048,13693.809927
1115.398193,-10288.862594,-459.657299,11473.192101
1115.398522,-8290.306550,-766.095498,8882.471304
1115.398852,-4737.318029,0.000000,7254.018232
1115.399181,-1850.514855,766.095498,6513.812290
1115.399511,-148.041188,1991.848295,5477.523971
1115.399840,0.000000,3830.477490,4589.276840
1115.400170,-666.185348,5439.278036,4737.318029
1115.400499,0.000000,4290.134789,7031.956449
1115.400829,-296.082377,2221.676944,8956.491898
1115.401158,-1554.432478,2374.896044,9030.512492
1115.401488,-3627.009116,919.314598,10066.800811
1115.401818,-5995.668130,-229.828649,12657.521608
1115.402147,-8512.368333,2451.505594,13915.871710
1115.402477,-9474.636058,3140.991542,14359.995275
1115.402806,-8660.409521,2757.943793,13175.665768
