#time,accel_x,accel_y,accel_z
964.020934,-1110.308913,766.095498,9474.636058
964.021264,-1036.288319,919.314598,9474.636058
964.021593,-1110.308913,919.314598,9622.677246
964.021922,-1258.350101,995.924147,9474.636058
964.022252,-1036.288319,1149.143247,9770.718434
964.022581,-1036.288319,842.705048,9474.636058
964.022911,-1036.288319,919.314598,9548.656652
964.023240,-1036.288319,842.705048,9844.739029
964.023570,-666.185348,689.485948,9400.615463
964.023899,-962.267725,1149.143247,9474.636058
964.024229,-1110.308913,689.485948,9622.677246
964.024558,-1110.308913,842.705048,9474.636058
964.024888,-1110.308913,766.095498,9770.718434
964.025217,-888.247130,689.485948,9770.718434
964.025547,-1258.350101,612.876398,9474.636058
964.025876,-814.226536,842.705048,9548.656652
964.026205,-1036.288319,842.705048,9770.718434
964.026535,-1110.308913,842.705048,9474.636058
964.026864,-1036.288319,689.485948,9622.677246
964.027194,-1184.329507,995.924147,9474.636058
964.027523,-888.247130,612.876398,9548.656652
964.027853,-962.267725,1072.533697,9622.677246
964.028182,-962.267725,919.314598,9622.677246
964.028512,-962.267725,842.705048,9622.677246
964.028841,-814.226536,766.095498,9622.677246
964.029171,-962.267725,919.314598,9770.718434
964.029500,-1036.288319,1072.533697,9474.636058
964.029830,-1110.308913,689.485948,9400.615463
964.030159,-1184.329507,995.924147,9400.615463
964.030488,-962.267725,919.314598,9252.574275
964.030818,-1184.329507,766.095498,9178.553681
964.031147,-1036.288319,842.705048,9474.636058
964.031477,-962.267725,919.314598,9474.636058
964.031806,-1036.288319,842.705048,9474.636058
964.032136,-1036.288319,842.705048,9474.636058
964.032465,-1110.308913,995.924147,9474.636058
964.032795,-814.226536,1072.533697,9622.677246
964.033124,-888.247130,1072.533697,9474.636058
964.033454,-962.267725,766.095498,9548.656652
964.033783,-962.267725,766.095498,9696.697840
964.034112,-1184.329507,842.705048,9178.553681
964.034442,-1036.288319,995.924147,9326.594869
964.034771,-1110.308913,766.095498,9474.636058
964.035101,-1110.308913,689.485948,9622.677246
964.035430,-1110.308913,919.314598,9622.677246
964.035760,-888.247130,536.266849,9548.656652
964.036089,-962.267725,1072.533697,9696.697840
964.036419,-962.267725,919.314598,9622.677246
964.036748,-962.267725,766.095498,9696.697840
964.037078,-1036.288319,995.924147,9474.636058
964.037407,-740.205942,1072.533697,9696.697840
964.037737,-888.247130,919.314598,9400.615463
964.038066,-962.267725,1225.752797,9696.697840
964.038395,-1184.329507,766.095498,9400.615463
964.038725,-1036.288319,1072.533697,9474.636058
964.039054,-888.247130,995.924147,9474.636058
964.039384,-962.267725,1302.362347,9548.656652
964.039713,-888.247130,689.485948,8956.491898
964.040043,-962.267725,919.314598,9548.656652
964.040372,-888.247130,995.924147,9622.677246
964.040702,-1110.308913,919.314598,9474.636058
964.041031,-1036.288319,1608.800546,9474.636058
964.041361,-1036.288319,1149.143247,9326.594869
964.041690,-1184.329507,1072.533697,9474.636058
964.042020,-1110.308913,1149.143247,9474.636058
964.042349,-962.267725,919.314598,9474.636058
964.042678,-888.247130,919.314598,9474.636058
964.043008,-888.247130,1149.143247,9252.574275
964.043337,-1110.308913,995.924147,9548.656652
964.043667,-1110.308913,1072.533697,9474.636058
964.043996,-962.267725,995.924147,9474.636058
964.044326,-1110.308913,995.924147,9696.697840
964.044655,-814.226536,995.924147,9548.656652
964.044985,-444.123565,766.095498,9326.594869
964.045314,-296.082377,919.314598,8956.491898
964.045644,518.144159,612.876398,9104.533087
964.045973,962.267725,766.095498,9326.594869
964.046303,888.247130,919.314598,8808.450710
964.046632,296.082377,612.876398,9992.780217
964.046961,0.000000,1149.143247,10288.862594
964.047291,-888.247130,1455.581446,10362.883188
964.047620,-666.185348,766.095498,10584.944971
964.047950,-444.123565,76.609550,9992.780217
964.048279,-222.061783,-229.828649,9326.594869
964.048609,1036.288319,76.609550,9474.636058
964.048938,1702.473667,229.828649,9104.533087
964.049268,2664.741391,459.657299,8882.471304
964.049597,3256.906145,1302.362347,9030.512492
964.049927,3627.009116,2145.067394,9104.533087
964.050256,3627.009116,2451.505594,9400.615463
964.050586,3552.988522,1608.800546,9770.718434
964.050915,2738.761985,1072.533697,10066.800811
964.051244,1850.514855,1149.143247,10436.903782
964.051574,1406.391290,919.314598,10584.944971
964.051903,1258.350101,459.657299,10955.047942
964.052233,1628.453072,76.609550,10214.842000
964.052562,2072.576638,-459.657299,9326.594869
964.052892,3034.844362,-459.657299,9104.533087
964.053221,4145.153275,153.219100,8808.450710
964.053551,4663.297435,1838.629195,8586.388927
964.053880,3923.091493,2451.505594,9252.574275
964.054210,3330.926739,2987.772442,9992.780217
964.054539,1628.453072,3370.820191,10362.883188
964.054869,-296.082377,2681.334243,10140.821405
964.055198,-1480.411884,1455.581446,9548.656652
964.055527,-1480.411884,842.705048,8734.430116
964.055857,-444.123565,-612.876398,7772.162391
964.056186,1036.288319,-1762.019645,7105.977043
964.056516,2368.659014,-1378.971896,6587.832884
964.056845,3923.091493,-459.657299,7105.977043
964.057175,3552.988522,1378.971896,7994.224174
964.057504,3256.906145,3524.039291,10066.800811
964.057834,2220.617826,4596.572988,11843.295072
964.058163,1110.308913,4136.915689,12731.542202
964.058493,74.020594,3064.381992,12805.562797
964.058822,-740.205942,1608.800546,12213.398043
964.059151,-1258.350101,-919.314598,11621.233289
964.059481,-1258.350101,-1915.238745,10658.965565
964.059810,-444.123565,-2604.724693,9326.594869
964.060140,888.247130,-2145.067394,8142.265362
964.060469,2886.803174,-1608.800546,7476.080014
964.060799,4293.194464,229.828649,7105.977043
964.061128,4589.276840,1149.143247,7179.997637
964.061458,4589.276840,2528.115143,7772.162391
964.061787,4219.173869,3753.867940,8808.450710
964.062117,3775.050304,4213.525239,10510.924376
964.062446,2516.700203,4596.572988,11325.150913
964.062776,1332.370696,2757.943793,11695.253884
964.063105,296.082377,766.095498,11251.130318
964.063434,0.000000,-995.924147,10955.047942
964.063764,-814.226536,-1455.581446,10658.965565
964.064093,-1036.288319,-1762.019645,10436.903782
964.064423,-296.082377,-1532.190996,10214.842000
964.064752,296.082377,-612.876398,9622.677246
964.065082,1480.411884,689.485948,8734.430116
964.065411,2812.782580,842.705048,7846.182985
964.065741,4515.256246,919.314598,7476.080014
964.066070,5255.462188,1149.143247,7920.203579
964.066400,5255.462188,1378.971896,8142.265362
964.066729,4737.318029,1455.581446,9030.512492
964.067059,3330.926739,1149.143247,9622.677246
964.067388,2072.576638,1685.410096,10140.821405
964.067717,1184.329507,1685.410096,10732.986159
964.068047,1110.308913,1072.533697,10807.006753
964.068376,1184.329507,1302.362347,10584.944971
964.068706,1184.329507,1072.533697,9992.780217
964.069035,1480.411884,612.876398,9030.512492
964.069365,2368.659014,229.828649,8438.347739
964.069694,2442.679609,306.438199,8216.285956
964.070024,2072.576638,1225.752797,8734.430116
964.070353,1702.473667,1302.362347,9178.553681
964.070683,740.205942,919.314598,9474.636058
964.071012,444.123565,766.095498,9918.759623
964.071342,-740.205942,153.219100,10881.027347
964.071671,-444.123565,0.000000,11399.171507
964.072000,-962.267725,-229.828649,11325.150913
964.072330,-1110.308913,0.000000,10807.006753
964.072659,-296.082377,76.609550,10066.800811
964.072989,1332.370696,383.047749,9030.512492
964.073318,3627.009116,919.314598,8586.388927
964.073648,5181.441594,2298.286494,8068.244768
964.073977,7105.977043,2911.162892,7846.182985
964.074307,8142.265362,2911.162892,8290.306550
964.074636,7105.977043,3447.429741,9104.533087
964.074966,4441.235652,4443.353888,10362.883188
964.075295,1554.432478,4596.572988,11695.253884
964.075625,-1554.432478,3294.210641,12583.501014
964.075954,-3923.091493,1378.971896,12731.542202
964.076283,-6365.771101,-1072.533697,11769.274478
964.076613,-7846.182985,-2298.286494,10288.862594
964.076942,-7550.100608,-3294.210641,8364.327145
964.077272,-5255.462188,-3140.991542,5921.647536
964.077601,-1406.391290,-2987.772442,3997.112087
964.077931,3330.926739,-2757.943793,3849.070898
964.078260,6883.915261,76.609550,5033.400406
964.078590,7179.997637,3830.477490,6365.771101
964.078919,6217.729913,6358.592633,7772.162391
964.079249,5329.482782,6971.469032,10732.986159
964.079578,2812.782580,7431.126331,14804.118840
964.079908,-740.205942,7354.516781,16062.468941
964.080237,-4885.359217,3753.867940,15026.180623
964.080566,-7772.162391,-766.095498,14434.015869
964.080896,-9030.512492,-3447.429741,13101.645173
964.081225,-8216.285956,-4903.011187,10732.986159
964.081555,-3775.050304,-6358.592633,7772.162391
964.081884,740.205942,-6128.763984,4441.235652
964.082214,5107.421000,-3294.210641,2072.576638
964.082543,9030.512492,-1225.752797,2368.659014
964.082873,10881.027347,1455.581446,5477.523971
964.083202,9400.615463,7048.078582,9548.656652
964.083532,4071.132681,9729.412825,12287.418637
964.083861,-1776.494261,9729.412825,15544.324782
964.084190,-6735.874072,6741.640382,16580.613101
964.084520,-9918.759623,1915.238745,15396.283594
964.084849,-10510.924376,-2757.943793,12953.603985
964.085179,-8808.450710,-6741.640382,9400.615463
964.085508,-4811.338623,-8656.879127,6809.894666
964.085838,-1480.411884,-8503.660028,4737.318029
964.086167,1628.453072,-4749.792088,2664.741391
964.086497,5477.523971,-689.485948,2072.576638
964.086826,8660.409521,1762.019645,5107.421000
964.087156,8438.347739,6205.373534,10584.944971
964.087485,2960.823768,10342.289223,14137.933492
964.087815,-3849.070898,10265.679673,15100.201217
964.088144,-8290.306550,6435.202183,16136.489536
964.088473,-9104.533087,2987.772442,15692.365970
964.088803,-7550.100608,-2987.772442,13027.624579
964.089132,-4589.276840,-8963.317327,9030.512492
964.089462,-2368.659014,-9806.022374,4219.173869
964.089791,1850.514855,-8810.098227,2146.597232
964.090121,6365.771101,-4749.792088,3627.009116
964.090450,7846.182985,1302.362347,6291.750507
964.090780,4737.318029,7048.078582,8586.388927
964.091109,444.123565,10572.117872,10732.986159
964.091439,-2812.782580,10955.165621,14285.974681
964.091768,-5107.421000,9806.022374,16654.633695
964.092098,-7031.956449,3830.477490,16284.530724
964.092427,-9030.512492,-766.095498,13545.768739
964.092756,-8586.388927,-3907.087040,8882.471304
964.093086,-5181.441594,-7814.174080,5403.503377
964.093415,-1036.288319,-8273.831378,3701.029710
964.093745,2072.576638,-5822.325785,3701.029710
964.094075,3849.070898,-1991.848295,5403.503377
964.094404,2960.823768,3294.210641,8512.368333
964.094734,296.082377,8886.707777,10584.944971
964.095063,-1332.370696,10955.165621,12583.501014
964.095393,-2146.597232,9193.145976,13915.871710
964.095722,-1776.494261,5975.544884,13693.809927
964.096052,-1184.329507,1915.238745,11251.130318
964.096381,-740.205942,-2604.724693,8956.491898
964.096711,-222.061783,-4903.011187,7402.059420
964.097040,296.082377,-5056.230287,7550.100608
964.097370,666.185348,-2681.334243,8364.327145
964.097699,740.205942,153.219100,7920.203579
964.098029,0.000000,3064.381992,8142.265362
964.098359,-1332.370696,4596.572988,9178.553681
964.098688,-1332.370696,6588.421283,10288.862594
964.099018,-666.185348,6128.763984,10807.006753
964.099347,0.000000,3600.648841,10510.924376
964.099677,-962.267725,995.924147,8882.471304
964.100006,-1110.308913,0.000000,8290.306550
964.100336,-518.144159,-1072.533697,8290.306550
964.100665,888.247130,-1991.848295,8216.285956
964.100995,1332.370696,-919.314598,8364.327145
964.101324,0.000000,-153.219100,9400.615463
964.101654,-3034.844362,2604.724693,10807.006753
964.101983,-5255.462188,4136.915689,12139.377449
964.102313,-5107.421000,4596.572988,11991.336260
964.102643,-3256.906145,3753.867940,11251.130318
964.102972,-1702.473667,459.657299,9918.759623
964.103302,222.061783,-1762.019645,8586.388927
964.103631,1776.494261,-2757.943793,7254.018232
964.103961,3404.947333,-2298.286494,7328.038826
964.104290,3478.967927,-612.876398,7772.162391
964.104620,2368.659014,0.000000,9622.677246
964.104949,-296.082377,1455.581446,11177.109724
964.105279,-2146.597232,3217.601092,12583.501014
964.105608,-2886.803174,4213.525239,12879.583391
964.105938,-2220.617826,3370.820191,11695.253884
964.106267,-518.144159,536.266849,9696.697840
964.106597,222.061783,-2145.067394,7254.018232
964.106927,518.144159,-2604.724693,6365.771101
964.107256,1036.288319,-1608.800546,6513.812290
964.107586,1184.329507,-306.438199,7772.162391
964.107915,518.144159,229.828649,9622.677246
964.108245,-1924.535449,1225.752797,11547.212695
964.108574,-5329.482782,2681.334243,11843.295072
964.108904,-7402.059420,2681.334243,11621.233289
964.109233,-7105.977043,1455.581446,11473.192101
964.109563,-5181.441594,0.000000,10955.047942
964.109892,-3627.009116,-2681.334243,9030.512492
964.110222,-1110.308913,-3217.601092,6439.791695
964.110551,1776.494261,-2987.772442,5033.400406
964.110881,4145.153275,-2451.505594,6217.729913
964.111211,5329.482782,-459.657299,8956.491898
964.111540,2812.782580,2757.943793,11769.274478
964.111870,-518.144159,4903.011187,12583.501014
964.112199,-3404.947333,6128.763984,13545.768739
964.112529,-4589.276840,5056.230287,13841.851115
964.112858,-4219.173869,2298.286494,12879.583391
964.113188,-2812.782580,-1991.848295,10436.903782
964.113517,-1702.473667,-3294.210641,7254.018232
964.113847,-666.185348,-2681.334243,4885.359217
964.114176,666.185348,-2604.724693,4737.318029
964.114506,1998.556043,-1455.581446,7031.956449
964.114835,1776.494261,1532.190996,9474.636058
964.115165,-444.123565,4136.915689,10955.047942
964.115494,-3404.947333,6894.859482,11843.295072
964.115824,-5255.462188,6665.030833,12065.356855
964.116154,-5699.585753,4596.572988,12213.398043
964.116483,-4663.297435,1838.629195,11621.233289
964.116813,-2664.741391,-1378.971896,8882.471304
964.117142,-1406.391290,-2528.115143,6735.874072
964.117472,222.061783,-2911.162892,5995.668130
964.117801,2072.576638,-2068.457845,6587.832884
964.118131,3923.091493,459.657299,7846.182985
964.118460,3997.112087,2987.772442,8216.285956
964.118790,2220.617826,5439.278036,9770.718434
964.119119,-888.247130,7814.174080,10658.965565
964.119449,-2516.700203,7277.907231,11769.274478
964.119778,-2442.679609,4673.182538,11843.295072
964.120108,-1480.411884,1302.362347,10214.842000
964.120438,-518.144159,-689.485948,7846.182985
964.120767,0.000000,-2834.553343,6587.832884
964.121097,592.164754,-3447.429741,6587.832884
964.121426,1406.391290,-1762.019645,7476.080014
964.121756,1628.453072,689.485948,8808.450710
964.122085,666.185348,3524.039291,10881.027347
964.122415,-1924.535449,5209.449386,11695.253884
964.122744,-3923.091493,6052.154434,11547.212695
964.123074,-3849.070898,4596.572988,11843.295072
964.123403,-2960.823768,2221.676944,11251.130318
964.123733,-1628.453072,-383.047749,9918.759623
964.124062,-1480.411884,-3064.381992,8068.244768
964.124392,-444.123565,-3600.648841,7920.203579
964.124722,1110.308913,-3294.210641,8364.327145
964.125051,2442.679609,-1378.971896,9030.512492
964.125381,2960.823768,1149.143247,9030.512492
964.125710,1258.350101,2987.772442,9918.759623
964.126040,-518.144159,3753.867940,11177.109724
964.126369,-1850.514855,4596.572988,11917.315666
964.126699,-2590.720797,3907.087040,12287.418637
964.127028,-2368.659014,1685.410096,11029.068536
964.127358,-2368.659014,-1532.190996,8142.265362
964.127687,-1184.329507,-2911.162892,6291.750507
964.128017,518.144159,-4979.620737,5847.626942
964.128346,1554.432478,-4366.744339,6735.874072
964.128676,1406.391290,-1532.190996,8586.388927
964.129006,-518.144159,919.314598,10584.944971
964.129335,-3627.009116,3983.696590,12065.356855
964.129665,-5995.668130,5515.887586,12657.521608
964.129994,-5847.626942,3830.477490,12509.480420
964.130324,-4663.297435,995.924147,11325.150913
964.130653,-3256.906145,-1072.533697,9104.533087
964.130983,-2294.638420,-3524.039291,7105.977043
964.131312,-1258.350101,-4596.572988,5921.647536
964.131642,222.061783,-3830.477490,6439.791695
964.131971,1480.411884,-1991.848295,8586.388927
964.132301,2368.659014,383.047749,10362.883188
964.132630,592.164754,2911.162892,11103.089130
964.132960,-2146.597232,4903.011187,12139.377449
964.133290,-3775.050304,5286.058936,13323.706956
964.133619,-4367.215058,4519.963438,13027.624579
964.133949,-3404.947333,2451.505594,11769.274478
964.134278,-1850.514855,-1072.533697,9030.512492
964.134608,-888.247130,-2528.115143,6587.832884
964.134937,518.144159,-3370.820191,5033.400406
964.135267,1998.556043,-3140.991542,5995.668130
964.135596,2886.803174,-536.266849,7920.203579
964.135926,1406.391290,2911.162892,10066.800811
964.136255,-1850.514855,5362.668486,11473.192101
964.136585,-3997.112087,6971.469032,12435.459826
964.136914,-4737.318029,6205.373534,12509.480420
964.137244,-4219.173869,4060.306139,11547.212695
964.137574,-2590.720797,612.876398,9400.615463
964.137903,-1628.453072,-2068.457845,7105.977043
964.138233,-592.164754,-3524.039291,6143.709319
964.138562,444.123565,-3217.601092,6587.832884
964.138892,1776.494261,-1225.752797,7920.203579
964.139221,2220.617826,1991.848295,9548.656652
964.139551,1036.288319,4979.620737,9844.739029
964.139880,-444.123565,6281.983084,9918.759623
964.140210,-1184.329507,5898.935335,10510.924376
964.140539,-962.267725,5439.278036,11399.171507
964.140869,-740.205942,3983.696590,10436.903782
964.141198,0.000000,612.876398,8364.327145
964.141528,592.164754,-1608.800546,6957.935855
964.141857,740.205942,-2834.553343,6291.750507
964.142187,1036.288319,-2451.505594,7328.038826
964.142517,1554.432478,-766.095498,9030.512492
964.142846,0.000000,2068.457845,10066.800811
964.143176,-3034.844362,3524.039291,10658.965565
964.143505,-5329.482782,4519.963438,11991.336260
964.143835,-4737.318029,4290.134789,13101.645173
964.144164,-3627.009116,2604.724693,12361.439231
964.144494,-2664.741391,-459.657299,10436.903782
964.144823,-814.226536,-3217.601092,8068.244768
964.145153,370.102971,-4060.306139,6661.853478
964.145482,2294.638420,-4060.306139,7550.100608
964.145812,3330.926739,-2221.676944,9030.512492
964.146141,3182.885551,1225.752797,10288.862594
964.146471,1776.494261,3753.867940,10881.027347
964.146801,0.000000,4213.525239,11103.089130
964.147130,-1554.432478,4826.401637,11547.212695
964.147460,-2146.597232,3600.648841,11695.253884
964.147789,-2294.638420,1685.410096,11399.171507
964.148119,-1924.535449,-842.705048,9992.780217
964.148448,-2664.741391,-2374.896044,7698.141797
964.148778,-1850.514855,-4290.134789,7105.977043
964.149107,-1036.288319,-3830.477490,7328.038826
964.149437,0.000000,-1915.238745,7846.182985
964.149766,-370.102971,0.000000,8290.306550
964.150096,-1480.411884,2145.067394,9770.718434
964.150425,-3775.050304,3447.429741,11103.089130
964.150755,-5255.462188,4060.306139,11843.295072
964.151085,-5255.462188,3830.477490,11917.315666
964.151414,-4219.173869,1378.971896,10584.944971
964.151744,-2590.720797,-1608.800546,8290.306550
964.152073,-1406.391290,-3447.429741,6365.771101
964.152403,518.144159,-4366.744339,6661.853478
964.152732,2072.576638,-3600.648841,8068.244768
964.153062,1924.535449,-383.047749,9844.739029
964.153391,518.144159,3217.601092,10881.027347
964.153721,-1702.473667,4673.182538,11621.233289
964.154050,-2960.823768,4673.182538,12361.439231
964.154380,-2886.803174,4903.011187,12213.398043
964.154709,-1850.514855,3294.210641,11103.089130
964.155039,-1258.350101,0.000000,9326.594869
964.155369,-814.226536,-1378.971896,6661.853478
964.155698,-666.185348,-2451.505594,5995.668130
964.156028,370.102971,-2987.772442,6735.874072
964.156357,1110.308913,-995.924147,8586.388927
964.156687,370.102971,1455.581446,10584.944971
964.157016,-1998.556043,3753.867940,11251.130318
964.157346,-4737.318029,4979.620737,12213.398043
964.157675,-5181.441594,5822.325785,12509.480420
964.158005,-4219.173869,4673.182538,11843.295072
964.158334,-3256.906145,1762.019645,9992.780217
964.158664,-1702.473667,-612.876398,7846.182985
964.158993,0.000000,-2451.505594,5921.647536
964.159323,1184.329507,-2834.553343,5921.647536
964.159653,2664.741391,-1225.752797,7328.038826
964.159982,3404.947333,766.095498,8734.430116
964.160312,2368.659014,3753.867940,9770.718434
964.160641,592.164754,4596.572988,10140.821405
964.160971,-1258.350101,5822.325785,10584.944971
964.161300,-1406.391290,5439.278036,11029.068536
964.161630,-1628.453072,3907.087040,10881.027347
964.161959,-1406.391290,919.314598,9770.718434
964.162289,-1332.370696,-1072.533697,8142.265362
964.162618,-1036.288319,-2374.896044,7105.977043
964.162948,148.041188,-2528.115143,7328.038826
964.163277,962.267725,-995.924147,8586.388927
964.163607,1036.288319,766.095498,9326.594869
964.163937,-222.061783,3064.381992,9844.739029
964.164266,-2664.741391,4136.915689,10214.842000
964.164596,-4145.153275,4903.011187,11547.212695
964.164925,-4071.132681,4290.134789,11843.295072
964.165255,-3330.926739,2145.067394,11325.150913
964.165584,-1924.535449,-1685.410096,9696.697840
964.165914,-962.267725,-3447.429741,7031.956449
964.166243,444.123565,-4366.744339,6661.853478
964.166573,2368.659014,-4290.134789,7698.141797
964.166902,3108.864956,-1532.190996,9474.636058
964.167232,1998.556043,2145.067394,10881.027347
964.167561,-814.226536,4290.134789,11621.233289
964.167891,-2812.782580,4903.011187,11991.336260
964.168221,-2812.782580,4596.572988,12509.480420
964.168550,-2294.638420,3217.601092,11695.253884
964.168880,-1406.391290,-306.438199,10288.862594
964.169209,-1332.370696,-2911.162892,7920.203579
964.169539,-1110.308913,-3524.039291,6661.853478
964.169868,-296.082377,-3753.867940,6735.874072
964.170198,740.205942,-2374.896044,7179.997637
964.170527,1036.288319,-612.876398,8586.388927
964.170857,-370.102971,1149.143247,9918.759623
964.171186,-3182.885551,3217.601092,11325.150913
964.171516,-5329.482782,4903.011187,11769.274478
964.171845,-5625.565159,3907.087040,11917.315666
964.172175,-4885.359217,2451.505594,11917.315666
964.172504,-3997.112087,-689.485948,10066.800811
964.172834,-2664.741391,-3753.867940,7254.018232
964.173164,-666.185348,-4826.401637,6439.791695
964.173493,666.185348,-3524.039291,6957.935855
964.173823,1924.535449,-2221.676944,8956.491898
964.174152,814.226536,766.095498,10362.883188
964.174482,-1184.329507,3600.648841,10807.006753
964.174811,-2442.679609,5286.058936,11325.150913
964.175141,-2442.679609,4903.011187,11843.295072
964.175470,-1776.494261,3753.867940,11547.212695
964.175800,-1406.391290,1378.971896,9696.697840
964.176129,-1332.370696,-2221.676944,7402.059420
964.176459,0.000000,-2374.896044,6661.853478
964.176788,814.226536,-2221.676944,6291.750507
964.177118,1184.329507,-1455.581446,7698.141797
964.177448,1258.350101,229.828649,9252.574275
964.177777,-370.102971,2451.505594,10881.027347
964.178107,-2886.803174,5515.887586,12657.521608
964.178436,-5255.462188,6205.373534,12879.583391
964.178766,-5921.647536,6205.373534,12583.501014
964.179095,-4737.318029,2987.772442,11029.068536
964.179425,-2738.761985,-995.924147,8956.491898
964.179754,-1036.288319,-2757.943793,7179.997637
964.180084,666.185348,-3064.381992,6365.771101
964.180413,1702.473667,-2374.896044,6587.832884
964.180743,2812.782580,-306.438199,7994.224174
964.181072,2960.823768,2451.505594,9178.553681
964.181402,1184.329507,4596.572988,9622.677246
964.181732,0.000000,5209.449386,10510.924376
964.182061,-1776.494261,6511.811733,11547.212695
964.182391,-2886.803174,5745.716235,11473.192101
964.182720,-2368.659014,2987.772442,10510.924376
964.183050,-1924.535449,-612.876398,8068.244768
964.183379,-1036.288319,-2834.553343,6587.832884
964.183709,-222.061783,-4366.744339,7031.956449
964.184038,814.226536,-2681.334243,8216.285956
964.184368,1406.391290,-306.438199,9030.512492
964.184697,444.123565,2221.676944,9770.718434
964.185027,-1628.453072,3677.258390,10140.821405
964.185356,-2738.761985,5132.839837,11843.295072
964.185686,-2738.761985,5132.839837,12287.418637
964.186016,-2146.597232,4443.353888,11843.295072
964.186345,-1628.453072,1455.581446,9622.677246
964.186675,-518.144159,-2604.724693,6809.894666
964.187004,814.226536,-4826.401637,6365.771101
964.187334,2072.576638,-4213.525239,7105.977043
964.187663,2516.700203,-2298.286494,9104.533087
964.187993,1702.473667,536.266849,10140.821405
964.188322,-962.267725,3447.429741,11547.212695
964.188652,-2960.823768,4673.182538,12287.418637
964.188981,-3775.050304,4060.306139,12731.542202
964.189311,-3330.926739,3524.039291,12509.480420
964.189640,-2812.782580,2068.457845,10732.986159
964.189970,-1924.535449,-1149.143247,8882.471304
964.190300,-1184.329507,-2834.553343,6957.935855
964.190629,0.000000,-3600.648841,6365.771101
964.190959,444.123565,-2221.676944,6587.832884
964.191288,814.226536,-612.876398,7550.100608
964.191618,222.061783,1378.971896,9474.636058
964.191947,-1332.370696,3140.991542,10955.047942
964.192277,-3330.926739,4060.306139,11991.336260
964.192606,-4663.297435,4213.525239,12657.521608
964.192936,-4663.297435,3677.258390,12583.501014
964.193265,-3923.091493,1378.971896,10955.047942
964.193595,-2220.617826,-2145.067394,8364.327145
964.193924,148.041188,-4366.744339,6883.915261
964.194254,1628.453072,-3983.696590,6735.874072
964.194583,2072.576638,-2221.676944,7698.141797
964.194913,1628.453072,306.438199,8734.430116
964.195242,0.000000,3294.210641,9918.759623
964.195572,-2368.659014,3524.039291,10362.883188
964.195901,-3627.009116,4519.963438,11695.253884
964.196231,-3627.009116,4136.915689,11843.295072
964.196560,-2812.782580,2451.505594,10510.924376
964.196890,-2072.576638,-842.705048,8364.327145
964.197219,-888.247130,-2987.772442,6439.791695
964.197549,0.000000,-2221.676944,5847.626942
964.197878,1406.391290,-1455.581446,6883.915261
964.198208,1776.494261,-1072.533697,8512.368333
964.198537,296.082377,2068.457845,10288.862594
964.198867,-2442.679609,4596.572988,11843.295072
964.199196,-4219.173869,5439.278036,12731.542202
964.199526,-4885.359217,5056.230287,13101.645173
964.199855,-4441.235652,3753.867940,11843.295072
964.200185,-2738.761985,-536.266849,9326.594869
964.200514,-814.226536,-3600.648841,7772.162391
964.200844,518.144159,-3830.477490,6883.915261
964.201173,1776.494261,-2451.505594,7550.100608
964.201503,2960.823768,-1149.143247,8734.430116
964.201832,2442.679609,1762.019645,9622.677246
964.202162,1184.329507,3983.696590,10510.924376
964.202491,-444.123565,4519.963438,10288.862594
964.202821,-1850.514855,5669.106685,11177.109724
964.203150,-2442.679609,4903.011187,11843.295072
964.203480,-2590.720797,3064.381992,11029.068536
964.203809,-2368.659014,0.000000,9030.512492
964.204139,-1110.308913,-2451.505594,7105.977043
964.204468,296.082377,-3600.648841,6291.750507
964.204798,1110.308913,-2145.067394,7328.038826
964.205127,2072.576638,0.000000,8512.368333
964.205457,1110.308913,2068.457845,9474.636058
964.205786,-1332.370696,4826.401637,10066.800811
964.206116,-3849.070898,5669.106685,10955.047942
964.206445,-3923.091493,5362.668486,11399.171507
964.206775,-3701.029710,4060.306139,11325.150913
964.207104,-2812.782580,1072.533697,9548.656652
964.207434,-1628.453072,-2604.724693,7624.121203
964.207763,-222.061783,-4136.915689,5995.668130
964.208093,962.267725,-3753.867940,6809.894666
964.208422,2072.576638,-1762.019645,8586.388927
964.208752,2072.576638,995.924147,9918.759623
964.209081,666.185348,3677.258390,11177.109724
964.209411,-1258.350101,4903.011187,11325.150913
964.209740,-2590.720797,5822.325785,11399.171507
964.210070,-2590.720797,4673.182538,11695.253884
964.210399,-1702.473667,2221.676944,11251.130318
964.210729,-1480.411884,-766.095498,9548.656652
964.211058,-1406.391290,-2374.896044,7846.182985
964.211388,-888.247130,-3370.820191,6365.771101
964.211717,592.164754,-3524.039291,6735.874072
964.212047,1332.370696,-1762.019645,8068.244768
964.212376,1406.391290,459.657299,9474.636058
964.212706,-370.102971,3140.991542,11103.089130
964.213035,-2738.761985,4979.620737,12139.377449
964.213365,-5107.421000,5592.497135,12139.377449
964.213694,-5329.482782,4443.353888,12361.439231
964.214024,-4441.235652,1455.581446,11769.274478
964.214353,-2442.679609,-2221.676944,9770.718434
964.214683,-1480.411884,-4290.134789,7550.100608
964.215012,370.102971,-4979.620737,6587.832884
964.215342,1776.494261,-3983.696590,7624.121203
964.215671,2294.638420,-1608.800546,8808.450710
964.216001,740.205942,1991.848295,9474.636058
964.216330,-962.267725,3907.087040,10140.821405
964.216660,-1628.453072,4673.182538,11177.109724
964.216989,-1776.494261,4903.011187,10881.027347
964.217319,-1406.391290,2681.334243,10510.924376
964.217648,-888.247130,-536.266849,8956.491898
964.217978,-740.205942,-2451.505594,7624.121203
964.218307,-962.267725,-2528.115143,7105.977043
964.218637,0.000000,-1915.238745,7031.956449
964.218966,740.205942,-1378.971896,8142.265362
964.219296,1110.308913,-229.828649,9844.739029
964.219625,-1036.288319,2451.505594,11399.171507
964.219955,-4071.132681,4366.744339,12509.480420
964.220284,-5477.523971,4903.011187,12139.377449
964.220614,-5477.523971,4213.525239,12361.439231
964.220943,-4071.132681,2145.067394,10955.047942
964.221273,-1332.370696,-2298.286494,9178.553681
964.221602,962.267725,-4213.525239,7550.100608
964.221932,1702.473667,-2604.724693,6587.832884
964.222261,2368.659014,-2145.067394,7402.059420
964.222590,2072.576638,0.000000,8734.430116
964.222920,666.185348,2681.334243,9474.636058
964.223249,-1406.391290,4136.915689,10510.924376
964.223579,-2812.782580,4979.620737,11843.295072
964.223908,-3256.906145,4596.572988,12361.439231
964.224238,-2738.761985,3677.258390,11769.274478
964.224567,-1702.473667,-229.828649,9400.615463
964.224897,-148.041188,-2374.896044,7476.080014
964.225226,1110.308913,-2528.115143,6957.935855
964.225556,2368.659014,-1838.629195,7105.977043
964.225885,2960.823768,306.438199,7994.224174
964.226215,2368.659014,2911.162892,8882.471304
964.226544,518.144159,5362.668486,9770.718434
964.226874,-1924.535449,6205.373534,10658.965565
964.227203,-3256.906145,5975.544884,11399.171507
964.227533,-4071.132681,4366.744339,11029.068536
964.227862,-4145.153275,1455.581446,10066.800811
964.228192,-3256.906145,-1225.752797,8660.409521
964.228521,-1998.556043,-3447.429741,7179.997637
964.228851,-444.123565,-3600.648841,6439.791695
964.229180,1036.288319,-2221.676944,7698.141797
964.229510,1924.535449,-536.266849,9104.533087
964.229839,1332.370696,2834.553343,10066.800811
964.230169,-296.082377,5056.230287,10881.027347
964.230498,-2146.597232,6281.983084,11843.295072
964.230828,-2516.700203,6128.763984,12361.439231
964.231157,-2516.700203,4060.306139,11843.295072
964.231487,-962.267725,0.000000,10658.965565
964.231816,0.000000,-2374.896044,8290.306550
964.232146,148.041188,-2987.772442,6735.874072
964.232475,1776.494261,-3140.991542,6735.874072
964.232805,2442.679609,-2221.676944,7624.121203
964.233134,2442.679609,919.314598,8956.491898
964.233464,740.205942,3217.601092,10584.944971
964.233793,-1924.535449,4673.182538,12065.356855
964.234123,-3849.070898,6205.373534,11991.336260
964.234452,-4515.256246,4749.792088,11991.336260
964.234782,-4145.153275,1455.581446,11473.192101
964.235111,-3108.864956,-2451.505594,9844.739029
964.235441,-2368.659014,-4673.182538,7846.182985
964.235770,-1184.329507,-5592.497135,6883.915261
964.236100,148.041188,-4213.525239,7624.121203
964.236429,1184.329507,-2145.067394,8956.491898
964.236759,1110.308913,689.485948,9474.636058
964.237088,-444.123565,2834.553343,9770.718434
964.237418,-1480.411884,4366.744339,10881.027347
964.237747,-1998.556043,4903.011187,11547.212695
964.238077,-2220.617826,4136.915689,11029.068536
964.238406,-2442.679609,1072.533697,9548.656652
964.238736,-1480.411884,-2145.067394,8290.306550
964.239065,-962.267725,-3524.039291,7105.977043
964.239395,0.000000,-2987.772442,6439.791695
964.239724,592.164754,-2374.896044,6883.915261
964.240054,1480.411884,-1532.190996,8290.306550
964.240383,0.000000,1378.971896,10362.883188
964.240713,-2368.659014,3907.087040,12139.377449
964.241042,-4885.359217,5362.668486,13175.665768
964.241372,-5181.441594,5439.278036,13545.768739
964.241701,-5107.421000,3677.258390,12361.439231
964.242031,-3330.926739,-536.266849,9696.697840
964.242360,-1184.329507,-4519.963438,7179.997637
964.242690,444.123565,-4903.011187,6513.812290
964.243019,1406.391290,-3370.820191,7402.059420
964.243349,1554.432478,-1762.019645,9030.512492
964.243678,1184.329507,1685.410096,10436.903782
964.244008,-222.061783,4290.134789,10955.047942
964.244337,-1628.453072,5286.058936,11177.109724
964.244667,-1554.432478,5822.325785,11769.274478
964.244996,-814.226536,4826.401637,11251.130318
964.245326,-740.205942,2451.505594,9992.780217
964.245655,-740.205942,0.000000,8512.368333
964.245985,0.000000,-1072.533697,7476.080014
964.246314,1036.288319,-1685.410096,6957.935855
964.246644,814.226536,-1838.629195,7254.018232
964.246973,1332.370696,612.876398,8808.450710
964.247303,740.205942,3140.991542,9474.636058
964.247632,-1332.370696,4749.792088,9844.739029
964.247962,-3256.906145,5362.668486,10362.883188
964.248291,-3923.091493,5898.935335,10584.944971
964.248621,-2886.803174,3983.696590,10658.965565
964.248950,-2738.761985,689.485948,9326.594869
964.249280,-1554.432478,-1149.143247,7550.100608
964.249609,-148.041188,-2604.724693,6439.791695
964.249939,1258.350101,-2987.772442,7105.977043
964.250268,2442.679609,-1072.533697,8290.306550
964.250598,1850.514855,1072.533697,9178.553681
964.250927,518.144159,3753.867940,10584.944971
964.251257,-1184.329507,4979.620737,11621.233289
964.251586,-2516.700203,5669.106685,12139.377449
964.251916,-2368.659014,4826.401637,11399.171507
964.252245,-1554.432478,1685.410096,10140.821405
964.252575,-370.102971,-1149.143247,8068.244768
964.252904,296.082377,-2068.457845,5995.668130
964.253234,1776.494261,-3753.867940,6365.771101
964.253563,2664.741391,-3524.039291,8290.306550
964.253893,1036.288319,-153.219100,10214.842000
964.254222,-1480.411884,2834.553343,12065.356855
964.254552,-4071.132681,4213.525239,13027.624579
964.254881,-5403.503377,5132.839837,13027.624579
964.255211,-5329.482782,4673.182538,12509.480420
964.255540,-3701.029710,1072.533697,11177.109724
964.255870,-2442.679609,-2604.724693,10214.842000
964.256199,-1702.473667,-3753.867940,8290.306550
964.256529,-1184.329507,-3677.258390,6883.915261
964.256858,666.185348,-3140.991542,6513.812290
964.257188,2738.761985,-2604.724693,7476.080014
964.257517,3478.967927,-306.438199,8660.409521
964.257847,1998.556043,2451.505594,9474.636058
964.258176,-370.102971,4213.525239,10436.903782
964.258506,-1850.514855,5822.325785,11325.150913
964.258835,-2738.761985,4979.620737,11621.233289
964.259165,-2812.782580,2681.334243,11251.130318
964.259494,-2294.638420,-842.705048,9178.553681
964.259824,-1850.514855,-3447.429741,7105.977043
964.260153,-1110.308913,-4366.744339,6513.812290
964.260483,-444.123565,-3140.991542,6957.935855
964.260812,-222.061783,-1838.629195,8882.471304
964.261142,-1110.308913,1149.143247,9474.636058
964.261471,-3182.885551,3524.039291,10362.883188
964.261801,-4367.215058,4673.182538,11399.171507
964.262130,-4293.194464,4749.792088,11843.295072
964.262460,-3849.070898,3524.039291,11843.295072
964.262789,-3627.009116,689.485948,9992.780217
964.263119,-2368.659014,-1915.238745,8068.244768
964.263448,-1184.329507,-3677.258390,6883.915261
964.263778,0.000000,-4213.525239,7254.018232
964.264107,666.185348,-3294.210641,9326.594869
964.264437,1850.514855,-306.438199,10807.006753
964.264766,740.205942,3140.991542,11621.233289
964.265096,-1036.288319,4519.963438,11695.253884
964.265425,-1554.432478,5286.058936,12139.377449
964.265755,-888.247130,5209.449386,12361.439231
964.266084,-740.205942,3600.648841,11399.171507
964.266414,-814.226536,1608.800546,9474.636058
964.266743,-296.082377,0.000000,7402.059420
964.267073,518.144159,-1838.629195,6809.894666
964.267402,1628.453072,-2451.505594,6735.874072
964.267732,1702.473667,-766.095498,7402.059420
964.268061,888.247130,1225.752797,8438.347739
964.268391,-1406.391290,3524.039291,9252.574275
964.268720,-3997.112087,4673.182538,10510.924376
964.269050,-4959.379811,4749.792088,11399.171507
964.269379,-3997.112087,4213.525239,11325.150913
964.269709,-3404.947333,1915.238745,10658.965565
964.270038,-2368.659014,0.000000,8290.306550
964.270368,-888.247130,-1915.238745,6513.812290
964.270697,1332.370696,-3140.991542,6217.729913
964.271027,2812.782580,-2528.115143,6957.935855
964.271356,2738.761985,229.828649,8586.388927
964.271686,1332.370696,3217.601092,10066.800811
964.272015,-1110.308913,5439.278036,11325.150913
964.272345,-2886.803174,6052.154434,11547.212695
964.272674,-2368.659014,4979.620737,11029.068536
964.273004,-1036.288319,1838.629195,9696.697840
964.273333,0.000000,-766.095498,8290.306550
964.273663,370.102971,-2451.505594,7254.018232
964.273992,666.185348,-2987.772442,7698.141797
964.274322,888.247130,-1915.238745,8734.430116
964.274651,888.247130,-689.485948,9770.718434
964.274981,-444.123565,1762.019645,11251.130318
964.275310,-1850.514855,3600.648841,11991.336260
964.275640,-3552.988522,3983.696590,12213.398043
964.275969,-4293.194464,3600.648841,11843.295072
964.276299,-3701.029710,1838.629195,11251.130318
964.276628,-2960.823768,0.000000,10510.924376
964.276958,-2294.638420,-2604.724693,9622.677246
964.277287,-1702.473667,-2987.772442,8068.244768
964.277617,0.000000,-3294.210641,7179.997637
964.277946,1998.556043,-3064.381992,7476.080014
964.278276,3256.906145,-1838.629195,8586.388927
964.278605,1628.453072,1378.971896,9622.677246
964.278935,-888.247130,3294.210641,10584.944971
964.279264,-2516.700203,4596.572988,11399.171507
964.279594,-3182.885551,5209.449386,11473.192101
964.279923,-3108.864956,3217.601092,10510.924376
964.280253,-2146.597232,-766.095498,8808.450710
964.280582,-666.185348,-3294.210641,7105.977043
964.280912,148.041188,-4060.306139,6365.771101
964.281241,370.102971,-3370.820191,7105.977043
964.281571,370.102971,-842.705048,8512.368333
964.281900,-666.185348,1225.752797,9474.636058
964.282230,-2886.803174,3294.210641,10362.883188
964.282559,-4515.256246,4060.306139,11251.130318
964.282889,-4737.318029,4366.744339,11769.274478
964.283218,-4367.215058,2987.772442,10955.047942
964.283548,-3849.070898,459.657299,10066.800811
964.283877,-2960.823768,-2298.286494,8512.368333
964.284207,-1850.514855,-3294.210641,7698.141797
964.284536,-444.123565,-3294.210641,7772.162391
964.284866,1406.391290,-1991.848295,8882.471304
964.285195,2738.761985,153.219100,9696.697840
964.285525,1850.514855,2068.457845,10436.903782
964.285854,-148.041188,3983.696590,10955.047942
964.286184,-2738.761985,5439.278036,11843.295072
964.286513,-3478.967927,5515.887586,12583.501014
964.286843,-3108.864956,3907.087040,12065.356855
964.287172,-2738.761985,1149.143247,10436.903782
964.287502,-1480.411884,-1685.410096,8438.347739
964.287831,-148.041188,-2987.772442,6513.812290
964.288161,888.247130,-2911.162892,6439.791695
964.288490,1850.514855,-995.924147,7772.162391
964.288820,1110.308913,1915.238745,8808.450710
964.289149,-888.247130,4443.353888,9992.780217
964.289479,-3330.926739,5822.325785,10658.965565
964.289808,-4071.132681,5898.935335,11029.068536
964.290138,-3330.926739,4749.792088,11029.068536
964.290467,-2812.782580,2221.676944,9474.636058
964.290797,-1480.411884,-229.828649,8142.265362
964.291126,-370.102971,-2451.505594,6661.853478
964.291455,666.185348,-2451.505594,6291.750507
964.291785,1998.556043,-1225.752797,7105.977043
964.292114,3108.864956,459.657299,8586.388927
964.292444,2368.659014,2451.505594,9844.739029
964.292773,-370.102971,4596.572988,10732.986159
964.293103,-2442.679609,5515.887586,10881.027347
964.293432,-2738.761985,5515.887586,10658.965565
964.293762,-1776.494261,4290.134789,10436.903782
964.294091,-1184.329507,459.657299,8734.430116
964.294421,-444.123565,-2068.457845,7328.038826
964.294751,-148.041188,-2834.553343,6809.894666
964.295080,296.082377,-2604.724693,7550.100608
964.295410,1332.370696,-919.314598,9844.739029
964.295739,518.144159,1685.410096,11177.109724
964.296069,-1110.308913,3524.039291,12065.356855
964.296399,-3034.844362,3753.867940,12509.480420
964.296728,-4219.173869,3600.648841,13175.665768
964.297058,-3923.091493,2834.553343,13249.686362
964.297387,-2960.823768,1225.752797,11843.295072
964.297717,-2072.576638,-1149.143247,8882.471304
964.298046,-444.123565,-3447.429741,6143.709319
964.298376,1776.494261,-4443.353888,5181.441594
964.298706,3997.112087,-3983.696590,7105.977043
964.299035,4515.256246,-689.485948,9030.512492
964.299365,1776.494261,3370.820191,10288.862594
964.299694,-888.247130,4979.620737,11103.089130
964.300024,-2738.761985,5669.106685,11843.295072
964.300354,-3404.947333,4596.572988,12287.418637
964.300683,-3849.070898,2221.676944,11547.212695
964.301013,-3256.906145,-1072.533697,10140.821405
964.301342,-2516.700203,-2604.724693,8290.306550
964.301672,-1850.514855,-3294.210641,6513.812290
964.302001,-296.082377,-4443.353888,6217.729913
964.302331,1332.370696,-3294.210641,7328.038826
964.302661,1776.494261,0.000000,8734.430116
964.302990,-518.144159,3677.258390,9474.636058
964.303320,-3404.947333,5132.839837,10584.944971
964.303649,-5477.523971,4826.401637,11251.130318
964.303979,-5477.523971,3217.601092,11843.295072
964.304309,-4885.359217,1532.190996,11177.109724
964.304638,-3108.864956,-1838.629195,9474.636058
964.304968,-1184.329507,-4136.915689,6957.935855
964.305297,370.102971,-5286.058936,6217.729913
964.305627,2072.576638,-3983.696590,7550.100608
964.305956,3478.967927,-919.314598,9844.739029
964.306286,2812.782580,2757.943793,11251.130318
964.306616,74.020594,5592.497135,11695.253884
964.306945,-2516.700203,7354.516781,11843.295072
964.307275,-2664.741391,5898.935335,12065.356855
964.307604,-1924.535449,3370.820191,11843.295072
964.307934,-1554.432478,536.266849,10214.842000
964.308264,-2368.659014,-1532.190996,7550.100608
964.308593,-1850.514855,-3677.258390,7031.956449
964.308923,-1258.350101,-4213.525239,7105.977043
964.309252,-444.123565,-2298.286494,8068.244768
964.309582,0.000000,229.828649,9400.615463
964.309911,-814.226536,3294.210641,11103.089130
964.310241,-3182.885551,5898.935335,11177.109724
964.310571,-4145.153275,6128.763984,11029.068536
964.310900,-3701.029710,4290.134789,11547.212695
964.311230,-2812.782580,2451.505594,11473.192101
964.311559,-2368.659014,0.000000,9918.759623
964.311889,-1406.391290,-1072.533697,7698.141797
964.312219,148.041188,-2451.505594,6143.709319
964.312548,2516.700203,-2834.553343,6291.750507
964.312878,4441.235652,-995.924147,7698.141797
964.313207,4071.132681,2145.067394,8734.430116
964.313537,1776.494261,4826.401637,9844.739029
964.313866,-1406.391290,6511.811733,10214.842000
964.314196,-2516.700203,6741.640382,10658.965565
964.314526,-2294.638420,4979.620737,10732.986159
964.314855,-1406.391290,2068.457845,9622.677246
964.315185,-888.247130,-612.876398,7772.162391
964.315514,-814.226536,-2604.724693,5995.668130
964.315844,0.000000,-3677.258390,5995.668130
964.316174,962.267725,-2911.162892,7994.224174
964.316503,962.267725,-306.438199,10066.800811
964.316833,-1036.288319,2911.162892,11251.130318
964.317162,-3034.844362,4673.182538,11991.336260
964.317492,-4293.194464,5132.839837,12731.542202
964.317821,-3627.009116,4213.525239,13619.789333
964.318151,-2738.761985,2451.505594,12657.521608
964.318481,-1628.453072,383.047749,10140.821405
964.318810,-296.082377,-2451.505594,7550.100608
964.319140,740.205942,-3830.477490,5551.544565
964.319469,2812.782580,-3983.696590,5921.647536
964.319799,4441.235652,-2528.115143,7772.162391
964.320129,3775.050304,1072.533697,9770.718434
964.320458,1036.288319,4596.572988,10955.047942
964.320788,-1850.514855,5592.497135,11991.336260
964.321117,-3108.864956,4903.011187,12509.480420
964.321447,-3404.947333,3600.648841,12361.439231
964.321776,-2886.803174,1378.971896,11177.109724
964.322106,-2146.597232,-1685.410096,9178.553681
964.322436,-1850.514855,-3600.648841,6883.915261
964.322765,-1258.350101,-4596.572988,5847.626942
964.323095,222.061783,-4366.744339,7254.018232
964.323424,1184.329507,-1762.019645,8882.471304
964.323754,0.000000,1838.629195,9622.677246
964.324084,-3034.844362,3907.087040,10066.800811
964.324413,-5033.400406,4519.963438,10807.006753
964.324743,-4737.318029,3677.258390,12065.356855
964.325072,-4071.132681,2451.505594,12509.480420
964.325402,-4145.153275,766.095498,10436.903782
964.325731,-2664.741391,-1915.238745,7328.038826
964.326061,-962.267725,-4596.572988,6069.688724
964.326391,1110.308913,-5209.449386,6513.812290
964.326720,2294.638420,-3600.648841,8364.327145
964.327050,1702.473667,459.657299,9992.780217
964.327379,-444.123565,4213.525239,11177.109724
964.327709,-2960.823768,6052.154434,11917.315666
964.328039,-3552.988522,6052.154434,12509.480420
964.328368,-2886.803174,4366.744339,11843.295072
964.328698,-2442.679609,2068.457845,10214.842000
964.329027,-1554.432478,-995.924147,8660.409521
964.329357,-1110.308913,-2681.334243,7402.059420
964.329686,-666.185348,-3830.477490,7105.977043
964.330016,-148.041188,-3370.820191,8216.285956
964.330346,444.123565,-459.657299,9326.594869
964.330675,222.061783,2911.162892,9622.677246
964.331005,-962.267725,4366.744339,10140.821405
964.331334,-3182.885551,4979.620737,10658.965565
964.331664,-3552.988522,5056.230287,11029.068536
964.331994,-2812.782580,4060.306139,11473.192101
964.332323,-2368.659014,1915.238745,11177.109724
964.332653,-2146.597232,229.828649,9326.594869
964.332982,-1110.308913,-1532.190996,7550.100608
964.333312,1036.288319,-2834.553343,6513.812290
964.333641,3478.967927,-2451.505594,7328.038826
964.333971,4145.153275,0.000000,9030.512492
964.334301,1850.514855,3294.210641,9326.594869
964.334630,-1184.329507,5286.058936,10214.842000
964.334960,-3108.864956,5745.716235,11029.068536
964.335289,-2442.679609,6511.811733,11325.150913
964.335619,-1184.329507,4290.134789,9844.739029
964.335949,222.061783,689.485948,7698.141797
964.336278,518.144159,-2145.067394,5477.523971
964.336608,740.205942,-2681.334243,5847.626942
964.336937,1184.329507,-2221.676944,7772.162391
964.337267,1110.308913,-306.438199,9918.759623
964.337596,-74.020594,2834.553343,12065.356855
964.337926,-2146.597232,4213.525239,12583.501014
964.338256,-3997.112087,3677.258390,12805.562797
964.338585,-3923.091493,4060.306139,12213.398043
964.338915,-2442.679609,3064.381992,10807.006753
964.339244,-1110.308913,612.876398,8956.491898
964.339574,0.000000,-1991.848295,6957.935855
964.339904,1036.288319,-2834.553343,6365.771101
964.340233,1998.556043,-2145.067394,6439.791695
964.340563,2590.720797,-612.876398,7846.182985
964.340892,2368.659014,1072.533697,9696.697840
964.341222,370.102971,2528.115143,11325.150913
964.341551,-1850.514855,4673.182538,12953.603985
964.341881,-3701.029710,4060.306139,13693.809927
964.342211,-4737.318029,3524.039291,12805.562797
964.342540,-4293.194464,2145.067394,11399.171507
964.342870,-2738.761985,-689.485948,8660.409521
964.343199,-1406.391290,-2757.943793,5699.585753
964.343529,-370.102971,-4903.011187,4219.173869
964.343859,370.102971,-4596.572988,6143.709319
964.344188,592.164754,-1608.800546,9474.636058
964.344518,-1258.350101,2528.115143,11325.150913
964.344847,-3552.988522,4366.744339,11251.130318
964.345177,-4589.276840,3064.381992,11473.192101
964.345506,-4737.318029,2374.896044,11917.315666
964.345836,-3182.885551,1072.533697,12139.377449
964.346166,-2072.576638,-383.047749,11103.089130
964.346495,-1406.391290,-1225.752797,8364.327145
964.346825,-666.185348,-2681.334243,5921.647536
964.347154,1850.514855,-3370.820191,5699.585753
964.347484,3923.091493,-3447.429741,7254.018232
964.347814,3849.070898,-766.095498,8586.388927
964.348143,1776.494261,2911.162892,10362.883188
964.348473,-1998.556043,4290.134789,11769.274478
964.348802,-4737.318029,4979.620737,13101.645173
964.349132,-5255.462188,4213.525239,13249.686362
964.349461,-4589.276840,2298.286494,11695.253884
964.349791,-2812.782580,-842.705048,9252.574275
964.350121,-888.247130,-3217.601092,6883.915261
964.350450,518.144159,-4366.744339,5773.606348
964.350780,1554.432478,-3600.648841,6587.832884
964.351109,1998.556043,-1378.971896,8364.327145
964.351439,888.247130,2221.676944,10362.883188
964.351769,-1184.329507,4673.182538,12361.439231
964.352098,-3182.885551,4903.011187,13175.665768
964.352428,-4293.194464,4903.011187,13915.871710
964.352757,-3849.070898,3753.867940,12953.603985
964.353087,-2442.679609,1455.581446,11029.068536
964.353416,-370.102971,-1532.190996,8660.409521
964.353746,888.247130,-2221.676944,5699.585753
964.354076,2516.700203,-2374.896044,4663.297435
964.354405,4515.256246,-766.095498,5699.585753
964.354735,5255.462188,1378.971896,7994.224174
964.355064,2590.720797,4443.353888,9622.677246
964.355394,-962.267725,7048.078582,10807.006753
964.355724,-4071.132681,6665.030833,11029.068536
964.356053,-4071.132681,5515.887586,11917.315666
964.356383,-3701.029710,3370.820191,11547.212695
964.356712,-3478.967927,153.219100,9474.636058
964.357042,-2146.597232,-2451.505594,6957.935855
964.357371,-148.041188,-3447.429741,5625.565159
964.357701,1184.329507,-2681.334243,6439.791695
964.358031,2220.617826,-689.485948,8216.285956
964.358360,1702.473667,2145.067394,9622.677246
964.358690,-666.185348,4290.134789,10881.027347
964.359019,-2664.741391,5822.325785,11991.336260
964.359349,-3552.988522,6205.373534,12879.583391
964.359679,-3182.885551,4596.572988,12509.480420
964.360008,-2738.761985,1149.143247,10732.986159
964.360338,-1480.411884,-995.924147,7846.182985
964.360667,148.041188,-2987.772442,5329.482782
964.360997,2146.597232,-3983.696590,5773.606348
964.361326,2886.803174,-2528.115143,7402.059420
964.361656,2368.659014,383.047749,9252.574275
964.361986,592.164754,3140.991542,10658.965565
964.362315,-2294.638420,5286.058936,12509.480420
964.362645,-4293.194464,6128.763984,13101.645173
964.362974,-4811.338623,4673.182538,13249.686362
964.363304,-4219.173869,1991.848295,11917.315666
964.363634,-3034.844362,-1532.190996,9474.636058
964.363963,-1554.432478,-3677.258390,6661.853478
964.364293,-814.226536,-5439.278036,5255.462188
964.364622,814.226536,-4749.792088,6291.750507
964.364952,1628.453072,-2451.505594,8068.244768
964.365281,1554.432478,612.876398,9696.697840
964.365611,0.000000,3370.820191,11251.130318
964.365941,-2516.700203,4060.306139,12435.459826
964.366270,-3552.988522,4673.182538,13323.706956
964.366600,-3849.070898,4060.306139,13397.727550
964.366929,-2960.823768,1532.190996,11621.233289
964.367259,-1332.370696,-2145.067394,8808.450710
964.367589,-370.102971,-3983.696590,6365.771101
964.367918,1110.308913,-4519.963438,5329.482782
964.368248,2812.782580,-4060.306139,6587.832884
964.368577,3404.947333,-1608.800546,7846.182985
964.368907,1924.535449,2374.896044,9770.718434
964.369236,-1776.494261,3830.477490,10658.965565
964.369566,-4367.215058,5362.668486,12361.439231
964.369896,-5181.441594,5515.887586,12805.562797
964.370225,-4663.297435,3217.601092,11843.295072
964.370555,-3923.091493,-306.438199,9474.636058
964.370884,-2590.720797,-2987.772442,6439.791695
964.371214,-1110.308913,-4519.963438,4737.318029
964.371544,1184.329507,-5286.058936,5995.668130
964.371873,1776.494261,-2604.724693,8142.265362
964.372203,814.226536,1149.143247,9918.759623
964.372532,-1036.288319,4290.134789,11325.150913
964.372862,-2516.700203,5898.935335,12435.459826
964.373191,-3256.906145,5209.449386,13915.871710
964.373521,-2960.823768,4596.572988,13471.748144
964.373851,-2664.741391,2451.505594,11695.253884
964.374180,-1332.370696,-766.095498,9178.553681
964.374510,370.102971,-2145.067394,7179.997637
964.374839,1850.514855,-3753.867940,6217.729913
964.375169,3108.864956,-2757.943793,6957.935855
964.375499,3775.050304,-689.485948,8216.285956
964.375828,2368.659014,2987.772442,9918.759623
964.376158,-444.123565,5132.839837,11251.130318
964.376487,-3330.926739,5898.935335,11843.295072
964.376817,-5033.400406,6511.811733,11399.171507
964.377146,-4663.297435,4979.620737,10955.047942
964.377476,-3330.926739,1302.362347,9622.677246
964.377806,-1850.514855,-1149.143247,7846.182985
964.378135,-888.247130,-2221.676944,5995.668130
964.378465,666.185348,-3217.601092,5255.462188
964.378794,1850.514855,-1685.410096,7105.977043
964.379124,2368.659014,1608.800546,9178.553681
964.379454,814.226536,3830.477490,10658.965565
964.379783,-2072.576638,5132.839837,11473.192101
964.380113,-3478.967927,6588.421283,12509.480420
964.380442,-3701.029710,5286.058936,12583.501014
964.380772,-2516.700203,2681.334243,11399.171507
964.381101,-1480.411884,76.609550,8808.450710
964.381431,0.000000,-2298.286494,6069.688724
964.381761,1924.535449,-4060.306139,4515.256246
964.382090,3849.070898,-3677.258390,5477.523971
964.382420,4367.215058,-1302.362347,8512.368333
964.382749,2886.803174,2298.286494,11103.089130
964.383079,-740.205942,5592.497135,12213.398043
964.383409,-4441.235652,8044.002729,12139.377449
964.383738,-5403.503377,6741.640382,11991.336260
964.384068,-4811.338623,3753.867940,11103.089130
964.384397,-4589.276840,-153.219100,9326.594869
964.384727,-4145.153275,-3907.087040,8216.285956
964.385056,-3108.864956,-4903.011187,7328.038826
964.385386,-2072.576638,-4749.792088,7550.100608
964.385716,-518.144159,-3983.696590,8438.347739
964.386045,444.123565,-1302.362347,9252.574275
964.386375,444.123565,1378.971896,10584.944971
964.386704,-370.102971,1838.629195,12213.398043
964.387034,-2072.576638,4826.401637,13471.748144
964.387363,-3775.050304,5975.544884,13397.727550
964.387693,-2960.823768,3983.696590,12805.562797
964.388023,-1184.329507,0.000000,10584.944971
964.388352,1110.308913,-2298.286494,7254.018232
964.388682,2812.782580,-4213.525239,4589.276840
964.389011,4145.153275,-5056.230287,5033.400406
964.389341,3849.070898,-2374.896044,7550.100608
964.389671,1998.556043,1225.752797,9696.697840
964.390000,-1110.308913,3983.696590,11547.212695
964.390330,-4589.276840,5898.935335,11843.295072
964.390659,-5477.523971,6052.154434,12361.439231
964.390989,-5699.585753,3524.039291,11917.315666
964.391318,-4515.256246,229.828649,10066.800811
964.391648,-3552.988522,-2987.772442,6957.935855
964.391978,-2738.761985,-5362.668486,4811.338623
964.392307,-1258.350101,-5056.230287,5107.421000
964.392637,-222.061783,-3524.039291,7105.977043
964.392966,666.185348,-919.314598,9178.553681
964.393296,0.000000,2528.115143,10584.944971
964.393625,-1702.473667,4213.525239,11769.274478
964.393955,-2368.659014,5209.449386,13101.645173
964.394284,-2294.638420,4443.353888,13693.809927
964.394614,-1998.556043,3677.258390,12287.418637
964.394944,-814.226536,1149.143247,10066.800811
964.395273,962.267725,-1225.752797,7550.100608
964.395603,3330.926739,-2757.943793,6291.750507
964.395932,4293.194464,-2604.724693,6365.771101
964.396262,4959.379811,-1608.800546,7846.182985
964.396591,3552.988522,1378.971896,9918.759623
964.396921,370.102971,4060.306139,11769.274478
964.397250,-2886.803174,5822.325785,12879.583391
964.397580,-4811.338623,6588.421283,13175.665768
964.397909,-5181.441594,4979.620737,12139.377449
964.398239,-4145.153275,1608.800546,10436.903782
964.398568,-2664.741391,-1608.800546,8068.244768
964.398898,-1924.535449,-3064.381992,5403.503377
964.399227,-222.061783,-3294.210641,4515.256246
964.399557,1184.329507,-2374.896044,5625.565159
964.399886,1998.556043,76.609550,8142.265362
964.400216,962.267725,2911.162892,10362.883188
964.400545,-1184.329507,5362.668486,11621.233289
964.400875,-3404.947333,7048.078582,12509.480420
964.401204,-3404.947333,6741.640382,13027.624579
964.401534,-2590.720797,4443.353888,11843.295072
964.401863,-1332.370696,689.485948,9548.656652
964.402193,0.000000,-1378.971896,7031.956449
964.402522,1332.370696,-2374.896044,5033.400406
964.402852,3108.864956,-2987.772442,5255.462188
964.403181,4071.132681,-2068.457845,7031.956449
964.403511,3034.844362,612.876398,9178.553681
964.403840,0.000000,3753.867940,10807.006753
964.404170,-3256.906145,5669.106685,11843.295072
964.404500,-4737.318029,5592.497135,11991.336260
964.404829,-4811.338623,4136.915689,11695.253884
964.405159,-3701.029710,1302.362347,11029.068536
964.405488,-3108.864956,-1532.190996,8882.471304
964.405818,-2146.597232,-3447.429741,6735.874072
964.406147,-518.144159,-4213.525239,5921.647536
964.406477,518.144159,-3677.258390,7476.080014
964.406806,1110.308913,-1225.752797,9696.697840
964.407136,148.041188,1915.238745,10881.027347
964.407465,-1702.473667,4290.134789,11177.109724
964.407795,-3034.844362,5439.278036,12361.439231
964.408124,-3330.926739,3830.477490,14137.933492
964.408454,-3478.967927,2987.772442,13989.892304
964.408783,-3330.926739,1302.362347,11843.295072
964.409113,-1850.514855,-1991.848295,8512.368333
964.409442,444.123565,-3753.867940,6365.771101
964.409772,2368.659014,-4366.744339,5699.585753
964.410101,3923.091493,-3907.087040,7105.977043
964.410431,3923.091493,-766.095498,7994.224174
964.410760,1776.494261,3830.477490,9696.697840
964.411090,-1480.411884,4979.620737,11325.150913
964.411419,-4589.276840,5592.497135,12139.377449
964.411749,-4885.359217,6052.154434,11843.295072
964.412078,-4293.194464,2757.943793,10732.986159
964.412408,-3108.864956,-766.095498,8586.388927
964.412737,-2220.617826,-2528.115143,6291.750507
964.413067,-1036.288319,-4673.182538,5255.462188
964.413397,74.020594,-5286.058936,6291.750507
964.413726,222.061783,-1991.848295,8068.244768
964.414056,-740.205942,1838.629195,9400.615463
964.414385,-2368.659014,3753.867940,10510.924376
964.414715,-4293.194464,4290.134789,11917.315666
964.415044,-4071.132681,4749.792088,12509.480420
964.415374,-3034.844362,3370.820191,12583.501014
964.415703,-1924.535449,1149.143247,10955.047942
964.416033,-1332.370696,-689.485948,8364.327145
964.416362,-296.082377,-2834.553343,6217.729913
964.416692,2294.638420,-4213.525239,6143.709319
964.417021,4737.318029,-2528.115143,8438.347739
964.417351,4515.256246,536.266849,10066.800811
964.417680,2220.617826,3524.039291,11547.212695
964.418010,-1480.411884,5056.230287,12287.418637
964.418339,-3849.070898,5669.106685,13323.706956
964.418669,-4293.194464,5286.058936,13397.727550
964.418998,-3997.112087,3983.696590,12509.480420
964.419328,-3108.864956,536.266849,9770.718434
964.419657,-1924.535449,-2757.943793,7105.977043
964.419987,-222.061783,-4136.915689,4959.379811
964.420316,1480.411884,-3524.039291,5255.462188
964.420646,1924.535449,-1915.238745,6957.935855
964.420975,1110.308913,1608.800546,8438.347739
964.421305,-1110.308913,4673.182538,10140.821405
964.421634,-2960.823768,5515.887586,11769.274478
964.421964,-3552.988522,6281.983084,12879.583391
964.422293,-2960.823768,4749.792088,12361.439231
964.422623,-2368.659014,2604.724693,11399.171507
964.422953,-1110.308913,-383.047749,8660.409521
964.423282,0.000000,-2298.286494,6439.791695
964.423612,2220.617826,-3217.601092,5847.626942
964.423941,3627.009116,-2834.553343,6809.894666
964.424271,3997.112087,306.438199,8586.388927
964.424600,2294.638420,3447.429741,9992.780217
964.424930,-518.144159,5745.716235,10584.944971
964.425259,-3627.009116,7124.688131,10510.924376
964.425589,-4219.173869,5898.935335,9918.759623
964.425918,-3775.050304,3447.429741,9548.656652
964.426248,-2960.823768,0.000000,9400.615463
964.426577,-2886.803174,-2528.115143,8068.244768
964.426907,-2812.782580,-3983.696590,6883.915261
964.427236,-1406.391290,-3753.867940,7105.977043
964.427566,-296.082377,-2374.896044,8586.388927
964.427895,296.082377,-612.876398,10140.821405
964.428225,-592.164754,1608.800546,11843.295072
964.428554,-2516.700203,3370.820191,13027.624579
964.428884,-4293.194464,6052.154434,14063.912898
964.429213,-3997.112087,6358.592633,13767.830521
964.429543,-1850.514855,2911.162892,12509.480420
964.429872,0.000000,-995.924147,9252.574275
964.430202,1258.350101,-3294.210641,5773.606348
964.430531,2886.803174,-4443.353888,4885.359217
964.430861,4071.132681,-3447.429741,6883.915261
964.431190,3997.112087,-995.924147,8882.471304
964.431520,1406.391290,2451.505594,10807.006753
964.431849,-1850.514855,4826.401637,11695.253884
964.432179,-4219.173869,5745.716235,12361.439231
964.432509,-4811.338623,5975.544884,12139.377449
964.432838,-4219.173869,2451.505594,11325.150913
964.433168,-3775.050304,0.000000,9474.636058
964.433497,-3330.926739,-2451.505594,7105.977043
964.433827,-2812.782580,-4366.744339,5625.565159
964.434156,-1110.308913,-4060.306139,5625.565159
964.434486,296.082377,-3447.429741,7328.038826
964.434815,518.144159,-229.828649,8660.409521
964.435145,-888.247130,2298.286494,9696.697840
964.435474,-2738.761985,3753.867940,10658.965565
964.435804,-3849.070898,4826.401637,11843.295072
964.436133,-3478.967927,4519.963438,12361.439231
964.436463,-2516.700203,3677.258390,11843.295072
964.436792,-1480.411884,153.219100,9622.677246
964.437122,370.102971,-2681.334243,7328.038826
964.437451,2220.617826,-3524.039291,6587.832884
964.437781,2960.823768,-3447.429741,7402.059420
964.438110,3627.009116,-1149.143247,9104.533087
964.438440,2368.659014,1455.581446,10658.965565
964.438769,-592.164754,4519.963438,11769.274478
964.439099,-3034.844362,4596.572988,13175.665768
964.439428,-4737.318029,5439.278036,13693.809927
964.439758,-4367.215058,4443.353888,12139.377449
964.440087,-3552.988522,842.705048,10066.800811
964.440417,-1850.514855,-2298.286494,7254.018232
964.440746,-518.144159,-3753.867940,5995.668130
964.441076,592.164754,-4136.915689,5921.647536
964.441406,1406.391290,-1991.848295,7179.997637
964.441735,1480.411884,612.876398,9326.594869
964.442065,0.000000,3294.210641,10881.027347
964.442394,-2442.679609,4060.306139,11917.315666
964.442724,-4219.173869,5362.668486,12953.603985
964.443053,-3923.091493,5286.058936,13471.748144
964.443383,-3330.926739,3294.210641,11843.295072
964.443712,-1554.432478,1225.752797,9400.615463
964.444042,222.061783,-1378.971896,6809.894666
964.444371,2368.659014,-2987.772442,5329.482782
964.444701,4441.235652,-2374.896044,5329.482782
964.445030,4811.338623,306.438199,6513.812290
964.445360,3775.050304,2221.676944,8438.347739
964.445689,0.000000,4903.011187,10288.862594
964.446019,-3552.988522,6665.030833,11843.295072
964.446348,-4959.379811,6435.202183,12361.439231
964.446678,-4293.194464,4366.744339,11695.253884
964.447007,-3330.926739,1378.971896,9400.615463
964.447337,-2072.576638,-2221.676944,7105.977043
964.447666,-962.267725,-3983.696590,5329.482782
964.447996,74.020594,-3600.648841,5699.585753
964.448325,1258.350101,-1991.848295,7846.182985
964.448655,740.205942,536.266849,9918.759623
964.448984,-962.267725,3753.867940,11621.233289
964.449314,-2368.659014,4290.134789,12435.459826
964.449643,-3775.050304,4979.620737,12805.562797
964.449973,-4219.173869,4060.306139,13175.665768
964.450302,-3997.112087,2451.505594,12213.398043
964.450632,-2294.638420,-919.314598,10881.027347
964.450962,-1036.288319,-2451.505594,8290.306550
964.451291,740.205942,-3524.039291,6809.894666
964.451621,2590.720797,-4366.744339,6439.791695
964.451950,3923.091493,-2374.896044,7550.100608
964.452280,3552.988522,612.876398,9178.553681
964.452609,1110.308913,3217.601092,11325.150913
964.452939,-2368.659014,5669.106685,12509.480420
964.453268,-4515.256246,6435.202183,12657.521608
964.453598,-4885.359217,4826.401637,12139.377449
964.453927,-3182.885551,1991.848295,9918.759623
964.454257,-1850.514855,-2604.724693,8068.244768
964.454586,-1036.288319,-4519.963438,5847.626942
964.454916,-518.144159,-4290.134789,5477.523971
964.455245,222.061783,-3294.210641,6661.853478
964.455575,370.102971,-766.095498,8438.347739
964.455904,-1628.453072,2145.067394,9992.780217
964.456234,-3701.029710,4136.915689,10881.027347
964.456563,-4737.318029,4136.915689,11769.274478
964.456893,-4367.215058,3830.477490,11843.295072
964.457222,-3182.885551,3064.381992,11029.068536
964.457552,-2294.638420,-995.924147,9474.636058
964.457881,-962.267725,-3140.991542,7328.038826
964.458211,444.123565,-3294.210641,6291.750507
964.458540,1924.535449,-2911.162892,6883.915261
964.458870,3330.926739,-2451.505594,8216.285956
964.459199,2516.700203,229.828649,9992.780217
964.459529,444.123565,3064.381992,11843.295072
964.459859,-2368.659014,4903.011187,13397.727550
964.460188,-4367.215058,6052.154434,13471.748144
964.460518,-4293.194464,4903.011187,12879.583391
964.460847,-3330.926739,1991.848295,10510.924376
964.461177,-1332.370696,-1225.752797,7846.182985
964.461506,148.041188,-3600.648841,6143.709319
964.461836,1702.473667,-3907.087040,5403.503377
964.462165,2294.638420,-2221.676944,6661.853478
964.462495,1776.494261,459.657299,9030.512492
964.462824,74.020594,3370.820191,10436.903782
964.463154,-2368.659014,4366.744339,11843.295072
964.463483,-4441.235652,4443.353888,13397.727550
964.463813,-5107.421000,4826.401637,14359.995275
964.464142,-4589.276840,3753.867940,13175.665768
964.464472,-2738.761985,76.609550,10362.883188
964.464801,-814.226536,-2374.896044,6883.915261
964.465131,1332.370696,-3064.381992,4959.379811
964.465460,3849.070898,-3217.601092,5403.503377
964.465790,5107.421000,-1378.971896,6809.894666
964.466119,4515.256246,2145.067394,7846.182985
964.466449,2072.576638,4979.620737,9326.594869
964.466778,-1406.391290,6511.811733,10436.903782
964.467108,-3701.029710,8120.612279,10510.924376
964.467437,-4589.276840,6665.030833,10214.842000
964.467767,-3701.029710,1915.238745,9770.718434
964.468096,-2812.782580,-1608.800546,8660.409521
964.468426,-2738.761985,-2987.772442,7550.100608
964.468755,-2146.597232,-4290.134789,7031.956449
964.469085,-1110.308913,-3753.867940,7624.121203
964.469415,0.000000,-1378.971896,8364.327145
964.469744,74.020594,766.095498,10807.006753
964.470074,-1258.350101,2987.772442,12065.356855
964.470403,-3108.864956,4903.011187,12879.583391
964.470733,-3701.029710,5822.325785,12435.459826
964.471062,-2738.761985,4366.744339,11695.253884
964.471392,-592.164754,689.485948,10140.821405
964.471721,814.226536,-1838.629195,7328.038826
964.472051,2220.617826,-3370.820191,5699.585753
964.472380,3034.844362,-3753.867940,6883.915261
964.472710,3404.947333,-1608.800546,9030.512492
964.473039,2590.720797,919.314598,10436.903782
964.473369,74.020594,3677.258390,11843.295072
964.473698,-2738.761985,4979.620737,12953.603985
964.474028,-4811.338623,4979.620737,13545.768739
964.474357,-5921.647536,3600.648841,12731.542202
964.474687,-5255.462188,1149.143247,11103.089130
964.475016,-4293.194464,-1762.019645,8956.491898
964.475346,-3034.844362,-3294.210641,6217.729913
964.475675,-1480.411884,-4673.182538,4737.318029
964.476005,444.123565,-5056.230287,5255.462188
964.476334,1480.411884,-2221.676944,6735.874072
964.476664,1036.288319,2145.067394,8512.368333
964.476993,-1110.308913,3983.696590,9918.759623
964.477323,-3034.844362,5975.544884,10881.027347
964.477652,-3923.091493,5975.544884,11325.150913
964.477982,-3182.885551,3447.429741,11843.295072
964.478311,-1850.514855,1149.143247,11399.171507
964.478641,-1406.391290,-1378.971896,9474.636058
964.478971,-962.267725,-2987.772442,7698.141797
964.479300,444.123565,-4213.525239,7179.997637
964.479630,2220.617826,-2911.162892,8290.306550
964.479959,3182.885551,-383.047749,9178.553681
964.480289,2146.597232,1685.410096,10732.986159
964.480618,-888.247130,4136.915689,11029.068536
964.480948,-3182.885551,5439.278036,11621.233289
964.481277,-3552.988522,5209.449386,11917.315666
964.481607,-2590.720797,3524.039291,10955.047942
964.481936,-1406.391290,229.828649,8364.327145
964.482266,0.000000,-3064.381992,6439.791695
964.482595,962.267725,-4136.915689,5995.668130
964.482925,1332.370696,-2911.162892,7105.977043
964.483254,1406.391290,-919.314598,9030.512492
964.483584,222.061783,1838.629195,10658.965565
964.483913,-1332.370696,3907.087040,12583.501014
964.484243,-3478.967927,4826.401637,14063.912898
964.484572,-4663.297435,5362.668486,14211.954086
964.484902,-4293.194464,4596.572988,13323.706956
964.485231,-2812.782580,2298.286494,10584.944971
964.485561,-592.164754,-919.314598,7550.100608
964.485890,1850.514855,-3217.601092,5255.462188
964.486220,3627.009116,-3907.087040,4737.318029
964.486549,4219.173869,-1991.848295,5625.565159
964.486879,3923.091493,2221.676944,7624.121203
964.487208,2146.597232,4213.525239,9548.656652
964.487538,-740.205942,5745.716235,11177.109724
964.487868,-3849.070898,7048.078582,11695.253884
964.488197,-4663.297435,6052.154434,11769.274478
964.488527,-3627.009116,3600.648841,10214.842000
964.488856,-2664.741391,0.000000,8586.388927
964.489186,-2368.659014,-2451.505594,6883.915261
964.489515,-1628.453072,-3294.210641,6291.750507
964.489845,-222.061783,-3294.210641,6957.935855
964.490174,666.185348,-919.314598,8290.306550
964.490504,666.185348,1762.019645,9474.636058
964.490833,-1332.370696,3217.601092,10510.924376
964.491163,-3478.967927,4749.792088,11695.253884
964.491492,-4515.256246,5056.230287,12435.459826
964.491822,-4293.194464,4060.306139,12953.603985
964.492151,-3330.926739,2145.067394,12139.377449
964.492481,-2146.597232,-1378.971896,9178.553681
964.492810,74.020594,-3600.648841,6513.812290
964.493140,2294.638420,-4596.572988,5847.626942
964.493469,4219.173869,-3294.210641,7254.018232
964.493799,4737.318029,-1378.971896,9622.677246
964.494128,2664.741391,2298.286494,11621.233289
964.494458,-1332.370696,5439.278036,12361.439231
964.494787,-3478.967927,5975.544884,13249.686362
964.495117,-4145.153275,5286.058936,13175.665768
964.495447,-3849.070898,3064.381992,11843.295072
964.495776,-2590.720797,-229.828649,9104.533087
964.496106,-1850.514855,-3524.039291,6809.894666
964.496436,-888.247130,-4673.182538,5403.503377
964.496765,-370.102971,-4519.963438,5921.647536
964.497095,0.000000,-2451.505594,7328.038826
964.497425,444.123565,842.705048,8068.244768
964.497754,0.000000,3524.039291,9400.615463
964.498084,-1776.494261,3753.867940,10510.924376
964.498414,-3478.967927,3753.867940,11917.315666
964.498743,-4441.235652,3677.258390,12805.562797
964.499073,-4515.256246,2834.553343,12583.501014
964.499403,-3256.906145,0.000000,10881.027347
964.499732,-1628.453072,-2221.676944,8142.265362
964.500062,888.247130,-4366.744339,6365.771101
964.500392,3256.906145,-4903.011187,6513.812290
964.500721,4515.256246,-2834.553343,7624.121203
964.501051,3849.070898,1915.238745,9252.574275
964.501381,666.185348,4596.572988,10881.027347
964.501711,-2146.597232,5669.106685,11843.295072
964.502040,-3775.050304,6818.249932,11917.315666
964.502370,-3404.947333,5132.839837,11029.068536
964.502700,-1998.556043,1072.533697,9178.553681
964.503029,-962.267725,-1991.848295,7105.977043
964.503359,-740.205942,-3830.477490,6513.812290
964.503689,0.000000,-4519.963438,6883.915261
964.504018,148.041188,-3140.991542,8808.450710
964.504348,-222.061783,0.000000,10140.821405
964.504678,-1480.411884,2528.115143,11695.253884
964.505007,-3256.906145,3677.258390,13841.851115
964.505337,-4663.297435,5592.497135,14582.057057
964.505667,-3997.112087,5132.839837,13989.892304
964.505996,-2368.659014,3140.991542,11843.295072
964.506326,-666.185348,612.876398,8882.471304
964.506656,1184.329507,-1685.410096,6069.688724
964.506985,3034.844362,-2987.772442,4145.153275
964.507315,4589.276840,-1991.848295,4663.297435
964.507645,4959.379811,459.657299,6439.791695
964.507974,2886.803174,2298.286494,8734.430116
964.508304,-814.226536,4903.011187,10955.047942
964.508634,-4737.318029,7048.078582,12287.418637
964.508964,-5699.585753,6741.640382,12953.603985
964.509293,-4589.276840,4136.915689,12583.501014
964.509623,-3701.029710,1225.752797,9548.656652
964.509953,-2442.679609,-2681.334243,7105.977043
964.510282,-444.123565,-3983.696590,5107.421000
964.510612,1184.329507,-3217.601092,5033.400406
964.510942,2220.617826,-1455.581446,6365.771101
964.511271,1702.473667,0.000000,8660.409521
964.511601,222.061783,3294.210641,10140.821405
964.511931,-1850.514855,4903.011187,11473.192101
964.512260,-3108.864956,5975.544884,12361.439231
964.512590,-3330.926739,5132.839837,12657.521608
964.512920,-2812.782580,3447.429741,12287.418637
964.513249,-1702.473667,-229.828649,9992.780217
964.513579,-296.082377,-2374.896044,7254.018232
964.513909,740.205942,-2604.724693,6143.709319
964.514238,2368.659014,-3600.648841,7105.977043
964.514568,3034.844362,-2068.457845,9622.677246
964.514898,1776.494261,1762.019645,11029.068536
964.515227,-1036.288319,3830.477490,12139.377449
964.515557,-4071.132681,4903.011187,12657.521608
964.515887,-4959.379811,5056.230287,13027.624579
964.516216,-4589.276840,3677.258390,12287.418637
964.516546,-2960.823768,-306.438199,9622.677246
964.516876,-1036.288319,-2681.334243,6957.935855
964.517206,222.061783,-3830.477490,5181.441594
964.517535,1702.473667,-3830.477490,5551.544565
964.517865,1998.556043,-2374.896044,7402.059420
964.518195,1924.535449,383.047749,9178.553681
964.518524,148.041188,3524.039291,10436.903782
964.518854,-2368.659014,4136.915689,11843.295072
964.519184,-4589.276840,4903.011187,12879.583391
964.519513,-4959.379811,3447.429741,13767.830521
964.519843,-4441.235652,1455.581446,12657.521608
964.520173,-3478.967927,-689.485948,9992.780217
964.520502,-2368.659014,-2681.334243,6957.935855
964.520832,-296.082377,-3983.696590,5625.565159
964.521162,2220.617826,-4213.525239,5329.482782
964.521491,3627.009116,-1915.238745,6513.812290
964.521821,3627.009116,842.705048,8290.306550
964.522151,1036.288319,3294.210641,9770.718434
964.522480,-2886.803174,5592.497135,11325.150913
964.522810,-4441.235652,6281.983084,12065.356855
964.523140,-4441.235652,4596.572988,12065.356855
964.523469,-3108.864956,1378.971896,10584.944971
964.523799,-1850.514855,-2145.067394,7994.224174
964.524129,-444.123565,-4596.572988,6217.729913
964.524459,296.082377,-4596.572988,6069.688724
964.524788,1184.329507,-3830.477490,7846.182985
964.525118,1480.411884,-1149.143247,10362.883188
964.525448,-370.102971,3217.601092,12361.439231
964.525777,-2664.741391,5362.668486,13249.686362
964.526107,-3923.091493,5669.106685,13471.748144
964.526437,-3923.091493,4826.401637,13249.686362
964.526766,-2516.700203,3370.820191,12287.418637
964.527096,-1184.329507,0.000000,9844.739029
964.527426,148.041188,-2145.067394,7031.956449
964.527755,1406.391290,-2681.334243,4811.338623
964.528085,2886.803174,-3447.429741,5699.585753
964.528415,3923.091493,-1532.190996,7328.038826
964.528744,3034.844362,1685.410096,9474.636058
964.529074,370.102971,4366.744339,10881.027347
964.529404,-2960.823768,6205.373534,11399.171507
964.529733,-4071.132681,6741.640382,12213.398043
964.530063,-4219.173869,5056.230287,12065.356855
964.530393,-3330.926739,2528.115143,10510.924376
964.530722,-1924.535449,-459.657299,7624.121203
964.531052,-444.123565,-2757.943793,5329.482782
964.531382,740.205942,-3600.648841,4663.297435
964.531712,1332.370696,-2757.943793,5921.647536
964.532041,1628.453072,-612.876398,7698.141797
964.532371,740.205942,2221.676944,9696.697840
964.532701,-2294.638420,4903.011187,11029.068536
964.533030,-4589.276840,6052.154434,12287.418637
964.533360,-4737.318029,5515.887586,12509.480420
964.533690,-3404.947333,3600.648841,12361.439231
964.534019,-1998.556043,766.095498,10436.903782
964.534349,-370.102971,-1685.410096,7105.977043
964.534679,1036.288319,-2757.943793,5625.565159
964.535008,2664.741391,-3753.867940,6439.791695
964.535338,3627.009116,-2145.067394,7994.224174
964.535668,3330.926739,842.705048,10066.800811
964.535997,592.164754,3983.696590,11325.150913
964.536327,-2516.700203,4596.572988,12657.521608
964.536657,-4737.318029,5822.325785,13175.665768
964.536986,-4811.338623,4290.134789,13101.645173
964.537316,-3923.091493,1149.143247,11029.068536
964.537646,-1998.556043,-1455.581446,8660.409521
964.537975,-518.144159,-3294.210641,5995.668130
964.538305,814.226536,-4826.401637,5403.503377
964.538635,1554.432478,-3907.087040,6661.853478
964.538964,1406.391290,-995.924147,8586.388927
964.539294,74.020594,1838.629195,10510.924376
964.539624,-1776.494261,3600.648841,12509.480420
964.539954,-4071.132681,4826.401637,13175.665768
964.540283,-4959.379811,4366.744339,13693.809927
964.540613,-4737.318029,2145.067394,12435.459826
964.540943,-3627.009116,-153.219100,11103.089130
964.541272,-1776.494261,-1991.848295,8808.450710
964.541602,0.000000,-3447.429741,5847.626942
964.541932,2072.576638,-4290.134789,5033.400406
964.542261,3404.947333,-2451.505594,6069.688724
964.542591,3627.009116,459.657299,7550.100608
964.542921,1850.514855,2987.772442,9400.615463
964.543250,-1184.329507,5439.278036,10807.006753
964.543580,-4515.256246,6358.592633,11325.150913
964.543910,-5107.421000,4826.401637,11991.336260
964.544239,-4737.318029,2221.676944,11325.150913
964.544569,-3404.947333,-1685.410096,8956.491898
964.544899,-2146.597232,-3907.087040,6513.812290
964.545228,-666.185348,-4519.963438,6217.729913
964.545558,814.226536,-4979.620737,6883.915261
964.545888,1776.494261,-2604.724693,9400.615463
964.546217,888.247130,1762.019645,11547.212695
964.546547,-1184.329507,4519.963438,12657.521608
964.546877,-2516.700203,6205.373534,13027.624579
964.547207,-3034.844362,6205.373534,12583.501014
964.547536,-2368.659014,4673.182538,10955.047942
964.547866,-888.247130,1149.143247,9326.594869
964.548196,-296.082377,-1302.362347,7698.141797
964.548525,-222.061783,-2451.505594,6957.935855
964.548855,0.000000,-2757.943793,7476.080014
964.549185,814.226536,-2298.286494,9178.553681
964.549514,1702.473667,-536.266849,10436.903782
964.549844,444.123565,2145.067394,11177.109724
964.550174,-1480.411884,3677.258390,11547.212695
964.550503,-2516.700203,5209.449386,12361.439231
964.550833,-3330.926739,5209.449386,11917.315666
964.551163,-3034.844362,4903.011187,10584.944971
964.551492,-2072.576638,2145.067394,8290.306550
964.551822,0.000000,-1225.752797,5477.523971
964.552152,1702.473667,-1991.848295,4145.153275
964.552481,2590.720797,-3600.648841,4589.276840
964.552811,2664.741391,-1762.019645,6883.915261
964.553141,1332.370696,1378.971896,9474.636058
964.553470,-1998.556043,4213.525239,12139.377449
964.553800,-5403.503377,6281.983084,13471.748144
964.554130,-6365.771101,6741.640382,13767.830521
964.554460,-5477.523971,4443.353888,12879.583391
964.554789,-3552.988522,1302.362347,10807.006753
964.555119,-1332.370696,-1378.971896,8142.265362
964.555449,148.041188,-2298.286494,5107.421000
964.555778,1702.473667,-3447.429741,5107.421000
964.556108,2442.679609,-1915.238745,6365.771101
964.556438,2738.761985,383.047749,8808.450710
964.556767,1332.370696,2911.162892,10436.903782
964.557097,-1554.432478,5286.058936,11473.192101
964.557427,-3404.947333,5669.106685,11769.274478
964.557756,-3849.070898,4290.134789,11917.315666
964.558086,-2960.823768,2374.896044,11399.171507
964.558416,-1924.535449,-459.657299,9400.615463
964.558745,-962.267725,-2451.505594,7402.059420
964.559075,0.000000,-3140.991542,6143.709319
964.559405,1184.329507,-2987.772442,7328.038826
964.559734,2146.597232,-2145.067394,8734.430116
964.560064,1776.494261,76.609550,10362.883188
964.560394,-370.102971,2911.162892,12139.377449
964.560723,-3404.947333,3753.867940,12731.542202
964.561053,-4811.338623,4673.182538,13915.871710
964.561383,-4959.379811,3447.429741,13249.686362
964.561712,-3849.070898,842.705048,11769.274478
964.562042,-1998.556043,-2145.067394,9326.594869
964.562372,0.000000,-3677.258390,6365.771101
964.562702,1554.432478,-4903.011187,4885.359217
964.563031,3182.885551,-3830.477490,5551.544565
964.563361,3627.009116,-1378.971896,7476.080014
964.563691,1924.535449,2374.896044,9770.718434
964.564020,-1036.288319,4903.011187,10881.027347
964.564350,-3330.926739,6435.202183,11621.233289
964.564680,-4071.132681,4826.401637,11843.295072
964.565009,-4145.153275,2681.334243,11029.068536
964.565339,-3182.885551,-383.047749,9252.574275
964.565669,-2146.597232,-2987.772442,7105.977043
964.565998,-962.267725,-3524.039291,5625.565159
964.566328,296.082377,-4826.401637,5699.585753
964.566658,1406.391290,-2757.943793,7994.224174
964.566987,1480.411884,0.000000,9622.677246
964.567317,-222.061783,2987.772442,11473.192101
964.567647,-2886.803174,4366.744339,12805.562797
964.567976,-5107.421000,5362.668486,13101.645173
964.568306,-4885.359217,4366.744339,13249.686362
964.568636,-3627.009116,1532.190996,12065.356855
964.568965,-1702.473667,-919.314598,9326.594869
964.569295,0.000000,-2757.943793,6809.894666
964.569625,1776.494261,-4673.182538,5403.503377
964.569955,3330.926739,-3140.991542,6957.935855
964.570284,3775.050304,-153.219100,9178.553681
964.570614,2072.576638,3600.648841,11103.089130
964.570944,-1110.308913,5975.544884,11843.295072
964.571273,-3923.091493,7124.688131,12287.418637
964.571603,-4589.276840,6128.763984,13027.624579
964.571933,-3997.112087,4443.353888,12065.356855
964.572262,-3330.926739,1838.629195,9252.574275
964.572592,-2146.597232,-1838.629195,6661.853478
964.572922,-1332.370696,-3294.210641,4737.318029
964.573251,-222.061783,-3600.648841,4737.318029
964.573581,962.267725,-2298.286494,6883.915261
964.573911,1258.350101,689.485948,8734.430116
964.574240,0.000000,4136.915689,10288.862594
964.574570,-2516.700203,5286.058936,11399.171507
964.574900,-3997.112087,6128.763984,12361.439231
964.575229,-4071.132681,6128.763984,12509.480420
964.575559,-2738.761985,4136.915689,11177.109724
964.575889,-888.247130,536.266849,8660.409521
964.576218,666.185348,-1915.238745,5995.668130
964.576548,2072.576638,-3830.477490,4737.318029
964.576878,3182.885551,-3140.991542,5921.647536
964.577208,3404.947333,-383.047749,8734.430116
964.577537,1776.494261,2911.162892,9992.780217
964.577867,-1036.288319,5286.058936,10881.027347
964.578197,-3478.967927,5592.497135,11769.274478
964.578526,-3701.029710,5056.230287,12361.439231
964.578856,-3552.988522,3217.601092,11769.274478
964.579186,-2886.803174,306.438199,9696.697840
964.579515,-2146.597232,-2451.505594,7179.997637
964.579845,-1184.329507,-4136.915689,6143.709319
964.580175,148.041188,-4443.353888,7105.977043
964.580504,1628.453072,-2987.772442,8512.368333
964.580834,1776.494261,-919.314598,9400.615463
964.581164,592.164754,1838.629195,11399.171507
964.581493,-1702.473667,2987.772442,13767.830521
964.581823,-3923.091493,4903.011187,14730.098246
964.582153,-5181.441594,4749.792088,14878.139434
964.582482,-4441.235652,3294.210641,13175.665768
964.582812,-2442.679609,0.000000,10510.924376
964.583142,-518.144159,-3217.601092,7105.977043
964.583471,1776.494261,-4519.963438,4737.318029
964.583801,2812.782580,-4826.401637,4885.359217
964.584131,3404.947333,-2604.724693,6439.791695
964.584460,2368.659014,612.876398,8660.409521
964.584790,-592.164754,3677.258390,10436.903782
964.585120,-3923.091493,4903.011187,11695.253884
964.585450,-4737.318029,4749.792088,13027.624579
964.585779,-5403.503377,3983.696590,12213.398043
964.586109,-4071.132681,919.314598,10807.006753
964.586439,-2368.659014,-2604.724693,8216.285956
964.586768,-1406.391290,-4136.915689,5773.606348
964.587098,222.061783,-3830.477490,4811.338623
964.587428,962.267725,-2451.505594,6069.688724
964.587757,1406.391290,459.657299,7624.121203
964.588087,148.041188,3370.820191,9474.636058
964.588417,-2590.720797,4136.915689,10955.047942
964.588746,-4885.359217,5056.230287,12435.459826
964.589076,-5551.544565,4519.963438,13767.830521
964.589406,-5033.400406,2757.943793,12953.603985
964.589735,-3849.070898,0.000000,10658.965565
964.590065,-2146.597232,-2451.505594,8364.327145
964.590395,740.205942,-4749.792088,6809.894666
964.590724,2812.782580,-5209.449386,6513.812290
964.591054,4441.235652,-1378.971896,8364.327145
964.591384,4145.153275,2451.505594,9474.636058
964.591713,1850.514855,4826.401637,10436.903782
964.592043,-666.185348,6358.592633,11325.150913
964.592373,-2146.597232,6741.640382,12287.418637
964.592703,-2368.659014,5975.544884,12361.439231
964.593032,-2072.576638,3370.820191,11547.212695
964.593362,-1184.329507,153.219100,9400.615463
964.593692,-1036.288319,-1915.238745,6513.812290
964.594021,0.000000,-3447.429741,5403.503377
964.594351,888.247130,-3370.820191,7105.977043
964.594681,518.144159,229.828649,8882.471304
964.595010,-518.144159,3064.381992,10362.883188
964.595340,-3034.844362,3983.696590,11325.150913
964.595670,-4737.318029,5132.839837,12139.377449
964.595999,-4959.379811,5592.497135,12065.356855
964.596329,-4293.194464,3907.087040,11473.192101
964.596659,-2738.761985,919.314598,9326.594869
964.596988,-370.102971,-1378.971896,6217.729913
964.597318,1776.494261,-2987.772442,4811.338623
964.597648,3478.967927,-3447.429741,5477.523971
964.597978,4885.359217,-1455.581446,7624.121203
964.598307,4145.153275,2145.067394,9622.677246
964.598637,1110.308913,5056.230287,10658.965565
964.598967,-1850.514855,6511.811733,11695.253884
964.599296,-3034.844362,6588.421283,12213.398043
964.599626,-3256.906145,4903.011187,12287.418637
964.599956,-2886.803174,2374.896044,10732.986159
964.600285,-1998.556043,-1225.752797,7772.162391
964.600615,-1110.308913,-3983.696590,5625.565159
964.600945,-296.082377,-4903.011187,5699.585753
964.601274,74.020594,-3140.991542,7476.080014
964.601604,296.082377,-1991.848295,8956.491898
964.601934,-814.226536,1302.362347,10807.006753
964.602264,-2664.741391,2451.505594,12287.418637
964.602593,-4589.276840,3753.867940,13841.851115
964.602923,-5403.503377,3677.258390,14508.036463
964.603253,-5107.421000,3064.381992,13545.768739
964.603582,-3478.967927,383.047749,11325.150913
964.603912,-1258.350101,-1915.238745,8734.430116
964.604242,814.226536,-3830.477490,6365.771101
964.604571,3478.967927,-4443.353888,6069.688724
964.604901,4589.276840,-2221.676944,7105.977043
964.605231,4441.235652,153.219100,8660.409521
964.605560,1702.473667,3294.210641,10436.903782
964.605890,-2072.576638,5286.058936,11843.295072
964.606220,-4367.215058,5745.716235,12435.459826
964.606550,-4737.318029,4596.572988,11917.315666
964.606879,-3997.112087,1762.019645,10584.944971
964.607209,-2738.761985,-1915.238745,8512.368333
964.607539,-1924.535449,-3524.039291,6439.791695
964.607868,-888.247130,-4673.182538,4959.379811
964.608198,592.164754,-3753.867940,5773.606348
964.608528,1406.391290,-1149.143247,7105.977043
964.608857,148.041188,1762.019645,9326.594869
964.609187,-1850.514855,3983.696590,10658.965565
964.609517,-3849.070898,5056.230287,11917.315666
964.609846,-4219.173869,5745.716235,12583.501014
964.610176,-4071.132681,4060.306139,12213.398043
964.610506,-2886.803174,1302.362347,10955.047942
964.610835,-1480.411884,-1072.533697,8364.327145
964.611165,222.061783,-2834.553343,6365.771101
964.611495,2368.659014,-3677.258390,6291.750507
964.611825,4367.215058,-2681.334243,8068.244768
964.612154,4589.276840,383.047749,9844.739029
964.612484,1998.556043,3370.820191,11251.130318
964.612814,-1332.370696,5362.668486,12287.418637
964.613143,-3478.967927,6358.592633,12657.521608
964.613473,-3997.112087,5515.887586,12879.583391
964.613803,-3034.844362,4136.915689,11029.068536
964.614132,-1924.535449,229.828649,8586.388927
964.614462,-518.144159,-2451.505594,6365.771101
964.614792,518.144159,-3983.696590,4737.318029
964.615121,1628.453072,-3983.696590,5699.585753
964.615451,1628.453072,-459.657299,8216.285956
964.615781,740.205942,2604.724693,10362.883188
964.616111,-1480.411884,4749.792088,11769.274478
964.616440,-3923.091493,5669.106685,12731.542202
964.616770,-4737.318029,5132.839837,13471.748144
964.617100,-4515.256246,4519.963438,12879.583391
964.617429,-3478.967927,2298.286494,10658.965565
964.617759,-1702.473667,-919.314598,7920.203579
964.618089,296.082377,-2911.162892,5847.626942
964.618418,1776.494261,-4060.306139,4885.359217
964.618748,3182.885551,-2451.505594,5625.565159
964.619078,3997.112087,153.219100,7402.059420
964.619407,2886.803174,3140.991542,9400.615463
964.619737,-148.041188,4903.011187,10584.944971
964.620067,-3034.844362,5669.106685,11547.212695
964.620397,-4071.132681,5515.887586,12287.418637
964.620726,-3701.029710,3524.039291,11621.233289
964.621056,-2812.782580,536.266849,9918.759623
964.621386,-1554.432478,-1915.238745,7698.141797
964.621715,-666.185348,-4060.306139,5995.668130
964.622045,666.185348,-4519.963438,6661.853478
964.622375,1184.329507,-2451.505594,8438.347739
964.622704,518.144159,229.828649,10658.965565
964.623034,-1998.556043,2451.505594,12213.398043
964.623364,-4811.338623,3753.867940,13323.706956
964.623693,-5625.565159,4366.744339,13915.871710
964.624023,-4885.359217,3907.087040,13397.727550
964.624353,-2590.720797,919.314598,11473.192101
964.624683,-666.185348,-1608.800546,8068.244768
964.625012,962.267725,-3677.258390,5255.462188
964.625342,2812.782580,-4136.915689,5329.482782
964.625672,3923.091493,-2221.676944,7179.997637
964.626001,3849.070898,383.047749,8808.450710
964.626331,2146.597232,3294.210641,10955.047942
964.626661,-1110.308913,4519.963438,12213.398043
964.626990,-3701.029710,5132.839837,13101.645173
964.627320,-4737.318029,4136.915689,13471.748144
964.627650,-4293.194464,1991.848295,12657.521608
964.627979,-3034.844362,-153.219100,9918.759623
964.628309,-1924.535449,-2451.505594,6587.832884
964.628639,-518.144159,-3830.477490,3997.112087
964.628968,1406.391290,-4060.306139,3552.988522
964.629298,2368.659014,-1838.629195,5033.400406
964.629628,1628.453072,919.314598,7772.162391
964.629958,-1110.308913,3983.696590,10214.842000
964.630287,-4293.194464,5669.106685,12213.398043
964.630617,-5847.626942,5515.887586,13397.727550
964.630947,-5477.523971,3294.210641,13619.789333
964.631276,-5033.400406,1762.019645,11991.336260
964.631606,-2590.720797,-1685.410096,9622.677246
964.631936,-444.123565,-3907.087040,7105.977043
964.632265,1776.494261,-4060.306139,6069.688724
964.632595,3849.070898,-2528.115143,6661.853478
964.632925,4811.338623,-229.828649,8290.306550
964.633254,3849.070898,2911.162892,9770.718434
964.633584,814.226536,5362.668486,10955.047942
964.633914,-2220.617826,6358.592633,11843.295072
964.634244,-3330.926739,5592.497135,12953.603985
964.634573,-3627.009116,4519.963438,12361.439231
964.634903,-2812.782580,1532.190996,10288.862594
964.635233,-1554.432478,-1838.629195,7402.059420
964.635562,-888.247130,-3907.087040,5551.544565
964.635892,740.205942,-4596.572988,6217.729913
964.636222,1332.370696,-2298.286494,8142.265362
964.636551,1406.391290,229.828649,9400.615463
964.636881,-888.247130,3447.429741,11029.068536
964.637211,-3552.988522,4903.011187,12583.501014
964.637540,-5107.421000,5515.887586,13619.789333
964.637870,-5329.482782,4826.401637,13397.727550
964.638200,-3923.091493,1608.800546,11695.253884
964.638530,-1924.535449,-383.047749,9030.512492
964.638859,148.041188,-2681.334243,6439.791695
964.639189,2368.659014,-3907.087040,4959.379811
964.639519,4367.215058,-3524.039291,5551.544565
964.639848,4885.359217,-919.314598,6957.935855
964.640178,3627.009116,3294.210641,9104.533087
964.640508,814.226536,5669.106685,10584.944971
964.640837,-1998.556043,6511.811733,11473.192101
964.641167,-3108.864956,5745.716235,12287.418637
964.641497,-3330.926739,4826.401637,11695.253884
964.641826,-2960.823768,612.876398,9844.739029
964.642156,-2442.679609,-2374.896044,7846.182985
964.642486,-1924.535449,-3753.867940,6735.874072
964.642816,-814.226536,-4290.134789,6365.771101
964.643145,666.185348,-3064.381992,7624.121203
964.643475,1554.432478,-459.657299,8808.450710
964.643805,592.164754,2451.505594,10436.903782
964.644134,-1924.535449,3983.696590,11769.274478
964.644464,-4515.256246,5056.230287,12657.521608
964.644794,-5255.462188,5515.887586,13397.727550
964.645123,-4145.153275,3983.696590,12361.439231
964.645453,-2220.617826,153.219100,10510.924376
964.645783,-222.061783,-2911.162892,7254.018232
964.646112,1480.411884,-5056.230287,5403.503377
964.646442,3034.844362,-5515.887586,5847.626942
964.646772,4071.132681,-1991.848295,8068.244768
964.647101,3256.906145,1762.019645,9918.759623
964.647431,296.082377,4826.401637,11621.233289
964.647761,-2812.782580,6128.763984,12435.459826
964.648091,-3923.091493,5898.935335,13175.665768
964.648420,-3775.050304,4519.963438,12435.459826
964.648750,-2590.720797,2068.457845,10510.924376
964.649080,-1850.514855,-1149.143247,7698.141797
964.649409,-1036.288319,-3370.820191,5551.544565
964.649739,370.102971,-5056.230287,5255.462188
964.650069,1110.308913,-3907.087040,6439.791695
964.650398,1184.329507,-1149.143247,8216.285956
964.650728,0.000000,2451.505594,10510.924376
964.651058,-2516.700203,3753.867940,11843.295072
964.651387,-4737.318029,4979.620737,12583.501014
964.651717,-5107.421000,5132.839837,12805.562797
964.652047,-4441.235652,3600.648841,11547.212695
964.652377,-2368.659014,689.485948,9548.656652
964.652706,-740.205942,-1991.848295,6883.915261
964.653036,888.247130,-3600.648841,5477.523971
964.653366,2368.659014,-4596.572988,6143.709319
964.653695,3108.864956,-1838.629195,8216.285956
964.654025,2368.659014,766.095498,9326.594869
964.654355,296.082377,3370.820191,10807.006753
964.654684,-2738.761985,4366.744339,11769.274478
964.655014,-3849.070898,5286.058936,12953.603985
964.655344,-4441.235652,4903.011187,12657.521608
964.655673,-3108.864956,2298.286494,11177.109724
964.656003,-1924.535449,-842.705048,8364.327145
964.656333,-962.267725,-3064.381992,6217.729913
964.656663,222.061783,-4673.182538,5403.503377
964.656992,1554.432478,-3370.820191,7179.997637
964.657322,2220.617826,-536.266849,9326.594869
964.657652,518.144159,2757.943793,10955.047942
964.657981,-2442.679609,4366.744339,12583.501014
964.658311,-4811.338623,5745.716235,12879.583391
964.658641,-5107.421000,4903.011187,13175.665768
964.658970,-3701.029710,3370.820191,12065.356855
964.659300,-2294.638420,459.657299,9622.677246
964.659630,-666.185348,-2145.067394,6883.915261
964.659959,814.226536,-3600.648841,5773.606348
964.660289,2072.576638,-2911.162892,6365.771101
964.660619,2960.823768,-1149.143247,7254.018232
964.660949,2738.761985,1072.533697,8808.450710
964.661278,888.247130,3983.696590,9992.780217
964.661608,-1332.370696,5286.058936,11251.130318
964.661938,-2960.823768,5209.449386,11843.295072
964.662267,-3997.112087,4826.401637,11843.295072
964.662597,-3552.988522,3064.381992,10807.006753
964.662927,-2590.720797,0.000000,8586.388927
964.663256,-1480.411884,-2834.553343,6587.832884
964.663586,0.000000,-3830.477490,5921.647536
964.663916,1332.370696,-2987.772442,6513.812290
964.664245,1924.535449,-612.876398,8068.244768
964.664575,1554.432478,2298.286494,10066.800811
964.664905,-592.164754,4366.744339,11769.274478
964.665235,-3034.844362,5056.230287,12657.521608
964.665564,-4219.173869,5439.278036,12879.583391
964.665894,-4071.132681,4673.182538,11991.336260
964.666224,-2738.761985,1532.190996,9474.636058
964.666553,-740.205942,-1838.629195,7328.038826
964.666883,1110.308913,-3677.258390,5847.626942
964.667213,2294.638420,-4136.915689,5625.565159
964.667542,3330.926739,-2528.115143,7402.059420
964.667872,3478.967927,0.000000,9474.636058
964.668202,888.247130,2604.724693,11325.150913
964.668531,-2960.823768,4213.525239,13249.686362
964.668861,-5033.400406,5362.668486,13915.871710
964.669191,-5329.482782,5209.449386,13619.789333
964.669520,-3849.070898,2221.676944,11769.274478
964.669850,-2368.659014,-1608.800546,8808.450710
964.670180,-814.226536,-3830.477490,6069.688724
964.670510,592.164754,-5286.058936,4885.359217
964.670839,2072.576638,-3907.087040,5847.626942
964.671169,2294.638420,-689.485948,7550.100608
964.671499,1036.288319,2911.162892,9178.553681
964.671828,-1332.370696,3830.477490,10362.883188
964.672158,-4293.194464,4443.353888,12065.356855
964.672488,-5847.626942,4826.401637,13841.851115
964.672817,-6069.688724,3524.039291,14211.954086
964.673147,-4959.379811,1072.533697,11991.336260
964.673477,-2886.803174,-2681.334243,8586.388927
964.673806,-1110.308913,-5209.449386,6217.729913
964.674136,1258.350101,-5745.716235,5181.441594
964.674466,3478.967927,-3217.601092,6439.791695
964.674796,3923.091493,689.485948,7846.182985
964.675125,2072.576638,3677.258390,9548.656652
964.675455,-592.164754,5439.278036,11029.068536
964.675785,-2812.782580,6358.592633,11843.295072
964.676114,-3923.091493,5592.497135,12287.418637
964.676444,-3552.988522,3830.477490,11621.233289
964.676774,-2368.659014,0.000000,9992.780217
964.677103,-1332.370696,-3064.381992,7550.100608
964.677433,-666.185348,-4673.182538,6069.688724
964.677763,0.000000,-4290.134789,6587.832884
964.678092,666.185348,-1991.848295,8438.347739
964.678422,74.020594,919.314598,10362.883188
964.678752,-1924.535449,3447.429741,11547.212695
964.679082,-3775.050304,4826.401637,13027.624579
964.679411,-4737.318029,5515.887586,13249.686362
964.679741,-4219.173869,4979.620737,12879.583391
964.680071,-2442.679609,2451.505594,10807.006753
964.680400,-962.267725,-612.876398,8290.306550
964.680730,666.185348,-2221.676944,5921.647536
964.681060,2442.679609,-3217.601092,5033.400406
964.681389,4367.215058,-2374.896044,6587.832884
964.681719,4515.256246,842.705048,8068.244768
964.682049,2442.679609,3907.087040,9400.615463
964.682378,0.000000,4826.401637,11473.192101
964.682708,-2886.803174,6894.859482,12361.439231
964.683038,-4145.153275,6818.249932,12879.583391
964.683368,-3775.050304,4290.134789,12361.439231
964.683697,-2960.823768,459.657299,9992.780217
964.684027,-1776.494261,-1838.629195,7105.977043
964.684357,-666.185348,-3830.477490,5033.400406
964.684686,1184.329507,-4673.182538,5403.503377
964.685016,1998.556043,-1838.629195,7105.977043
964.685346,1406.391290,919.314598,8660.409521
964.685675,-518.144159,3447.429741,10584.944971
964.686005,-3182.885551,4826.401637,11843.295072
964.686335,-4219.173869,5822.325785,12953.603985
964.686664,-4145.153275,4826.401637,13027.624579
964.686994,-3108.864956,2987.772442,11843.295072
964.687324,-1702.473667,-536.266849,8808.450710
964.687653,0.000000,-3217.601092,6143.709319
964.687983,1554.432478,-4596.572988,5329.482782
964.688313,2960.823768,-3830.477490,7031.956449
964.688643,3034.844362,-612.876398,8808.450710
964.688972,1628.453072,1991.848295,10140.821405
964.689302,-1332.370696,3370.820191,11547.212695
964.689632,-4293.194464,5362.668486,12435.459826
964.689961,-4959.379811,5056.230287,12879.583391
964.690291,-4441.235652,3447.429741,12287.418637
964.690621,-3256.906145,459.657299,10362.883188
964.690950,-2368.659014,-1991.848295,7031.956449
964.691280,-1406.391290,-4213.525239,5329.482782
964.691610,74.020594,-5132.839837,5921.647536
964.691939,1110.308913,-3064.381992,7772.162391
964.692269,814.226536,0.000000,9326.594869
964.692599,-222.061783,2451.505594,10881.027347
964.692929,-3108.864956,3753.867940,11991.336260
964.693258,-5033.400406,4826.401637,13323.706956
964.693588,-5403.503377,4136.915689,13841.851115
964.693918,-4663.297435,2451.505594,12435.459826
964.694247,-2886.803174,-229.828649,9622.677246
964.694577,-1110.308913,-3294.210641,6809.894666
964.694907,814.226536,-5056.230287,5477.523971
964.695236,2812.782580,-4060.306139,6587.832884
964.695566,3701.029710,-1072.533697,7624.121203
964.695896,2590.720797,2145.067394,8956.491898
964.696225,-370.102971,4596.572988,10584.944971
964.696555,-3775.050304,5439.278036,12361.439231
964.696885,-5551.544565,5592.497135,13027.624579
964.697214,-5995.668130,4903.011187,12213.398043
964.697544,-4663.297435,2145.067394,9992.780217
964.697874,-2960.823768,-1762.019645,7328.038826
964.698203,-1776.494261,-4060.306139,5255.462188
964.698533,-444.123565,-4903.011187,5255.462188
964.698863,444.123565,-2987.772442,7031.956449
964.699192,370.102971,1225.752797,8808.450710
964.699522,-814.226536,3983.696590,10214.842000
964.699851,-3330.926739,4903.011187,11769.274478
964.700181,-5699.585753,5515.887586,13101.645173
964.700511,-7105.977043,5362.668486,13915.871710
964.700840,-7105.977043,4519.963438,13397.727550
964.701170,-6587.832884,689.485948,10584.944971
964.701500,-4515.256246,-1532.190996,8142.265362
964.701829,-1850.514855,-4519.963438,5403.503377
964.702159,1258.350101,-5056.230287,4811.338623
964.702489,3330.926739,-2221.676944,5625.565159
964.702818,3997.112087,1915.238745,7476.080014
964.703148,1776.494261,4596.572988,9326.594869
964.703477,-1480.411884,6281.983084,12287.418637
964.703807,-5477.523971,7048.078582,14656.077652
964.704137,-9474.636058,6818.249932,15692.365970
964.704466,-11325.150913,5515.887586,14285.974681
964.704796,-10288.862594,1378.971896,10658.965565
964.705126,-7328.038826,-3600.648841,6365.771101
964.705455,-3182.885551,-7890.783629,3478.967927
964.705785,-296.082377,-8273.831378,3256.906145
964.706115,1036.288319,-3294.210641,3923.091493
964.706444,814.226536,2145.067394,5033.400406
964.706774,222.061783,6128.763984,8438.347739
964.707103,-1184.329507,8656.879127,11399.171507
964.707433,-3256.906145,9269.755526,13101.645173
964.707763,-6365.771101,7354.516781,13471.748144
964.708092,-8512.368333,3983.696590,13249.686362
964.708422,-10140.821405,-1225.752797,14359.995275
964.708752,-10732.986159,-4290.134789,13619.789333
964.709081,-11399.171507,-5745.716235,10436.903782
964.709411,-8216.285956,-6741.640382,6143.709319
964.709740,-2516.700203,-6741.640382,4441.235652
964.710070,2886.803174,-3140.991542,4737.318029
964.710400,5625.565159,766.095498,5255.462188
964.710729,5107.421000,4290.134789,7402.059420
964.711059,3478.967927,9806.022374,9918.759623
964.711389,0.000000,12027.699319,12657.521608
964.711718,-3552.988522,8120.612279,14211.954086
964.712048,-6883.915261,3600.648841,15100.201217
964.712378,-10214.842000,-1225.752797,13841.851115
964.712707,-11843.295072,-4903.011187,12287.418637
964.713037,-11769.274478,-7354.516781,9918.759623
964.713366,-9844.739029,-7967.393179,7105.977043
964.713696,-6365.771101,-7737.564530,5033.400406
964.714026,-2738.761985,-4749.792088,4441.235652
964.714355,666.185348,153.219100,5699.585753
964.714685,1998.556043,5132.839837,7624.121203
964.715015,1332.370696,9729.412825,9252.574275
964.715344,-888.247130,10342.289223,10807.006753
964.715674,-3330.926739,7660.954980,12731.542202
964.716004,-5625.565159,4060.306139,13767.830521
964.716333,-8586.388927,229.828649,13249.686362
964.716663,-10658.965565,-2987.772442,11251.130318
964.716992,-10362.883188,-6435.202183,8882.471304
964.717322,-7105.977043,-7890.783629,7920.203579
964.717652,-3849.070898,-6205.373534,6587.832884
964.717981,-592.164754,-2451.505594,4811.338623
964.718311,1850.514855,76.609550,5551.544565
964.718641,2664.741391,3983.696590,8438.347739
964.718970,1702.473667,8580.269578,10881.027347
964.719300,0.000000,9499.584175,12805.562797
964.719630,-2664.741391,6741.640382,14063.912898
964.719959,-5551.544565,4213.525239,14434.015869
964.720289,-8142.265362,1762.019645,13323.706956
964.720618,-8882.471304,-1915.238745,10214.842000
964.720948,-7402.059420,-5286.058936,7105.977043
964.721278,-5033.400406,-6665.030833,4737.318029
964.721607,-2590.720797,-4366.744339,4811.338623
964.721937,-666.185348,-1302.362347,6069.688724
964.722267,370.102971,2298.286494,6217.729913
964.722596,-962.267725,6052.154434,7624.121203
964.722926,-2072.576638,9806.022374,9474.636058
964.723256,-3256.906145,9269.755526,11695.253884
964.723585,-5255.462188,6205.373534,13027.624579
964.723915,-7254.018232,3217.601092,13101.645173
964.724244,-8142.265362,766.095498,12657.521608
964.724574,-8660.409521,-2604.724693,11547.212695
964.724904,-7920.203579,-3907.087040,9696.697840
964.725233,-6143.709319,-4060.306139,8068.244768
964.725563,-3256.906145,-1991.848295,6809.894666
964.725893,-296.082377,1225.752797,6291.750507
964.726222,1628.453072,3217.601092,7031.956449
964.726552,1998.556043,6281.983084,8660.409521
964.726882,1036.288319,8350.440928,9252.574275
964.727211,-592.164754,7354.516781,10436.903782
964.727541,-2516.700203,4979.620737,11769.274478
964.727870,-3478.967927,3753.867940,11695.253884
964.728200,-4441.235652,1302.362347,10584.944971
964.728530,-4811.338623,-1302.362347,8956.491898
964.728859,-4219.173869,-2528.115143,7698.141797
964.729189,-2960.823768,-2221.676944,7920.203579
964.729519,-2368.659014,689.485948,7846.182985
964.729848,-1998.556043,3064.381992,8512.368333
964.730178,-2072.576638,4596.572988,9622.677246
964.730507,-2072.576638,6052.154434,10881.027347
964.730837,-2220.617826,7124.688131,11399.171507
964.731167,-2442.679609,5515.887586,11251.130318
964.731496,-2368.659014,4136.915689,10807.006753
964.731826,-1628.453072,2451.505594,10362.883188
964.732156,-1036.288319,1378.971896,9252.574275
964.732485,-962.267725,383.047749,8586.388927
964.732815,-888.247130,1149.143247,8586.388927
964.733145,592.164754,2528.115143,8808.450710
964.733474,740.205942,5286.058936,10140.821405
964.733804,0.000000,7277.907231,10658.965565
964.734133,-1258.350101,8044.002729,10436.903782
964.734463,-1480.411884,7660.954980,10066.800811
964.734793,-2146.597232,6894.859482,9252.574275
964.735122,-2738.761985,4903.011187,8882.471304
964.735452,-2368.659014,2757.943793,7328.038826
964.735782,-1998.556043,919.314598,6217.729913
964.736111,-1258.350101,76.609550,5921.647536
964.736441,-1406.391290,306.438199,6587.832884
964.736771,-1406.391290,1915.238745,7624.121203
964.737100,-1998.556043,4826.401637,8734.430116
964.737430,-2442.679609,6435.202183,10214.842000
964.737759,-2516.700203,7507.735880,11177.109724
964.738089,-2294.638420,7354.516781,10658.965565
964.738419,-1480.411884,6588.421283,10807.006753
964.738748,-740.205942,4903.011187,10732.986159
964.739078,-962.267725,3600.648841,10066.800811
964.739408,-1258.350101,2528.115143,9178.553681
964.739737,-1258.350101,1838.629195,8882.471304
964.740067,-814.226536,2068.457845,9252.574275
964.740397,0.000000,2604.724693,9104.533087
964.740726,518.144159,2834.553343,9178.553681
964.741056,74.020594,3370.820191,9474.636058
964.741385,-740.205942,4903.011187,10214.842000
964.741715,-592.164754,6358.592633,10881.027347
964.742045,-666.185348,5975.544884,11473.192101
964.742374,-666.185348,5209.449386,11177.109724
964.742704,-888.247130,4290.134789,10066.800811
964.743034,-814.226536,3524.039291,9844.739029
964.743363,-888.247130,3600.648841,9844.739029
964.743693,-666.185348,4749.792088,9918.759623
964.744023,-296.082377,4903.011187,9252.574275
964.744352,-296.082377,4136.915689,7846.182985
964.744682,-148.041188,2681.334243,6809.894666
964.745011,-222.061783,2068.457845,6587.832884
964.745341,-962.267725,919.314598,7328.038826
964.745671,-2368.659014,2298.286494,8512.368333
964.746000,-3552.988522,2911.162892,9326.594869
964.746330,-3627.009116,2911.162892,9918.759623
964.746660,-2960.823768,3217.601092,11029.068536
964.746989,-2220.617826,3983.696590,11103.089130
964.747319,-1406.391290,4749.792088,10288.862594
964.747649,-592.164754,5209.449386,9474.636058
964.747978,444.123565,5592.497135,9696.697840
964.748308,740.205942,5898.935335,9622.677246
964.748637,518.144159,5592.497135,8586.388927
964.748967,0.000000,4749.792088,7920.203579
964.749297,-814.226536,3447.429741,7402.059420
964.749626,-1406.391290,2068.457845,7402.059420
964.749956,-1702.473667,842.705048,7772.162391
964.750286,-1850.514855,-383.047749,8216.285956
964.750615,-2294.638420,153.219100,8882.471304
964.750945,-2146.597232,1685.410096,10436.903782
964.751275,-1702.473667,2987.772442,11473.192101
964.751604,-888.247130,4749.792088,12583.501014
964.751934,-962.267725,6511.811733,12509.480420
964.752263,-444.123565,6818.249932,11843.295072
964.752593,0.000000,5592.497135,11177.109724
964.752923,0.000000,4826.401637,10288.862594
964.753252,-740.205942,4366.744339,9548.656652
964.753582,-1554.432478,3064.381992,8882.471304
964.753912,-1924.535449,1685.410096,7846.182985
964.754241,-2146.597232,1685.410096,7698.141797
964.754571,-2072.576638,1149.143247,7772.162391
964.754900,-1332.370696,1302.362347,7476.080014
964.755230,-592.164754,995.924147,7254.018232
964.755560,370.102971,1608.800546,7994.224174
964.755889,370.102971,2911.162892,8956.491898
964.756219,-222.061783,4749.792088,10732.986159
964.756549,-1036.288319,5898.935335,11621.233289
964.756878,-1628.453072,5975.544884,11769.274478
964.757208,-1406.391290,5439.278036,11621.233289
964.757538,-1628.453072,4903.011187,11029.068536
964.757867,-1628.453072,4213.525239,8882.471304
964.758197,-1480.411884,2451.505594,6439.791695
964.758526,-296.082377,842.705048,5033.400406
964.758856,1184.329507,153.219100,4959.379811
964.759186,1702.473667,229.828649,5921.647536
964.759515,1258.350101,995.924147,6883.915261
964.759845,-296.082377,1685.410096,8586.388927
964.760175,-2368.659014,1991.848295,10807.006753
964.760504,-4367.215058,2757.943793,12731.542202
964.760834,-4737.318029,3064.381992,14878.139434
964.761164,-4885.359217,4060.306139,15100.201217
964.761493,-5107.421000,2834.553343,13397.727550
964.761823,-4367.215058,1225.752797,10510.924376
964.762152,-1554.432478,0.000000,7846.182985
964.762482,1776.494261,-1378.971896,5847.626942
964.762812,4367.215058,-1378.971896,4885.359217
964.763141,5625.565159,-306.438199,5033.400406
964.763471,5033.400406,0.000000,6439.791695
964.763801,2516.700203,1225.752797,9104.533087
964.764130,-962.267725,3370.820191,12583.501014
964.764460,-3627.009116,4290.134789,15618.345376
964.764790,-5107.421000,4213.525239,17246.798449
964.765119,-6513.812290,3370.820191,16062.468941
964.765449,-6587.832884,1302.362347,12583.501014
964.765778,-4293.194464,-2298.286494,8142.265362
964.766108,-666.185348,-3677.258390,4811.338623
964.766438,2072.576638,-3983.696590,3404.947333
964.766767,2812.782580,-2145.067394,3404.947333
964.767097,2738.761985,0.000000,4367.215058
964.767427,2220.617826,1225.752797,5699.585753
964.767756,370.102971,2451.505594,9178.553681
964.768086,-2146.597232,3370.820191,13175.665768
964.768416,-4663.297435,3983.696590,15174.221811
964.768745,-5995.668130,3217.601092,15840.407159
964.769075,-6069.688724,1302.362347,14582.057057
964.769404,-4515.256246,-766.095498,11991.336260
964.769734,-1110.308913,-2604.724693,9326.594869
964.770064,1924.535449,-2681.334243,6291.750507
964.770393,3182.885551,-1991.848295,4293.194464
964.770723,3701.029710,0.000000,4071.132681
964.771053,3923.091493,842.705048,5403.503377
964.771382,3034.844362,2068.457845,7550.100608
964.771712,-148.041188,4213.525239,10881.027347
964.772042,-3182.885551,4519.963438,12805.562797
964.772371,-4515.256246,2757.943793,13397.727550
964.772701,-4737.318029,459.657299,13175.665768
964.773030,-3627.009116,-1302.362347,12657.521608
964.773360,-1628.453072,-2528.115143,10658.965565
964.773690,148.041188,-2757.943793,8142.265362
964.774019,1036.288319,-1685.410096,6587.832884
964.774349,814.226536,536.266849,6735.874072
964.774679,666.185348,2068.457845,8512.368333
964.775008,296.082377,3370.820191,9844.739029
964.775338,-2368.659014,4903.011187,11029.068536
964.775668,-4293.194464,5209.449386,11621.233289
964.775997,-4515.256246,2681.334243,11103.089130
964.776327,-2886.803174,0.000000,10658.965565
964.776656,-1184.329507,-459.657299,10140.821405
964.776986,370.102971,-153.219100,9252.574275
964.777316,962.267725,1072.533697,7772.162391
964.777645,1184.329507,1378.971896,6587.832884
964.777975,1776.494261,1225.752797,7254.018232
964.778305,1258.350101,2834.553343,9104.533087
964.778634,74.020594,5056.230287,10362.883188
964.778964,-2220.617826,5209.449386,9992.780217
964.779293,-3701.029710,3524.039291,9474.636058
964.779623,-3775.050304,1685.410096,9326.594869
964.779953,-2146.597232,306.438199,9770.718434
964.780282,-296.082377,0.000000,9400.615463
964.780612,0.000000,0.000000,8216.285956
964.780942,0.000000,842.705048,7624.121203
964.781271,-296.082377,689.485948,8364.327145
964.781601,-518.144159,1838.629195,10214.842000
964.781931,-1406.391290,3753.867940,11473.192101
964.782260,-3108.864956,4060.306139,11177.109724
964.782590,-3404.947333,3217.601092,10362.883188
964.782919,-3034.844362,1455.581446,9548.656652
964.783249,-1998.556043,-612.876398,8512.368333
964.783579,74.020594,-1608.800546,8068.244768
964.783908,1924.535449,-1378.971896,8068.244768
964.784238,2294.638420,153.219100,8364.327145
964.784568,1258.350101,612.876398,9104.533087
964.784897,592.164754,1225.752797,10436.903782
964.785227,-444.123565,2451.505594,11769.274478
964.785557,-1184.329507,3294.210641,12435.459826
964.785886,-2738.761985,2681.334243,12065.356855
964.786216,-3627.009116,1072.533697,11103.089130
964.786545,-3552.988522,-612.876398,9400.615463
964.786875,-2220.617826,-2298.286494,7846.182985
964.787205,-222.061783,-2604.724693,6735.874072
964.787534,962.267725,-1915.238745,6957.935855
964.787864,888.247130,-153.219100,7254.018232
964.788194,740.205942,0.000000,8142.265362
964.788523,74.020594,306.438199,9548.656652
964.788853,-1110.308913,1685.410096,11621.233289
964.789183,-3182.885551,2681.334243,13027.624579
964.789512,-4515.256246,2145.067394,12879.583391
964.789842,-4441.235652,689.485948,12139.377449
964.790171,-3182.885551,-919.314598,10362.883188
964.790501,-1036.288319,-2298.286494,8438.347739
964.790831,1110.308913,-2834.553343,7698.141797
964.791160,2220.617826,-1915.238745,7328.038826
964.791490,1850.514855,153.219100,7254.018232
964.791820,1184.329507,1225.752797,7920.203579
964.792149,962.267725,2298.286494,9918.759623
964.792479,0.000000,2451.505594,11695.253884
964.792809,-2442.679609,2374.896044,11843.295072
964.793138,-4071.132681,1225.752797,11769.274478
964.793468,-4071.132681,0.000000,10881.027347
964.793797,-3034.844362,-1915.238745,9474.636058
964.794127,-1110.308913,-2451.505594,8808.450710
964.794457,444.123565,-2145.067394,7846.182985
964.794786,1036.288319,-1302.362347,6883.915261
964.795116,962.267725,76.609550,6957.935855
964.795446,592.164754,1762.019645,8438.347739
964.795775,74.020594,3370.820191,10955.047942
964.796105,-666.185348,4290.134789,11843.295072
964.796434,-2738.761985,3677.258390,11843.295072
964.796764,-4071.132681,2528.115143,10955.047942
964.797094,-3775.050304,919.314598,9770.718434
964.797423,-1554.432478,-1532.190996,9474.636058
964.797753,74.020594,-1378.971896,9104.533087
964.798083,1110.308913,76.609550,7994.224174
964.798412,1184.329507,1072.533697,7105.977043
964.798742,1036.288319,1072.533697,7105.977043
964.799071,888.247130,1991.848295,9252.574275
964.799401,-370.102971,4366.744339,10881.027347
964.799731,-2072.576638,5515.887586,10807.006753
964.800060,-2738.761985,3294.210641,10436.903782
964.800390,-3182.885551,1225.752797,9326.594869
964.800720,-2294.638420,-383.047749,9104.533087
964.801049,-592.164754,-536.266849,8808.450710
964.801379,962.267725,0.000000,8068.244768
964.801708,962.267725,842.705048,7476.080014
964.802038,518.144159,842.705048,7698.141797
964.802368,296.082377,1685.410096,9474.636058
964.802697,-370.102971,3370.820191,11177.109724
964.803027,-1850.514855,4060.306139,11843.295072
964.803357,-3182.885551,4136.915689,11547.212695
964.803686,-4219.173869,3064.381992,11473.192101
964.804016,-3997.112087,995.924147,10214.842000
964.804345,-2072.576638,-689.485948,8882.471304
964.804675,0.000000,-1762.019645,7994.224174
964.805005,888.247130,-1149.143247,6957.935855
964.805334,666.185348,842.705048,7254.018232
964.805664,444.123565,766.095498,7624.121203
964.805994,296.082377,1455.581446,9104.533087
964.806323,-814.226536,2604.724693,10658.965565
964.806653,-2072.576638,2911.162892,11399.171507
964.806982,-2738.761985,1302.362347,10807.006753
964.807312,-3404.947333,0.000000,10140.821405
964.807642,-2368.659014,-1378.971896,9252.574275
964.807971,-222.061783,-2451.505594,8586.388927
964.808301,962.267725,-1991.848295,8734.430116
964.808631,1628.453072,-459.657299,8808.450710
964.808960,740.205942,229.828649,8438.347739
964.809290,518.144159,153.219100,9104.533087
964.809619,444.123565,459.657299,10881.027347
964.809949,-666.185348,1149.143247,12287.418637
964.810279,-3108.864956,2221.676944,12509.480420
964.810608,-4737.318029,1072.533697,11621.233289
964.810938,-4515.256246,-1302.362347,10214.842000
964.811268,-2368.659014,-3294.210641,9622.677246
964.811597,-222.061783,-3907.087040,9474.636058
964.811927,296.082377,-1838.629195,8882.471304
964.812256,666.185348,-766.095498,8142.265362
964.812586,518.144159,-919.314598,7328.038826
964.812916,592.164754,76.609550,9252.574275
964.813245,0.000000,1838.629195,11769.274478
964.813575,-1258.350101,3140.991542,12657.521608
964.813905,-3034.844362,1991.848295,11621.233289
964.814234,-3701.029710,536.266849,10214.842000
964.814564,-2812.782580,-1455.581446,9252.574275
964.814893,-1036.288319,-2528.115143,8660.409521
964.815223,148.041188,-2298.286494,8068.244768
964.815553,962.267725,-306.438199,7031.956449
964.815882,1110.308913,0.000000,6883.915261
964.816212,1036.288319,842.705048,7920.203579
964.816542,666.185348,1915.238745,9622.677246
964.816871,-814.226536,3294.210641,11177.109724
964.817201,-2368.659014,3983.696590,11177.109724
964.817530,-3552.988522,3064.381992,11177.109724
964.817860,-3997.112087,1225.752797,9918.759623
964.818190,-2664.741391,-612.876398,9030.512492
964.818519,0.000000,-1838.629195,8660.409521
964.818849,1406.391290,-536.266849,8142.265362
964.819179,1406.391290,1378.971896,7772.162391
964.819508,1036.288319,1991.848295,7920.203579
964.819838,370.102971,2451.505594,8808.450710
964.820167,0.000000,3294.210641,10584.944971
964.820497,-1406.391290,4519.963438,11843.295072
964.820827,-2960.823768,4366.744339,11547.212695
964.821156,-3627.009116,2451.505594,10732.986159
964.821486,-3404.947333,153.219100,9178.553681
964.821816,-1554.432478,-612.876398,8734.430116
964.822145,518.144159,-536.266849,7920.203579
964.822475,1554.432478,0.000000,7328.038826
964.822804,592.164754,1072.533697,6957.935855
964.823134,74.020594,1532.190996,8216.285956
964.823464,-296.082377,2987.772442,9992.780217
964.823793,-1036.288319,4213.525239,11473.192101
964.824123,-2294.638420,4596.572988,11991.336260
964.824453,-3478.967927,3907.087040,10881.027347
964.824782,-3552.988522,1302.362347,10066.800811
964.825112,-2220.617826,-383.047749,9326.594869
964.825441,0.000000,-842.705048,8882.471304
964.825771,740.205942,-383.047749,8216.285956
964.826101,962.267725,612.876398,7698.141797
964.826430,666.185348,229.828649,7846.182985
964.826760,0.000000,1072.533697,8586.388927
964.827090,-444.123565,2374.896044,9992.780217
964.827419,-1850.514855,2604.724693,11325.150913
964.827749,-3256.906145,2681.334243,11695.253884
964.828078,-4367.215058,1225.752797,10436.903782
964.828408,-3552.988522,-1149.143247,8586.388927
964.828738,-1258.350101,-3064.381992,7846.182985
964.829067,814.226536,-2987.772442,8068.244768
964.829397,1184.329507,-1378.971896,7920.203579
964.829727,1258.350101,0.000000,7550.100608
964.830056,888.247130,0.000000,8512.368333
964.830386,222.061783,536.266849,10140.821405
964.830715,-592.164754,1685.410096,12361.439231
964.831045,-2146.597232,2298.286494,13397.727550
964.831375,-3330.926739,1991.848295,12583.501014
964.831704,-3552.988522,306.438199,10658.965565
964.832034,-2294.638420,-1991.848295,9548.656652
964.832364,0.000000,-3217.601092,9474.636058
964.832693,1184.329507,-2145.067394,9400.615463
964.833023,814.226536,306.438199,8808.450710
964.833352,370.102971,229.828649,7994.224174
964.833682,-370.102971,689.485948,9104.533087
964.834012,-888.247130,1378.971896,10732.986159
964.834341,-2072.576638,2068.457845,12139.377449
964.834671,-3552.988522,2068.457845,11843.295072
964.835001,-4589.276840,842.705048,10288.862594
964.835330,-3923.091493,-306.438199,9252.574275
964.835660,-1924.535449,-2451.505594,8364.327145
964.835989,74.020594,-2451.505594,7846.182985
964.836319,1406.391290,-459.657299,7402.059420
964.836649,1702.473667,842.705048,6735.874072
964.836978,1480.411884,1762.019645,7328.038826
964.837308,1110.308913,2068.457845,9474.636058
964.837638,0.000000,3294.210641,11473.192101
964.837967,-2072.576638,4366.744339,12065.356855
964.838297,-3997.112087,3983.696590,11251.130318
964.838626,-4145.153275,2221.676944,10510.924376
964.838956,-3108.864956,-612.876398,9030.512492
964.839286,-888.247130,-1532.190996,7920.203579
964.839615,814.226536,-842.705048,7476.080014
964.839945,1480.411884,306.438199,7550.100608
964.840275,1184.329507,1378.971896,7994.224174
964.840604,222.061783,2681.334243,8660.409521
964.840934,-148.041188,4136.915689,10510.924376
964.841263,-1036.288319,4443.353888,11769.274478
964.841593,-2442.679609,4519.963438,12065.356855
964.841923,-3701.029710,3677.258390,11177.109724
964.842252,-3627.009116,1072.533697,9770.718434
964.842582,-1924.535449,-459.657299,9030.512492
964.842912,74.020594,-766.095498,8364.327145
964.843241,1110.308913,229.828649,7550.100608
964.843571,1110.308913,995.924147,6661.853478
964.843900,1036.288319,1302.362347,7698.141797
964.844230,444.123565,2604.724693,9474.636058
964.844560,-592.164754,4290.134789,11103.089130
964.844889,-2368.659014,4826.401637,11547.212695
964.845219,-3701.029710,4136.915689,11399.171507
964.845549,-4071.132681,2757.943793,10732.986159
964.845878,-3256.906145,766.095498,9326.594869
964.846208,-1036.288319,-995.924147,8216.285956
