#time,accel_x,accel_y,accel_z
835.533303,-888.247130,1072.533697,9844.739029
835.533632,-1036.288319,1072.533697,9696.697840
835.533962,-962.267725,995.924147,9696.697840
835.534291,-1036.288319,919.314598,9622.677246
835.534620,-1110.308913,1225.752797,9252.574275
835.534950,-1184.329507,1072.533697,9474.636058
835.535279,-1184.329507,766.095498,9474.636058
835.535609,-1110.308913,919.314598,9474.636058
835.535938,-1036.288319,766.095498,9696.697840
835.536267,-1110.308913,995.924147,9622.677246
835.536597,-592.164754,1302.362347,9474.636058
835.536926,-1110.308913,766.095498,9696.697840
835.537256,-1036.288319,919.314598,9548.656652
835.537585,-1110.308913,919.314598,9400.615463
835.537914,-962.267725,919.314598,9474.636058
835.538244,-1184.329507,842.705048,9326.594869
835.538573,-1554.432478,1225.752797,9104.533087
835.538902,-1184.329507,919.314598,9400.615463
835.539232,-1036.288319,919.314598,9474.636058
835.539561,-1184.329507,995.924147,9474.636058
835.539891,-1184.329507,689.485948,9252.574275
835.540220,-1036.288319,1072.533697,9400.615463
835.540549,-1110.308913,842.705048,9326.594869
835.540879,-962.267725,842.705048,9400.615463
835.541208,-1036.288319,1072.533697,9474.636058
835.541537,-962.267725,612.876398,9770.718434
835.541867,-1184.329507,995.924147,9178.553681
835.542196,-1332.370696,1072.533697,9326.594869
835.542526,-1110.308913,919.314598,9696.697840
835.542855,-962.267725,919.314598,9696.697840
835.543184,-1036.288319,689.485948,9548.656652
835.543514,-1184.329507,919.314598,9474.636058
835.543843,-1258.350101,842.705048,9696.697840
835.544173,-962.267725,919.314598,9696.697840
835.544502,-1036.288319,766.095498,9474.636058
835.544831,-1258.350101,919.314598,9548.656652
835.545161,-1110.308913,612.876398,9474.636058
835.545490,-1258.350101,842.705048,9252.574275
835.545819,-962.267725,612.876398,9474.636058
835.546149,-1036.288319,919.314598,9474.636058
835.546478,-1036.288319,766.095498,9548.656652
835.546808,-888.247130,1225.752797,9548.656652
835.547137,-814.226536,1762.019645,9770.718434
835.547466,-1110.308913,689.485948,9474.636058
835.547796,-1036.288319,842.705048,9622.677246
835.548125,-1110.308913,766.095498,9548.656652
835.548454,-888.247130,766.095498,9622.677246
835.548784,-962.267725,229.828649,9474.636058
835.549113,-814.226536,1072.533697,9252.574275
835.549443,-1036.288319,995.924147,9474.636058
835.549772,-1184.329507,1225.752797,9474.636058
835.550101,-1110.308913,1072.533697,9474.636058
835.550431,-962.267725,1225.752797,9400.615463
835.550760,-1036.288319,536.266849,9178.553681
835.551090,-962.267725,689.485948,9474.636058
835.551419,-740.205942,842.705048,9474.636058
835.551748,-1036.288319,995.924147,9474.636058
835.552078,-1184.329507,536.266849,9326.594869
835.552407,-888.247130,1072.533697,9400.615463
835.552736,-888.247130,1072.533697,9622.677246
835.553066,-962.267725,919.314598,9622.677246
835.553395,-962.267725,919.314598,9474.636058
835.553725,-518.144159,766.095498,9104.533087
835.554054,74.020594,536.266849,8734.430116
835.554383,666.185348,383.047749,9178.553681
835.554713,888.247130,612.876398,9400.615463
835.555042,666.185348,995.924147,9622.677246
835.555372,148.041188,995.924147,10066.800811
835.555701,0.000000,1225.752797,10362.883188
835.556030,-370.102971,766.095498,10584.944971
835.556360,-740.205942,536.266849,10362.883188
835.556689,-148.041188,306.438199,9696.697840
835.557018,222.061783,0.000000,9400.615463
835.557348,1332.370696,0.000000,9178.553681
835.557677,2368.659014,459.657299,9030.512492
835.558007,3108.864956,842.705048,8882.471304
835.558336,3849.070898,1302.362347,9030.512492
835.558665,3552.988522,2068.457845,9252.574275
835.558995,3552.988522,1991.848295,9696.697840
835.559324,3108.864956,919.314598,10288.862594
835.559653,2146.597232,842.705048,10214.842000
835.559983,1480.411884,919.314598,10658.965565
835.560312,1110.308913,306.438199,10732.986159
835.560642,1258.350101,-153.219100,10436.903782
835.560971,1776.494261,-766.095498,9474.636058
835.561300,2590.720797,-153.219100,9252.574275
835.561630,3478.967927,0.000000,9178.553681
835.561959,4071.132681,612.876398,9252.574275
835.562289,4367.215058,1838.629195,9400.615463
835.562618,3849.070898,2757.943793,9992.780217
835.562947,2664.741391,2834.553343,10066.800811
835.563277,1036.288319,3294.210641,10362.883188
835.563606,-1036.288319,2681.334243,9992.780217
835.563935,-1850.514855,1685.410096,9326.594869
835.564265,-1332.370696,229.828649,8364.327145
835.564594,74.020594,-1302.362347,7328.038826
835.564924,1184.329507,-1532.190996,6957.935855
835.565253,2442.679609,-689.485948,6661.853478
835.565582,2960.823768,536.266849,7476.080014
835.565912,2664.741391,2298.286494,9030.512492
835.566241,1628.453072,4290.134789,10362.883188
835.566570,518.144159,4826.401637,11843.295072
835.566900,-962.267725,4060.306139,11843.295072
835.567229,-2072.576638,2145.067394,11695.253884
835.567559,-2664.741391,0.000000,11325.150913
835.567888,-3034.844362,-1608.800546,10510.924376
835.568217,-2516.700203,-2528.115143,10214.842000
835.568547,-1850.514855,-2298.286494,9178.553681
835.568876,-666.185348,-1685.410096,8364.327145
835.569206,1554.432478,-995.924147,8216.285956
835.569535,2960.823768,76.609550,8290.306550
835.569864,3108.864956,1762.019645,8142.265362
835.570194,2664.741391,3677.258390,9326.594869
835.570523,1776.494261,4060.306139,10140.821405
835.570852,666.185348,3753.867940,10658.965565
835.571182,-592.164754,3140.991542,11103.089130
835.571511,-1406.391290,1302.362347,10584.944971
835.571841,-1406.391290,-383.047749,9770.718434
835.572170,-1110.308913,-1608.800546,9696.697840
835.572499,-1332.370696,-1838.629195,9770.718434
835.572829,-2146.597232,-1378.971896,10214.842000
835.573158,-2516.700203,0.000000,10362.883188
835.573488,-3034.844362,2068.457845,10066.800811
835.573817,-2368.659014,2451.505594,9844.739029
835.574146,-1258.350101,1685.410096,9030.512492
835.574476,0.000000,612.876398,8364.327145
835.574805,370.102971,0.000000,7254.018232
835.575134,1036.288319,-306.438199,6883.915261
835.575464,1406.391290,0.000000,7476.080014
835.575793,1776.494261,76.609550,8142.265362
835.576123,2072.576638,612.876398,9178.553681
835.576452,2072.576638,1378.971896,10288.862594
835.576781,2146.597232,2221.676944,11473.192101
835.577111,888.247130,2604.724693,12287.418637
835.577440,-1036.288319,3907.087040,12583.501014
835.577769,-2442.679609,3294.210641,12583.501014
835.578099,-3330.926739,2298.286494,11769.274478
835.578428,-3701.029710,536.266849,9770.718434
835.578758,-2960.823768,-1378.971896,7624.121203
835.579087,-2220.617826,-2757.943793,5699.585753
835.579416,-1184.329507,-2528.115143,4959.379811
835.579746,-222.061783,-1532.190996,4811.338623
835.580075,1110.308913,-229.828649,5847.626942
835.580405,1554.432478,1072.533697,8068.244768
835.580734,-296.082377,3294.210641,11029.068536
835.581063,-2738.761985,4673.182538,13101.645173
835.581393,-4959.379811,5056.230287,14508.036463
835.581722,-6069.688724,3983.696590,14656.077652
835.582051,-6365.771101,1685.410096,13249.686362
835.582381,-5773.606348,0.000000,11177.109724
835.582710,-3701.029710,-2528.115143,8734.430116
835.583040,-1110.308913,-3830.477490,6291.750507
835.583369,1332.370696,-3064.381992,5477.523971
835.583698,3182.885551,-842.705048,5329.482782
835.584028,4811.338623,1532.190996,6735.874072
835.584357,4737.318029,3064.381992,8438.347739
835.584687,3404.947333,4903.011187,10362.883188
835.585016,1628.453072,6205.373534,11843.295072
835.585345,-1184.329507,5515.887586,13101.645173
835.585675,-3997.112087,3217.601092,13471.748144
835.586004,-5551.544565,689.485948,12731.542202
835.586333,-6217.729913,-1455.581446,10881.027347
835.586663,-5403.503377,-3983.696590,8734.430116
835.586992,-3849.070898,-4903.011187,6883.915261
835.587322,-1850.514855,-4213.525239,5403.503377
835.587651,962.267725,-1072.533697,5255.462188
835.587980,2960.823768,1149.143247,5773.606348
835.588310,4071.132681,3140.991542,7402.059420
835.588639,3701.029710,5362.668486,9770.718434
835.588968,1776.494261,7354.516781,12065.356855
835.589298,-2072.576638,7124.688131,12805.562797
835.589627,-4737.318029,4903.011187,13027.624579
835.589957,-5625.565159,1455.581446,11991.336260
835.590286,-5033.400406,-2068.457845,11103.089130
835.590615,-3701.029710,-4596.572988,8882.471304
835.590945,-1702.473667,-5669.106685,6957.935855
835.591274,148.041188,-5132.839837,5699.585753
835.591604,2516.700203,-2451.505594,6439.791695
835.591933,4293.194464,689.485948,7698.141797
835.592262,4737.318029,3294.210641,8956.491898
835.592592,4515.256246,5592.497135,10584.944971
835.592921,3108.864956,6894.859482,12065.356855
835.593250,592.164754,6665.030833,13175.665768
835.593580,-2738.761985,3907.087040,13915.871710
835.593909,-5551.544565,1915.238745,13545.768739
835.594239,-7328.038826,-229.828649,12139.377449
835.594568,-7476.080014,-3370.820191,9696.697840
835.594897,-5699.585753,-5132.839837,8142.265362
835.595227,-3849.070898,-5515.887586,5773.606348
835.595556,-1036.288319,-3064.381992,4145.153275
835.595885,2072.576638,-689.485948,3923.091493
835.596215,4071.132681,1455.581446,5329.482782
835.596544,3701.029710,4366.744339,8512.368333
835.596874,1332.370696,6281.983084,11325.150913
835.597203,-2516.700203,7201.297681,13693.809927
835.597532,-5625.565159,6052.154434,14878.139434
835.597862,-7105.977043,3294.210641,14804.118840
835.598191,-6735.874072,-842.705048,13693.809927
835.598521,-5699.585753,-3753.867940,10362.883188
835.598850,-3552.988522,-5286.058936,7105.977043
835.599179,-296.082377,-5898.935335,5551.544565
835.599509,2516.700203,-3140.991542,5329.482782
835.599838,4367.215058,919.314598,5625.565159
835.600167,5329.482782,3064.381992,6809.894666
835.600497,5477.523971,5056.230287,8512.368333
835.600826,4737.318029,7201.297681,10807.006753
835.601156,2590.720797,7354.516781,12361.439231
835.601485,-740.205942,5975.544884,13471.748144
835.601814,-4293.194464,3370.820191,13471.748144
835.602144,-5921.647536,229.828649,12213.398043
835.602473,-6217.729913,-3217.601092,10881.027347
835.602802,-5329.482782,-4903.011187,8808.450710
835.603132,-3849.070898,-5286.058936,6883.915261
835.603461,-1406.391290,-4136.915689,5403.503377
835.603790,1480.411884,-1608.800546,5477.523971
835.604119,3627.009116,1225.752797,6513.812290
835.604448,4367.215058,3830.477490,7550.100608
835.604778,3552.988522,6665.030833,9252.574275
835.605107,1480.411884,7507.735880,11103.089130
835.605436,-592.164754,6281.983084,13323.706956
835.605765,-2812.782580,4213.525239,13619.789333
835.606094,-4737.318029,1608.800546,13101.645173
835.606424,-4885.359217,-1685.410096,11695.253884
835.606753,-4071.132681,-3447.429741,9474.636058
835.607082,-2146.597232,-4749.792088,7254.018232
835.607411,0.000000,-4519.963438,5773.606348
835.607740,2368.659014,-1762.019645,5625.565159
835.608070,4441.235652,536.266849,6735.874072
835.608399,4959.379811,2681.334243,8216.285956
835.608728,4071.132681,4443.353888,9474.636058
835.609057,1554.432478,6128.763984,11621.233289
835.609386,-1184.329507,5592.497135,13471.748144
835.609716,-3997.112087,3907.087040,14359.995275
835.610045,-6513.812290,2221.676944,14063.912898
835.610374,-7624.121203,-919.314598,12509.480420
835.610703,-7031.956449,-3524.039291,9918.759623
835.611032,-5329.482782,-4979.620737,7624.121203
835.611362,-3404.947333,-4136.915689,5107.421000
835.611691,-518.144159,-2145.067394,3256.906145
835.612020,2220.617826,-842.705048,3923.091493
835.612349,3404.947333,1532.190996,6365.771101
835.612678,2368.659014,3983.696590,9252.574275
835.613008,-296.082377,6052.154434,12435.459826
835.613337,-3330.926739,6665.030833,14952.160028
835.613666,-6217.729913,5362.668486,15766.386565
835.613995,-7254.018232,1991.848295,14582.057057
835.614324,-6291.750507,-1608.800546,12731.542202
835.614654,-4737.318029,-4290.134789,9622.677246
835.614983,-2516.700203,-5439.278036,6661.853478
835.615312,74.020594,-5362.668486,4589.276840
835.615641,2960.823768,-2451.505594,4885.359217
835.615970,4959.379811,612.876398,6069.688724
835.616300,5403.503377,3064.381992,6439.791695
835.616629,5107.421000,5209.449386,7624.121203
835.616958,4663.297435,5975.544884,10658.965565
835.617287,1924.535449,6281.983084,13545.768739
835.617616,-1998.556043,5592.497135,14508.036463
835.617946,-5181.441594,3064.381992,14063.912898
835.618275,-6661.853478,0.000000,13175.665768
835.618604,-6883.915261,-2834.553343,11251.130318
835.618933,-5699.585753,-4903.011187,8290.306550
835.619262,-3478.967927,-5822.325785,5551.544565
835.619592,74.020594,-4290.134789,4589.276840
835.619921,3034.844362,-1838.629195,4663.297435
835.620250,4589.276840,842.705048,6143.709319
835.620579,4145.153275,4519.963438,7476.080014
835.620908,2516.700203,6588.421283,9770.718434
835.621238,1036.288319,7584.345430,12287.418637
835.621567,-962.267725,6588.421283,14211.954086
835.621896,-2960.823768,3907.087040,14063.912898
835.622225,-4367.215058,76.609550,13545.768739
835.622554,-4885.359217,-1685.410096,11251.130318
835.622884,-4293.194464,-2911.162892,9252.574275
835.623213,-2146.597232,-4443.353888,7179.997637
835.623542,74.020594,-3753.867940,6069.688724
835.623871,2590.720797,-1532.190996,5551.544565
835.624200,4737.318029,0.000000,5921.647536
835.624530,4737.318029,1762.019645,7328.038826
835.624859,2886.803174,4979.620737,9178.553681
835.625188,222.061783,6435.202183,11621.233289
835.625517,-2368.659014,5056.230287,13841.851115
835.625846,-5033.400406,3830.477490,14211.954086
835.626176,-7031.956449,2298.286494,13249.686362
835.626505,-7105.977043,-995.924147,11399.171507
835.626834,-5995.668130,-3830.477490,8882.471304
835.627163,-3997.112087,-5209.449386,6883.915261
835.627492,-2072.576638,-3140.991542,4071.132681
835.627822,74.020594,-536.266849,2664.741391
835.628151,2812.782580,0.000000,3997.112087
835.628480,3404.947333,2145.067394,7105.977043
835.628809,1480.411884,4366.744339,10807.006753
835.629138,-1480.411884,6435.202183,13767.830521
835.629468,-4515.256246,6665.030833,15692.365970
835.629797,-6735.874072,4903.011187,15988.448347
835.630126,-6735.874072,1685.410096,14508.036463
835.630455,-5255.462188,-3140.991542,11843.295072
835.630784,-3034.844362,-4673.182538,8364.327145
835.631114,-518.144159,-5209.449386,5329.482782
835.631443,1258.350101,-4366.744339,4663.297435
835.631772,3627.009116,-1225.752797,5477.523971
835.632101,4811.338623,1302.362347,6217.729913
835.632430,5107.421000,3217.601092,7254.018232
835.632760,4145.153275,5286.058936,9178.553681
835.633089,2664.741391,6511.811733,12287.418637
835.633418,-740.205942,6052.154434,13989.892304
835.633747,-4367.215058,4060.306139,14508.036463
835.634076,-6661.853478,1685.410096,14211.954086
835.634406,-7476.080014,-1072.533697,12657.521608
835.634735,-6365.771101,-3907.087040,9992.780217
835.635064,-4737.318029,-5898.935335,6587.832884
835.635393,-1554.432478,-5669.106685,4959.379811
835.635722,2368.659014,-3294.210641,4145.153275
835.636052,5477.523971,-1149.143247,4737.318029
835.636381,6439.791695,2374.896044,6291.750507
835.636710,5107.421000,5822.325785,8290.306550
835.637039,2886.803174,8120.612279,10658.965565
835.637368,962.267725,7814.174080,13027.624579
835.637698,-1036.288319,6128.763984,14508.036463
835.638027,-2960.823768,2987.772442,14211.954086
835.638356,-4515.256246,0.000000,13027.624579
835.638685,-4737.318029,-2987.772442,10584.944971
835.639014,-3701.029710,-4060.306139,8216.285956
835.639344,-2072.576638,-4596.572988,6365.771101
835.639673,74.020594,-3140.991542,5773.606348
835.640002,2294.638420,-1455.581446,6217.729913
835.640331,3182.885551,1455.581446,7550.100608
835.640660,2664.741391,3524.039291,8660.409521
835.640990,888.247130,5669.106685,10510.924376
835.641319,-1554.432478,6588.421283,12139.377449
835.641648,-3997.112087,5362.668486,13989.892304
835.641977,-6143.709319,2987.772442,14137.933492
835.642306,-7550.100608,842.705048,12731.542202
835.642636,-6883.915261,-2221.676944,10436.903782
835.642965,-5033.400406,-4290.134789,7994.224174
835.643294,-2960.823768,-4060.306139,5477.523971
835.643623,-74.020594,-1608.800546,3552.988522
835.643952,2442.679609,-612.876398,3775.050304
835.644282,3849.070898,995.924147,5847.626942
835.644611,2960.823768,4136.915689,9030.512492
835.644940,518.144159,6435.202183,12583.501014
835.645269,-2738.761985,6435.202183,14804.118840
835.645598,-6069.688724,6818.249932,16136.489536
835.645928,-7254.018232,3907.087040,15100.201217
835.646257,-6513.812290,-689.485948,12657.521608
835.646586,-4663.297435,-4213.525239,9400.615463
835.646915,-2368.659014,-5592.497135,6365.771101
835.647245,0.000000,-5362.668486,4737.318029
835.647574,2146.597232,-3600.648841,4663.297435
835.647903,3627.009116,-229.828649,5107.421000
835.648232,4145.153275,2604.724693,6069.688724
835.648561,4441.235652,4749.792088,7698.141797
835.648891,3997.112087,5362.668486,9844.739029
835.649220,1702.473667,6205.373534,13249.686362
835.649549,-1924.535449,5745.716235,14508.036463
835.649878,-4737.318029,4060.306139,14211.954086
835.650207,-5921.647536,1378.971896,13175.665768
835.650537,-5625.565159,-2451.505594,11177.109724
835.650866,-4589.276840,-4979.620737,9252.574275
835.651195,-2516.700203,-5515.887586,6365.771101
835.651524,74.020594,-4213.525239,5033.400406
835.651853,3108.864956,-1762.019645,4811.338623
835.652183,4885.359217,76.609550,5625.565159
835.652512,4811.338623,2374.896044,7105.977043
835.652841,3256.906145,5209.449386,9548.656652
835.653170,1110.308913,7124.688131,11695.253884
835.653499,-1184.329507,6052.154434,13693.809927
835.653829,-3108.864956,4290.134789,14211.954086
835.654158,-4441.235652,1072.533697,13693.809927
835.654487,-4959.379811,-1762.019645,11991.336260
835.654816,-3849.070898,-3524.039291,9696.697840
835.655145,-2072.576638,-4060.306139,7476.080014
835.655475,0.000000,-3524.039291,6439.791695
835.655804,1924.535449,-1608.800546,6735.874072
835.656133,3627.009116,536.266849,7105.977043
835.656462,3997.112087,2604.724693,7994.224174
835.656791,2812.782580,4596.572988,9474.636058
835.657121,444.123565,6281.983084,11103.089130
835.657450,-1924.535449,4903.011187,12805.562797
835.657779,-4589.276840,2987.772442,13693.809927
835.658108,-6883.915261,1762.019645,13249.686362
835.658437,-7772.162391,-383.047749,11843.295072
835.658767,-7031.956449,-3064.381992,9474.636058
835.659096,-5107.421000,-4903.011187,7105.977043
835.659425,-2516.700203,-3294.210641,4367.215058
835.659754,222.061783,-1685.410096,3108.864956
835.660083,2960.823768,-306.438199,3923.091493
835.660413,3478.967927,1991.848295,6957.935855
835.660742,1924.535449,4673.182538,10066.800811
835.661071,-296.082377,6358.592633,13249.686362
835.661400,-3849.070898,6358.592633,15174.221811
835.661729,-5921.647536,5362.668486,16358.551318
835.662059,-6735.874072,2757.943793,14952.160028
835.662388,-5699.585753,-1225.752797,12139.377449
835.662717,-3256.906145,-4213.525239,8512.368333
835.663046,-1036.288319,-5362.668486,5699.585753
835.663375,888.247130,-4443.353888,4737.318029
835.663705,2664.741391,-1762.019645,5477.523971
835.664034,3997.112087,1149.143247,5699.585753
835.664363,4145.153275,3294.210641,6143.709319
835.664692,4367.215058,4826.401637,8068.244768
835.665021,3404.947333,5362.668486,11177.109724
835.665351,444.123565,6128.763984,13915.871710
835.665680,-3256.906145,4903.011187,14285.974681
835.666009,-5773.606348,2987.772442,13989.892304
835.666338,-6143.709319,536.266849,12731.542202
835.666667,-5773.606348,-3064.381992,10658.965565
835.666997,-4367.215058,-5439.278036,8290.306550
835.667326,-2294.638420,-4749.792088,6069.688724
835.667655,592.164754,-3217.601092,4885.359217
835.667984,3330.926739,-1072.533697,5033.400406
835.668313,4885.359217,1455.581446,6069.688724
835.668643,4219.173869,3447.429741,8068.244768
835.668972,2738.761985,6128.763984,10362.883188
835.669301,444.123565,7201.297681,12065.356855
835.669630,-1554.432478,5745.716235,13397.727550
835.669959,-2886.803174,2681.334243,14211.954086
835.670289,-4293.194464,306.438199,13545.768739
835.670618,-4811.338623,-1915.238745,11473.192101
835.670947,-3775.050304,-3217.601092,8956.491898
835.671276,-1850.514855,-3830.477490,6957.935855
835.671605,518.144159,-2911.162892,6143.709319
835.671935,2812.782580,-995.924147,6513.812290
835.672264,3997.112087,1455.581446,7031.956449
835.672593,3627.009116,3753.867940,7920.203579
835.672922,1776.494261,4903.011187,9178.553681
835.673251,0.000000,5592.497135,11399.171507
835.673581,-2812.782580,4826.401637,13397.727550
835.673910,-5477.523971,3217.601092,13767.830521
835.674239,-7402.059420,1302.362347,12805.562797
835.674568,-7402.059420,-1302.362347,11103.089130
835.674897,-6069.688724,-4136.915689,8660.409521
835.675227,-4293.194464,-5362.668486,6143.709319
835.675556,-1702.473667,-2451.505594,3849.070898
835.675885,1332.370696,-153.219100,3108.864956
835.676214,3701.029710,536.266849,4811.338623
835.676543,3256.906145,2451.505594,7920.203579
835.676873,666.185348,5286.058936,11251.130318
835.677202,-2368.659014,7507.735880,14211.954086
835.677531,-5403.503377,7277.907231,16210.510130
835.677860,-7105.977043,4673.182538,16062.468941
835.678189,-6809.894666,229.828649,13841.851115
835.678519,-5477.523971,-3370.820191,10510.924376
835.678848,-2886.803174,-5209.449386,7031.956449
835.679177,-296.082377,-5669.106685,5181.441594
835.679506,1850.514855,-4213.525239,4737.318029
835.679835,3775.050304,-1072.533697,5477.523971
835.680165,4441.235652,1991.848295,5625.565159
835.680494,4589.276840,4519.963438,6661.853478
835.680823,4737.318029,5822.325785,9622.677246
835.681152,3256.906145,6971.469032,12731.542202
835.681481,-518.144159,6358.592633,14359.995275
835.681811,-4071.132681,4136.915689,14508.036463
835.682140,-5773.606348,1455.581446,13249.686362
835.682469,-6661.853478,-766.095498,11991.336260
835.682798,-5625.565159,-4366.744339,9770.718434
835.683127,-3997.112087,-5669.106685,7179.997637
835.683457,-1332.370696,-5056.230287,5551.544565
835.683786,1628.453072,-2221.676944,4811.338623
835.684115,3552.988522,76.609550,4885.359217
835.684444,4145.153275,2221.676944,6513.812290
835.684773,3404.947333,5056.230287,8660.409521
835.685103,1776.494261,6971.469032,10881.027347
835.685432,0.000000,6818.249932,12583.501014
835.685761,-1998.556043,4903.011187,13471.748144
835.686090,-3552.988522,1915.238745,13619.789333
835.686419,-4515.256246,-842.705048,12213.398043
835.686749,-4145.153275,-2987.772442,10584.944971
835.687078,-2812.782580,-3830.477490,8290.306550
835.687407,-962.267725,-2987.772442,6957.935855
835.687736,1628.453072,-2145.067394,6661.853478
835.688065,3182.885551,229.828649,7179.997637
835.688395,3849.070898,2451.505594,7920.203579
835.688724,2886.803174,4673.182538,8808.450710
835.689053,1554.432478,5592.497135,10288.862594
835.689382,-1480.411884,5592.497135,12213.398043
835.689711,-4145.153275,3753.867940,13101.645173
835.690041,-6365.771101,2221.676944,13101.645173
835.690370,-7254.018232,-229.828649,11399.171507
835.690699,-6587.832884,-3217.601092,9622.677246
835.691028,-5477.523971,-4290.134789,7179.997637
835.691357,-3404.947333,-3830.477490,4737.318029
835.691687,-518.144159,-2221.676944,3478.967927
835.692016,2442.679609,-612.876398,4663.297435
835.692345,3256.906145,2068.457845,7328.038826
835.692674,2368.659014,4903.011187,10214.842000
835.693003,-518.144159,5975.544884,13249.686362
835.693333,-3330.926739,6741.640382,15470.304188
835.693662,-5921.647536,5362.668486,16136.489536
835.693991,-7031.956449,2681.334243,14804.118840
835.694320,-5625.565159,-1225.752797,11843.295072
835.694649,-3701.029710,-4826.401637,8882.471304
835.694979,-1480.411884,-5822.325785,6217.729913
835.695308,518.144159,-4903.011187,4737.318029
835.695637,2590.720797,-2451.505594,5107.421000
835.695966,4663.297435,995.924147,5921.647536
835.696295,4959.379811,3677.258390,6069.688724
835.696625,5255.462188,4979.620737,8068.244768
835.696954,4737.318029,5515.887586,10732.986159
835.697283,2146.597232,5975.544884,12953.603985
835.697612,-1776.494261,5898.935335,14285.974681
835.697941,-4737.318029,3907.087040,13767.830521
835.698271,-5847.626942,459.657299,13027.624579
835.698600,-6069.688724,-2757.943793,11251.130318
835.698929,-5329.482782,-4826.401637,8882.471304
835.699258,-3108.864956,-4903.011187,7031.956449
835.699588,-592.164754,-3830.477490,5625.565159
835.699917,1702.473667,-1378.971896,5181.441594
835.700246,3849.070898,995.924147,5551.544565
835.700575,4293.194464,3140.991542,7179.997637
835.700904,3330.926739,5439.278036,9474.636058
835.701234,1332.370696,7124.688131,10807.006753
835.701563,-444.123565,5745.716235,12213.398043
835.701892,-2368.659014,2911.162892,12953.603985
835.702221,-3330.926739,383.047749,12805.562797
835.702550,-4293.194464,-1455.581446,11695.253884
835.702879,-3701.029710,-3140.991542,9770.718434
835.703208,-1924.535449,-2681.334243,8586.388927
835.703537,-666.185348,-2451.505594,7476.080014
835.703867,1702.473667,-842.705048,7402.059420
835.704196,3552.988522,1072.533697,7550.100608
835.704525,4145.153275,3140.991542,8290.306550
835.704854,2960.823768,5132.839837,9474.636058
835.705183,592.164754,6128.763984,10658.965565
835.705512,-2220.617826,4673.182538,12361.439231
835.705841,-4737.318029,2911.162892,12731.542202
835.706170,-6809.894666,1302.362347,12509.480420
835.706500,-7624.121203,-459.657299,10881.027347
835.706829,-6809.894666,-3830.477490,8364.327145
835.707158,-5255.462188,-5056.230287,6365.771101
835.707487,-3256.906145,-4136.915689,5033.400406
835.707816,-444.123565,-919.314598,4663.297435
835.708145,2072.576638,459.657299,5847.626942
835.708474,3034.844362,2528.115143,7772.162391
835.708804,2294.638420,4903.011187,10510.924376
835.709133,74.020594,6281.983084,12805.562797
835.709462,-2590.720797,6052.154434,14878.139434
835.709791,-4885.359217,4826.401637,15470.304188
835.710120,-5847.626942,2604.724693,13693.809927
835.710449,-4959.379811,-1149.143247,11473.192101
835.710778,-2812.782580,-4673.182538,8660.409521
835.711107,-1036.288319,-5056.230287,6217.729913
835.711437,888.247130,-4213.525239,4959.379811
835.711766,2960.823768,-1685.410096,5181.441594
835.712095,4219.173869,306.438199,5551.544565
835.712424,4293.194464,3140.991542,7105.977043
835.712753,4145.153275,4903.011187,8956.491898
835.713082,2886.803174,5822.325785,11103.089130
835.713411,296.082377,5669.106685,12509.480420
835.713741,-2664.741391,3753.867940,13175.665768
835.714070,-4885.359217,1455.581446,13693.809927
835.714399,-6217.729913,-1072.533697,13175.665768
835.714728,-6809.894666,-2987.772442,11177.109724
835.715057,-5551.544565,-4213.525239,8438.347739
835.715386,-3034.844362,-4673.182538,6143.709319
835.715715,666.185348,-2757.943793,5181.441594
835.716044,3478.967927,-1378.971896,5699.585753
835.716374,4663.297435,1455.581446,6513.812290
835.716703,4293.194464,5056.230287,8142.265362
835.717032,2738.761985,7048.078582,10214.842000
835.717361,740.205942,6665.030833,11843.295072
835.717690,-1110.308913,4749.792088,13471.748144
835.718019,-2590.720797,2145.067394,13471.748144
835.718348,-3701.029710,-612.876398,12213.398043
835.718677,-4589.276840,-2298.286494,10955.047942
835.719007,-3552.988522,-3600.648841,9252.574275
835.719336,-1998.556043,-3830.477490,7254.018232
835.719665,0.000000,-1991.848295,6883.915261
835.719994,2220.617826,76.609550,6735.874072
835.720323,3330.926739,1532.190996,7328.038826
835.720652,3108.864956,3217.601092,8438.347739
835.720981,1332.370696,5362.668486,10066.800811
835.721311,-592.164754,6128.763984,11621.233289
835.721640,-2886.803174,4366.744339,12805.562797
835.721969,-5403.503377,2604.724693,12731.542202
835.722298,-7254.018232,612.876398,11843.295072
835.722627,-7179.997637,-2451.505594,9770.718434
835.722956,-5625.565159,-4366.744339,7550.100608
835.723285,-3552.988522,-5209.449386,6069.688724
835.723614,-1554.432478,-3140.991542,5773.606348
835.723944,518.144159,536.266849,5107.421000
835.724273,2590.720797,2528.115143,5477.523971
835.724602,3478.967927,3677.258390,7698.141797
835.724931,2738.761985,5669.106685,11029.068536
835.725260,222.061783,7277.907231,13471.748144
835.725589,-3182.885551,5898.935335,14804.118840
835.725918,-5477.523971,4443.353888,14730.098246
835.726248,-6365.771101,2221.676944,13693.809927
835.726577,-5625.565159,-2681.334243,11103.089130
835.726906,-4219.173869,-5439.278036,8290.306550
835.727235,-2368.659014,-5669.106685,5921.647536
835.727564,74.020594,-4366.744339,5477.523971
835.727893,2368.659014,-1608.800546,5329.482782
835.728222,3627.009116,1149.143247,6365.771101
835.728551,3849.070898,2987.772442,7624.121203
835.728881,3478.967927,5056.230287,9622.677246
835.729210,2072.576638,6741.640382,11695.253884
835.729539,222.061783,4673.182538,13027.624579
835.729868,-2590.720797,2604.724693,14211.954086
835.730197,-4441.235652,995.924147,13619.789333
835.730526,-5181.441594,-1149.143247,11843.295072
835.730855,-4367.215058,-3677.258390,9474.636058
835.731184,-2368.659014,-4903.011187,6661.853478
835.731514,370.102971,-4673.182538,4737.318029
835.731843,3404.947333,-2757.943793,5477.523971
835.732172,5181.441594,612.876398,6661.853478
835.732501,4589.276840,4519.963438,8216.285956
835.732830,2960.823768,6665.030833,9326.594869
835.733159,1258.350101,7814.174080,10807.006753
835.733488,-1036.288319,6052.154434,12509.480420
835.733818,-2368.659014,3140.991542,12953.603985
835.734147,-4071.132681,459.657299,12583.501014
835.734476,-5477.523971,-1838.629195,11621.233289
835.734805,-5847.626942,-4136.915689,9770.718434
835.735134,-4811.338623,-3983.696590,7846.182985
835.735463,-2368.659014,-3140.991542,6661.853478
835.735792,888.247130,-1532.190996,6365.771101
835.736121,3034.844362,383.047749,7105.977043
835.736451,4219.173869,3600.648841,8142.265362
835.736780,3478.967927,5209.449386,9400.615463
835.737109,1924.535449,6818.249932,11103.089130
835.737438,-592.164754,6665.030833,12509.480420
835.737767,-3404.947333,4443.353888,13397.727550
835.738096,-5329.482782,1991.848295,13027.624579
835.738425,-6217.729913,-689.485948,11325.150913
835.738755,-5847.626942,-3447.429741,9030.512492
835.739084,-4293.194464,-5209.449386,6809.894666
835.739413,-2442.679609,-4903.011187,5995.668130
835.739742,-592.164754,-1991.848295,6365.771101
835.740071,1184.329507,2068.457845,5995.668130
835.740400,2368.659014,4519.963438,6069.688724
835.740729,2738.761985,4903.011187,8068.244768
835.741058,1924.535449,6128.763984,11251.130318
835.741388,-1110.308913,6052.154434,13175.665768
835.741717,-3997.112087,5132.839837,14656.077652
835.742046,-6809.894666,2757.943793,13619.789333
835.742375,-7476.080014,536.266849,11917.315666
835.742704,-6143.709319,-4060.306139,9844.739029
835.743033,-3552.988522,-6818.249932,7920.203579
835.743362,-1184.329507,-4903.011187,6291.750507
835.743691,1554.432478,-2298.286494,5107.421000
835.744021,3627.009116,0.000000,6217.729913
835.744350,4441.235652,2681.334243,6957.935855
835.744679,4663.297435,4443.353888,8364.327145
835.745008,4367.215058,5439.278036,10658.965565
835.745337,2368.659014,7048.078582,12361.439231
835.745666,-222.061783,5745.716235,13249.686362
835.745995,-2812.782580,1991.848295,13249.686362
835.746325,-4663.297435,-766.095498,12361.439231
835.746654,-4959.379811,-3217.601092,10807.006753
835.746983,-4737.318029,-4673.182538,8586.388927
835.747312,-3108.864956,-4213.525239,6735.874072
835.747641,-740.205942,-2911.162892,5995.668130
835.747970,2294.638420,-1915.238745,6217.729913
835.748299,4145.153275,689.485948,7031.956449
835.748628,3997.112087,4443.353888,8660.409521
835.748958,2294.638420,6818.249932,10214.842000
835.749287,0.000000,7277.907231,11769.274478
835.749616,-2072.576638,4979.620737,12361.439231
835.749945,-3108.864956,2298.286494,12657.521608
835.750274,-4071.132681,-383.047749,12139.377449
835.750603,-4663.297435,-2221.676944,10881.027347
835.750932,-4219.173869,-3907.087040,9252.574275
835.751261,-2886.803174,-4060.306139,7624.121203
835.751591,-740.205942,-2298.286494,7031.956449
835.751920,2146.597232,-612.876398,6809.894666
835.752249,3849.070898,1149.143247,7328.038826
835.752578,4145.153275,4136.915689,8512.368333
835.752907,2960.823768,5669.106685,9770.718434
835.753236,1554.432478,5822.325785,11251.130318
835.753565,-1332.370696,4903.011187,12361.439231
835.753895,-4071.132681,3217.601092,12953.603985
835.754224,-5847.626942,919.314598,12657.521608
835.754553,-6661.853478,-1915.238745,11029.068536
835.754882,-6217.729913,-3907.087040,8290.306550
835.755211,-4441.235652,-4979.620737,6143.709319
835.755540,-1998.556043,-4060.306139,5921.647536
835.755869,222.061783,-766.095498,5699.585753
835.756198,1184.329507,2681.334243,5773.606348
835.756528,2146.597232,3677.258390,6957.935855
835.756857,1554.432478,5132.839837,9548.656652
835.757186,0.000000,6205.373534,12139.377449
835.757515,-2664.741391,5286.058936,13693.809927
835.757844,-5255.462188,3447.429741,14359.995275
835.758173,-6587.832884,1378.971896,13175.665768
835.758502,-6069.688724,-1991.848295,11251.130318
835.758832,-4441.235652,-5286.058936,8956.491898
835.759161,-1998.556043,-5362.668486,7105.977043
835.759490,222.061783,-2757.943793,5995.668130
835.759819,2960.823768,-766.095498,6143.709319
835.760148,4441.235652,1991.848295,6513.812290
835.760477,4885.359217,3600.648841,7476.080014
835.760806,4959.379811,5439.278036,9696.697840
835.761135,3849.070898,6205.373534,11547.212695
835.761465,666.185348,6358.592633,12509.480420
835.761794,-2368.659014,3983.696590,13101.645173
835.762123,-4737.318029,689.485948,12287.418637
835.762452,-5477.523971,-2374.896044,11473.192101
835.762781,-5551.544565,-4290.134789,9770.718434
835.763110,-4589.276840,-5132.839837,7846.182985
835.763439,-3034.844362,-4290.134789,6365.771101
835.763768,-296.082377,-2374.896044,5847.626942
835.764098,2516.700203,-153.219100,6587.832884
835.764427,3701.029710,3064.381992,7402.059420
835.764756,3552.988522,6128.763984,8808.450710
835.765085,2220.617826,7584.345430,10214.842000
835.765414,0.000000,6511.811733,11843.295072
835.765743,-2294.638420,3753.867940,12509.480420
835.766072,-3404.947333,1762.019645,12583.501014
835.766402,-4145.153275,-842.705048,11695.253884
835.766731,-4145.153275,-3600.648841,10140.821405
835.767060,-3552.988522,-4136.915689,8512.368333
835.767389,-1628.453072,-3447.429741,7550.100608
835.767718,1036.288319,-1838.629195,6957.935855
835.768047,2960.823768,-153.219100,7105.977043
835.768376,3923.091493,2451.505594,8068.244768
835.768705,3627.009116,4136.915689,9548.656652
835.769035,1924.535449,5439.278036,10955.047942
835.769364,-296.082377,5745.716235,12213.398043
835.769693,-3108.864956,4136.915689,13101.645173
835.770022,-5477.523971,1608.800546,13101.645173
835.770351,-7031.956449,-229.828649,12065.356855
835.770680,-7031.956449,-2911.162892,9992.780217
835.771009,-5477.523971,-4903.011187,7550.100608
835.771339,-3478.967927,-4903.011187,5847.626942
835.771668,-1258.350101,-1608.800546,4737.318029
835.771997,1258.350101,995.924147,3997.112087
835.772326,2960.823768,1915.238745,5847.626942
835.772655,2886.803174,4136.915689,8438.347739
835.772984,1036.288319,5975.544884,11399.171507
835.773313,-1924.535449,6205.373534,13545.768739
835.773642,-4663.297435,5209.449386,15248.242405
835.773972,-6587.832884,3064.381992,14508.036463
835.774301,-6587.832884,-766.095498,12065.356855
835.774630,-4811.338623,-4826.401637,9622.677246
835.774959,-2590.720797,-5592.497135,7179.997637
835.775288,-666.185348,-4443.353888,5995.668130
835.775617,1776.494261,-2298.286494,5921.647536
835.775946,3701.029710,919.314598,5773.606348
835.776275,5181.441594,3064.381992,6513.812290
835.776605,5255.462188,4903.011187,8068.244768
835.776934,4811.338623,5975.544884,10658.965565
835.777263,1998.556043,6894.859482,12805.562797
835.777592,-1480.411884,5286.058936,13767.830521
835.777921,-4737.318029,2987.772442,13323.706956
835.778250,-6439.791695,229.828649,12213.398043
835.778579,-6661.853478,-3217.601092,10955.047942
835.778909,-5699.585753,-5898.935335,9030.512492
835.779238,-4071.132681,-5132.839837,6883.915261
835.779567,-1628.453072,-3217.601092,6069.688724
835.779896,1406.391290,-1149.143247,5995.668130
835.780225,3478.967927,1455.581446,6513.812290
835.780554,4515.256246,3524.039291,7994.224174
835.780883,3404.947333,6511.811733,9844.739029
835.781212,1702.473667,7507.735880,11325.150913
835.781542,-296.082377,6205.373534,12509.480420
835.781871,-2442.679609,3600.648841,13175.665768
835.782200,-3923.091493,1149.143247,12731.542202
835.782529,-4663.297435,-1762.019645,11769.274478
835.782858,-4219.173869,-3600.648841,9696.697840
835.783187,-2442.679609,-3830.477490,7624.121203
835.783516,-222.061783,-2681.334243,6587.832884
835.783846,2368.659014,-1455.581446,6069.688724
835.784175,3997.112087,995.924147,6439.791695
835.784504,4441.235652,3294.210641,8068.244768
835.784833,3034.844362,5209.449386,9770.718434
835.785162,1036.288319,6511.811733,11399.171507
835.785491,-2072.576638,5286.058936,12583.501014
835.785820,-4441.235652,2834.553343,12953.603985
835.786149,-6365.771101,842.705048,12287.418637
835.786479,-7254.018232,-1838.629195,11325.150913
835.786808,-6957.935855,-3830.477490,9178.553681
835.787137,-5551.544565,-5209.449386,7254.018232
835.787466,-3256.906145,-2604.724693,5255.462188
835.787795,-370.102971,-76.609550,4219.173869
835.788124,2738.761985,612.876398,4515.256246
835.788453,4071.132681,2221.676944,7031.956449
835.788782,2738.761985,4443.353888,10214.842000
835.789112,0.000000,6281.983084,13101.645173
835.789441,-3849.070898,6052.154434,15248.242405
835.789770,-6661.853478,4673.182538,15618.345376
835.790099,-7031.956449,1532.190996,14285.974681
835.790428,-5551.544565,-3524.039291,11769.274478
835.790757,-3478.967927,-5822.325785,8438.347739
835.791086,-1554.432478,-5515.887586,6069.688724
835.791416,1110.308913,-4596.572988,5847.626942
835.791745,3256.906145,-1149.143247,6217.729913
835.792074,4367.215058,1455.581446,6883.915261
835.792403,5033.400406,4136.915689,7550.100608
835.792732,4959.379811,5822.325785,8882.471304
835.793061,3701.029710,6741.640382,11769.274478
835.793390,962.267725,6281.983084,13471.748144
835.793719,-2886.803174,4443.353888,13915.871710
835.794049,-5847.626942,2298.286494,12953.603985
835.794378,-6883.915261,-536.266849,11325.150913
835.794707,-6809.894666,-3830.477490,9474.636058
835.795036,-5107.421000,-5209.449386,7550.100608
835.795365,-2516.700203,-4826.401637,5847.626942
835.795694,666.185348,-2681.334243,4885.359217
835.796023,3256.906145,0.000000,5107.421000
835.796353,4293.194464,1838.629195,6217.729913
835.796682,4441.235652,5286.058936,8512.368333
835.797011,2442.679609,7354.516781,10362.883188
835.797340,518.144159,7354.516781,11917.315666
835.797669,-1628.453072,4826.401637,13175.665768
835.797998,-3404.947333,2298.286494,13397.727550
835.798327,-4293.194464,-153.219100,12509.480420
835.798656,-4811.338623,-2604.724693,10881.027347
835.798986,-3997.112087,-4060.306139,8734.430116
835.799315,-1776.494261,-3677.258390,7476.080014
835.799644,444.123565,-1762.019645,6883.915261
835.799973,2960.823768,-306.438199,6661.853478
835.800302,3997.112087,2298.286494,7624.121203
835.800631,3775.050304,3907.087040,8956.491898
835.800960,2368.659014,5362.668486,10510.924376
835.801289,-370.102971,6358.592633,12139.377449
835.801619,-3034.844362,4596.572988,13323.706956
835.801948,-5625.565159,1991.848295,12953.603985
835.802277,-7031.956449,0.000000,12065.356855
835.802606,-6957.935855,-2834.553343,10214.842000
835.802935,-5551.544565,-4826.401637,7920.203579
835.803264,-3330.926739,-5898.935335,6513.812290
835.803594,-1480.411884,-2834.553343,6291.750507
835.803923,888.247130,536.266849,6439.791695
835.804252,2220.617826,3294.210641,6587.832884
835.804581,2960.823768,4366.744339,7402.059420
835.804911,2664.741391,5515.887586,10436.903782
835.805240,74.020594,6052.154434,12731.542202
835.805569,-2960.823768,4673.182538,13915.871710
835.805898,-5847.626942,3064.381992,13693.809927
835.806228,-6809.894666,689.485948,12361.439231
835.806557,-5773.606348,-3217.601092,10584.944971
835.806886,-3552.988522,-5745.716235,8438.347739
835.807215,-1258.350101,-5439.278036,5995.668130
835.807545,1406.391290,-2757.943793,5403.503377
835.807874,3775.050304,-459.657299,6069.688724
835.808203,4367.215058,2221.676944,6883.915261
835.808533,4293.194464,3753.867940,8216.285956
835.808862,3404.947333,5132.839837,10214.842000
835.809191,1702.473667,6281.983084,12287.418637
835.809520,-962.267725,5286.058936,13545.768739
835.809850,-3627.009116,2528.115143,13767.830521
835.810179,-5403.503377,-612.876398,12731.542202
835.810508,-6365.771101,-2374.896044,11029.068536
835.810837,-5403.503377,-3524.039291,9326.594869
835.811167,-3627.009116,-3907.087040,7031.956449
835.811496,-1258.350101,-2834.553343,5699.585753
835.811825,1924.535449,-2068.457845,5625.565159
835.812154,3923.091493,612.876398,5403.503377
835.812484,4663.297435,3907.087040,7550.100608
835.812813,2664.741391,6588.421283,9400.615463
835.813142,518.144159,7354.516781,11177.109724
835.813472,-1776.494261,5132.839837,12731.542202
835.813801,-3552.988522,2834.553343,13175.665768
835.814130,-4367.215058,536.266849,12657.521608
835.814459,-4959.379811,-2068.457845,11695.253884
835.814789,-4515.256246,-3370.820191,9844.739029
835.815118,-3108.864956,-3753.867940,7476.080014
835.815447,-222.061783,-2374.896044,6291.750507
835.815776,2368.659014,0.000000,6439.791695
835.816106,3256.906145,1915.238745,6883.915261
835.816435,3627.009116,3907.087040,7698.141797
835.816764,2960.823768,4826.401637,9252.574275
835.817093,1332.370696,5745.716235,10732.986159
835.817423,-962.267725,4596.572988,11843.295072
835.817752,-4441.235652,2911.162892,12805.562797
835.818081,-6661.853478,1072.533697,12583.501014
835.818411,-7254.018232,-1225.752797,11769.274478
835.818740,-6587.832884,-3064.381992,9400.615463
835.819069,-4515.256246,-5056.230287,7031.956449
835.819398,-2220.617826,-3830.477490,5625.565159
835.819728,666.185348,-1455.581446,5921.647536
835.820057,2442.679609,1225.752797,7105.977043
835.820386,2738.761985,4519.963438,7402.059420
835.820715,2072.576638,5822.325785,8660.409521
835.821045,1036.288319,6052.154434,11251.130318
835.821374,-1332.370696,4749.792088,12953.603985
835.821703,-4589.276840,3217.601092,13693.809927
835.822032,-6587.832884,1532.190996,12805.562797
835.822362,-7698.141797,-1915.238745,11473.192101
835.822691,-6809.894666,-3677.258390,9548.656652
835.823020,-4071.132681,-5975.544884,7994.224174
835.823349,-1110.308913,-5669.106685,6661.853478
835.823679,1776.494261,-2145.067394,6069.688724
835.824008,4145.153275,0.000000,6513.812290
835.824337,5995.668130,1991.848295,7328.038826
835.824667,5921.647536,4366.744339,9178.553681
835.824996,4737.318029,6205.373534,11473.192101
835.825325,2368.659014,6358.592633,13027.624579
835.825654,-296.082377,4290.134789,14137.933492
835.825984,-2664.741391,1378.971896,13989.892304
835.826313,-5181.441594,-766.095498,12731.542202
835.826642,-5699.585753,-2757.943793,10658.965565
835.826971,-4515.256246,-4290.134789,7624.121203
835.827301,-2146.597232,-4596.572988,5847.626942
835.827630,296.082377,-3064.381992,4959.379811
835.827959,2442.679609,-1532.190996,5033.400406
835.828288,3404.947333,1149.143247,6217.729913
835.828618,2590.720797,4979.620737,8068.244768
835.828947,592.164754,7507.735880,10510.924376
835.829276,-1110.308913,7048.078582,11991.336260
835.829606,-3034.844362,4443.353888,13027.624579
835.829935,-4145.153275,1685.410096,13027.624579
835.830264,-5329.482782,153.219100,12583.501014
835.830593,-5699.585753,-1915.238745,11251.130318
835.830923,-4441.235652,-3370.820191,9178.553681
835.831252,-2220.617826,-3370.820191,7105.977043
835.831581,888.247130,-1532.190996,6291.750507
835.831910,4145.153275,229.828649,6587.832884
835.832240,5477.523971,2528.115143,7105.977043
835.832569,4811.338623,4749.792088,8290.306550
835.832898,3256.906145,6052.154434,9696.697840
835.833227,1406.391290,6128.763984,11473.192101
835.833557,-1332.370696,5209.449386,13471.748144
835.833886,-4589.276840,3217.601092,13841.851115
835.834215,-6661.853478,1072.533697,12805.562797
835.834545,-6957.935855,-1762.019645,10584.944971
835.834874,-5921.647536,-4519.963438,8142.265362
835.835203,-3552.988522,-5515.887586,6513.812290
835.835532,-1110.308913,-3600.648841,5847.626942
835.835862,888.247130,-919.314598,6735.874072
835.836191,1554.432478,3064.381992,6217.729913
835.836520,1628.453072,5898.935335,6661.853478
835.836849,1628.453072,4979.620737,8586.388927
835.837179,148.041188,5056.230287,11843.295072
835.837508,-3108.864956,4749.792088,13915.871710
835.837837,-5847.626942,3140.991542,14285.974681
835.838166,-7402.059420,1072.533697,13249.686362
835.838496,-7105.977043,-1762.019645,10362.883188
835.838825,-4811.338623,-5592.497135,8734.430116
835.839154,-1702.473667,-6665.030833,6883.915261
835.839484,1332.370696,-3677.258390,5699.585753
835.839813,4441.235652,-919.314598,5773.606348
835.840142,5995.668130,1608.800546,6587.832884
835.840471,5847.626942,3907.087040,7698.141797
835.840801,5107.421000,5362.668486,9918.759623
835.841130,3478.967927,6358.592633,11991.336260
835.841459,592.164754,6665.030833,13841.851115
835.841788,-2294.638420,3753.867940,13989.892304
835.842118,-5181.441594,306.438199,13397.727550
835.842447,-6439.791695,-2681.334243,11843.295072
835.842776,-6069.688724,-4443.353888,9548.656652
835.843105,-4663.297435,-5362.668486,7550.100608
835.843435,-2368.659014,-4213.525239,6217.729913
835.843764,148.041188,-2451.505594,5033.400406
835.844093,2886.803174,-612.876398,5921.647536
835.844423,3923.091493,2451.505594,6957.935855
835.844752,2960.823768,5362.668486,9104.533087
835.845081,888.247130,7354.516781,11325.150913
835.845410,-1332.370696,6435.202183,12435.459826
835.845740,-3923.091493,4290.134789,13175.665768
835.846069,-4367.215058,1225.752797,13175.665768
835.846398,-4885.359217,-1149.143247,12213.398043
835.846727,-4737.318029,-2757.943793,10288.862594
835.847057,-3256.906145,-4290.134789,8142.265362
835.847386,-740.205942,-3830.477490,6513.812290
835.847715,2368.659014,-919.314598,5995.668130
835.848044,4367.215058,766.095498,6143.709319
835.848374,4885.359217,2681.334243,7328.038826
835.848703,4071.132681,5362.668486,9252.574275
835.849032,2368.659014,6511.811733,10436.903782
835.849361,-222.061783,5745.716235,11917.315666
835.849691,-3256.906145,3753.867940,13027.624579
835.850020,-5699.585753,1991.848295,13101.645173
835.850349,-7179.997637,-612.876398,11917.315666
835.850679,-6957.935855,-2757.943793,9696.697840
835.851008,-5625.565159,-4903.011187,6661.853478
835.851337,-2886.803174,-4979.620737,5551.544565
835.851666,0.000000,-2604.724693,6143.709319
835.851996,1702.473667,842.705048,6291.750507
835.852325,2738.761985,4290.134789,5699.585753
835.852654,2294.638420,4979.620737,7328.038826
835.852983,1406.391290,5745.716235,10436.903782
835.853313,-888.247130,5898.935335,13175.665768
835.853642,-3775.050304,4366.744339,14211.954086
835.853971,-5995.668130,2911.162892,13323.706956
835.854300,-6513.812290,-306.438199,11991.336260
835.854630,-4959.379811,-4213.525239,10214.842000
835.854959,-2738.761985,-6588.421283,8512.368333
835.855288,0.000000,-5056.230287,7105.977043
835.855618,2220.617826,-1608.800546,6217.729913
835.855947,4441.235652,1149.143247,6661.853478
835.856276,5477.523971,2528.115143,7328.038826
835.856605,5255.462188,4366.744339,8660.409521
835.856935,3923.091493,5669.106685,10584.944971
835.857264,1776.494261,6358.592633,12435.459826
835.857593,-962.267725,4673.182538,13471.748144
835.857922,-3923.091493,1915.238745,13619.789333
835.858252,-5773.606348,-995.924147,12657.521608
835.858581,-6439.791695,-3217.601092,10732.986159
835.858910,-5403.503377,-4749.792088,8290.306550
835.859239,-3330.926739,-4596.572988,7031.956449
835.859569,-1036.288319,-2604.724693,5329.482782
835.859898,1554.432478,-1378.971896,5551.544565
835.860227,3627.009116,995.924147,6439.791695
835.860557,3701.029710,4673.182538,7772.162391
835.860886,2368.659014,6741.640382,9918.759623
835.861215,222.061783,7201.297681,11399.171507
835.861544,-1850.514855,4673.182538,12879.583391
835.861874,-3552.988522,2451.505594,13101.645173
835.862203,-4589.276840,306.438199,12509.480420
835.862532,-4959.379811,-2298.286494,11029.068536
835.862861,-4441.235652,-3600.648841,9178.553681
835.863191,-2368.659014,-4290.134789,7179.997637
835.863520,148.041188,-2604.724693,6661.853478
835.863849,2812.782580,-383.047749,6513.812290
835.864178,3849.070898,2068.457845,7031.956449
835.864508,3849.070898,4136.915689,7846.182985
835.864837,2886.803174,4749.792088,9770.718434
835.865166,1184.329507,5745.716235,11621.233289
835.865496,-1776.494261,4749.792088,12509.480420
835.865825,-4737.318029,2145.067394,13101.645173
835.866154,-6513.812290,459.657299,12805.562797
835.866483,-7105.977043,-1532.190996,11103.089130
835.866813,-6217.729913,-4136.915689,8882.471304
835.867142,-4293.194464,-4596.572988,7105.977043
835.867471,-2368.659014,-3140.991542,6661.853478
835.867800,296.082377,0.000000,6069.688724
835.868130,1702.473667,2987.772442,5477.523971
835.868459,3108.864956,3753.867940,6957.935855
835.868788,2368.659014,4519.963438,9474.636058
835.869117,222.061783,5745.716235,12361.439231
835.869447,-2960.823768,5056.230287,14434.015869
835.869776,-5773.606348,3217.601092,14508.036463
835.870105,-7105.977043,1302.362347,13471.748144
835.870435,-6439.791695,-2221.676944,10955.047942
835.870764,-3701.029710,-5669.106685,8808.450710
835.871093,-1036.288319,-5209.449386,6735.874072
835.871422,1332.370696,-3524.039291,5773.606348
835.871752,3997.112087,-1072.533697,5699.585753
835.872081,4737.318029,1838.629195,6735.874072
835.872410,5033.400406,4136.915689,7846.182985
835.872739,4885.359217,5132.839837,9548.656652
835.873069,3182.885551,6741.640382,11695.253884
835.873398,222.061783,6588.421283,12657.521608
835.873727,-2590.720797,3217.601092,13175.665768
835.874056,-4885.359217,536.266849,13175.665768
835.874386,-5995.668130,-1455.581446,11769.274478
835.874715,-6513.812290,-3753.867940,9992.780217
835.875044,-5403.503377,-4903.011187,7624.121203
835.875373,-3034.844362,-3370.820191,5847.626942
835.875703,74.020594,-1915.238745,5329.482782
835.876032,3404.947333,-383.047749,5699.585753
835.876361,4663.297435,2528.115143,6735.874072
835.876691,3997.112087,5209.449386,8586.388927
835.877020,2072.576638,7124.688131,10288.862594
835.877349,-518.144159,6741.640382,12139.377449
835.877678,-2368.659014,4596.572988,13545.768739
835.878008,-3775.050304,2221.676944,13397.727550
835.878337,-4737.318029,-536.266849,12435.459826
835.878666,-3997.112087,-2681.334243,10436.903782
835.878995,-2812.782580,-3753.867940,8660.409521
835.879325,-814.226536,-3294.210641,7031.956449
835.879654,1480.411884,-1608.800546,6957.935855
835.879983,3330.926739,689.485948,6809.894666
835.880312,3775.050304,3294.210641,7772.162391
835.880642,3997.112087,4213.525239,9104.533087
835.880971,1998.556043,5515.887586,10807.006753
835.881300,0.000000,5515.887586,11991.336260
835.881630,-3404.947333,4060.306139,12583.501014
835.881959,-5773.606348,1608.800546,12805.562797
835.882288,-7105.977043,76.609550,12065.356855
835.882617,-7031.956449,-2834.553343,9770.718434
835.882947,-5625.565159,-4596.572988,7550.100608
835.883276,-3404.947333,-4673.182538,6439.791695
835.883605,-1110.308913,-1991.848295,5551.544565
835.883934,1184.329507,1302.362347,4737.318029
835.884264,2960.823768,2451.505594,5255.462188
835.884593,3256.906145,3524.039291,7772.162391
835.884922,1850.514855,5515.887586,11177.109724
835.885251,-1258.350101,6052.154434,13841.851115
835.885581,-4663.297435,5056.230287,14878.139434
835.885910,-6587.832884,2911.162892,14359.995275
835.886239,-6439.791695,0.000000,12583.501014
835.886569,-4737.318029,-4290.134789,10214.842000
835.886898,-2590.720797,-5745.716235,7476.080014
835.887227,-222.061783,-4979.620737,5699.585753
835.887556,2220.617826,-3064.381992,5477.523971
835.887886,4293.194464,689.485948,6291.750507
835.888215,4515.256246,2757.943793,7105.977043
835.888544,4663.297435,4213.525239,8512.368333
835.888873,4071.132681,5439.278036,10807.006753
835.889203,1850.514855,6435.202183,12509.480420
835.889532,-888.247130,4979.620737,13397.727550
835.889861,-4071.132681,2374.896044,13323.706956
835.890190,-5477.523971,0.000000,12435.459826
835.890520,-6143.709319,-2528.115143,11399.171507
835.890849,-5329.482782,-4903.011187,9400.615463
835.891178,-3478.967927,-3983.696590,7328.038826
835.891508,-1554.432478,-2681.334243,6217.729913
835.891837,1480.411884,-612.876398,5625.565159
835.892166,3701.029710,842.705048,5847.626942
835.892495,4441.235652,3600.648841,7550.100608
835.892825,3256.906145,5975.544884,9622.677246
835.893154,518.144159,6665.030833,11473.192101
835.893483,-1850.514855,5745.716235,12953.603985
835.893812,-3775.050304,3677.258390,13101.645173
835.894142,-4663.297435,689.485948,12361.439231
835.894471,-4367.215058,-2528.115143,11177.109724
835.894800,-3701.029710,-3217.601092,9252.574275
835.895129,-2294.638420,-3677.258390,7254.018232
835.895459,0.000000,-1915.238745,6217.729913
835.895788,2220.617826,0.000000,6291.750507
835.896117,3997.112087,1762.019645,7105.977043
835.896447,4589.276840,3064.381992,7994.224174
835.896776,3182.885551,4979.620737,9696.697840
835.897105,1332.370696,6511.811733,11029.068536
835.897434,-1480.411884,4673.182538,12657.521608
835.897764,-4441.235652,2374.896044,13397.727550
835.898093,-6365.771101,1302.362347,12583.501014
835.898422,-6809.894666,-1225.752797,10881.027347
835.898751,-5921.647536,-3677.258390,8512.368333
835.899081,-4145.153275,-5056.230287,6217.729913
835.899410,-1998.556043,-4060.306139,5847.626942
835.899739,0.000000,-842.705048,5847.626942
835.900068,1628.453072,2911.162892,5551.544565
835.900398,2368.659014,4213.525239,6439.791695
835.900727,2368.659014,4366.744339,9326.594869
835.901056,296.082377,5669.106685,12361.439231
835.901385,-2590.720797,5209.449386,14211.954086
835.901715,-5181.441594,2911.162892,14952.160028
835.902044,-6883.915261,1378.971896,13693.809927
835.902373,-6143.709319,-1532.190996,11843.295072
835.902703,-4145.153275,-5515.887586,9326.594869
835.903032,-1628.453072,-6511.811733,7105.977043
835.903361,740.205942,-3370.820191,5699.585753
835.903690,3478.967927,-1378.971896,5921.647536
835.904020,4663.297435,1149.143247,7031.956449
835.904349,4737.318029,3600.648841,8068.244768
835.904678,4589.276840,4903.011187,9474.636058
835.905007,3108.864956,5745.716235,11325.150913
835.905337,1184.329507,5439.278036,12213.398043
835.905666,-2072.576638,3370.820191,13101.645173
835.905995,-4737.318029,306.438199,13101.645173
835.906325,-5995.668130,-1378.971896,11991.336260
835.906654,-6291.750507,-3064.381992,9770.718434
835.906984,-4515.256246,-4903.011187,7846.182985
835.907313,-2516.700203,-3830.477490,5921.647536
835.907642,148.041188,-2374.896044,5255.462188
835.907972,3108.864956,-689.485948,5551.544565
835.908301,3923.091493,2374.896044,6809.894666
835.908631,3256.906145,6052.154434,8882.471304
835.908960,1480.411884,7048.078582,10658.965565
835.909290,-592.164754,6358.592633,12065.356855
835.909619,-2442.679609,3907.087040,12805.562797
835.909948,-3330.926739,1762.019645,12435.459826
835.910278,-4145.153275,-536.266849,11843.295072
835.910607,-4293.194464,-2451.505594,10807.006753
835.910937,-3701.029710,-2987.772442,8882.471304
835.911266,-1776.494261,-2987.772442,7476.080014
835.911596,592.164754,-689.485948,6735.874072
835.911925,3108.864956,1072.533697,6809.894666
835.912255,4071.132681,2528.115143,7402.059420
835.912584,4145.153275,4136.915689,9030.512492
835.912913,2368.659014,5439.278036,10214.842000
835.913243,370.102971,5975.544884,11769.274478
835.913572,-3034.844362,3983.696590,12879.583391
835.913902,-5847.626942,1915.238745,13249.686362
835.914231,-7920.203579,229.828649,12361.439231
835.914561,-7624.121203,-2298.286494,10066.800811
835.914890,-6513.812290,-4290.134789,7254.018232
835.915219,-4071.132681,-5362.668486,5921.647536
835.915549,-1480.411884,-3217.601092,6069.688724
835.915878,518.144159,229.828649,5477.523971
835.916208,1480.411884,2834.553343,5329.482782
835.916537,2146.597232,3907.087040,7105.977043
835.916867,1406.391290,4903.011187,10288.862594
835.917196,-740.205942,5439.278036,12657.521608
835.917525,-3330.926739,4290.134789,14582.057057
835.917855,-5699.585753,2681.334243,14211.954086
835.918184,-6291.750507,766.095498,12583.501014
835.918514,-4885.359217,-3447.429741,10658.965565
835.918843,-2516.700203,-6435.202183,8808.450710
835.919173,0.000000,-4673.182538,6883.915261
835.919502,2294.638420,-2528.115143,5995.668130
835.919832,4515.256246,-383.047749,6217.729913
835.920161,5181.441594,2298.286494,7105.977043
835.920490,5181.441594,3907.087040,8364.327145
835.920820,4589.276840,5056.230287,10140.821405
835.921149,2442.679609,5975.544884,11547.212695
835.921479,-370.102971,5132.839837,12879.583391
835.921808,-3478.967927,1991.848295,13175.665768
835.922138,-6143.709319,-306.438199,12731.542202
835.922467,-7031.956449,-1915.238745,11547.212695
835.922796,-6587.832884,-3907.087040,9474.636058
835.923126,-4959.379811,-4826.401637,7476.080014
835.923455,-2516.700203,-3294.210641,6069.688724
835.923785,814.226536,-1762.019645,5625.565159
835.924114,3256.906145,153.219100,6439.791695
835.924444,4145.153275,4136.915689,7105.977043
835.924773,3034.844362,6435.202183,9104.533087
835.925102,1258.350101,7354.516781,10807.006753
835.925432,-814.226536,6205.373534,12361.439231
835.925761,-2442.679609,3524.039291,13027.624579
835.926091,-2960.823768,1072.533697,12657.521608
835.926420,-3923.091493,-842.705048,11399.171507
835.926750,-4071.132681,-2298.286494,9548.656652
835.927079,-2294.638420,-3524.039291,8290.306550
835.927408,74.020594,-2451.505594,6957.935855
835.927738,2368.659014,0.000000,6069.688724
835.928067,3701.029710,1532.190996,6587.832884
835.928397,3923.091493,3830.477490,7772.162391
835.928726,3182.885551,4979.620737,9474.636058
835.929056,1628.453072,5515.887586,10807.006753
835.929385,-1332.370696,4979.620737,11843.295072
835.929715,-3997.112087,3064.381992,12435.459826
835.930044,-6291.750507,1455.581446,12731.542202
835.930373,-7550.100608,-842.705048,11621.233289
835.930703,-7105.977043,-3140.991542,9400.615463
835.931032,-5107.421000,-4673.182538,6735.874072
835.931362,-2442.679609,-4213.525239,6069.688724
835.931691,-444.123565,-1762.019645,6291.750507
835.932021,1184.329507,2221.676944,5551.544565
835.932350,2220.617826,3447.429741,5773.606348
835.932679,2812.782580,4366.744339,7994.224174
835.933009,1406.391290,5975.544884,10881.027347
835.933338,-1258.350101,5669.106685,13767.830521
835.933668,-4515.256246,3447.429741,14878.139434
835.933997,-6661.853478,2068.457845,14211.954086
835.934327,-6513.812290,-383.047749,12287.418637
835.934656,-4885.359217,-4519.963438,9992.780217
835.934985,-2220.617826,-6281.983084,7624.121203
835.935315,74.020594,-3830.477490,6439.791695
835.935644,2516.700203,-2068.457845,5921.647536
835.935974,4441.235652,383.047749,6143.709319
835.936303,4589.276840,2451.505594,7105.977043
835.936633,4367.215058,4366.744339,9252.574275
835.936962,2886.803174,5898.935335,11769.274478
835.937291,296.082377,6128.763984,13471.748144
835.937621,-2590.720797,4443.353888,13767.830521
835.937950,-5033.400406,1532.190996,13101.645173
835.938280,-5773.606348,-842.705048,11843.295072
835.938609,-6069.688724,-4060.306139,9992.780217
835.938939,-4885.359217,-5056.230287,8364.327145
835.939268,-3182.885551,-3983.696590,6587.832884
835.939598,-888.247130,-2145.067394,5551.544565
835.939927,2220.617826,-383.047749,5625.565159
835.940256,4293.194464,1532.190996,6661.853478
835.940586,4145.153275,4673.182538,8142.265362
835.940915,2516.700203,6971.469032,9918.759623
835.941245,592.164754,7354.516781,11621.233289
835.941574,-1628.453072,4979.620737,12731.542202
835.941904,-3108.864956,2221.676944,12953.603985
835.942233,-3478.967927,229.828649,12213.398043
835.942562,-4219.173869,-1915.238745,10436.903782
835.942892,-3552.988522,-3370.820191,8512.368333
835.943221,-1850.514855,-3447.429741,7105.977043
835.943551,666.185348,-1455.581446,6809.894666
835.943880,2516.700203,306.438199,6513.812290
835.944210,3404.947333,2451.505594,6957.935855
835.944539,3256.906145,4366.744339,8586.388927
835.944868,2442.679609,5286.058936,10362.883188
835.945198,370.102971,5592.497135,11325.150913
835.945527,-2294.638420,4443.353888,12583.501014
835.945857,-4811.338623,2604.724693,13101.645173
835.946186,-6365.771101,612.876398,12435.459826
835.946516,-7105.977043,-1532.190996,10881.027347
835.946845,-5699.585753,-3370.820191,8290.306550
835.947174,-3478.967927,-4519.963438,5847.626942
835.947504,-1258.350101,-2528.115143,5921.647536
835.947833,740.205942,459.657299,5921.647536
835.948163,2294.638420,2681.334243,5921.647536
835.948492,2738.761985,3294.210641,7328.038826
835.948822,1702.473667,4826.401637,10066.800811
835.949151,-444.123565,6052.154434,12879.583391
835.949481,-3552.988522,4826.401637,14508.036463
835.949810,-5773.606348,3064.381992,14656.077652
835.950139,-6661.853478,919.314598,13027.624579
835.950469,-5477.523971,-2681.334243,11103.089130
835.950798,-3552.988522,-4979.620737,8734.430116
835.951128,-1036.288319,-5056.230287,6883.915261
835.951457,962.267725,-2681.334243,6217.729913
835.951787,3256.906145,-306.438199,6365.771101
835.952116,4293.194464,1762.019645,6661.853478
835.952445,4811.338623,2757.943793,7550.100608
835.952775,4367.215058,4826.401637,9326.594869
835.953104,2368.659014,5975.544884,11399.171507
835.953434,74.020594,5132.839837,12731.542202
835.953763,-2812.782580,2298.286494,12731.542202
835.954093,-4515.256246,153.219100,12435.459826
835.954422,-6069.688724,-1762.019645,11177.109724
835.954751,-5699.585753,-3753.867940,9918.759623
835.955081,-4367.215058,-4136.915689,7846.182985
835.955410,-2146.597232,-3140.991542,6291.750507
835.955740,518.144159,-1915.238745,5625.565159
835.956069,3256.906145,-536.266849,5699.585753
835.956399,4145.153275,2221.676944,7402.059420
835.956728,3182.885551,5286.058936,9252.574275
835.957057,1110.308913,6665.030833,10807.006753
835.957387,-666.185348,5822.325785,12065.356855
835.957716,-2220.617826,2987.772442,13101.645173
835.958046,-3330.926739,1072.533697,13027.624579
835.958375,-4441.235652,-689.485948,11991.336260
835.958705,-4441.235652,-2451.505594,10214.842000
835.959034,-3034.844362,-3064.381992,8364.327145
835.959364,-666.185348,-2451.505594,7031.956449
835.959693,1480.411884,-1225.752797,6809.894666
835.960022,3034.844362,766.095498,6439.791695
835.960352,3552.988522,2834.553343,7476.080014
835.960681,3182.885551,4290.134789,9326.594869
835.961011,1776.494261,5209.449386,10881.027347
835.961340,-962.267725,5209.449386,11917.315666
835.961670,-3627.009116,3370.820191,12731.542202
835.961999,-5773.606348,1455.581446,12805.562797
835.962328,-7105.977043,-459.657299,11769.274478
835.962658,-6587.832884,-2374.896044,9770.718434
835.962987,-5477.523971,-4213.525239,7031.956449
835.963317,-3404.947333,-4213.525239,6143.709319
835.963646,-1332.370696,-1302.362347,5773.606348
835.963976,592.164754,1915.238745,5033.400406
835.964305,2220.617826,2528.115143,5699.585753
835.964634,2664.741391,2834.553343,8142.265362
835.964964,1850.514855,5209.449386,10732.986159
835.965293,-1554.432478,5515.887586,13471.748144
835.965623,-4515.256246,4060.306139,14434.015869
835.965952,-6291.750507,2528.115143,13693.809927
835.966282,-6217.729913,0.000000,12213.398043
835.966611,-4515.256246,-4519.963438,9992.780217
835.966940,-2368.659014,-5362.668486,7920.203579
835.967270,-222.061783,-4060.306139,6735.874072
835.967599,2146.597232,-2221.676944,6439.791695
835.967929,3701.029710,536.266849,6883.915261
835.968258,4367.215058,2374.896044,7179.997637
835.968588,4441.235652,3524.039291,8734.430116
835.968917,3404.947333,5362.668486,10955.047942
835.969247,1332.370696,6128.763984,12435.459826
835.969576,-1258.350101,4136.915689,13175.665768
835.969905,-3552.988522,1378.971896,12953.603985
835.970235,-4959.379811,-689.485948,12213.398043
835.970564,-5477.523971,-2681.334243,10955.047942
835.970894,-5181.441594,-4673.182538,8956.491898
835.971223,-3627.009116,-4136.915689,7031.956449
835.971553,-1332.370696,-2681.334243,5847.626942
835.971882,2072.576638,-1302.362347,5477.523971
835.972211,4145.153275,689.485948,6587.832884
835.972541,4293.194464,3524.039291,8142.265362
835.972870,2664.741391,5975.544884,9696.697840
835.973200,518.144159,6665.030833,11103.089130
835.973529,-962.267725,4903.011187,12435.459826
835.973859,-2664.741391,2911.162892,13397.727550
835.974188,-3923.091493,766.095498,12509.480420
835.974517,-4293.194464,-1532.190996,11251.130318
835.974847,-3849.070898,-3064.381992,9252.574275
835.975176,-1924.535449,-3370.820191,7328.038826
835.975506,0.000000,-1915.238745,6439.791695
835.975835,2294.638420,-536.266849,6291.750507
835.976165,3552.988522,1838.629195,6809.894666
835.976494,3701.029710,3753.867940,7920.203579
835.976823,2738.761985,4673.182538,9696.697840
835.977153,962.267725,5745.716235,11029.068536
835.977482,-2146.597232,4826.401637,12435.459826
835.977812,-5107.421000,2987.772442,13323.706956
835.978141,-7031.956449,842.705048,12583.501014
835.978471,-7179.997637,-1225.752797,11547.212695
835.978800,-6143.709319,-4060.306139,8956.491898
835.979130,-4293.194464,-5209.449386,6883.915261
835.979459,-1998.556043,-3140.991542,6513.812290
835.979788,222.061783,76.609550,5403.503377
835.980118,2072.576638,2221.676944,5107.421000
835.980447,3775.050304,2451.505594,6735.874072
835.980777,2960.823768,4443.353888,9918.759623
835.981106,296.082377,6205.373534,12731.542202
835.981436,-3256.906145,5898.935335,14582.057057
835.981765,-5995.668130,3830.477490,14952.160028
835.982094,-6587.832884,1915.238745,13841.851115
835.982424,-5255.462188,-2221.676944,11177.109724
835.982753,-3256.906145,-6052.154434,8438.347739
835.983083,-1332.370696,-5515.887586,5921.647536
835.983412,518.144159,-3447.429741,5329.482782
835.983742,2886.803174,-995.924147,5921.647536
835.984071,4219.173869,1685.410096,6439.791695
835.984400,4737.318029,3294.210641,8142.265362
835.984730,4441.235652,5132.839837,9918.759623
835.985059,2812.782580,6665.030833,11843.295072
835.985389,370.102971,6052.154434,12953.603985
835.985718,-2590.720797,3753.867940,12361.439231
835.986048,-4293.194464,306.438199,12805.562797
835.986377,-5847.626942,-1685.410096,12139.377449
835.986706,-6587.832884,-3677.258390,10510.924376
835.987036,-5625.565159,-4290.134789,7920.203579
835.987365,-3256.906145,-3753.867940,6291.750507
835.987695,0.000000,-2221.676944,4885.359217
835.988024,3478.967927,-919.314598,5255.462188
835.988354,4811.338623,1072.533697,6587.832884
835.988683,3997.112087,4673.182538,8660.409521
835.989013,1850.514855,7048.078582,10732.986159
835.989342,0.000000,6741.640382,12879.583391
835.989671,-1480.411884,4826.401637,13323.706956
835.990001,-2590.720797,1762.019645,13619.789333
835.990330,-3182.885551,-689.485948,12583.501014
835.990660,-3182.885551,-2298.286494,10362.883188
835.990989,-2220.617826,-3524.039291,7402.059420
835.991319,74.020594,-2298.286494,6735.874072
835.991648,1554.432478,-995.924147,6661.853478
835.991977,3182.885551,1149.143247,6735.874072
835.992307,3330.926739,2681.334243,7402.059420
835.992636,2886.803174,3983.696590,8956.491898
835.992966,1406.391290,4979.620737,10584.944971
835.993295,-814.226536,4826.401637,12287.418637
835.993625,-3775.050304,3447.429741,12953.603985
835.993954,-6217.729913,1532.190996,12953.603985
835.994283,-7254.018232,-383.047749,11917.315666
835.994613,-6957.935855,-1608.800546,9622.677246
835.994942,-5477.523971,-4366.744339,7179.997637
835.995272,-2812.782580,-4903.011187,5477.523971
835.995601,-518.144159,-2451.505594,5847.626942
835.995931,1480.411884,0.000000,7031.956449
835.996260,2368.659014,2604.724693,8142.265362
835.996589,2294.638420,5056.230287,8882.471304
835.996919,1184.329507,6511.811733,10436.903782
835.997248,-296.082377,5745.716235,12583.501014
835.997578,-2368.659014,4213.525239,13249.686362
835.997907,-3997.112087,2604.724693,13027.624579
835.998237,-4885.359217,-536.266849,11695.253884
835.998566,-4811.338623,-2451.505594,10732.986159
835.998896,-4145.153275,-3677.258390,8734.430116
835.999225,-2368.659014,-4443.353888,7105.977043
835.999554,0.000000,-2298.286494,6439.791695
835.999884,2368.659014,153.219100,5773.606348
836.000213,3478.967927,1378.971896,6957.935855
836.000543,3701.029710,2987.772442,8068.244768
836.000872,2368.659014,4826.401637,9474.636058
836.001202,888.247130,5362.668486,11103.089130
836.001531,-1258.350101,3600.648841,12879.583391
836.001860,-2960.823768,2298.286494,13323.706956
836.002190,-4737.318029,153.219100,13027.624579
836.002519,-5329.482782,-1915.238745,11103.089130
836.002849,-4367.215058,-3217.601092,9104.533087
836.003178,-2368.659014,-3370.820191,7031.956449
836.003508,148.041188,-2298.286494,5255.462188
836.003837,2886.803174,-995.924147,5403.503377
836.004166,4293.194464,1149.143247,6661.853478
836.004496,4071.132681,3830.477490,8438.347739
836.004825,2516.700203,5898.935335,10658.965565
836.005155,592.164754,6818.249932,12509.480420
836.005484,-1850.514855,5439.278036,13175.665768
836.005813,-2960.823768,2451.505594,13249.686362
836.006143,-3330.926739,-459.657299,12953.603985
836.006472,-4145.153275,-2145.067394,11473.192101
836.006801,-4219.173869,-2604.724693,9178.553681
836.007131,-2368.659014,-3600.648841,6439.791695
836.007460,296.082377,-2374.896044,6217.729913
836.007790,2738.761985,229.828649,5847.626942
836.008119,4589.276840,1378.971896,6513.812290
836.008448,4663.297435,3294.210641,7698.141797
836.008778,3256.906145,5132.839837,9178.553681
836.009107,1184.329507,5898.935335,11473.192101
836.009436,-1628.453072,4903.011187,13693.809927
836.009766,-5033.400406,3294.210641,14211.954086
836.010095,-7105.977043,1991.848295,13027.624579
836.010424,-7254.018232,-1149.143247,10436.903782
836.010754,-6217.729913,-3677.258390,7994.224174
836.011083,-4441.235652,-5362.668486,5773.606348
836.011413,-2368.659014,-5056.230287,5329.482782
836.011742,-666.185348,-2068.457845,5921.647536
836.012071,962.267725,1378.971896,7105.977043
836.012401,1554.432478,3830.477490,8364.327145
836.012730,1036.288319,5209.449386,9178.553681
836.013059,296.082377,5515.887586,10436.903782
836.013389,-666.185348,4290.134789,12361.439231
836.013718,-2442.679609,2987.772442,12879.583391
836.014048,-3701.029710,1149.143247,12509.480420
836.014377,-5107.421000,-1608.800546,11621.233289
836.014706,-5107.421000,-2834.553343,10288.862594
836.015036,-3627.009116,-3983.696590,8586.388927
836.015365,-1184.329507,-3447.429741,7550.100608
836.015694,1332.370696,-1685.410096,7105.977043
836.016024,2960.823768,689.485948,6957.935855
836.016353,3849.070898,1991.848295,7698.141797
836.016682,3404.947333,3217.601092,8956.491898
836.017012,1924.535449,5515.887586,10658.965565
836.017341,0.000000,5056.230287,11399.171507
836.017671,-2590.720797,3217.601092,12731.542202
836.018000,-4515.256246,1072.533697,13175.665768
836.018329,-5699.585753,-1378.971896,12435.459826
836.018659,-6143.709319,-3140.991542,10584.944971
836.018988,-5403.503377,-3370.820191,7772.162391
836.019317,-2664.741391,-3294.210641,6069.688724
836.019647,296.082377,-2604.724693,5403.503377
836.019976,3256.906145,-995.924147,5403.503377
836.020306,4663.297435,1915.238745,6957.935855
836.020635,4145.153275,4749.792088,8882.471304
836.020964,2368.659014,7814.174080,11103.089130
836.021294,370.102971,7584.345430,12657.521608
836.021623,-1554.432478,5209.449386,13101.645173
836.021952,-2664.741391,1991.848295,13027.624579
836.022282,-3404.947333,0.000000,12213.398043
836.022611,-3923.091493,-1991.848295,10584.944971
836.022940,-3552.988522,-2451.505594,8660.409521
836.023270,-1924.535449,-3217.601092,6587.832884
836.023599,370.102971,-1532.190996,5699.585753
836.023929,2738.761985,0.000000,5551.544565
836.024258,4145.153275,1378.971896,6439.791695
836.024587,3849.070898,3600.648841,8216.285956
836.024917,1850.514855,4979.620737,9918.759623
836.025246,0.000000,5439.278036,11917.315666
836.025575,-2664.741391,4060.306139,13915.871710
836.025905,-5033.400406,2681.334243,14211.954086
836.026234,-6809.894666,1225.752797,12657.521608
836.026564,-6365.771101,-1378.971896,10362.883188
836.026893,-4663.297435,-3753.867940,7920.203579
836.027222,-2072.576638,-4749.792088,5847.626942
836.027552,74.020594,-3064.381992,5699.585753
836.027881,2294.638420,-536.266849,6883.915261
836.028210,2590.720797,2451.505594,7105.977043
836.028540,1998.556043,5898.935335,7550.100608
836.028869,1258.350101,5898.935335,9326.594869
836.029198,148.041188,5056.230287,11547.212695
836.029528,-2220.617826,4136.915689,13545.768739
836.029857,-5033.400406,1915.238745,13101.645173
836.030187,-6513.812290,229.828649,12361.439231
836.030516,-7105.977043,-2068.457845,10807.006753
836.030845,-5773.606348,-4596.572988,8882.471304
836.031175,-3330.926739,-6052.154434,7550.100608
836.031504,-444.123565,-4060.306139,6587.832884
836.031833,2516.700203,-612.876398,7031.956449
836.032163,3701.029710,1225.752797,7550.100608
836.032492,3627.009116,3370.820191,8216.285956
836.032822,3108.864956,4673.182538,9770.718434
836.033151,2368.659014,5515.887586,11325.150913
836.033480,0.000000,4979.620737,12879.583391
836.033810,-2664.741391,2911.162892,13619.789333
836.034139,-4811.338623,612.876398,13101.645173
836.034468,-5551.544565,-2068.457845,11251.130318
836.034798,-4441.235652,-3753.867940,8882.471304
836.035127,-2516.700203,-4213.525239,6809.894666
836.035456,-444.123565,-3753.867940,5773.606348
836.035786,1480.411884,-1532.190996,5403.503377
836.036115,3256.906145,612.876398,6143.709319
836.036445,4071.132681,2757.943793,7846.182985
836.036774,3108.864956,5669.106685,9696.697840
836.037103,666.185348,6894.859482,11991.336260
836.037433,-1776.494261,6128.763984,13027.624579
836.037762,-3627.009116,3370.820191,12953.603985
836.038091,-4367.215058,383.047749,12435.459826
836.038421,-4737.318029,-1149.143247,11325.150913
836.038750,-4663.297435,-3140.991542,9918.759623
836.039080,-2812.782580,-3753.867940,7550.100608
836.039409,-370.102971,-2757.943793,6513.812290
836.039738,2368.659014,-536.266849,5921.647536
836.040068,4219.173869,995.924147,6217.729913
836.040397,4589.276840,2987.772442,7698.141797
836.040726,3627.009116,5056.230287,9474.636058
836.041056,2072.576638,6511.811733,11325.150913
836.041385,0.000000,5822.325785,12879.583391
836.041714,-3108.864956,3524.039291,13471.748144
836.042044,-5255.462188,1378.971896,13101.645173
836.042373,-6365.771101,0.000000,11695.253884
836.042703,-5699.585753,-2604.724693,9474.636058
836.043032,-4219.173869,-4136.915689,6735.874072
836.043361,-2146.597232,-3907.087040,5551.544565
836.043691,148.041188,-1455.581446,6217.729913
836.044020,2368.659014,536.266849,7624.121203
836.044349,1702.473667,4060.306139,7772.162391
836.044679,518.144159,6818.249932,8216.285956
836.045008,0.000000,6358.592633,9918.759623
836.045338,-888.247130,4596.572988,12287.418637
836.045667,-2960.823768,2987.772442,13249.686362
836.045996,-5329.482782,1378.971896,12583.501014
836.046326,-6661.853478,-536.266849,11177.109724
836.046655,-6365.771101,-2834.553343,9622.677246
836.046984,-4293.194464,-4443.353888,7994.224174
836.047314,-1406.391290,-4903.011187,6809.894666
836.047643,1406.391290,-1991.848295,6957.935855
836.047972,3256.906145,536.266849,6883.915261
836.048302,3923.091493,2145.067394,7624.121203
836.048631,3775.050304,3753.867940,8808.450710
836.048961,2960.823768,4673.182538,10807.006753
836.049290,1110.308913,5056.230287,12731.542202
836.049619,-1702.473667,3983.696590,13767.830521
836.049949,-3552.988522,1915.238745,14137.933492
836.050278,-5033.400406,-766.095498,12879.583391
836.050607,-5107.421000,-2757.943793,10658.965565
836.050937,-3552.988522,-3753.867940,7476.080014
836.051266,-1406.391290,-4290.134789,6217.729913
836.051596,1036.288319,-2451.505594,5699.585753
836.051925,2590.720797,-306.438199,5625.565159
836.052254,3404.947333,1608.800546,6735.874072
836.052584,3330.926739,4213.525239,8438.347739
836.052913,1702.473667,6511.811733,10732.986159
836.053242,-518.144159,6281.983084,12361.439231
836.053572,-2738.761985,4136.915689,13027.624579
836.053901,-4367.215058,1685.410096,12805.562797
836.054230,-4737.318029,-1302.362347,11991.336260
836.054560,-4959.379811,-2145.067394,10955.047942
836.054889,-4071.132681,-2987.772442,8808.450710
836.055219,-2072.576638,-3524.039291,7254.018232
836.055548,370.102971,-1762.019645,6439.791695
836.055877,3108.864956,536.266849,6069.688724
836.056207,4959.379811,2221.676944,6439.791695
836.056536,4367.215058,3907.087040,8068.244768
836.056865,3256.906145,5132.839837,10140.821405
836.057195,1184.329507,5592.497135,11547.212695
836.057524,-1258.350101,4366.744339,13101.645173
836.057854,-3775.050304,2757.943793,13101.645173
836.058183,-5699.585753,842.705048,12657.521608
836.058512,-6217.729913,-1225.752797,11177.109724
836.058842,-5255.462188,-3294.210641,8512.368333
836.059171,-3404.947333,-4290.134789,6291.750507
836.059500,-1406.391290,-2911.162892,5477.523971
836.059830,666.185348,-1302.362347,6513.812290
836.060159,1702.473667,1608.800546,7772.162391
836.060488,1036.288319,4290.134789,8808.450710
836.060818,0.000000,6358.592633,9474.636058
836.061147,-962.267725,6281.983084,10732.986159
836.061477,-2442.679609,3677.258390,11917.315666
836.061806,-4071.132681,1991.848295,12435.459826
836.062135,-5033.400406,306.438199,11843.295072
836.062465,-5773.606348,-1685.410096,10658.965565
836.062794,-5255.462188,-2834.553343,9030.512492
836.063123,-3108.864956,-3370.820191,7402.059420
836.063453,-444.123565,-2911.162892,7476.080014
836.063782,2220.617826,-919.314598,7254.018232
836.064112,3627.009116,1532.190996,7105.977043
836.064441,4145.153275,2834.553343,7772.162391
836.064770,3701.029710,3830.477490,9104.533087
836.065100,1628.453072,4979.620737,11251.130318
836.065429,-592.164754,4366.744339,12805.562797
836.065758,-2886.803174,2604.724693,13693.809927
836.066088,-4737.318029,612.876398,13397.727550
836.066417,-5699.585753,-1608.800546,11695.253884
836.066746,-5033.400406,-3140.991542,9474.636058
836.067076,-3256.906145,-4596.572988,6883.915261
836.067405,-888.247130,-3753.867940,5403.503377
836.067735,1258.350101,-1455.581446,5107.421000
836.068064,2960.823768,0.000000,6143.709319
836.068393,3404.947333,1991.848295,7846.182985
836.068723,2146.597232,4979.620737,9844.739029
836.069052,370.102971,6818.249932,11399.171507
836.069381,-1554.432478,5592.497135,12435.459826
836.069711,-3108.864956,2834.553343,12953.603985
836.070040,-3627.009116,76.609550,12435.459826
836.070370,-3923.091493,-995.924147,11769.274478
836.070699,-4293.194464,-2451.505594,10066.800811
836.071028,-2960.823768,-2987.772442,8216.285956
836.071358,-814.226536,-2604.724693,7105.977043
836.071687,1850.514855,-536.266849,5995.668130
836.072016,4293.194464,229.828649,6291.750507
836.072346,4885.359217,2298.286494,7402.059420
836.072675,3775.050304,3677.258390,9104.533087
836.073005,1776.494261,5286.058936,10955.047942
836.073334,-740.205942,5132.839837,12731.542202
836.073663,-3404.947333,3907.087040,13323.706956
836.073993,-5551.544565,2068.457845,13175.665768
836.074322,-6365.771101,0.000000,11843.295072
836.074651,-5847.626942,-2451.505594,9400.615463
836.074981,-4145.153275,-4060.306139,6735.874072
836.075310,-1480.411884,-4213.525239,5033.400406
836.075639,74.020594,-2068.457845,5921.647536
836.075969,1998.556043,536.266849,7550.100608
836.076298,1406.391290,4060.306139,7402.059420
836.076628,740.205942,6435.202183,7920.203579
836.076957,740.205942,5132.839837,9696.697840
836.077286,-740.205942,4826.401637,11843.295072
836.077616,-3775.050304,3524.039291,12879.583391
836.077945,-5699.585753,1685.410096,12509.480420
836.078274,-6661.853478,76.609550,11547.212695
836.078604,-6365.771101,-1915.238745,9622.677246
836.078933,-3923.091493,-4749.792088,8068.244768
836.079263,-1554.432478,-4749.792088,7254.018232
836.079592,888.247130,-1685.410096,6957.935855
836.079921,3034.844362,459.657299,7179.997637
836.080251,3997.112087,2221.676944,7698.141797
836.080580,4293.194464,3983.696590,8808.450710
836.080909,3404.947333,5209.449386,9696.697840
836.081239,1850.514855,5209.449386,11917.315666
836.081568,-296.082377,3064.381992,14063.912898
836.081897,-3108.864956,1685.410096,14952.160028
836.082227,-5847.626942,1225.752797,13545.768739
836.082556,-6439.791695,-1608.800546,10881.027347
836.082886,-4071.132681,-3447.429741,7476.080014
836.083215,-1332.370696,-4519.963438,4811.338623
836.083544,1554.432478,-3753.867940,3849.070898
836.083874,3256.906145,-1225.752797,4441.235652
836.084203,3849.070898,2068.457845,6735.874072
836.084532,2590.720797,5439.278036,9252.574275
836.084862,370.102971,7277.907231,11325.150913
836.085191,-1924.535449,7048.078582,12583.501014
836.085521,-3256.906145,4213.525239,13397.727550
836.085850,-3256.906145,919.314598,13249.686362
836.086179,-4071.132681,-1225.752797,12361.439231
836.086509,-4959.379811,-2451.505594,10732.986159
836.086838,-4885.359217,-3447.429741,8512.368333
836.087167,-2442.679609,-3830.477490,6513.812290
836.087497,814.226536,-2068.457845,6069.688724
836.087826,4145.153275,306.438199,5625.565159
836.088155,5551.544565,1455.581446,6291.750507
836.088485,5181.441594,3370.820191,7994.224174
836.088814,3404.947333,5439.278036,10510.924376
836.089144,962.267725,6358.592633,12805.562797
836.089473,-1924.535449,5362.668486,14211.954086
836.089802,-5255.462188,2528.115143,14434.015869
836.090132,-6735.874072,919.314598,13471.748144
836.090461,-6957.935855,-2145.067394,10881.027347
836.090790,-5699.585753,-4903.011187,7846.182985
836.091120,-3404.947333,-4673.182538,5477.523971
836.091449,-962.267725,-3447.429741,5255.462188
836.091779,888.247130,-1378.971896,6143.709319
836.092108,1554.432478,1685.410096,7179.997637
836.092437,1480.411884,4979.620737,8364.327145
836.092767,444.123565,6971.469032,9622.677246
836.093096,-222.061783,6511.811733,11029.068536
836.093425,-1850.514855,4903.011187,12435.459826
836.093755,-3478.967927,2221.676944,12435.459826
836.094084,-4885.359217,-459.657299,11991.336260
836.094413,-5921.647536,-1302.362347,11325.150913
836.094743,-5625.565159,-2757.943793,10066.800811
836.095072,-3330.926739,-3907.087040,8068.244768
836.095402,-370.102971,-3217.601092,6957.935855
836.095731,2886.803174,-995.924147,6439.791695
836.096060,4885.359217,766.095498,6365.771101
836.096390,5403.503377,3064.381992,7550.100608
836.096719,4293.194464,4979.620737,9548.656652
836.097048,2294.638420,6128.763984,11843.295072
836.097378,-222.061783,5209.449386,13619.789333
836.097707,-2738.761985,3140.991542,14211.954086
836.098037,-4367.215058,1378.971896,13027.624579
836.098366,-5181.441594,-919.314598,10732.986159
836.098695,-4515.256246,-3217.601092,8142.265362
836.099025,-3108.864956,-4673.182538,5699.585753
836.099354,-740.205942,-3677.258390,4737.318029
836.099683,1406.391290,-995.924147,5329.482782
836.100013,2886.803174,995.924147,6809.894666
836.100342,3182.885551,3370.820191,8438.347739
836.100671,1850.514855,5362.668486,9918.759623
836.101001,296.082377,6511.811733,11843.295072
836.101330,-1480.411884,5286.058936,13545.768739
836.101660,-3034.844362,2374.896044,14211.954086
836.101989,-3997.112087,76.609550,13767.830521
836.102318,-4811.338623,-1378.971896,12287.418637
836.102648,-4663.297435,-2528.115143,9918.759623
836.102977,-2664.741391,-3677.258390,7402.059420
836.103306,0.000000,-3064.381992,5551.544565
836.103636,3478.967927,-459.657299,4885.359217
836.103965,5181.441594,995.924147,5181.441594
836.104295,5625.565159,2451.505594,6735.874072
836.104624,4145.153275,5286.058936,8808.450710
836.104953,1258.350101,5975.544884,10807.006753
836.105283,-1184.329507,5286.058936,13471.748144
836.105612,-4663.297435,3524.039291,14211.954086
836.105941,-6883.915261,1302.362347,14137.933492
836.106271,-7772.162391,-1378.971896,12213.398043
836.106600,-7698.141797,-3983.696590,9474.636058
836.106929,-5625.565159,-5592.497135,6365.771101
836.107259,-2886.803174,-5209.449386,4959.379811
836.107588,-296.082377,-2757.943793,5551.544565
836.107917,1924.535449,-153.219100,6587.832884
836.108247,2664.741391,2528.115143,7994.224174
836.108576,2368.659014,5132.839837,9400.615463
836.108905,1554.432478,6818.249932,10510.924376
836.109235,74.020594,5669.106685,11991.336260
836.109564,-1702.473667,3753.867940,12731.542202
836.109893,-2960.823768,1149.143247,12879.583391
836.110223,-4441.235652,0.000000,12139.377449
836.110552,-5329.482782,-1915.238745,10436.903782
836.110881,-4293.194464,-3983.696590,8808.450710
836.111211,-2220.617826,-3983.696590,7698.141797
836.111540,222.061783,-2145.067394,7254.018232
836.111869,2294.638420,-229.828649,6957.935855
836.112199,3627.009116,1838.629195,7105.977043
836.112528,3404.947333,3600.648841,8438.347739
836.112858,2442.679609,4673.182538,9918.759623
836.113187,592.164754,4826.401637,11547.212695
836.113516,-1776.494261,2911.162892,13693.809927
836.113846,-4737.318029,2451.505594,14285.974681
836.114175,-6291.750507,689.485948,12879.583391
836.114504,-6217.729913,-1302.362347,10658.965565
836.114834,-4219.173869,-3370.820191,7328.038826
836.115163,-1480.411884,-4136.915689,4885.359217
836.115492,1776.494261,-2834.553343,4145.153275
836.115822,3627.009116,-689.485948,4959.379811
836.116151,3775.050304,2681.334243,7105.977043
836.116480,2886.803174,5592.497135,9326.594869
836.116810,1480.411884,7048.078582,11251.130318
836.117139,0.000000,7354.516781,12509.480420
836.117468,-1184.329507,5286.058936,12953.603985
836.117798,-2368.659014,1532.190996,12361.439231
836.118127,-3404.947333,-1072.533697,12583.501014
836.118456,-5329.482782,-1685.410096,11325.150913
836.118786,-5921.647536,-2451.505594,9252.574275
836.119115,-3849.070898,-3064.381992,7179.997637
836.119444,-1184.329507,-2068.457845,5403.503377
836.119774,2442.679609,-689.485948,5033.400406
836.120103,4737.318029,0.000000,5477.523971
836.120432,4737.318029,2374.896044,7105.977043
836.120762,3108.864956,4826.401637,9326.594869
836.121091,0.000000,5898.935335,11843.295072
836.121420,-2368.659014,5362.668486,14137.933492
836.121750,-4885.359217,3447.429741,14582.057057
836.122079,-6217.729913,919.314598,13767.830521
836.122408,-6291.750507,-1838.629195,11621.233289
836.122738,-5329.482782,-3524.039291,8882.471304
836.123067,-3330.926739,-5056.230287,6883.915261
836.123396,-1628.453072,-4290.134789,5995.668130
836.123726,222.061783,-1532.190996,6439.791695
836.124055,1998.556043,995.924147,7328.038826
836.124384,2664.741391,3524.039291,8216.285956
836.124714,1628.453072,4979.620737,9548.656652
836.125043,666.185348,5669.106685,10658.965565
836.125372,-740.205942,4596.572988,12139.377449
836.125702,-2960.823768,2528.115143,12361.439231
836.126031,-4811.338623,612.876398,12435.459826
836.126360,-6217.729913,-1149.143247,11695.253884
836.126690,-5921.647536,-2987.772442,10436.903782
836.127019,-4219.173869,-4060.306139,8438.347739
836.127348,-962.267725,-3677.258390,7402.059420
836.127678,1702.473667,-1225.752797,6883.915261
836.128007,3404.947333,612.876398,6439.791695
836.128336,4293.194464,1915.238745,7254.018232
836.128666,3775.050304,4290.134789,8586.388927
836.128995,2516.700203,6205.373534,10436.903782
836.129324,666.185348,4903.011187,12213.398043
836.129654,-1406.391290,2451.505594,14137.933492
836.129983,-4219.173869,1532.190996,13693.809927
836.130312,-5477.523971,0.000000,11917.315666
836.130642,-5033.400406,-2451.505594,9252.574275
836.130971,-3404.947333,-3830.477490,6365.771101
836.131300,-962.267725,-4136.915689,4515.256246
836.131630,2368.659014,-2221.676944,4441.235652
836.131959,3701.029710,306.438199,5995.668130
836.132288,3552.988522,3600.648841,7920.203579
836.132618,2220.617826,6052.154434,9992.780217
836.132947,222.061783,7201.297681,11843.295072
836.133276,-1850.514855,7277.907231,13027.624579
836.133606,-2886.803174,3983.696590,13915.871710
836.133935,-3997.112087,995.924147,13693.809927
836.134264,-4663.297435,-1149.143247,12435.459826
836.134594,-5033.400406,-2451.505594,10362.883188
836.134923,-3552.988522,-3830.477490,8216.285956
836.135253,-962.267725,-3370.820191,5699.585753
836.135582,1776.494261,-995.924147,5477.523971
836.135911,4145.153275,612.876398,5477.523971
836.136241,5181.441594,2145.067394,6439.791695
836.136570,4589.276840,4443.353888,8290.306550
836.136899,2886.803174,6052.154434,10584.944971
836.137229,0.000000,5898.935335,12805.562797
836.137558,-3330.926739,4596.572988,14285.974681
836.137887,-5995.668130,2451.505594,14285.974681
836.138217,-7105.977043,459.657299,12879.583391
836.138546,-6513.812290,-2604.724693,9770.718434
836.138875,-5329.482782,-4749.792088,6883.915261
836.139205,-2516.700203,-5362.668486,5625.565159
836.139534,-296.082377,-3064.381992,5403.503377
836.139863,1480.411884,-153.219100,6365.771101
836.140193,2590.720797,2987.772442,7476.080014
836.140522,1924.535449,4903.011187,8660.409521
836.140851,296.082377,6052.154434,10066.800811
836.141181,-666.185348,5975.544884,11547.212695
836.141510,-2368.659014,3447.429741,12139.377449
836.141839,-4145.153275,1225.752797,11991.336260
836.142169,-5403.503377,-1302.362347,11695.253884
836.142498,-5773.606348,-2681.334243,10955.047942
836.142827,-5107.421000,-3830.477490,9474.636058
836.143157,-2812.782580,-4519.963438,8142.265362
836.143486,148.041188,-2451.505594,7476.080014
836.143815,3108.864956,76.609550,7402.059420
836.144145,4441.235652,1532.190996,7254.018232
836.144474,4663.297435,3294.210641,8290.306550
836.144803,3552.988522,5056.230287,9992.780217
836.145133,1480.411884,5745.716235,12065.356855
836.145462,-740.205942,4366.744339,14211.954086
836.145791,-3256.906145,2451.505594,14285.974681
836.146121,-5181.441594,919.314598,12879.583391
836.146450,-5181.441594,-1991.848295,10510.924376
836.146779,-3552.988522,-3907.087040,7328.038826
836.147109,-1406.391290,-4596.572988,4663.297435
836.147438,444.123565,-3064.381992,3923.091493
836.147767,2664.741391,-689.485948,5107.421000
836.148097,3552.988522,2145.067394,7031.956449
836.148426,2960.823768,4749.792088,9104.533087
836.148755,1332.370696,6741.640382,11029.068536
836.149085,-888.247130,7277.907231,12287.418637
836.149414,-2368.659014,5286.058936,13545.768739
836.149743,-4071.132681,1991.848295,13841.851115
836.150073,-4737.318029,0.000000,13249.686362
836.150402,-5847.626942,-1838.629195,11843.295072
836.150731,-5329.482782,-3064.381992,9030.512492
836.151061,-2516.700203,-3294.210641,6587.832884
836.151390,814.226536,-2374.896044,5255.462188
836.151719,4071.132681,-459.657299,4885.359217
836.152049,5699.585753,1149.143247,5329.482782
836.152378,5773.606348,3370.820191,6957.935855
836.152707,4737.318029,5515.887586,9622.677246
836.153037,1850.514855,6665.030833,11843.295072
836.153366,-1332.370696,4979.620737,13989.892304
836.153695,-4293.194464,2834.553343,14878.139434
836.154025,-6217.729913,612.876398,14211.954086
836.154354,-6735.874072,-536.266849,12139.377449
836.154683,-6217.729913,-3753.867940,9400.615463
836.155013,-4441.235652,-4979.620737,6291.750507
836.155342,-2072.576638,-4290.134789,5255.462188
836.155671,518.144159,-2221.676944,5847.626942
836.156001,2368.659014,842.705048,6883.915261
836.156330,1924.535449,4290.134789,8438.347739
836.156659,592.164754,5898.935335,9326.594869
836.156989,-148.041188,5898.935335,10658.965565
836.157318,-1332.370696,4290.134789,11621.233289
836.157648,-3552.988522,1838.629195,11991.336260
836.157977,-4737.318029,229.828649,11769.274478
836.158306,-5847.626942,-1915.238745,11473.192101
836.158636,-5995.668130,-3140.991542,10066.800811
836.158965,-3997.112087,-4136.915689,8808.450710
836.159294,-1332.370696,-3600.648841,8068.244768
836.159624,1924.535449,-1302.362347,7402.059420
836.159953,3775.050304,689.485948,7105.977043
836.160282,4737.318029,2451.505594,7920.203579
836.160612,4441.235652,4136.915689,9178.553681
836.160941,2812.782580,5286.058936,10881.027347
836.161270,888.247130,4366.744339,12953.603985
836.161600,-2220.617826,2834.553343,14359.995275
836.161929,-4515.256246,1838.629195,13767.830521
836.162258,-5699.585753,-229.828649,11695.253884
836.162588,-5329.482782,-2604.724693,9030.512492
836.162917,-3330.926739,-3753.867940,5921.647536
836.163246,-814.226536,-3524.039291,4589.276840
836.163576,1406.391290,-2374.896044,4367.215058
836.163905,2590.720797,229.828649,5255.462188
836.164234,2812.782580,2911.162892,7550.100608
836.164564,1776.494261,5362.668486,9622.677246
836.164893,148.041188,7277.907231,11029.068536
836.165222,-1850.514855,6588.421283,12213.398043
836.165552,-3034.844362,3677.258390,13545.768739
836.165881,-4071.132681,1225.752797,13397.727550
836.166210,-5033.400406,-919.314598,12805.562797
836.166540,-6069.688724,-2374.896044,11177.109724
836.166869,-4737.318029,-2068.457845,8660.409521
836.167198,-1850.514855,-2987.772442,6809.894666
836.167528,1480.411884,-1532.190996,5773.606348
836.167857,4367.215058,0.000000,5477.523971
836.168186,5477.523971,1532.190996,5921.647536
836.168516,5329.482782,3370.820191,7698.141797
836.168845,3108.864956,5132.839837,10140.821405
836.169174,148.041188,5975.544884,12657.521608
836.169504,-2664.741391,4366.744339,14730.098246
836.169833,-4959.379811,2451.505594,14878.139434
836.170162,-6587.832884,1302.362347,12879.583391
836.170492,-6587.832884,-1302.362347,10140.821405
836.170821,-5107.421000,-3983.696590,7476.080014
836.171150,-2886.803174,-4903.011187,6069.688724
836.171480,-888.247130,-3447.429741,6365.771101
836.171809,444.123565,-306.438199,6883.915261
836.172138,1036.288319,2834.553343,7031.956449
836.172468,962.267725,4596.572988,8216.285956
836.172797,444.123565,5362.668486,9844.739029
836.173126,-592.164754,5669.106685,11177.109724
836.173456,-2146.597232,4213.525239,11991.336260
836.173785,-4293.194464,1838.629195,11843.295072
836.174114,-5551.544565,229.828649,11769.274478
836.174444,-6217.729913,-1762.019645,10584.944971
836.174773,-4811.338623,-4136.915689,9030.512492
836.175102,-2368.659014,-4749.792088,7624.121203
836.175432,518.144159,-1915.238745,7328.038826
836.175761,3552.988522,-306.438199,7179.997637
836.176090,4663.297435,1149.143247,7179.997637
836.176420,4885.359217,2298.286494,8216.285956
836.176749,4071.132681,3907.087040,10955.047942
836.177078,1924.535449,5286.058936,13619.789333
836.177408,-814.226536,4979.620737,14656.077652
836.177737,-2886.803174,2834.553343,14359.995275
836.178066,-4663.297435,1072.533697,12287.418637
836.178396,-4441.235652,-1225.752797,9326.594869
836.178725,-2738.761985,-3524.039291,6513.812290
836.179054,-888.247130,-4060.306139,3701.029710
836.179384,370.102971,-2681.334243,3849.070898
836.179713,1702.473667,-1072.533697,5699.585753
836.180042,2072.576638,1915.238745,7698.141797
836.180372,1036.288319,5286.058936,9030.512492
836.180701,518.144159,6818.249932,10066.800811
836.181031,-740.205942,6435.202183,11991.336260
836.181360,-2442.679609,4290.134789,13249.686362
836.181689,-3552.988522,536.266849,14211.954086
836.182019,-4959.379811,-842.705048,14211.954086
836.182348,-6587.832884,-536.266849,12213.398043
836.182677,-5995.668130,-2298.286494,9474.636058
836.183007,-2738.761985,-3677.258390,6809.894666
836.183336,1258.350101,-2987.772442,4885.359217
836.183665,5255.462188,-995.924147,4367.215058
836.183995,7105.977043,1302.362347,4811.338623
836.184324,6291.750507,4366.744339,7105.977043
836.184653,3478.967927,6435.202183,10362.883188
836.184983,888.247130,6971.469032,12657.521608
836.185312,-2146.597232,5822.325785,14359.995275
836.185641,-4515.256246,3830.477490,15248.242405
836.185971,-6291.750507,1149.143247,14211.954086
836.186300,-7402.059420,-1455.581446,11695.253884
836.186629,-7031.956449,-3600.648841,8142.265362
836.186959,-4885.359217,-5592.497135,5255.462188
836.187288,-2516.700203,-4596.572988,4293.194464
836.187617,148.041188,-2298.286494,5625.565159
836.187947,1406.391290,229.828649,7105.977043
836.188276,888.247130,4060.306139,8290.306550
836.188605,222.061783,6435.202183,9474.636058
836.188935,0.000000,6665.030833,10807.006753
836.189264,-1332.370696,4979.620737,11991.336260
836.189593,-2960.823768,2757.943793,12805.562797
836.189923,-4515.256246,0.000000,12213.398043
836.190252,-5625.565159,-1532.190996,11473.192101
836.190581,-5329.482782,-2834.553343,10140.821405
836.190911,-3330.926739,-4673.182538,8734.430116
836.191240,-888.247130,-3064.381992,7920.203579
836.191569,2294.638420,-1455.581446,6809.894666
836.191899,4663.297435,76.609550,6439.791695
836.192228,5921.647536,1915.238745,7105.977043
836.192557,5329.482782,4136.915689,9400.615463
836.192887,3701.029710,5592.497135,11991.336260
836.193216,962.267725,5439.278036,13915.871710
836.193545,-2146.597232,4519.963438,14878.139434
836.193875,-4663.297435,2374.896044,13989.892304
836.194204,-5699.585753,-153.219100,11695.253884
836.194533,-5255.462188,-2757.943793,8660.409521
836.194863,-3034.844362,-4596.572988,5107.421000
836.195192,-814.226536,-4826.401637,3701.029710
836.195521,1258.350101,-2604.724693,3997.112087
836.195851,2590.720797,76.609550,5847.626942
836.196180,2442.679609,3294.210641,7698.141797
836.196509,1628.453072,5439.278036,9918.759623
836.196839,222.061783,7048.078582,11917.315666
836.197168,-1480.411884,6205.373534,13989.892304
836.197497,-3182.885551,3753.867940,14804.118840
836.197827,-4145.153275,919.314598,14285.974681
836.198156,-5403.503377,-766.095498,11843.295072
836.198485,-4885.359217,-1608.800546,9030.512492
836.198815,-3404.947333,-3907.087040,6365.771101
836.199144,-148.041188,-4519.963438,4737.318029
836.199473,2886.803174,-1838.629195,4441.235652
836.199803,5033.400406,1149.143247,5033.400406
836.200132,5551.544565,2757.943793,6587.832884
836.200461,3627.009116,5439.278036,9030.512492
836.200791,1850.514855,6435.202183,11473.192101
836.201120,-296.082377,6128.763984,14359.995275
836.201449,-2886.803174,4060.306139,16136.489536
836.201779,-5329.482782,2145.067394,15248.242405
836.202108,-7105.977043,0.000000,13323.706956
836.202437,-7402.059420,-2911.162892,10362.883188
836.202767,-5773.606348,-4903.011187,6809.894666
836.203096,-3034.844362,-5286.058936,4441.235652
836.203426,-444.123565,-3753.867940,3404.947333
836.203755,1776.494261,-1378.971896,4959.379811
836.204084,2442.679609,2068.457845,7328.038826
836.204414,1850.514855,5439.278036,8882.471304
836.204743,296.082377,7048.078582,10214.842000
836.205072,-1036.288319,6511.811733,11325.150913
836.205402,-2960.823768,4749.792088,12583.501014
836.205731,-3923.091493,2145.067394,12879.583391
836.206060,-5107.421000,-612.876398,12139.377449
836.206390,-6365.771101,-2451.505594,10955.047942
836.206719,-5921.647536,-3983.696590,9400.615463
836.207048,-3701.029710,-4826.401637,8216.285956
836.207378,-740.205942,-2834.553343,7624.121203
836.207707,2220.617826,-459.657299,7105.977043
836.208036,4293.194464,612.876398,6439.791695
836.208366,5329.482782,2221.676944,7846.182985
836.208695,4663.297435,3600.648841,10066.800811
836.209025,2516.700203,5209.449386,12213.398043
836.209354,-222.061783,4979.620737,13915.871710
836.209683,-2664.741391,3524.039291,14063.912898
836.210013,-4071.132681,1762.019645,12953.603985
836.210342,-4441.235652,-995.924147,10288.862594
836.210671,-3627.009116,-3294.210641,7105.977043
836.211001,-1480.411884,-4290.134789,4737.318029
836.211330,444.123565,-2987.772442,4515.256246
836.211659,1702.473667,-919.314598,5551.544565
836.211989,1924.535449,1302.362347,7179.997637
836.212318,1628.453072,4136.915689,8660.409521
836.212648,222.061783,6052.154434,10288.862594
836.212977,-814.226536,6511.811733,11547.212695
836.213306,-1850.514855,4366.744339,13323.706956
836.213636,-3330.926739,612.876398,14359.995275
836.213965,-4885.359217,-459.657299,13989.892304
836.214294,-6809.894666,-1225.752797,11991.336260
836.214624,-6291.750507,-1991.848295,9474.636058
836.214953,-3182.885551,-3447.429741,6661.853478
836.215282,962.267725,-3370.820191,4737.318029
836.215612,4663.297435,-842.705048,3256.906145
836.215941,7254.018232,229.828649,4293.194464
836.216271,7031.956449,3370.820191,6587.832884
836.216600,4219.173869,6281.983084,9696.697840
836.216929,1036.288319,7660.954980,12361.439231
836.217259,-1628.453072,6588.421283,14656.077652
836.217588,-4145.153275,3983.696590,16358.551318
836.217917,-5551.544565,1455.581446,15840.407159
836.218247,-7624.121203,-995.924147,13249.686362
836.218576,-7994.224174,-3753.867940,9548.656652
836.218906,-6217.729913,-5132.839837,5995.668130
836.219235,-3552.988522,-5362.668486,4515.256246
836.219564,-666.185348,-2987.772442,4737.318029
836.219894,1480.411884,-1072.533697,6291.750507
836.220223,2072.576638,2834.553343,7254.018232
836.220552,1702.473667,5515.887586,8512.368333
836.220882,962.267725,6818.249932,10066.800811
836.221211,-888.247130,6281.983084,11547.212695
836.221540,-2738.761985,4060.306139,12879.583391
836.221870,-4145.153275,1225.752797,13101.645173
836.222199,-5477.523971,-459.657299,12583.501014
836.222529,-5995.668130,-2068.457845,10807.006753
836.222858,-4441.235652,-4443.353888,9104.533087
836.223187,-1554.432478,-4596.572988,7624.121203
836.223517,814.226536,-2451.505594,7105.977043
836.223846,3404.947333,-76.609550,6661.853478
836.224175,4737.318029,1608.800546,6883.915261
836.224505,4811.338623,2681.334243,8808.450710
836.224834,3849.070898,4903.011187,11177.109724
836.225163,1480.411884,5592.497135,13027.624579
836.225493,-1036.288319,4213.525239,13693.809927
836.225822,-3256.906145,2834.553343,13101.645173
836.226152,-4589.276840,766.095498,11103.089130
836.226481,-4885.359217,-1302.362347,8586.388927
836.226810,-2960.823768,-4060.306139,5699.585753
836.227140,-592.164754,-4290.134789,3997.112087
836.227469,740.205942,-2757.943793,4663.297435
836.227798,1702.473667,-153.219100,6587.832884
836.228128,1776.494261,2451.505594,8068.244768
836.228457,1258.350101,5439.278036,9400.615463
836.228786,296.082377,6665.030833,11251.130318
836.229116,-666.185348,6128.763984,12657.521608
836.229445,-1924.535449,3294.210641,14656.077652
836.229775,-3552.988522,229.828649,15100.201217
836.230104,-5477.523971,689.485948,14211.954086
836.230433,-6365.771101,-306.438199,11251.130318
836.230763,-4589.276840,-2604.724693,7994.224174
836.231092,-962.267725,-4060.306139,5329.482782
836.231421,2442.679609,-2374.896044,3108.864956
836.231751,6439.791695,-612.876398,3108.864956
836.232080,7254.018232,919.314598,4737.318029
836.232409,5403.503377,4826.401637,7772.162391
836.232739,2294.638420,6588.421283,10584.944971
836.233068,-296.082377,6971.469032,13323.706956
836.233398,-2442.679609,5669.106685,15100.201217
836.233727,-5699.585753,2987.772442,15766.386565
836.234056,-7254.018232,689.485948,14508.036463
836.234386,-8068.244768,-2451.505594,11769.274478
836.234715,-6957.935855,-4366.744339,8216.285956
836.235044,-4737.318029,-5592.497135,4663.297435
836.235374,-1850.514855,-4290.134789,4663.297435
836.235703,740.205942,-1991.848295,5477.523971
836.236032,2072.576638,536.266849,6661.853478
836.236362,1850.514855,4519.963438,7772.162391
836.236691,1554.432478,6205.373534,8882.471304
836.237021,148.041188,6435.202183,10510.924376
836.237350,-1702.473667,4903.011187,11917.315666
836.237679,-3552.988522,2451.505594,12435.459826
836.238009,-4737.318029,0.000000,12657.521608
836.238338,-5625.565159,-1608.800546,11621.233289
836.238667,-5699.585753,-3217.601092,9844.739029
836.238997,-3478.967927,-4673.182538,8512.368333
836.239326,-592.164754,-3677.258390,7920.203579
836.239655,2368.659014,-995.924147,7179.997637
836.239985,4737.318029,536.266849,6587.832884
836.240314,5107.421000,2451.505594,7328.038826
836.240644,4737.318029,3753.867940,10288.862594
836.240973,2590.720797,5286.058936,12435.459826
836.241302,0.000000,5132.839837,13915.871710
836.241632,-2368.659014,3983.696590,14137.933492
836.241961,-4441.235652,1915.238745,12139.377449
836.242290,-4811.338623,-1378.971896,9844.739029
836.242620,-4219.173869,-3524.039291,7105.977043
836.242949,-2294.638420,-4826.401637,4737.318029
836.243278,0.000000,-3753.867940,3997.112087
836.243608,1184.329507,-1378.971896,5255.462188
836.243937,1924.535449,1455.581446,7105.977043
836.244267,1924.535449,4060.306139,8512.368333
836.244596,962.267725,6128.763984,9844.739029
836.244925,74.020594,7354.516781,11843.295072
836.245255,-1110.308913,5592.497135,13693.809927
836.245584,-2294.638420,2068.457845,14730.098246
836.245913,-4145.153275,0.000000,14137.933492
836.246243,-6143.709319,-229.828649,12435.459826
836.246572,-5329.482782,-1915.238745,9696.697840
836.246901,-2960.823768,-3524.039291,6809.894666
836.247231,370.102971,-3524.039291,4737.318029
836.247560,4515.256246,-1608.800546,3923.091493
836.247890,6661.853478,0.000000,4515.256246
836.248219,6217.729913,3140.991542,6365.771101
836.248548,3849.070898,5669.106685,9326.594869
836.248878,1036.288319,6435.202183,12287.418637
836.249207,-2368.659014,6435.202183,14434.015869
836.249536,-4885.359217,4673.182538,15840.407159
836.249866,-6957.935855,2068.457845,15100.201217
836.250195,-7698.141797,-536.266849,13027.624579
836.250524,-7624.121203,-3447.429741,9548.656652
836.250854,-5625.565159,-5592.497135,5477.523971
836.251183,-2664.741391,-5286.058936,4441.235652
836.251513,-370.102971,-3217.601092,4885.359217
836.251842,1628.453072,0.000000,6439.791695
836.252171,1924.535449,3217.601092,7328.038826
836.252501,1850.514855,5898.935335,8216.285956
836.252830,1184.329507,6588.421283,9770.718434
836.253159,-296.082377,5745.716235,11325.150913
836.253489,-2516.700203,3677.258390,12361.439231
836.253818,-4071.132681,1072.533697,12657.521608
836.254147,-4811.338623,-1378.971896,12139.377449
836.254477,-5625.565159,-1991.848295,11177.109724
836.254806,-4441.235652,-4366.744339,9474.636058
836.255136,-1998.556043,-4443.353888,8216.285956
836.255465,962.267725,-2068.457845,7550.100608
836.255794,3997.112087,-306.438199,6957.935855
836.256124,5107.421000,612.876398,6809.894666
836.256453,5329.482782,2757.943793,8882.471304
836.256782,3256.906145,5132.839837,11251.130318
836.257112,1036.288319,5822.325785,12805.562797
836.257441,-1036.288319,4060.306139,13693.809927
836.257770,-2960.823768,2528.115143,13101.645173
836.258100,-4145.153275,383.047749,11399.171507
836.258429,-4737.318029,-2298.286494,8882.471304
836.258759,-3552.988522,-3830.477490,6217.729913
836.259088,-1702.473667,-4136.915689,4441.235652
836.259417,222.061783,-2604.724693,4737.318029
836.259747,1480.411884,-689.485948,6291.750507
836.260076,2072.576638,2528.115143,8142.265362
836.260405,1036.288319,5362.668486,9252.574275
836.260735,296.082377,6435.202183,10807.006753
836.261064,-148.041188,6435.202183,12657.521608
836.261393,-1702.473667,3907.087040,14359.995275
836.261723,-2960.823768,689.485948,14878.139434
836.262052,-4737.318029,0.000000,13767.830521
836.262382,-5921.647536,-306.438199,11103.089130
836.262711,-4293.194464,-2374.896044,8364.327145
836.263040,-888.247130,-3830.477490,5699.585753
836.263370,2516.700203,-2298.286494,3478.967927
836.263699,5329.482782,-612.876398,3404.947333
836.264028,6365.771101,995.924147,4737.318029
836.264358,4959.379811,4290.134789,7550.100608
836.264687,2072.576638,6205.373534,10510.924376
836.265017,-518.144159,6741.640382,12953.603985
836.265346,-3627.009116,5056.230287,14878.139434
836.265675,-5699.585753,3064.381992,15692.365970
836.266005,-7550.100608,306.438199,14285.974681
836.266334,-8142.265362,-1915.238745,11547.212695
836.266663,-7105.977043,-4213.525239,7920.203579
836.266993,-4663.297435,-5669.106685,4959.379811
836.267322,-1998.556043,-4290.134789,4737.318029
836.267651,296.082377,-2068.457845,5699.585753
836.267981,1702.473667,1225.752797,6809.894666
836.268310,1924.535449,4673.182538,7550.100608
836.268640,2146.597232,5592.497135,9030.512492
836.268969,592.164754,5822.325785,10732.986159
836.269298,-1406.391290,4596.572988,12509.480420
836.269628,-3256.906145,2298.286494,13027.624579
836.269957,-4589.276840,0.000000,13175.665768
836.270286,-6069.688724,-1378.971896,12583.501014
836.270616,-5625.565159,-3294.210641,11251.130318
836.270945,-3923.091493,-5209.449386,9326.594869
836.271274,-888.247130,-3907.087040,7846.182985
836.271604,2368.659014,-1225.752797,6809.894666
836.271933,4885.359217,536.266849,6217.729913
836.272263,5847.626942,1685.410096,7105.977043
836.272592,5181.441594,3753.867940,9770.718434
836.272921,3034.844362,5822.325785,11917.315666
836.273251,444.123565,5975.544884,13545.768739
836.273580,-2220.617826,4903.011187,13767.830521
836.273909,-3923.091493,1991.848295,13027.624579
836.274239,-4737.318029,-689.485948,10510.924376
836.274568,-3997.112087,-2604.724693,7179.997637
836.274897,-2368.659014,-4290.134789,4589.276840
836.275227,-370.102971,-4060.306139,3330.926739
836.275556,1332.370696,-2221.676944,4367.215058
836.275886,1998.556043,536.266849,6439.791695
836.276215,2220.617826,3830.477490,8586.388927
836.276544,1036.288319,6205.373534,10436.903782
836.276874,0.000000,6665.030833,11917.315666
836.277203,-1184.329507,5056.230287,13989.892304
836.277532,-2738.761985,2374.896044,15692.365970
836.277862,-4071.132681,842.705048,15100.201217
836.278191,-5403.503377,0.000000,12435.459826
836.278520,-5403.503377,-1225.752797,9178.553681
836.278850,-2738.761985,-3524.039291,5921.647536
836.279179,1776.494261,-3753.867940,4367.215058
836.279509,4515.256246,-1455.581446,3404.947333
836.279838,6365.771101,766.095498,4293.194464
836.280167,5625.565159,3217.601092,6439.791695
836.280497,3552.988522,5669.106685,9474.636058
836.280826,888.247130,6588.421283,12361.439231
836.281155,-1924.535449,6358.592633,15026.180623
836.281485,-5107.421000,3753.867940,16062.468941
836.281814,-7105.977043,1915.238745,15618.345376
836.282143,-8216.285956,-459.657299,13249.686362
836.282473,-7994.224174,-3217.601092,9696.697840
836.282802,-6143.709319,-5515.887586,5995.668130
836.283132,-3182.885551,-5056.230287,3627.009116
836.283461,0.000000,-3447.429741,4737.318029
836.283790,1406.391290,-612.876398,6143.709319
836.284120,1998.556043,3217.601092,7105.977043
836.284449,1480.411884,5439.278036,8438.347739
836.284778,1036.288319,6511.811733,10140.821405
836.285108,-444.123565,6128.763984,11769.274478
836.285437,-2368.659014,3907.087040,12435.459826
836.285766,-3775.050304,842.705048,12731.542202
836.286096,-5107.421000,-383.047749,11843.295072
836.286425,-5773.606348,-2068.457845,11177.109724
836.286755,-4515.256246,-4366.744339,9474.636058
836.287084,-1924.535449,-4596.572988,7846.182985
836.287413,666.185348,-2298.286494,6883.915261
836.287743,3997.112087,-842.705048,5773.606348
836.288072,5773.606348,689.485948,6587.832884
836.288401,5181.441594,2911.162892,8660.409521
836.288731,3478.967927,4979.620737,11547.212695
836.289060,740.205942,5592.497135,13175.665768
836.289389,-1480.411884,4673.182538,14063.912898
836.289719,-3256.906145,3677.258390,13397.727550
836.290048,-4367.215058,153.219100,11843.295072
836.290378,-4145.153275,-2374.896044,8956.491898
836.290707,-2516.700203,-4060.306139,5995.668130
836.291036,-666.185348,-4673.182538,4515.256246
836.291366,962.267725,-2068.457845,4515.256246
836.291695,1110.308913,612.876398,5625.565159
836.292024,1924.535449,2451.505594,7476.080014
836.292354,1776.494261,4519.963438,9474.636058
836.292683,592.164754,6052.154434,11547.212695
836.293012,-1184.329507,6358.592633,13397.727550
836.293342,-3034.844362,3217.601092,14952.160028
836.293671,-4959.379811,1685.410096,14804.118840
836.294001,-5921.647536,536.266849,13175.665768
836.294330,-5551.544565,-1455.581446,10658.965565
836.294659,-3627.009116,-2834.553343,7402.059420
836.294989,-444.123565,-4136.915689,3997.112087
836.295318,2886.803174,-2757.943793,3627.009116
836.295647,5625.565159,153.219100,4145.153275
836.295977,6291.750507,2298.286494,5847.626942
836.296306,5107.421000,4290.134789,8068.244768
836.296635,2664.741391,6128.763984,10955.047942
836.296965,148.041188,6818.249932,13397.727550
836.297294,-2516.700203,4749.792088,15396.283594
836.297624,-5107.421000,2681.334243,15914.427753
836.297953,-7254.018232,919.314598,14211.954086
836.298282,-7994.224174,-1838.629195,11029.068536
836.298612,-6883.915261,-3907.087040,6957.935855
836.298941,-4737.318029,-5362.668486,4293.194464
836.299270,-1776.494261,-4979.620737,4145.153275
836.299600,296.082377,-2298.286494,5477.523971
836.299929,1406.391290,1532.190996,7105.977043
836.300258,962.267725,4903.011187,8364.327145
836.300588,518.144159,5898.935335,9474.636058
836.300917,-444.123565,6511.811733,10732.986159
836.301247,-2294.638420,4596.572988,12065.356855
836.301576,-3849.070898,2911.162892,12879.583391
836.301905,-4737.318029,536.266849,12731.542202
836.302235,-5699.585753,-1072.533697,12287.418637
836.302564,-5625.565159,-3064.381992,10510.924376
836.302893,-3330.926739,-5056.230287,8660.409521
836.303223,-444.123565,-3830.477490,7476.080014
836.303552,1998.556043,-1608.800546,6735.874072
836.303881,4663.297435,153.219100,6661.853478
836.304211,5625.565159,1915.238745,7994.224174
836.304540,5329.482782,3677.258390,10436.903782
836.304870,3701.029710,5515.887586,12213.398043
836.305199,1184.329507,5515.887586,13175.665768
836.305529,-888.247130,4290.134789,13471.748144
836.305858,-3330.926739,1991.848295,12583.501014
836.306187,-4219.173869,-383.047749,10732.986159
836.306517,-3923.091493,-2451.505594,7772.162391
836.306846,-2664.741391,-4136.915689,5033.400406
836.307176,-1628.453072,-3907.087040,3849.070898
836.307505,0.000000,-1608.800546,5107.421000
836.307834,888.247130,76.609550,6957.935855
836.308164,740.205942,3140.991542,8586.388927
836.308493,148.041188,5209.449386,9696.697840
836.308823,-888.247130,6435.202183,11473.192101
836.309152,-1850.514855,4903.011187,13397.727550
836.309482,-3034.844362,1762.019645,14582.057057
836.309811,-4367.215058,689.485948,14285.974681
836.310140,-5403.503377,383.047749,12361.439231
836.310470,-5033.400406,-1072.533697,9474.636058
836.310799,-2516.700203,-2681.334243,6513.812290
836.311129,592.164754,-3447.429741,4441.235652
836.311458,4145.153275,-1608.800546,3923.091493
836.311787,6513.812290,76.609550,4589.276840
836.312117,5847.626942,2681.334243,6661.853478
836.312446,3701.029710,6052.154434,9104.533087
836.312776,1628.453072,6588.421283,12139.377449
836.313105,-1036.288319,6281.983084,14359.995275
836.313435,-3627.009116,3677.258390,16062.468941
836.313764,-6069.688724,1685.410096,15914.427753
836.314093,-8068.244768,0.000000,14211.954086
836.314423,-8956.491898,-2451.505594,10732.986159
836.314752,-7402.059420,-4366.744339,6809.894666
836.315082,-4441.235652,-5439.278036,4441.235652
836.315411,-1258.350101,-4596.572988,4737.318029
836.315740,666.185348,-1838.629195,5699.585753
836.316070,1184.329507,2145.067394,6661.853478
836.316399,1628.453072,4979.620737,7920.203579
836.316729,1036.288319,5898.935335,9548.656652
836.317058,-444.123565,6358.592633,11103.089130
836.317388,-2368.659014,4443.353888,12361.439231
836.317717,-3775.050304,919.314598,12805.562797
836.318046,-4589.276840,76.609550,12361.439231
836.318376,-5403.503377,-1455.581446,11399.171507
836.318705,-4737.318029,-4136.915689,9844.739029
836.319035,-2368.659014,-4903.011187,8512.368333
836.319364,296.082377,-2221.676944,7328.038826
836.319693,2664.741391,-766.095498,6735.874072
836.320023,4885.359217,689.485948,6957.935855
836.320352,5403.503377,2757.943793,8364.327145
836.320682,4441.235652,4136.915689,10584.944971
836.321011,2516.700203,4979.620737,11695.253884
836.321341,0.000000,4979.620737,12435.459826
836.321670,-2368.659014,3217.601092,13027.624579
836.321999,-3923.091493,1149.143247,11917.315666
836.322329,-4515.256246,-1072.533697,9474.636058
836.322658,-3775.050304,-2681.334243,7179.997637
836.322988,-1628.453072,-4443.353888,4071.132681
836.323317,-444.123565,-3294.210641,4811.338623
836.323646,666.185348,-1302.362347,6365.771101
836.323976,1406.391290,1532.190996,7772.162391
836.324305,1110.308913,4136.915689,9252.574275
836.324635,814.226536,5515.887586,10807.006753
836.324964,0.000000,5669.106685,13101.645173
836.325294,-1258.350101,3677.258390,15174.221811
836.325623,-2886.803174,2068.457845,15544.324782
836.325952,-4367.215058,1149.143247,14137.933492
836.326282,-5255.462188,459.657299,11251.130318
836.326611,-3627.009116,-1608.800546,8660.409521
836.326941,-1184.329507,-3600.648841,5699.585753
836.327270,2072.576638,-2451.505594,3923.091493
836.327599,4959.379811,-306.438199,3627.009116
836.327929,5995.668130,1838.629195,4589.276840
836.328258,4811.338623,3524.039291,6957.935855
836.328588,2886.803174,5439.278036,9622.677246
836.328917,296.082377,6435.202183,12213.398043
836.329246,-2368.659014,5439.278036,14211.954086
836.329576,-5107.421000,2757.943793,15840.407159
836.329905,-7105.977043,689.485948,15322.262999
836.330235,-8734.430116,-766.095498,12953.603985
836.330564,-8364.327145,-3217.601092,9104.533087
836.330894,-5847.626942,-4366.744339,5255.462188
836.331223,-2812.782580,-4519.963438,4071.132681
836.331552,74.020594,-2987.772442,4663.297435
836.331882,1850.514855,0.000000,5773.606348
836.332211,2442.679609,3524.039291,7254.018232
836.332541,2220.617826,5822.325785,8438.347739
836.332870,962.267725,6588.421283,9844.739029
836.333199,-888.247130,5439.278036,11177.109724
836.333529,-3034.844362,3753.867940,12879.583391
836.333858,-4737.318029,1225.752797,12879.583391
836.334188,-5625.565159,-306.438199,12509.480420
836.334517,-5699.585753,-2451.505594,11251.130318
836.334847,-4515.256246,-4903.011187,9400.615463
836.335176,-2146.597232,-4826.401637,8216.285956
836.335505,592.164754,-2298.286494,7328.038826
836.335835,3330.926739,-229.828649,6883.915261
836.336164,5033.400406,1225.752797,7476.080014
836.336494,5255.462188,2757.943793,9548.656652
836.336823,3923.091493,4290.134789,11769.274478
836.337152,1998.556043,5132.839837,12805.562797
836.337482,-666.185348,4060.306139,13693.809927
836.337811,-2960.823768,2528.115143,13175.665768
836.338141,-4589.276840,842.705048,11695.253884
836.338470,-4219.173869,-2451.505594,8808.450710
836.338800,-2590.720797,-4060.306139,5699.585753
836.339129,-1184.329507,-4443.353888,4441.235652
836.339458,148.041188,-2681.334243,4737.318029
836.339788,1554.432478,-306.438199,6217.729913
836.340117,1850.514855,2528.115143,7920.203579
836.340447,1406.391290,5362.668486,8956.491898
836.340776,740.205942,5975.544884,10881.027347
836.341105,-592.164754,5745.716235,13323.706956
836.341435,-2294.638420,3294.210641,15100.201217
836.341764,-3701.029710,1072.533697,14804.118840
836.342094,-5033.400406,459.657299,12731.542202
836.342423,-5181.441594,-229.828649,9844.739029
836.342753,-3404.947333,-2987.772442,7105.977043
836.343082,0.000000,-3907.087040,4663.297435
836.343411,3182.885551,-2451.505594,3552.988522
836.343741,5847.626942,0.000000,4441.235652
836.344070,5699.585753,2451.505594,5699.585753
836.344400,4219.173869,5132.839837,8660.409521
836.344729,1998.556043,6358.592633,11103.089130
836.345058,-592.164754,7048.078582,13249.686362
836.345388,-3256.906145,4596.572988,15248.242405
836.345717,-5921.647536,1838.629195,15840.407159
836.346047,-7920.203579,229.828649,14656.077652
836.346376,-8734.430116,-2068.457845,11769.274478
836.346706,-7402.059420,-4060.306139,7994.224174
836.347035,-4663.297435,-4979.620737,4663.297435
836.347364,-1406.391290,-4213.525239,3701.029710
836.347694,1332.370696,-2145.067394,4737.318029
836.348023,2368.659014,995.924147,6365.771101
836.348353,2146.597232,5132.839837,8290.306550
836.348682,1036.288319,6818.249932,9474.636058
836.349011,0.000000,6741.640382,10881.027347
836.349341,-2368.659014,5362.668486,12509.480420
836.349670,-3849.070898,2451.505594,12805.562797
836.350000,-4737.318029,0.000000,12287.418637
836.350329,-5773.606348,-1455.581446,11399.171507
836.350659,-5551.544565,-3370.820191,10140.821405
836.350988,-3256.906145,-4673.182538,8660.409521
836.351317,-1036.288319,-3140.991542,7772.162391
836.351647,1628.453072,-612.876398,6883.915261
836.351976,4145.153275,919.314598,6809.894666
836.352306,4885.359217,2451.505594,7994.224174
836.352635,4737.318029,3983.696590,9770.718434
836.352964,3108.864956,4749.792088,11695.253884
836.353294,592.164754,4749.792088,12657.521608
836.353623,-1554.432478,3370.820191,13101.645173
836.353953,-3330.926739,1608.800546,12657.521608
836.354282,-4145.153275,-536.266849,10362.883188
836.354611,-3701.029710,-2834.553343,7550.100608
836.354941,-1924.535449,-4519.963438,5477.523971
836.355270,0.000000,-3217.601092,4885.359217
836.355600,1184.329507,-1149.143247,5995.668130
836.355929,1702.473667,842.705048,7328.038826
836.356259,1628.453072,3064.381992,8808.450710
