#time,accel_x,accel_y,accel_z
752.371607,-888.247130,1072.533697,9696.697840
752.371936,-1036.288319,842.705048,9548.656652
752.372265,-962.267725,995.924147,9770.718434
752.372594,-1184.329507,766.095498,9548.656652
752.372923,-1184.329507,919.314598,9178.553681
752.373252,-888.247130,1225.752797,9474.636058
752.373582,-1036.288319,842.705048,9696.697840
752.373911,-1110.308913,995.924147,9474.636058
752.374240,-962.267725,995.924147,9622.677246
752.374569,-740.205942,1378.971896,9400.615463
752.374898,-592.164754,1072.533697,9474.636058
752.375227,-1332.370696,766.095498,9400.615463
752.375556,-962.267725,842.705048,9622.677246
752.375885,-962.267725,919.314598,9548.656652
752.376214,-962.267725,1302.362347,9252.574275
752.376543,-1184.329507,612.876398,9252.574275
752.376872,-1110.308913,995.924147,9548.656652
752.377202,-1110.308913,995.924147,9474.636058
752.377531,-1110.308913,995.924147,9548.656652
752.377860,-888.247130,612.876398,9622.677246
752.378189,-1036.288319,1072.533697,9326.594869
752.378518,-1036.288319,1149.143247,9474.636058
752.378847,-888.247130,919.314598,9548.656652
752.379176,-888.247130,919.314598,9474.636058
752.379505,-888.247130,995.924147,9548.656652
752.379834,-1184.329507,1378.971896,9770.718434
752.380163,-814.226536,919.314598,9474.636058
752.380492,-962.267725,919.314598,9474.636058
752.380822,-1258.350101,842.705048,9622.677246
752.381151,-1110.308913,1149.143247,9696.697840
752.381480,-962.267725,995.924147,9474.636058
752.381809,-1184.329507,459.657299,9548.656652
752.382138,-962.267725,689.485948,9474.636058
752.382467,-962.267725,766.095498,9622.677246
752.382796,-962.267725,995.924147,9474.636058
752.383125,-1036.288319,995.924147,9622.677246
752.383454,-962.267725,1302.362347,9548.656652
752.383783,-962.267725,919.314598,9474.636058
752.384113,-1036.288319,919.314598,9622.677246
752.384442,-1110.308913,842.705048,9474.636058
752.384771,-1110.308913,919.314598,9474.636058
752.385100,-1036.288319,1225.752797,9252.574275
752.385429,-666.185348,383.047749,9474.636058
752.385758,-962.267725,919.314598,9548.656652
752.386087,-1110.308913,1072.533697,9622.677246
752.386416,-1258.350101,919.314598,9474.636058
752.386745,-888.247130,612.876398,9474.636058
752.387074,-1110.308913,1072.533697,9474.636058
752.387403,-1110.308913,1149.143247,9400.615463
752.387733,-1110.308913,919.314598,9474.636058
752.388062,-1036.288319,766.095498,9474.636058
752.388391,-1110.308913,995.924147,9548.656652
752.388720,-1184.329507,612.876398,9400.615463
752.389049,-1110.308913,1225.752797,9474.636058
752.389378,-962.267725,842.705048,9474.636058
752.389707,-888.247130,842.705048,9696.697840
752.390036,-1036.288319,689.485948,9474.636058
752.390365,-1406.391290,1149.143247,9252.574275
752.390694,-814.226536,919.314598,9474.636058
752.391023,-1184.329507,995.924147,9622.677246
752.391353,-962.267725,995.924147,9622.677246
752.391682,-814.226536,612.876398,9844.739029
752.392011,-1036.288319,1225.752797,9548.656652
752.392340,-814.226536,1072.533697,9548.656652
752.392669,-962.267725,766.095498,9770.718434
752.392998,-888.247130,919.314598,9548.656652
752.393327,-1036.288319,536.266849,9622.677246
752.393656,-888.247130,842.705048,9548.656652
752.393985,-962.267725,536.266849,9252.574275
752.394314,-444.123565,1072.533697,9178.553681
752.394643,148.041188,383.047749,9030.512492
752.394973,814.226536,459.657299,9326.594869
752.395302,740.205942,459.657299,9030.512492
752.395631,444.123565,612.876398,9548.656652
752.395960,-444.123565,1072.533697,9622.677246
752.396289,-444.123565,1455.581446,10288.862594
752.396618,-666.185348,842.705048,10510.924376
752.396947,-518.144159,229.828649,10066.800811
752.397276,-148.041188,229.828649,9622.677246
752.397605,518.144159,383.047749,9104.533087
752.397934,1110.308913,76.609550,9178.553681
752.398263,2220.617826,766.095498,8882.471304
752.398593,3108.864956,766.095498,8586.388927
752.398922,3701.029710,1302.362347,9104.533087
752.399251,3182.885551,1991.848295,9252.574275
752.399580,2886.803174,2221.676944,9474.636058
752.399909,1998.556043,1762.019645,10362.883188
752.400238,1110.308913,1225.752797,10658.965565
752.400567,148.041188,842.705048,10807.006753
752.400896,0.000000,459.657299,10807.006753
752.401225,148.041188,-306.438199,10066.800811
752.401554,296.082377,-229.828649,9474.636058
752.401883,1184.329507,-383.047749,8956.491898
752.402213,1924.535449,0.000000,8734.430116
752.402542,3330.926739,1225.752797,9030.512492
752.402871,3108.864956,2145.067394,8956.491898
752.403200,2812.782580,2604.724693,9252.574275
752.403529,2220.617826,2987.772442,9622.677246
752.403858,1258.350101,2681.334243,9844.739029
752.404187,-296.082377,2221.676944,10140.821405
752.404516,-1480.411884,1608.800546,10214.842000
752.404845,-3034.844362,766.095498,10436.903782
752.405174,-3775.050304,229.828649,10510.924376
752.405503,-4071.132681,306.438199,9992.780217
752.405833,-3849.070898,612.876398,8808.450710
752.406162,-2738.761985,612.876398,7105.977043
752.406491,-666.185348,459.657299,6291.750507
752.406820,1258.350101,689.485948,6291.750507
752.407149,1702.473667,1225.752797,6809.894666
752.407478,1036.288319,1991.848295,8142.265362
752.407807,-444.123565,2681.334243,9770.718434
752.408136,-2368.659014,3217.601092,11473.192101
752.408465,-3701.029710,2681.334243,12509.480420
752.408794,-4589.276840,689.485948,12879.583391
752.409123,-4811.338623,-612.876398,12065.356855
752.409453,-4441.235652,-1225.752797,10807.006753
752.409782,-2738.761985,-2145.067394,9474.636058
752.410111,-1184.329507,-1685.410096,8660.409521
752.410440,962.267725,-612.876398,8290.306550
752.410769,2960.823768,306.438199,8142.265362
752.411098,4145.153275,1455.581446,7846.182985
752.411427,4737.318029,2451.505594,7772.162391
752.411756,3775.050304,2374.896044,9326.594869
752.412085,1924.535449,2451.505594,11251.130318
752.412414,-666.185348,3140.991542,12361.439231
752.412743,-3108.864956,2834.553343,13027.624579
752.413073,-4959.379811,1608.800546,12435.459826
752.413402,-4589.276840,0.000000,11695.253884
752.413731,-3775.050304,-1455.581446,9622.677246
752.414060,-1924.535449,-1915.238745,7920.203579
752.414389,0.000000,-1915.238745,6217.729913
752.414718,1406.391290,-919.314598,5625.565159
752.415047,1406.391290,229.828649,5699.585753
752.415376,666.185348,1991.848295,7179.997637
752.415705,0.000000,3217.601092,9178.553681
752.416034,-1332.370696,3370.820191,10362.883188
752.416363,-2590.720797,2451.505594,10807.006753
752.416693,-3404.947333,1225.752797,11399.171507
752.417022,-3330.926739,0.000000,11325.150913
752.417351,-3330.926739,-842.705048,10436.903782
752.417680,-1702.473667,-1225.752797,9696.697840
752.418009,-148.041188,-1072.533697,8438.347739
752.418338,1554.432478,-536.266849,7846.182985
752.418667,3330.926739,383.047749,7846.182985
752.418996,3552.988522,1685.410096,8734.430116
752.419325,2516.700203,3064.381992,10140.821405
752.419654,370.102971,3983.696590,11399.171507
752.419984,-2442.679609,4366.744339,12287.418637
752.420313,-4737.318029,3370.820191,12213.398043
752.420642,-5625.565159,1915.238745,11473.192101
752.420971,-4885.359217,-459.657299,9770.718434
752.421300,-3330.926739,-2451.505594,7624.121203
752.421629,-1998.556043,-2757.943793,6291.750507
752.421958,-296.082377,-2604.724693,5773.606348
752.422287,888.247130,-1378.971896,6365.771101
752.422616,740.205942,1378.971896,8438.347739
752.422945,0.000000,3753.867940,10584.944971
752.423274,-1480.411884,4826.401637,12287.418637
752.423604,-2368.659014,4673.182538,12657.521608
752.423933,-3478.967927,3524.039291,12509.480420
752.424262,-4071.132681,1838.629195,11769.274478
752.424591,-3330.926739,0.000000,10732.986159
752.424920,-2146.597232,-1455.581446,9548.656652
752.425249,-518.144159,-2604.724693,8068.244768
752.425578,1628.453072,-2451.505594,6587.832884
752.425907,2738.761985,-995.924147,6365.771101
752.426236,4071.132681,766.095498,6957.935855
752.426565,4071.132681,2451.505594,7772.162391
752.426894,2590.720797,3677.258390,9400.615463
752.427224,666.185348,4596.572988,10658.965565
752.427553,-1702.473667,5056.230287,11325.150913
752.427882,-3627.009116,4060.306139,12065.356855
752.428211,-4959.379811,1762.019645,11399.171507
752.428540,-4589.276840,-842.705048,9844.739029
752.428869,-3923.091493,-2451.505594,8438.347739
752.429198,-3034.844362,-3370.820191,7105.977043
752.429527,-2516.700203,-3140.991542,6957.935855
752.429856,-1924.535449,-1762.019645,7476.080014
752.430185,-1480.411884,306.438199,8882.471304
752.430514,-1702.473667,1991.848295,9992.780217
752.430844,-1776.494261,3294.210641,10807.006753
752.431173,-1332.370696,3140.991542,11769.274478
752.431502,-1702.473667,2681.334243,11621.233289
752.431831,-1924.535449,1455.581446,11251.130318
752.432160,-1258.350101,76.609550,10807.006753
752.432489,0.000000,-995.924147,10510.924376
752.432818,666.185348,-1762.019645,9474.636058
752.433147,1702.473667,-1532.190996,8734.430116
752.433476,2664.741391,-995.924147,8808.450710
752.433805,2886.803174,306.438199,9400.615463
752.434134,2072.576638,2451.505594,10214.842000
752.434464,-444.123565,3524.039291,11103.089130
752.434793,-1628.453072,4519.963438,11473.192101
752.435122,-2664.741391,3907.087040,10881.027347
752.435451,-3182.885551,2221.676944,9770.718434
752.435780,-2516.700203,153.219100,8438.347739
752.436109,-1702.473667,-995.924147,6439.791695
752.436438,-888.247130,-2145.067394,5699.585753
752.436767,-370.102971,-2221.676944,6143.709319
752.437096,-592.164754,-459.657299,7698.141797
752.437425,-962.267725,1455.581446,9400.615463
752.437754,-1924.535449,3830.477490,11177.109724
752.438084,-2886.803174,3677.258390,11769.274478
752.438413,-3404.947333,3830.477490,11695.253884
752.438742,-2812.782580,2834.553343,11103.089130
752.439071,-2516.700203,1225.752797,10288.862594
752.439400,-1184.329507,0.000000,9400.615463
752.439729,592.164754,-1149.143247,8956.491898
752.440058,1554.432478,-766.095498,7994.224174
752.440387,2812.782580,-766.095498,7624.121203
752.440716,3775.050304,76.609550,7994.224174
752.441045,4441.235652,1685.410096,9252.574275
752.441374,3256.906145,3140.991542,10214.842000
752.441704,1480.411884,4136.915689,11251.130318
752.442033,-962.267725,4749.792088,11769.274478
752.442362,-2516.700203,4213.525239,11843.295072
752.442691,-3627.009116,2681.334243,11103.089130
752.443020,-4071.132681,0.000000,9622.677246
752.443349,-3330.926739,-1608.800546,8290.306550
752.443678,-3034.844362,-3064.381992,7920.203579
752.444007,-3182.885551,-2298.286494,7105.977043
752.444336,-2812.782580,-689.485948,7031.956449
752.444665,-2294.638420,0.000000,7550.100608
752.444994,-2294.638420,2068.457845,8660.409521
752.445323,-2368.659014,2604.724693,10362.883188
752.445652,-2886.803174,3217.601092,11251.130318
752.445981,-3034.844362,3294.210641,11547.212695
752.446310,-3108.864956,2451.505594,11103.089130
752.446639,-2072.576638,1072.533697,10436.903782
752.446968,-592.164754,-919.314598,9770.718434
752.447297,814.226536,-1378.971896,8882.471304
752.447627,2294.638420,-1915.238745,8142.265362
752.447956,3256.906145,-1302.362347,8586.388927
752.448285,3552.988522,842.705048,9918.759623
752.448614,2294.638420,1838.629195,10436.903782
752.448943,518.144159,3370.820191,11621.233289
752.449272,-1332.370696,4749.792088,11843.295072
752.449601,-2072.576638,4060.306139,11177.109724
752.449930,-2368.659014,2145.067394,9770.718434
752.450259,-1850.514855,0.000000,8808.450710
752.450588,-1924.535449,-1532.190996,6957.935855
752.450917,-1480.411884,-2068.457845,5773.606348
752.451246,-1036.288319,-2451.505594,5625.565159
752.451575,-888.247130,-1532.190996,7179.997637
752.451904,-1554.432478,-459.657299,9474.636058
752.452233,-2368.659014,2145.067394,11251.130318
752.452562,-3849.070898,3294.210641,12361.439231
752.452891,-4441.235652,3600.648841,12509.480420
752.453220,-4515.256246,2987.772442,11917.315666
752.453550,-3627.009116,689.485948,11177.109724
752.453879,-1480.411884,-1072.533697,10214.842000
752.454208,-296.082377,-1225.752797,8808.450710
752.454537,1628.453072,-1685.410096,7920.203579
752.454866,2812.782580,-1532.190996,7698.141797
752.455195,3923.091493,-229.828649,7698.141797
752.455524,5181.441594,1532.190996,7920.203579
752.455853,4663.297435,2451.505594,9474.636058
752.456182,2664.741391,4673.182538,11029.068536
752.456511,0.000000,6128.763984,11917.315666
752.456840,-2072.576638,5132.839837,12361.439231
752.457169,-3404.947333,3830.477490,11473.192101
752.457498,-3627.009116,1225.752797,10214.842000
752.457827,-3701.029710,-1302.362347,8956.491898
752.458156,-3701.029710,-2221.676944,7179.997637
752.458485,-4071.132681,-2451.505594,5921.647536
752.458814,-3256.906145,-1991.848295,5625.565159
752.459143,-3256.906145,0.000000,6661.853478
752.459472,-3034.844362,1532.190996,8586.388927
752.459802,-4071.132681,2451.505594,9992.780217
752.460131,-4663.297435,3294.210641,11029.068536
752.460460,-4663.297435,3907.087040,11177.109724
752.460789,-3404.947333,2298.286494,11103.089130
752.461118,-2516.700203,536.266849,10584.944971
752.461447,-888.247130,76.609550,9844.739029
752.461776,740.205942,-1072.533697,8660.409521
752.462105,2590.720797,-1762.019645,8142.265362
752.462434,3478.967927,-919.314598,8290.306550
752.462763,4367.215058,153.219100,9548.656652
752.463092,3627.009116,1991.848295,10881.027347
752.463421,1998.556043,3753.867940,11843.295072
752.463750,148.041188,4366.744339,11991.336260
752.464079,-1110.308913,4060.306139,11473.192101
752.464408,-1850.514855,2604.724693,10732.986159
752.464737,-1924.535449,689.485948,9474.636058
752.465066,-1776.494261,-1149.143247,7846.182985
752.465395,-1258.350101,-2221.676944,6735.874072
752.465724,-814.226536,-1762.019645,5921.647536
752.466054,-592.164754,-1072.533697,6883.915261
752.466383,-1480.411884,-383.047749,8438.347739
752.466712,-2220.617826,1685.410096,9992.780217
752.467041,-3478.967927,2451.505594,11325.150913
752.467370,-4515.256246,2681.334243,11547.212695
752.467699,-4515.256246,2987.772442,11547.212695
752.468028,-4441.235652,1149.143247,11029.068536
752.468357,-2886.803174,-689.485948,10140.821405
752.468686,-1036.288319,-1762.019645,9252.574275
752.469015,1110.308913,-1991.848295,8438.347739
752.469344,2664.741391,-2068.457845,7550.100608
752.469673,4589.276840,-1455.581446,7920.203579
752.470002,5625.565159,612.876398,8660.409521
752.470331,5255.462188,2221.676944,9918.759623
752.470660,4071.132681,3753.867940,11399.171507
752.470989,1628.453072,5515.887586,12287.418637
752.471318,-222.061783,5439.278036,12287.418637
752.471647,-2146.597232,4136.915689,11843.295072
752.471976,-3108.864956,1149.143247,10510.924376
752.472306,-3256.906145,-842.705048,8956.491898
752.472635,-3256.906145,-3140.991542,8068.244768
752.472964,-3108.864956,-2987.772442,7179.997637
752.473293,-4071.132681,-1532.190996,6439.791695
752.473622,-3997.112087,-459.657299,6661.853478
752.473951,-3330.926739,689.485948,7920.203579
752.474280,-3627.009116,2298.286494,9548.656652
752.474609,-4071.132681,3370.820191,10584.944971
752.474938,-4441.235652,4443.353888,10955.047942
752.475267,-4959.379811,3370.820191,11103.089130
752.475596,-4293.194464,2221.676944,11103.089130
752.475925,-3034.844362,229.828649,10436.903782
752.476254,-814.226536,-1149.143247,9178.553681
752.476583,592.164754,-766.095498,7994.224174
752.476912,2812.782580,-995.924147,7402.059420
752.477241,3849.070898,0.000000,8142.265362
752.477570,4145.153275,1149.143247,9770.718434
752.477899,2812.782580,2834.553343,11325.150913
752.478228,1036.288319,5209.449386,11769.274478
752.478558,-666.185348,5745.716235,11843.295072
752.478887,-888.247130,4443.353888,11251.130318
752.479216,-1110.308913,1838.629195,9696.697840
752.479545,-444.123565,-842.705048,7772.162391
752.479874,0.000000,-2068.457845,6217.729913
752.480203,0.000000,-2604.724693,6587.832884
752.480532,-888.247130,-1378.971896,7105.977043
752.480861,-1998.556043,-153.219100,8290.306550
752.481190,-2590.720797,1455.581446,9474.636058
752.481519,-2960.823768,2451.505594,10881.027347
752.481848,-3182.885551,3294.210641,11473.192101
752.482177,-3923.091493,3294.210641,11473.192101
752.482506,-4515.256246,2145.067394,10807.006753
752.482835,-4145.153275,229.828649,10510.924376
752.483164,-2516.700203,-536.266849,9622.677246
752.483493,-592.164754,-1455.581446,8586.388927
752.483822,1406.391290,-2298.286494,7994.224174
752.484151,2516.700203,-2145.067394,7772.162391
752.484480,4367.215058,-1149.143247,8068.244768
752.484810,4737.318029,689.485948,9474.636058
752.485139,4145.153275,2451.505594,10288.862594
752.485468,2072.576638,4519.963438,11843.295072
752.485797,74.020594,5056.230287,12361.439231
752.486126,-1036.288319,4290.134789,12287.418637
752.486455,-1850.514855,2451.505594,11251.130318
752.486784,-2072.576638,153.219100,9474.636058
752.487113,-2220.617826,-2221.676944,8216.285956
752.487442,-2442.679609,-2987.772442,7994.224174
752.487771,-3478.967927,-2298.286494,7254.018232
752.488100,-4145.153275,-766.095498,6661.853478
752.488429,-3923.091493,-383.047749,7402.059420
752.488758,-3701.029710,842.705048,9104.533087
752.489087,-4071.132681,1455.581446,10584.944971
752.489416,-5181.441594,2528.115143,11103.089130
752.489745,-5773.606348,3064.381992,11177.109724
752.490074,-5551.544565,2221.676944,10955.047942
752.490403,-3701.029710,459.657299,10510.924376
752.490732,-1480.411884,-1532.190996,9696.697840
752.491062,74.020594,-1532.190996,8512.368333
752.491391,1998.556043,-1378.971896,7402.059420
752.491720,3108.864956,-919.314598,7994.224174
752.492049,3923.091493,383.047749,9622.677246
752.492378,3182.885551,2298.286494,11399.171507
752.492707,1258.350101,4213.525239,12065.356855
752.493036,-296.082377,5515.887586,11843.295072
752.493365,-370.102971,5209.449386,11325.150913
752.493694,0.000000,2221.676944,10066.800811
752.494023,518.144159,229.828649,8364.327145
752.494352,444.123565,-1225.752797,7105.977043
752.494681,296.082377,-1378.971896,6513.812290
752.495010,-518.144159,-995.924147,6513.812290
752.495339,-1480.411884,-229.828649,7624.121203
752.495668,-2294.638420,919.314598,9030.512492
752.495997,-3108.864956,2068.457845,10584.944971
752.496326,-4071.132681,2681.334243,11177.109724
752.496655,-5033.400406,2681.334243,11325.150913
752.496984,-5329.482782,2145.067394,10955.047942
752.497314,-4959.379811,842.705048,10140.821405
752.497643,-2886.803174,-995.924147,9326.594869
752.497972,-592.164754,-1608.800546,8586.388927
752.498301,1554.432478,-1532.190996,7476.080014
752.498630,3108.864956,-1532.190996,7254.018232
752.498959,4589.276840,-459.657299,8142.265362
752.499288,4959.379811,1225.752797,9104.533087
752.499617,4219.173869,3140.991542,11029.068536
752.499946,2146.597232,4596.572988,11917.315666
752.500275,444.123565,5132.839837,12509.480420
752.500604,-740.205942,4136.915689,12731.542202
752.500933,-1924.535449,2451.505594,11843.295072
752.501262,-1998.556043,306.438199,10140.821405
752.501591,-1850.514855,-1532.190996,8290.306550
752.501920,-1998.556043,-2987.772442,8068.244768
752.502249,-2738.761985,-2604.724693,7846.182985
752.502578,-3404.947333,153.219100,7179.997637
752.502907,-3775.050304,229.828649,7105.977043
752.503236,-3108.864956,919.314598,8586.388927
752.503566,-3478.967927,2145.067394,10140.821405
752.503895,-4441.235652,2834.553343,10807.006753
752.504224,-5033.400406,2681.334243,11103.089130
752.504553,-5329.482782,2221.676944,10510.924376
752.504882,-4737.318029,1302.362347,10510.924376
752.505211,-2886.803174,-1378.971896,9770.718434
752.505540,-814.226536,-2145.067394,8956.491898
752.505869,1036.288319,-1378.971896,7846.182985
752.506198,2664.741391,-229.828649,7550.100608
752.506527,3849.070898,536.266849,9030.512492
752.506856,2886.803174,2221.676944,10510.924376
752.507185,1332.370696,3907.087040,11399.171507
752.507514,-148.041188,4903.011187,11843.295072
752.507843,-444.123565,4979.620737,11547.212695
752.508172,0.000000,2757.943793,10214.842000
752.508501,148.041188,306.438199,8660.409521
752.508830,518.144159,-1378.971896,7105.977043
752.509159,518.144159,-1838.629195,6439.791695
752.509488,222.061783,-1302.362347,6809.894666
752.509818,-1036.288319,0.000000,7624.121203
752.510147,-1998.556043,995.924147,9030.512492
752.510476,-2886.803174,1302.362347,10362.883188
752.510805,-3478.967927,2374.896044,11547.212695
752.511134,-4589.276840,3064.381992,11843.295072
752.511463,-5107.421000,3370.820191,11547.212695
752.511792,-5107.421000,1225.752797,10510.924376
752.512121,-3775.050304,-842.705048,10214.842000
752.512450,-1776.494261,-1532.190996,8956.491898
752.512779,370.102971,-1608.800546,7846.182985
752.513108,2368.659014,-1915.238745,7254.018232
752.513437,3404.947333,-842.705048,7624.121203
752.513766,4071.132681,536.266849,8734.430116
752.514095,4219.173869,2681.334243,10362.883188
752.514424,2590.720797,4213.525239,11547.212695
752.514753,814.226536,5745.716235,12065.356855
752.515082,-444.123565,5209.449386,11917.315666
752.515411,-1332.370696,3370.820191,11621.233289
752.515740,-1850.514855,995.924147,10288.862594
752.516070,-2072.576638,-612.876398,8660.409521
752.516399,-2294.638420,-1838.629195,7328.038826
752.516728,-2812.782580,-1762.019645,6513.812290
752.517057,-2812.782580,-1762.019645,6661.853478
752.517386,-3478.967927,-306.438199,7402.059420
752.517715,-3701.029710,612.876398,8734.430116
752.518044,-4515.256246,1915.238745,9992.780217
752.518373,-5255.462188,3064.381992,10881.027347
752.518702,-5699.585753,2757.943793,10732.986159
752.519031,-4811.338623,1685.410096,10510.924376
752.519360,-4071.132681,0.000000,10140.821405
752.519689,-2368.659014,-612.876398,9696.697840
752.520018,-666.185348,-1455.581446,8660.409521
752.520347,1406.391290,-1991.848295,8142.265362
752.520676,2294.638420,-766.095498,8142.265362
752.521005,3404.947333,229.828649,9326.594869
752.521334,3034.844362,2298.286494,10955.047942
752.521663,1850.514855,3830.477490,11769.274478
752.521992,518.144159,4903.011187,11547.212695
752.522322,-518.144159,4903.011187,11399.171507
752.522651,-666.185348,2987.772442,10436.903782
752.522980,-296.082377,1302.362347,9104.533087
752.523309,0.000000,-766.095498,7328.038826
752.523638,370.102971,-2068.457845,6513.812290
752.523967,296.082377,-2451.505594,6661.853478
752.524296,-518.144159,-1532.190996,7920.203579
752.524625,-1924.535449,229.828649,9548.656652
752.524954,-2886.803174,1532.190996,11177.109724
752.525283,-3775.050304,2911.162892,12139.377449
752.525612,-4737.318029,3064.381992,11843.295072
752.525941,-4663.297435,2681.334243,11029.068536
752.526270,-3923.091493,1302.362347,9918.759623
752.526599,-2368.659014,-459.657299,9400.615463
752.526928,-814.226536,-842.705048,8734.430116
752.527257,1036.288319,-1225.752797,7920.203579
752.527586,2738.761985,-689.485948,7550.100608
752.527915,3775.050304,76.609550,7846.182985
752.528245,4737.318029,995.924147,8734.430116
752.528574,4367.215058,2374.896044,9770.718434
752.528903,2738.761985,3677.258390,11029.068536
752.529232,666.185348,5056.230287,11695.253884
752.529561,-962.267725,4826.401637,12139.377449
752.529890,-2146.597232,3447.429741,11547.212695
752.530219,-2516.700203,1378.971896,10066.800811
752.530548,-2590.720797,-1302.362347,8512.368333
752.530877,-2368.659014,-2681.334243,7550.100608
752.531206,-2072.576638,-2757.943793,7402.059420
752.531535,-2886.803174,-919.314598,7031.956449
752.531864,-3330.926739,689.485948,6883.915261
752.532193,-3182.885551,995.924147,7920.203579
752.532522,-2960.823768,2221.676944,9252.574275
752.532851,-3849.070898,2068.457845,10510.924376
752.533180,-4589.276840,3064.381992,11325.150913
752.533509,-5033.400406,2681.334243,11399.171507
752.533838,-4663.297435,1532.190996,11399.171507
752.534167,-3256.906145,-229.828649,10881.027347
752.534497,-1332.370696,-1455.581446,9252.574275
752.534826,444.123565,-1532.190996,8216.285956
752.535155,2220.617826,-1455.581446,7920.203579
752.535484,3404.947333,-612.876398,8882.471304
752.535813,3256.906145,1072.533697,10362.883188
752.536142,1998.556043,2757.943793,11473.192101
752.536471,74.020594,4290.134789,11399.171507
752.536800,-740.205942,4903.011187,11473.192101
752.537129,-666.185348,3370.820191,10436.903782
752.537458,-222.061783,689.485948,8956.491898
752.537787,444.123565,-1378.971896,7698.141797
752.538116,1110.308913,-2221.676944,6957.935855
752.538445,444.123565,-1378.971896,6513.812290
752.538774,-370.102971,-612.876398,7105.977043
752.539103,-1258.350101,0.000000,8586.388927
752.539432,-2294.638420,1532.190996,10436.903782
752.539761,-3256.906145,2374.896044,11251.130318
752.540090,-4293.194464,2757.943793,11991.336260
752.540419,-5255.462188,2834.553343,11695.253884
752.540749,-5181.441594,1685.410096,10881.027347
752.541078,-4367.215058,-612.876398,10066.800811
752.541407,-2590.720797,-1685.410096,8882.471304
752.541736,-740.205942,-1762.019645,7994.224174
752.542065,1258.350101,-1838.629195,7476.080014
752.542394,2812.782580,-1302.362347,7550.100608
752.542723,4293.194464,0.000000,8290.306550
752.543052,4737.318029,1608.800546,9622.677246
752.543381,3404.947333,3830.477490,10658.965565
752.543710,1702.473667,5515.887586,11917.315666
752.544039,0.000000,5669.106685,12361.439231
752.544368,-1332.370696,3753.867940,11991.336260
752.544697,-1480.411884,1991.848295,11029.068536
752.545026,-1184.329507,-459.657299,9474.636058
752.545355,-1776.494261,-1762.019645,7920.203579
752.545684,-2368.659014,-2221.676944,7105.977043
752.546013,-3034.844362,-1762.019645,6809.894666
752.546343,-3478.967927,-306.438199,6957.935855
752.546672,-3404.947333,536.266849,7772.162391
752.547001,-4145.153275,1915.238745,9474.636058
752.547330,-4737.318029,2757.943793,10658.965565
752.547659,-5625.565159,2681.334243,10732.986159
752.547988,-5773.606348,2451.505594,10436.903782
752.548317,-5329.482782,1378.971896,10066.800811
752.548646,-3552.988522,0.000000,9918.759623
752.548975,-1702.473667,-1225.752797,9326.594869
752.549304,222.061783,-1838.629195,8438.347739
752.549633,1998.556043,-1455.581446,8142.265362
752.549962,3182.885551,0.000000,8660.409521
752.550291,4219.173869,842.705048,9844.739029
752.550620,2886.803174,3217.601092,11399.171507
752.550950,1258.350101,4749.792088,11991.336260
752.551279,0.000000,5056.230287,11621.233289
752.551608,-222.061783,4136.915689,10807.006753
752.551937,0.000000,2145.067394,9400.615463
752.552266,370.102971,-536.266849,8290.306550
752.552595,592.164754,-1915.238745,7031.956449
752.552924,222.061783,-2221.676944,6291.750507
752.553253,-222.061783,-1991.848295,6957.935855
752.553582,-1110.308913,229.828649,8808.450710
752.553911,-2738.761985,1302.362347,10214.842000
752.554240,-3997.112087,2374.896044,11621.233289
752.554569,-4737.318029,3064.381992,11769.274478
752.554898,-5107.421000,2757.943793,11399.171507
752.555227,-4663.297435,1302.362347,10732.986159
752.555557,-3923.091493,76.609550,9844.739029
752.555886,-2368.659014,-1225.752797,9474.636058
752.556215,-518.144159,-1532.190996,8438.347739
752.556544,1332.370696,-1225.752797,7772.162391
752.556873,3108.864956,-689.485948,7402.059420
752.557202,4737.318029,-612.876398,7698.141797
752.557531,5181.441594,1378.971896,9400.615463
752.557860,3997.112087,3447.429741,10584.944971
752.558189,1924.535449,4903.011187,11843.295072
752.558518,148.041188,5056.230287,12435.459826
752.558847,-740.205942,4519.963438,12361.439231
752.559176,-2072.576638,2451.505594,10807.006753
752.559505,-1702.473667,229.828649,9474.636058
752.559834,-1850.514855,-1608.800546,7994.224174
752.560164,-2294.638420,-3294.210641,7105.977043
752.560493,-2516.700203,-2911.162892,7550.100608
752.560822,-2738.761985,-689.485948,7402.059420
752.561151,-3627.009116,1608.800546,7402.059420
752.561480,-3627.009116,1915.238745,8364.327145
752.561809,-4071.132681,2145.067394,9548.656652
752.562138,-4441.235652,2757.943793,10658.965565
752.562467,-4811.338623,2681.334243,10732.986159
752.562796,-5033.400406,2221.676944,11029.068536
752.563125,-4737.318029,1302.362347,10732.986159
752.563454,-2738.761985,-766.095498,9844.739029
752.563783,-592.164754,-1991.848295,9030.512492
752.564112,1332.370696,-1762.019645,8512.368333
752.564441,2812.782580,-306.438199,8142.265362
752.564771,3478.967927,612.876398,8734.430116
752.565100,2960.823768,2145.067394,10214.842000
752.565429,1480.411884,3217.601092,11843.295072
752.565758,148.041188,4749.792088,12509.480420
752.566087,-666.185348,4673.182538,11547.212695
752.566416,-370.102971,2834.553343,10362.883188
752.566745,0.000000,306.438199,8808.450710
752.567074,666.185348,-1838.629195,7179.997637
752.567403,1332.370696,-2528.115143,6439.791695
752.567732,962.267725,-2451.505594,6661.853478
752.568061,-666.185348,153.219100,8216.285956
752.568390,-2072.576638,1838.629195,9474.636058
752.568719,-3034.844362,2145.067394,10732.986159
752.569048,-3627.009116,2451.505594,10807.006753
752.569378,-3849.070898,2298.286494,10955.047942
752.569707,-3923.091493,2451.505594,10658.965565
752.570036,-4441.235652,459.657299,10140.821405
752.570365,-3923.091493,-612.876398,9696.697840
752.570694,-2738.761985,-1149.143247,8808.450710
752.571023,-518.144159,-1915.238745,7994.224174
752.571352,1628.453072,-1915.238745,7328.038826
752.571681,3182.885551,-1225.752797,7698.141797
752.572010,4293.194464,0.000000,8734.430116
752.572339,3552.988522,2068.457845,10066.800811
752.572668,2220.617826,3983.696590,11473.192101
752.572997,740.205942,5515.887586,12213.398043
752.573326,-814.226536,4903.011187,12731.542202
752.573655,-1406.391290,3217.601092,11769.274478
752.573985,-1184.329507,459.657299,10214.842000
752.574314,-666.185348,-1455.581446,8586.388927
752.574643,-740.205942,-2604.724693,7550.100608
752.574972,-1702.473667,-2528.115143,7402.059420
752.575301,-2664.741391,-1072.533697,7476.080014
752.575630,-3404.947333,842.705048,7920.203579
752.575959,-3478.967927,1225.752797,8660.409521
752.576288,-3552.988522,1838.629195,9770.718434
752.576617,-4071.132681,2528.115143,10436.903782
752.576946,-4885.359217,2451.505594,11029.068536
752.577275,-5477.523971,2145.067394,10658.965565
752.577604,-4959.379811,1225.752797,10140.821405
752.577933,-3552.988522,-306.438199,9622.677246
752.578262,-1628.453072,-1532.190996,8438.347739
752.578592,370.102971,-1915.238745,7994.224174
752.578921,1998.556043,-1302.362347,7846.182985
752.579250,2812.782580,0.000000,8660.409521
752.579579,2368.659014,2374.896044,9844.739029
752.579908,1406.391290,3600.648841,11399.171507
752.580237,74.020594,4826.401637,12065.356855
752.580566,-444.123565,4903.011187,11843.295072
752.580895,0.000000,3370.820191,10436.903782
752.581224,666.185348,612.876398,8956.491898
752.581553,1480.411884,-842.705048,7698.141797
752.581882,1554.432478,-1685.410096,6957.935855
752.582211,1258.350101,-1838.629195,6661.853478
752.582540,222.061783,-536.266849,7772.162391
752.582869,-1332.370696,1455.581446,9104.533087
752.583199,-2442.679609,1838.629195,10510.924376
752.583528,-3701.029710,2145.067394,11251.130318
752.583857,-4589.276840,2911.162892,11251.130318
752.584186,-5107.421000,2451.505594,10955.047942
752.584515,-4811.338623,1149.143247,10288.862594
752.584844,-3923.091493,-383.047749,9474.636058
752.585173,-2072.576638,-1302.362347,8734.430116
752.585502,0.000000,-1302.362347,7550.100608
752.585831,1628.453072,-1685.410096,7179.997637
752.586160,3182.885551,-1149.143247,7772.162391
752.586489,4071.132681,383.047749,8734.430116
752.586818,3478.967927,2451.505594,10066.800811
752.587147,2220.617826,4060.306139,11029.068536
752.587476,740.205942,4826.401637,12065.356855
752.587806,-666.185348,5056.230287,12435.459826
752.588135,-1554.432478,3140.991542,12065.356855
752.588464,-1628.453072,1072.533697,10510.924376
752.588793,-962.267725,-1225.752797,9030.512492
752.589122,-814.226536,-2604.724693,7994.224174
752.589451,-1776.494261,-2528.115143,7328.038826
752.589780,-2516.700203,-842.705048,7105.977043
752.590109,-2886.803174,76.609550,7476.080014
752.590438,-2812.782580,919.314598,8142.265362
752.590767,-3108.864956,2298.286494,9622.677246
752.591096,-4219.173869,2757.943793,10955.047942
752.591425,-4959.379811,2451.505594,11325.150913
752.591754,-5699.585753,2145.067394,11029.068536
752.592083,-5107.421000,1302.362347,10658.965565
752.592413,-3627.009116,-689.485948,9844.739029
752.592742,-1480.411884,-1762.019645,9104.533087
752.593071,0.000000,-1762.019645,8216.285956
752.593400,1850.514855,-1225.752797,7994.224174
752.593729,2812.782580,0.000000,8586.388927
752.594058,2664.741391,1532.190996,9622.677246
752.594387,1258.350101,2451.505594,11251.130318
752.594716,0.000000,4519.963438,11769.274478
752.595045,-592.164754,4903.011187,11399.171507
752.595374,-222.061783,3370.820191,10362.883188
752.595703,296.082377,1149.143247,8882.471304
752.596032,1184.329507,-612.876398,7846.182985
752.596361,1258.350101,-1225.752797,6513.812290
752.596690,1184.329507,-1838.629195,6439.791695
752.597020,222.061783,-306.438199,7328.038826
752.597349,-814.226536,536.266849,9326.594869
752.597678,-2146.597232,2068.457845,10807.006753
752.598007,-3849.070898,2681.334243,11769.274478
752.598336,-4811.338623,3140.991542,11843.295072
752.598665,-5255.462188,2451.505594,11473.192101
752.598994,-4885.359217,1072.533697,10510.924376
752.599323,-4071.132681,-689.485948,9178.553681
752.599652,-2442.679609,-1685.410096,8290.306550
752.599981,-444.123565,-1915.238745,7624.121203
752.600310,1554.432478,-1762.019645,7550.100608
752.600639,3034.844362,-766.095498,7772.162391
752.600968,3997.112087,919.314598,8438.347739
752.601297,4145.153275,2374.896044,10140.821405
752.601627,2516.700203,3830.477490,11103.089130
752.601956,888.247130,4979.620737,11991.336260
752.602285,-740.205942,4903.011187,12657.521608
752.602614,-1628.453072,3677.258390,12361.439231
752.602943,-1776.494261,1532.190996,10807.006753
752.603272,-1924.535449,-689.485948,9400.615463
752.603601,-1776.494261,-2068.457845,8142.265362
752.603930,-2072.576638,-2374.896044,7179.997637
752.604259,-2220.617826,-1455.581446,6587.832884
752.604588,-2442.679609,-153.219100,7031.956449
752.604917,-2664.741391,1302.362347,8290.306550
752.605246,-3701.029710,1915.238745,9474.636058
752.605575,-4737.318029,2681.334243,10955.047942
752.605904,-5699.585753,3064.381992,11177.109724
752.606234,-5995.668130,2911.162892,11177.109724
752.606563,-4959.379811,995.924147,10584.944971
752.606892,-3404.947333,-766.095498,9992.780217
752.607221,-1480.411884,-1149.143247,9326.594869
752.607550,222.061783,-1455.581446,8142.265362
752.607879,2072.576638,-689.485948,7772.162391
752.608208,3108.864956,0.000000,7920.203579
752.608537,3701.029710,1455.581446,10288.862594
752.608866,2072.576638,3447.429741,11473.192101
752.609195,222.061783,4673.182538,11843.295072
752.609524,-814.226536,4979.620737,11621.233289
752.609853,-592.164754,3294.210641,10584.944971
752.610182,0.000000,995.924147,9474.636058
752.610511,592.164754,-919.314598,7698.141797
752.610841,740.205942,-2068.457845,6809.894666
752.611170,666.185348,-1608.800546,6513.812290
752.611499,370.102971,-689.485948,7772.162391
752.611828,-888.247130,459.657299,8956.491898
752.612157,-2146.597232,2145.067394,10066.800811
752.612486,-2886.803174,2834.553343,11325.150913
752.612815,-3849.070898,2834.553343,11843.295072
752.613144,-4589.276840,2604.724693,11325.150913
752.613473,-4811.338623,1685.410096,10436.903782
752.613802,-3923.091493,-459.657299,9992.780217
752.614131,-2072.576638,-1532.190996,9400.615463
752.614460,0.000000,-1838.629195,8216.285956
752.614789,1702.473667,-2068.457845,7698.141797
752.615118,3256.906145,-1072.533697,7698.141797
752.615448,4515.256246,76.609550,8438.347739
752.615777,4589.276840,1991.848295,9918.759623
752.616106,3256.906145,3600.648841,10955.047942
752.616435,1184.329507,4903.011187,11843.295072
752.616764,-592.164754,4903.011187,12213.398043
752.617093,-1554.432478,3983.696590,11917.315666
752.617422,-2294.638420,1532.190996,10362.883188
752.617751,-1924.535449,-842.705048,8956.491898
752.618080,-1998.556043,-2451.505594,7698.141797
752.618409,-2146.597232,-2834.553343,7179.997637
752.618738,-2664.741391,-1838.629195,7772.162391
752.619067,-3108.864956,383.047749,7550.100608
752.619396,-3330.926739,1991.848295,7254.018232
752.619725,-2812.782580,1762.019645,8734.430116
752.620055,-3478.967927,2451.505594,9770.718434
752.620384,-3627.009116,2298.286494,10436.903782
752.620713,-5181.441594,2451.505594,11029.068536
752.621042,-5477.523971,1915.238745,10807.006753
752.621371,-4589.276840,459.657299,10510.924376
752.621700,-2516.700203,-1685.410096,9770.718434
752.622029,-148.041188,-1991.848295,9030.512492
752.622358,1628.453072,-1455.581446,7846.182985
752.622687,2812.782580,-306.438199,7846.182985
752.623016,3256.906145,1072.533697,9104.533087
752.623345,1998.556043,2757.943793,10510.924376
752.623674,592.164754,3753.867940,11843.295072
752.624003,-962.267725,4596.572988,11843.295072
752.624332,-1406.391290,4596.572988,11251.130318
752.624662,-814.226536,1915.238745,9992.780217
752.624991,-444.123565,-995.924147,8216.285956
752.625320,592.164754,-2528.115143,6735.874072
752.625649,1110.308913,-3064.381992,6217.729913
752.625978,222.061783,-1762.019645,7254.018232
752.626307,-814.226536,536.266849,8882.471304
752.626636,-2220.617826,2221.676944,10140.821405
752.626965,-2886.803174,2757.943793,11029.068536
752.627294,-3330.926739,2911.162892,11177.109724
752.627623,-3775.050304,3217.601092,10807.006753
752.627952,-4219.173869,1532.190996,10732.986159
752.628281,-4145.153275,612.876398,10510.924376
752.628610,-3330.926739,-689.485948,9548.656652
752.628939,-1480.411884,-1685.410096,8660.409521
752.629269,518.144159,-1302.362347,7550.100608
752.629598,2516.700203,-1915.238745,7550.100608
752.629927,4071.132681,-689.485948,8068.244768
752.630256,4441.235652,689.485948,9178.553681
752.630585,3478.967927,3447.429741,10584.944971
752.630914,1924.535449,4826.401637,11769.274478
752.631243,222.061783,5439.278036,12065.356855
752.631572,-1406.391290,4979.620737,12139.377449
752.631901,-1776.494261,2528.115143,10955.047942
752.632230,-1480.411884,0.000000,9474.636058
752.632559,-1184.329507,-1762.019645,7550.100608
752.632888,-2294.638420,-2145.067394,7105.977043
752.633217,-2590.720797,-2834.553343,7698.141797
752.633546,-3330.926739,-919.314598,8438.347739
752.633876,-3923.091493,1532.190996,8364.327145
752.634205,-3997.112087,2221.676944,8808.450710
752.634534,-3552.988522,2374.896044,9622.677246
752.634863,-3701.029710,2528.115143,10436.903782
752.635192,-4293.194464,2451.505594,10214.842000
752.635521,-4515.256246,1991.848295,10510.924376
752.635850,-4145.153275,1225.752797,10214.842000
752.636179,-2516.700203,-459.657299,9474.636058
752.636508,-888.247130,-1225.752797,8956.491898
752.636837,1332.370696,-1302.362347,8142.265362
752.637166,2516.700203,-306.438199,7994.224174
752.637495,3034.844362,306.438199,8660.409521
752.637824,2072.576638,1608.800546,10881.027347
752.638153,518.144159,3524.039291,12583.501014
752.638483,-1702.473667,4903.011187,12213.398043
752.638812,-1850.514855,3907.087040,11621.233289
752.639141,-1110.308913,2298.286494,9992.780217
752.639470,74.020594,-153.219100,8142.265362
752.639799,1332.370696,-2681.334243,6735.874072
752.640128,1554.432478,-2911.162892,6143.709319
752.640457,592.164754,-1072.533697,6809.894666
752.640786,-370.102971,306.438199,8142.265362
752.641115,-1480.411884,1685.410096,9622.677246
752.641444,-2590.720797,3064.381992,10584.944971
752.641773,-3256.906145,2757.943793,11325.150913
752.642102,-3923.091493,2451.505594,11473.192101
752.642431,-4367.215058,1991.848295,11325.150913
752.642760,-4663.297435,842.705048,10436.903782
752.643090,-3627.009116,-536.266849,9474.636058
752.643419,-1628.453072,-1838.629195,9030.512492
752.643748,444.123565,-1991.848295,7698.141797
752.644077,2590.720797,-2068.457845,7476.080014
752.644406,3923.091493,-1072.533697,7994.224174
752.644735,4293.194464,842.705048,8882.471304
752.645064,3478.967927,2221.676944,10140.821405
752.645393,2146.597232,3830.477490,11991.336260
752.645722,148.041188,5286.058936,12361.439231
752.646051,-962.267725,4519.963438,12287.418637
752.646380,-1110.308913,2451.505594,11177.109724
752.646710,-592.164754,-306.438199,9400.615463
752.647039,-370.102971,-1762.019645,7994.224174
752.647368,-1036.288319,-2681.334243,7772.162391
752.647697,-1850.514855,-2528.115143,7920.203579
752.648026,-2664.741391,-459.657299,8586.388927
752.648356,-3552.988522,1302.362347,9104.533087
752.648685,-3552.988522,3140.991542,8660.409521
752.649014,-3404.947333,2834.553343,9104.533087
752.649343,-3478.967927,2298.286494,9548.656652
752.649672,-3997.112087,2145.067394,10066.800811
752.650002,-4885.359217,2068.457845,10288.862594
752.650331,-5255.462188,1762.019645,10436.903782
752.650660,-4589.276840,536.266849,9918.759623
752.650989,-2664.741391,-842.705048,9400.615463
752.651318,-148.041188,-1838.629195,8734.430116
752.651648,1850.514855,-1302.362347,8512.368333
752.651977,2294.638420,689.485948,8438.347739
752.652306,2072.576638,2221.676944,9178.553681
752.652635,666.185348,3600.648841,10807.006753
752.652964,-592.164754,4136.915689,11769.274478
752.653294,-1036.288319,4213.525239,11843.295072
752.653623,-814.226536,3140.991542,10732.986159
752.653952,0.000000,1608.800546,9178.553681
752.654281,518.144159,-766.095498,7179.997637
752.654610,1258.350101,-2451.505594,6069.688724
752.654940,1480.411884,-2145.067394,6587.832884
752.655269,666.185348,76.609550,7920.203579
752.655598,-370.102971,2145.067394,9400.615463
752.655927,-2072.576638,2911.162892,10140.821405
752.656256,-2738.761985,2911.162892,11029.068536
752.656586,-3478.967927,2528.115143,11547.212695
752.656915,-3997.112087,2451.505594,11399.171507
752.657244,-4515.256246,1915.238745,10436.903782
752.657573,-3775.050304,0.000000,9770.718434
752.657902,-2812.782580,-1378.971896,8882.471304
752.658232,-1036.288319,-2451.505594,7846.182985
752.658561,1258.350101,-2145.067394,7550.100608
752.658890,2738.761985,-995.924147,7698.141797
752.659219,3552.988522,153.219100,8364.327145
752.659548,2886.803174,2068.457845,9844.739029
752.659878,1628.453072,3524.039291,11251.130318
752.660207,444.123565,4596.572988,12139.377449
752.660536,-444.123565,4443.353888,12287.418637
752.660865,-1480.411884,3294.210641,11695.253884
752.661194,-1332.370696,612.876398,10362.883188
752.661524,-814.226536,-1838.629195,8808.450710
752.661853,-592.164754,-2528.115143,7920.203579
752.662182,-1110.308913,-2757.943793,7772.162391
752.662511,-1924.535449,-1455.581446,8808.450710
752.662840,-2368.659014,0.000000,9104.533087
752.663170,-3256.906145,1685.410096,9548.656652
752.663499,-3404.947333,2757.943793,9770.718434
752.663828,-3256.906145,2604.724693,10140.821405
752.664157,-3256.906145,2298.286494,10140.821405
752.664486,-4071.132681,1455.581446,10214.842000
752.664816,-4441.235652,842.705048,10066.800811
752.665145,-3701.029710,0.000000,9844.739029
752.665474,-2442.679609,-689.485948,9178.553681
752.665803,-888.247130,-1685.410096,8586.388927
752.666132,666.185348,-1378.971896,8216.285956
752.666462,1850.514855,-459.657299,8586.388927
752.666791,1850.514855,1532.190996,9400.615463
752.667120,370.102971,3217.601092,10584.944971
752.667449,-888.247130,3830.477490,11917.315666
752.667778,-1702.473667,4673.182538,11917.315666
752.668108,-1258.350101,3140.991542,10732.986159
752.668437,-296.082377,1378.971896,9104.533087
752.668766,740.205942,-536.266849,7254.018232
752.669095,1776.494261,-1915.238745,6217.729913
752.669424,2146.597232,-2068.457845,6439.791695
752.669754,1036.288319,-306.438199,7254.018232
752.670083,-74.020594,1915.238745,9178.553681
752.670412,-1702.473667,2987.772442,10436.903782
752.670741,-2886.803174,3217.601092,11177.109724
752.671070,-3627.009116,3447.429741,11103.089130
752.671400,-3997.112087,2451.505594,10807.006753
752.671729,-3849.070898,1072.533697,10510.924376
752.672058,-3552.988522,153.219100,10066.800811
752.672387,-2812.782580,-459.657299,9104.533087
752.672716,-1184.329507,-1455.581446,8216.285956
752.673046,814.226536,-2221.676944,7402.059420
752.673375,2960.823768,-1072.533697,8142.265362
752.673704,3701.029710,0.000000,8364.327145
752.674033,3256.906145,1455.581446,9770.718434
752.674362,1998.556043,3677.258390,11325.150913
752.674692,740.205942,4443.353888,11769.274478
752.675021,-666.185348,4519.963438,12361.439231
752.675350,-1406.391290,3447.429741,12139.377449
752.675679,-1554.432478,1455.581446,10881.027347
752.676008,-1184.329507,-689.485948,9104.533087
752.676338,-518.144159,-2451.505594,7772.162391
752.676667,-592.164754,-2757.943793,7254.018232
752.676996,-1406.391290,-1915.238745,8142.265362
752.677325,-2220.617826,306.438199,8882.471304
752.677654,-2886.803174,2451.505594,9030.512492
752.677984,-3108.864956,2604.724693,9178.553681
752.678313,-2590.720797,2834.553343,9844.739029
752.678642,-3330.926739,2221.676944,10066.800811
752.678971,-3627.009116,1685.410096,10288.862594
752.679300,-4293.194464,1302.362347,10214.842000
752.679630,-4071.132681,229.828649,9992.780217
752.679959,-2516.700203,-766.095498,9326.594869
752.680288,-962.267725,-1532.190996,8660.409521
752.680617,740.205942,-1915.238745,8586.388927
752.680946,1924.535449,-229.828649,8586.388927
752.681276,1776.494261,1149.143247,9326.594869
752.681605,740.205942,2451.505594,10436.903782
752.681934,-370.102971,3524.039291,11325.150913
752.682263,-1776.494261,4136.915689,11621.233289
752.682593,-1480.411884,3370.820191,11251.130318
752.682922,-740.205942,1455.581446,9474.636058
752.683251,518.144159,-689.485948,8068.244768
752.683580,1332.370696,-2068.457845,6809.894666
752.683909,1036.288319,-1762.019645,6291.750507
752.684239,962.267725,-306.438199,6809.894666
752.684568,0.000000,1149.143247,8808.450710
752.684897,-1332.370696,2374.896044,10362.883188
752.685226,-2368.659014,2911.162892,11843.295072
752.685555,-3997.112087,3064.381992,11843.295072
752.685885,-4663.297435,3140.991542,11621.233289
752.686214,-4737.318029,1608.800546,10658.965565
752.686543,-4071.132681,-689.485948,10140.821405
752.686872,-3034.844362,-2068.457845,9252.574275
752.687201,-1480.411884,-1455.581446,8216.285956
752.687531,518.144159,-2145.067394,7550.100608
752.687860,2294.638420,-1072.533697,7550.100608
752.688189,3701.029710,76.609550,8216.285956
752.688518,3701.029710,1455.581446,9548.656652
752.688847,3034.844362,2987.772442,10436.903782
752.689177,1258.350101,4979.620737,11029.068536
752.689506,0.000000,4979.620737,11917.315666
752.689835,-1332.370696,3677.258390,11695.253884
752.690164,-1776.494261,1838.629195,10881.027347
752.690493,-1406.391290,-153.219100,8808.450710
752.690823,-1480.411884,-2145.067394,7698.141797
752.691152,-1628.453072,-2451.505594,7476.080014
752.691481,-2220.617826,-1685.410096,8142.265362
752.691810,-2812.782580,76.609550,8216.285956
752.692139,-3182.885551,1685.410096,8216.285956
752.692469,-2960.823768,2451.505594,8808.450710
752.692798,-2960.823768,2528.115143,9992.780217
752.693127,-3552.988522,2451.505594,10436.903782
752.693456,-4219.173869,1838.629195,10510.924376
752.693785,-4367.215058,1378.971896,10510.924376
752.694115,-3404.947333,229.828649,9770.718434
752.694444,-1850.514855,-1149.143247,9622.677246
752.694773,-518.144159,-1685.410096,8956.491898
752.695102,1036.288319,-1149.143247,8660.409521
752.695431,2368.659014,0.000000,8660.409521
752.695761,3034.844362,995.924147,9622.677246
752.696090,1776.494261,2834.553343,11103.089130
752.696419,0.000000,4060.306139,12213.398043
752.696748,-1480.411884,4673.182538,11917.315666
752.697077,-1332.370696,3600.648841,10807.006753
752.697407,-592.164754,1378.971896,9178.553681
752.697736,0.000000,-1149.143247,7105.977043
752.698065,888.247130,-2451.505594,6513.812290
752.698394,1110.308913,-2374.896044,6291.750507
752.698723,222.061783,-612.876398,7254.018232
752.699053,-740.205942,1225.752797,8882.471304
752.699382,-1776.494261,2451.505594,9918.759623
752.699711,-2960.823768,2681.334243,10955.047942
752.700040,-3404.947333,2604.724693,11251.130318
752.700369,-3775.050304,2834.553343,11029.068536
752.700699,-4367.215058,1532.190996,10510.924376
752.701028,-3849.070898,766.095498,10732.986159
752.701357,-3108.864956,-612.876398,9104.533087
752.701686,-1332.370696,-1762.019645,8586.388927
752.702015,518.144159,-1915.238745,7624.121203
752.702345,2294.638420,-1302.362347,7698.141797
752.702674,3701.029710,-229.828649,8364.327145
752.703003,3404.947333,766.095498,9474.636058
752.703332,2738.761985,3447.429741,10881.027347
752.703661,1332.370696,4826.401637,11769.274478
752.703991,0.000000,4903.011187,12361.439231
752.704320,-1332.370696,3677.258390,12139.377449
752.704649,-1480.411884,2374.896044,11029.068536
752.704978,-1258.350101,-536.266849,9474.636058
752.705307,-962.267725,-1762.019645,8290.306550
752.705637,-1258.350101,-2451.505594,7550.100608
752.705966,-1998.556043,-2221.676944,8142.265362
752.706295,-2442.679609,-612.876398,8808.450710
752.706624,-2738.761985,1532.190996,9178.553681
752.706953,-3034.844362,2681.334243,9178.553681
752.707283,-2812.782580,2681.334243,9622.677246
752.707612,-2960.823768,2528.115143,10214.842000
752.707941,-3108.864956,2374.896044,10140.821405
752.708270,-3552.988522,2221.676944,9918.759623
752.708599,-3627.009116,842.705048,10066.800811
752.708929,-2812.782580,229.828649,9474.636058
752.709258,-1554.432478,-919.314598,8956.491898
752.709587,296.082377,-1685.410096,8142.265362
752.709916,2220.617826,-229.828649,7846.182985
752.710245,2886.803174,919.314598,8364.327145
752.710575,1850.514855,2298.286494,9918.759623
752.710904,148.041188,3217.601092,11621.233289
752.711233,-1332.370696,4213.525239,12139.377449
752.711562,-1628.453072,4213.525239,11473.192101
752.711891,-962.267725,2451.505594,9622.677246
752.712221,0.000000,-153.219100,8364.327145
752.712550,888.247130,-1838.629195,7105.977043
752.712879,1406.391290,-2451.505594,6439.791695
752.713208,888.247130,-1685.410096,6809.894666
752.713537,0.000000,766.095498,8438.347739
752.713867,-1628.453072,2528.115143,10066.800811
752.714196,-2738.761985,2834.553343,11029.068536
752.714525,-3330.926739,2757.943793,11399.171507
752.714854,-3849.070898,2451.505594,11177.109724
752.715183,-4071.132681,2068.457845,11029.068536
752.715513,-3849.070898,76.609550,10881.027347
752.715842,-3552.988522,-383.047749,10288.862594
752.716171,-2368.659014,-1149.143247,9104.533087
752.716500,-296.082377,-2374.896044,8290.306550
752.716829,1998.556043,-1608.800546,8068.244768
752.717159,2960.823768,-1072.533697,8068.244768
752.717488,3404.947333,612.876398,8956.491898
752.717817,2812.782580,2298.286494,10214.842000
752.718146,1406.391290,4060.306139,11399.171507
752.718475,0.000000,4903.011187,11843.295072
752.718805,-1036.288319,3447.429741,11843.295072
752.719134,-1924.535449,2451.505594,11177.109724
752.719463,-1554.432478,76.609550,9474.636058
752.719792,-962.267725,-1608.800546,8290.306550
752.720121,-1184.329507,-2451.505594,7476.080014
752.720451,-1702.473667,-2451.505594,7476.080014
752.720780,-2368.659014,-612.876398,8364.327145
752.721109,-3034.844362,1455.581446,8660.409521
752.721438,-3182.885551,2451.505594,8882.471304
752.721767,-3256.906145,2451.505594,9474.636058
752.722097,-3627.009116,2374.896044,10066.800811
752.722426,-3701.029710,2451.505594,10214.842000
752.722755,-4441.235652,1608.800546,10436.903782
752.723084,-4441.235652,689.485948,9992.780217
752.723413,-3404.947333,76.609550,9400.615463
752.723743,-1406.391290,-842.705048,9030.512492
752.724072,814.226536,-1762.019645,8586.388927
752.724401,1850.514855,-612.876398,8290.306550
752.724730,2442.679609,1072.533697,8734.430116
752.725059,2072.576638,2298.286494,10214.842000
752.725389,666.185348,3524.039291,11769.274478
752.725718,-740.205942,4290.134789,12583.501014
752.726047,-1332.370696,4366.744339,11769.274478
752.726376,-888.247130,2681.334243,10436.903782
752.726705,148.041188,459.657299,8586.388927
752.727035,1184.329507,-1915.238745,7105.977043
752.727364,1554.432478,-2451.505594,6513.812290
752.727693,1110.308913,-1838.629195,7105.977043
752.728022,0.000000,536.266849,8216.285956
752.728351,-1332.370696,2221.676944,9696.697840
752.728681,-2516.700203,2987.772442,10732.986159
752.729010,-3034.844362,3064.381992,11325.150913
752.729339,-3701.029710,2145.067394,11177.109724
752.729668,-3997.112087,1762.019645,11177.109724
752.729997,-4293.194464,766.095498,10584.944971
752.730327,-3923.091493,-229.828649,9548.656652
752.730656,-2368.659014,-1608.800546,8956.491898
752.730985,-296.082377,-1915.238745,8068.244768
752.731314,1850.514855,-1991.848295,7402.059420
752.731643,3478.967927,-1072.533697,7846.182985
752.731973,3923.091493,766.095498,8660.409521
752.732302,3034.844362,2604.724693,10140.821405
752.732631,1998.556043,4749.792088,11695.253884
752.732960,0.000000,5439.278036,12065.356855
752.733289,-1110.308913,4903.011187,12213.398043
752.733619,-1776.494261,2681.334243,11325.150913
752.733948,-1406.391290,76.609550,10066.800811
752.734277,-1110.308913,-1608.800546,8438.347739
752.734606,-1110.308913,-2757.943793,7105.977043
752.734935,-1554.432478,-2681.334243,7402.059420
752.735265,-2220.617826,-919.314598,8438.347739
752.735594,-2738.761985,1455.581446,8438.347739
752.735923,-2960.823768,2451.505594,8808.450710
752.736252,-2738.761985,2221.676944,9400.615463
752.736581,-2886.803174,3064.381992,10510.924376
752.736911,-3627.009116,2604.724693,11177.109724
752.737240,-4589.276840,2374.896044,10807.006753
752.737569,-4737.318029,1455.581446,10584.944971
752.737898,-3330.926739,0.000000,9622.677246
752.738227,-1480.411884,-1455.581446,8734.430116
752.738557,370.102971,-2451.505594,8364.327145
752.738886,1924.535449,-995.924147,7994.224174
752.739215,2590.720797,0.000000,8438.347739
752.739544,2072.576638,1149.143247,10214.842000
752.739873,740.205942,3524.039291,11103.089130
752.740203,-888.247130,4749.792088,12065.356855
752.740532,-1480.411884,4673.182538,11621.233289
752.740861,-814.226536,3447.429741,10362.883188
752.741190,148.041188,459.657299,8882.471304
752.741519,1036.288319,-1378.971896,7105.977043
752.741849,1036.288319,-2298.286494,6439.791695
752.742178,444.123565,-1532.190996,6883.915261
752.742507,-444.123565,76.609550,7698.141797
752.742836,-1258.350101,1302.362347,8956.491898
752.743165,-2442.679609,2681.334243,10214.842000
752.743495,-2812.782580,2987.772442,11473.192101
752.743824,-3701.029710,3140.991542,11547.212695
752.744153,-4589.276840,2451.505594,11399.171507
752.744482,-4737.318029,1302.362347,10732.986159
752.744811,-4219.173869,0.000000,9844.739029
752.745141,-2664.741391,-1532.190996,9104.533087
752.745470,-148.041188,-2145.067394,8142.265362
752.745799,1406.391290,-1608.800546,7698.141797
752.746129,2738.761985,-842.705048,7698.141797
752.746458,3849.070898,153.219100,8586.388927
752.746787,3552.988522,2451.505594,9548.656652
752.747117,2368.659014,3677.258390,11103.089130
752.747446,666.185348,4903.011187,11843.295072
752.747775,-740.205942,4903.011187,12287.418637
752.748105,-1480.411884,3447.429741,11547.212695
752.748434,-1406.391290,1225.752797,10288.862594
752.748763,-1184.329507,-1149.143247,8364.327145
752.749093,-1258.350101,-2374.896044,7698.141797
752.749422,-1924.535449,-2604.724693,7550.100608
752.749751,-2368.659014,-1762.019645,7994.224174
752.750081,-2960.823768,306.438199,8882.471304
752.750410,-3478.967927,1762.019645,8438.347739
752.750739,-3256.906145,2757.943793,9400.615463
752.751069,-3330.926739,2604.724693,9696.697840
752.751398,-3627.009116,2298.286494,10140.821405
752.751727,-4071.132681,1608.800546,10140.821405
752.752057,-4367.215058,1149.143247,10288.862594
752.752386,-3923.091493,-306.438199,9770.718434
752.752715,-2590.720797,-383.047749,9400.615463
752.753045,-370.102971,-1685.410096,9178.553681
752.753374,1110.308913,-1532.190996,8734.430116
752.753703,2368.659014,-383.047749,8808.450710
752.754033,2368.659014,1685.410096,9326.594869
752.754362,962.267725,2834.553343,10732.986159
752.754691,0.000000,3294.210641,11843.295072
752.755021,-1110.308913,4060.306139,11843.295072
752.755350,-740.205942,3140.991542,10955.047942
752.755679,-296.082377,1455.581446,9252.574275
752.756009,222.061783,-766.095498,7550.100608
752.756338,1184.329507,-2145.067394,6661.853478
752.756667,1554.432478,-2757.943793,6513.812290
752.756997,740.205942,-995.924147,7402.059420
752.757326,-814.226536,842.705048,9030.512492
752.757655,-1628.453072,2911.162892,10510.924376
752.757985,-2738.761985,2987.772442,11251.130318
752.758314,-3775.050304,2834.553343,11177.109724
752.758643,-3997.112087,2298.286494,11103.089130
752.758973,-4515.256246,1455.581446,10732.986159
752.759302,-3701.029710,459.657299,9844.739029
752.759631,-2812.782580,-1149.143247,8808.450710
752.759961,-1036.288319,-2068.457845,7920.203579
752.760290,1036.288319,-2068.457845,7402.059420
752.760619,2812.782580,-1225.752797,7550.100608
752.760949,4071.132681,-383.047749,8216.285956
752.761278,3404.947333,2451.505594,9474.636058
752.761607,2220.617826,3830.477490,10881.027347
752.761936,888.247130,4749.792088,11843.295072
752.762266,-296.082377,5056.230287,12139.377449
752.762595,-1036.288319,3983.696590,11621.233289
752.762924,-1480.411884,1225.752797,10732.986159
752.763254,-1480.411884,-842.705048,9326.594869
752.763583,-1554.432478,-2068.457845,8216.285956
752.763912,-1776.494261,-2834.553343,7772.162391
752.764242,-2220.617826,-1915.238745,8290.306550
752.764571,-2664.741391,0.000000,8438.347739
752.764900,-3182.885551,1838.629195,8882.471304
752.765230,-3108.864956,2757.943793,9326.594869
752.765559,-3182.885551,2987.772442,9696.697840
752.765888,-3404.947333,3064.381992,10288.862594
752.766218,-3923.091493,2068.457845,10288.862594
752.766547,-4071.132681,1302.362347,10214.842000
752.766876,-3997.112087,229.828649,9622.677246
752.767206,-2516.700203,-612.876398,9178.553681
752.767535,-1110.308913,-1762.019645,8586.388927
752.767864,814.226536,-2068.457845,7920.203579
752.768194,2294.638420,-536.266849,8364.327145
752.768523,2072.576638,1072.533697,9400.615463
752.768852,1184.329507,2374.896044,10955.047942
752.769182,-296.082377,4136.915689,11843.295072
752.769511,-1628.453072,4749.792088,11473.192101
752.769840,-518.144159,3140.991542,10955.047942
752.770170,-222.061783,1685.410096,9400.615463
752.770499,666.185348,-459.657299,7994.224174
752.770828,1406.391290,-2068.457845,6883.915261
752.771158,1184.329507,-2145.067394,6365.771101
752.771487,148.041188,-1302.362347,7105.977043
752.771816,-592.164754,612.876398,8438.347739
752.772146,-1776.494261,1915.238745,10288.862594
752.772475,-2886.803174,2451.505594,11473.192101
752.772804,-3997.112087,2681.334243,11843.295072
752.773134,-4515.256246,1838.629195,11917.315666
752.773463,-4811.338623,1838.629195,11177.109724
752.773792,-4737.318029,229.828649,10436.903782
752.774122,-3404.947333,-1225.752797,9696.697840
752.774451,-1480.411884,-1991.848295,8734.430116
752.774780,518.144159,-1838.629195,7476.080014
752.775110,2368.659014,-1991.848295,7402.059420
752.775439,3330.926739,-383.047749,8216.285956
752.775768,3330.926739,1455.581446,9252.574275
752.776098,2590.720797,3294.210641,10436.903782
752.776427,1332.370696,4673.182538,11547.212695
752.776756,0.000000,5286.058936,11917.315666
752.777086,-888.247130,3983.696590,11843.295072
752.777415,-1480.411884,2068.457845,10732.986159
752.777744,-1332.370696,0.000000,9178.553681
752.778074,-1036.288319,-1532.190996,8068.244768
752.778403,-1036.288319,-1762.019645,7476.080014
752.778732,-2368.659014,-1838.629195,7994.224174
752.779061,-2960.823768,0.000000,8290.306550
752.779391,-3552.988522,1532.190996,8438.347739
752.779720,-3849.070898,1991.848295,9030.512492
752.780049,-3923.091493,2681.334243,9770.718434
752.780379,-4219.173869,2757.943793,9992.780217
752.780708,-4515.256246,2145.067394,10214.842000
752.781037,-4663.297435,1149.143247,10066.800811
752.781367,-3923.091493,612.876398,9696.697840
752.781696,-2368.659014,-306.438199,9326.594869
752.782025,-592.164754,-1302.362347,8438.347739
752.782355,1184.329507,-995.924147,8216.285956
752.782684,2516.700203,-229.828649,8438.347739
752.783013,3108.864956,383.047749,9770.718434
752.783343,1998.556043,2681.334243,11399.171507
752.783672,222.061783,4749.792088,11843.295072
752.784001,-1036.288319,4366.744339,11695.253884
752.784331,-962.267725,3600.648841,11029.068536
752.784660,-370.102971,1608.800546,9622.677246
752.784989,518.144159,-766.095498,7698.141797
752.785319,1184.329507,-2221.676944,6735.874072
752.785648,1184.329507,-1838.629195,6217.729913
752.785977,592.164754,-766.095498,7254.018232
752.786307,-518.144159,459.657299,8956.491898
752.786636,-1850.514855,2528.115143,10140.821405
752.786965,-2664.741391,2681.334243,11177.109724
752.787295,-3256.906145,2834.553343,11621.233289
752.787624,-3849.070898,2221.676944,11621.233289
752.787953,-4589.276840,1762.019645,10955.047942
752.788283,-4293.194464,153.219100,10140.821405
752.788612,-2960.823768,-1225.752797,9326.594869
752.788941,-888.247130,-1378.971896,8364.327145
752.789271,1332.370696,-2145.067394,8068.244768
752.789600,2220.617826,-1149.143247,7772.162391
752.789929,3701.029710,229.828649,8216.285956
752.790259,4071.132681,1378.971896,9252.574275
752.790588,3256.906145,2834.553343,10510.924376
752.790917,1036.288319,4519.963438,11251.130318
752.791247,-296.082377,4519.963438,11843.295072
752.791576,-1332.370696,3753.867940,11843.295072
752.791905,-1776.494261,1302.362347,10732.986159
752.792235,-1702.473667,153.219100,9252.574275
752.792564,-1480.411884,-1608.800546,7920.203579
752.792893,-1776.494261,-2757.943793,7846.182985
752.793223,-1998.556043,-2145.067394,7920.203579
752.793552,-2664.741391,-153.219100,8438.347739
752.793881,-3182.885551,1608.800546,8586.388927
752.794211,-3108.864956,2374.896044,9030.512492
752.794540,-3478.967927,2604.724693,9696.697840
752.794869,-3701.029710,2834.553343,10288.862594
752.795199,-4071.132681,2374.896044,10436.903782
752.795528,-4589.276840,1762.019645,10362.883188
752.795857,-4071.132681,536.266849,10140.821405
752.796186,-3034.844362,-306.438199,9400.615463
752.796516,-740.205942,-1302.362347,9030.512492
752.796845,740.205942,-1225.752797,8216.285956
752.797174,2072.576638,-229.828649,7994.224174
752.797504,2516.700203,612.876398,8808.450710
752.797833,2516.700203,1685.410096,10955.047942
752.798162,296.082377,3907.087040,11843.295072
752.798492,-1184.329507,4979.620737,11769.274478
752.798821,-1258.350101,3907.087040,11029.068536
752.799150,-370.102971,2145.067394,9918.759623
752.799480,518.144159,383.047749,7994.224174
752.799809,888.247130,-2221.676944,6587.832884
752.800138,1036.288319,-2374.896044,6513.812290
752.800468,592.164754,-536.266849,7550.100608
752.800797,-592.164754,689.485948,8808.450710
752.801126,-1480.411884,1838.629195,10066.800811
752.801456,-2812.782580,3140.991542,10584.944971
752.801785,-3478.967927,2681.334243,11103.089130
752.802114,-3923.091493,1991.848295,11325.150913
752.802444,-4367.215058,1532.190996,11473.192101
752.802773,-4589.276840,766.095498,10288.862594
752.803102,-3701.029710,-612.876398,9326.594869
752.803432,-1924.535449,-1378.971896,8586.388927
752.803761,222.061783,-1762.019645,8068.244768
752.804090,2072.576638,-1838.629195,7698.141797
752.804420,3404.947333,-612.876398,7846.182985
752.804749,4071.132681,1532.190996,9178.553681
752.805078,3478.967927,2834.553343,10510.924376
752.805408,1702.473667,4519.963438,11621.233289
752.805737,0.000000,4979.620737,12139.377449
752.806066,-1332.370696,4136.915689,11769.274478
752.806396,-1554.432478,1685.410096,11177.109724
752.806725,-1480.411884,-153.219100,9770.718434
752.807054,-1554.432478,-1532.190996,8142.265362
752.807384,-1924.535449,-2757.943793,7476.080014
752.807713,-2368.659014,-2528.115143,7624.121203
752.808042,-2738.761985,-766.095498,8290.306550
752.808372,-2886.803174,842.705048,8512.368333
752.808701,-3701.029710,2145.067394,9474.636058
752.809030,-3701.029710,2681.334243,9622.677246
752.809360,-3627.009116,2604.724693,9918.759623
752.809689,-3404.947333,2068.457845,10140.821405
752.810018,-3478.967927,1685.410096,9918.759623
752.810348,-3330.926739,1149.143247,9696.697840
752.810677,-2368.659014,153.219100,9400.615463
752.811006,-962.267725,-536.266849,8808.450710
752.811336,814.226536,-689.485948,8660.409521
752.811665,1924.535449,-306.438199,8068.244768
752.811994,2664.741391,1072.533697,8586.388927
752.812324,2146.597232,1455.581446,10288.862594
752.812653,444.123565,3140.991542,12065.356855
752.812982,-1628.453072,4673.182538,12287.418637
752.813311,-2368.659014,3983.696590,11399.171507
752.813641,-1554.432478,2145.067394,9548.656652
752.813970,0.000000,0.000000,8660.409521
752.814299,1036.288319,-2221.676944,6661.853478
752.814629,1480.411884,-2451.505594,6217.729913
752.814958,1184.329507,-995.924147,6809.894666
752.815287,370.102971,766.095498,8290.306550
752.815617,-666.185348,2451.505594,10066.800811
752.815946,-1924.535449,3524.039291,11103.089130
752.816275,-2738.761985,3140.991542,11547.212695
752.816605,-3701.029710,2298.286494,11473.192101
752.816934,-4219.173869,1991.848295,10807.006753
752.817263,-4219.173869,689.485948,10510.924376
752.817593,-3478.967927,-995.924147,9770.718434
752.817922,-2146.597232,-1838.629195,8512.368333
752.818251,0.000000,-2068.457845,7698.141797
752.818581,2146.597232,-2298.286494,7550.100608
752.818910,3627.009116,-689.485948,7994.224174
752.819239,4145.153275,612.876398,9178.553681
752.819569,3182.885551,2221.676944,10510.924376
752.819898,1702.473667,3907.087040,11991.336260
752.820227,0.000000,4979.620737,12139.377449
752.820557,-1406.391290,4826.401637,11843.295072
752.820886,-1628.453072,2298.286494,11251.130318
752.821215,-1036.288319,-229.828649,9770.718434
752.821545,-888.247130,-1991.848295,8512.368333
752.821874,-1110.308913,-2681.334243,7698.141797
752.822203,-1628.453072,-2068.457845,7624.121203
752.822533,-2368.659014,-383.047749,8364.327145
752.822862,-2516.700203,1072.533697,9474.636058
752.823191,-3330.926739,2757.943793,9326.594869
752.823521,-3182.885551,3140.991542,9252.574275
752.823850,-3182.885551,2681.334243,9622.677246
752.824179,-3552.988522,1838.629195,9992.780217
752.824509,-4441.235652,1838.629195,10436.903782
752.824838,-4811.338623,919.314598,10510.924376
752.825167,-4219.173869,612.876398,9770.718434
752.825497,-2442.679609,-842.705048,9252.574275
752.825826,-296.082377,-1532.190996,8586.388927
752.826155,1258.350101,-995.924147,8142.265362
752.826485,2516.700203,383.047749,8512.368333
752.826814,1924.535449,1991.848295,9474.636058
752.827143,666.185348,3294.210641,10881.027347
752.827473,-592.164754,4596.572988,11917.315666
752.827802,-1480.411884,4596.572988,11769.274478
752.828131,-1110.308913,2911.162892,10658.965565
752.828461,-222.061783,842.705048,8956.491898
752.828790,1036.288319,-1225.752797,7179.997637
752.829119,2146.597232,-1685.410096,6365.771101
752.829449,1702.473667,-1378.971896,6217.729913
752.829778,592.164754,306.438199,7698.141797
752.830107,-592.164754,2221.676944,9622.677246
752.830436,-2072.576638,3217.601092,10584.944971
752.830766,-2738.761985,2911.162892,11251.130318
752.831095,-3182.885551,2451.505594,11399.171507
752.831424,-3404.947333,2068.457845,11325.150913
752.831754,-4145.153275,1072.533697,10510.924376
752.832083,-4071.132681,-229.828649,9844.739029
752.832412,-2960.823768,-1532.190996,8808.450710
752.832742,-962.267725,-2298.286494,8364.327145
752.833071,444.123565,-1915.238745,7550.100608
752.833400,2516.700203,-1149.143247,8142.265362
752.833730,3404.947333,612.876398,8586.388927
752.834059,3034.844362,1838.629195,9844.739029
752.834388,2072.576638,3370.820191,11177.109724
752.834718,296.082377,4519.963438,11843.295072
752.835047,-592.164754,4443.353888,11991.336260
752.835376,-1332.370696,2681.334243,11695.253884
752.835706,-1480.411884,689.485948,10658.965565
752.836035,-1184.329507,-1225.752797,9178.553681
752.836364,-740.205942,-2528.115143,7698.141797
752.836694,-1258.350101,-3064.381992,7476.080014
752.837023,-1702.473667,-1302.362347,8216.285956
752.837352,-2368.659014,306.438199,9104.533087
752.837682,-2960.823768,2145.067394,9770.718434
752.838011,-3182.885551,2528.115143,9770.718434
752.838340,-3478.967927,2987.772442,9844.739029
752.838670,-3478.967927,2451.505594,9918.759623
752.838999,-3923.091493,1685.410096,10066.800811
752.839328,-4219.173869,919.314598,10066.800811
752.839658,-3923.091493,0.000000,9400.615463
752.839987,-2368.659014,-383.047749,9104.533087
752.840316,-814.226536,-1532.190996,8586.388927
752.840646,370.102971,-1225.752797,8512.368333
752.840975,1628.453072,0.000000,8586.388927
752.841304,1776.494261,1608.800546,9400.615463
752.841634,962.267725,2604.724693,10584.944971
752.841963,-592.164754,3753.867940,11621.233289
752.842292,-1332.370696,3830.477490,11843.295072
752.842622,-962.267725,3217.601092,10881.027347
752.842951,-296.082377,995.924147,9178.553681
752.843280,962.267725,-995.924147,7328.038826
752.843610,1702.473667,-1838.629195,6513.812290
752.843938,1480.411884,-1915.238745,6513.812290
752.844267,888.247130,-306.438199,7920.203579
752.844596,-296.082377,1378.971896,9474.636058
752.844926,-1702.473667,3140.991542,10510.924376
752.845255,-2516.700203,3064.381992,11103.089130
752.845584,-3330.926739,2451.505594,11547.212695
752.845914,-3701.029710,2451.505594,11399.171507
752.846243,-3997.112087,1532.190996,10881.027347
752.846572,-3923.091493,306.438199,9918.759623
752.846902,-2590.720797,-842.705048,8882.471304
752.847231,-1110.308913,-1762.019645,8142.265362
752.847560,888.247130,-1838.629195,7772.162391
752.847889,2442.679609,-995.924147,7698.141797
752.848219,3404.947333,153.219100,8068.244768
752.848548,3182.885551,1532.190996,9252.574275
752.848877,2072.576638,3753.867940,10584.944971
752.849207,592.164754,4673.182538,11695.253884
752.849536,-296.082377,4749.792088,11843.295072
752.849865,-1406.391290,3370.820191,11621.233289
752.850195,-1554.432478,1378.971896,10658.965565
752.850524,-1480.411884,-842.705048,8882.471304
752.850853,-1110.308913,-2221.676944,7994.224174
752.851183,-1332.370696,-2451.505594,7328.038826
752.851512,-1554.432478,-1915.238745,7846.182985
752.851841,-2368.659014,-153.219100,8290.306550
752.852171,-2738.761985,1838.629195,8956.491898
752.852500,-2738.761985,2681.334243,9696.697840
752.852829,-3330.926739,3140.991542,9696.697840
752.853159,-3256.906145,2834.553343,9918.759623
752.853488,-3627.009116,1915.238745,10066.800811
752.853817,-3775.050304,1225.752797,9992.780217
752.854146,-3478.967927,612.876398,9770.718434
752.854476,-2886.803174,-689.485948,9178.553681
752.854805,-1480.411884,-1685.410096,8734.430116
752.855134,148.041188,-1838.629195,8660.409521
752.855464,1406.391290,-1302.362347,9030.512492
752.855793,1924.535449,612.876398,9696.697840
752.856122,518.144159,2604.724693,10658.965565
752.856452,-1036.288319,3753.867940,11251.130318
752.856781,-1406.391290,3677.258390,11843.295072
752.857110,-1110.308913,3217.601092,11399.171507
752.857440,-444.123565,1608.800546,9844.739029
752.857769,666.185348,-766.095498,8068.244768
752.858098,962.267725,-1455.581446,7031.956449
752.858428,1110.308913,-1532.190996,6809.894666
752.858757,666.185348,-766.095498,7402.059420
752.859086,0.000000,689.485948,8734.430116
752.859415,-1702.473667,2834.553343,10214.842000
752.859745,-2664.741391,2987.772442,11399.171507
752.860074,-3627.009116,2681.334243,11843.295072
752.860403,-4367.215058,2374.896044,11325.150913
752.860733,-4219.173869,1532.190996,11399.171507
752.861062,-4219.173869,229.828649,10362.883188
752.861391,-3182.885551,-842.705048,9400.615463
752.861721,-1554.432478,-1685.410096,8216.285956
752.862050,444.123565,-1991.848295,7772.162391
752.862379,2220.617826,-1225.752797,7476.080014
752.862709,3182.885551,153.219100,7624.121203
752.863038,3701.029710,1149.143247,8956.491898
752.863367,2590.720797,2987.772442,10214.842000
752.863697,1184.329507,4596.572988,11103.089130
752.864026,0.000000,4749.792088,11621.233289
752.864355,-962.267725,3907.087040,11473.192101
752.864684,-1480.411884,2451.505594,10732.986159
752.865014,-1554.432478,76.609550,9474.636058
752.865343,-1406.391290,-1532.190996,8512.368333
752.865672,-1480.411884,-2145.067394,7698.141797
752.866002,-2146.597232,-1762.019645,7846.182985
752.866331,-2368.659014,-383.047749,8882.471304
752.866660,-2886.803174,1302.362347,9252.574275
752.866990,-3404.947333,2374.896044,9474.636058
752.867319,-3478.967927,2911.162892,9770.718434
752.867648,-3478.967927,2681.334243,10140.821405
752.867978,-3182.885551,2298.286494,10214.842000
752.868307,-3552.988522,1149.143247,10066.800811
752.868636,-3478.967927,842.705048,9918.759623
752.868966,-2368.659014,-153.219100,9696.697840
752.869295,-888.247130,-919.314598,9030.512492
752.869624,740.205942,-1302.362347,9030.512492
752.869954,2146.597232,0.000000,8438.347739
752.870283,2368.659014,612.876398,9474.636058
752.870612,1776.494261,1838.629195,10658.965565
752.870941,0.000000,3600.648841,11621.233289
752.871271,-1332.370696,3677.258390,11325.150913
752.871600,-1480.411884,3370.820191,10658.965565
752.871929,-888.247130,1608.800546,9474.636058
752.872259,0.000000,-689.485948,8068.244768
752.872588,666.185348,-1991.848295,7031.956449
752.872917,814.226536,-2145.067394,6587.832884
752.873247,740.205942,-229.828649,6957.935855
752.873576,0.000000,612.876398,8438.347739
752.873905,-1258.350101,1762.019645,9696.697840
752.874235,-2516.700203,2834.553343,10955.047942
752.874564,-3478.967927,2757.943793,11473.192101
752.874893,-3849.070898,2681.334243,11399.171507
752.875223,-4145.153275,1532.190996,11103.089130
752.875552,-3997.112087,153.219100,10584.944971
752.875881,-3034.844362,-1149.143247,9474.636058
752.876210,-1332.370696,-1838.629195,8512.368333
752.876540,444.123565,-2068.457845,7846.182985
752.876869,2442.679609,-1608.800546,7624.121203
752.877198,3330.926739,0.000000,8364.327145
752.877528,3627.009116,1532.190996,9400.615463
752.877857,2590.720797,3370.820191,10362.883188
752.878186,1258.350101,4519.963438,11473.192101
752.878516,148.041188,4366.744339,11843.295072
752.878845,-1628.453072,3907.087040,11769.274478
752.879174,-1998.556043,2145.067394,10807.006753
752.879504,-1776.494261,-306.438199,9770.718434
752.879833,-1480.411884,-1532.190996,8438.347739
752.880162,-1628.453072,-2451.505594,7328.038826
752.880492,-1998.556043,-2145.067394,7846.182985
752.880821,-2516.700203,-383.047749,8364.327145
752.881150,-2960.823768,1685.410096,8512.368333
752.881480,-3256.906145,2681.334243,9030.512492
752.881809,-3108.864956,2604.724693,9474.636058
752.882138,-2960.823768,3064.381992,10288.862594
752.882467,-3627.009116,2374.896044,10288.862594
752.882797,-3775.050304,1455.581446,10214.842000
752.883126,-3627.009116,842.705048,9844.739029
752.883455,-2590.720797,-383.047749,9400.615463
752.883785,-740.205942,-1072.533697,8068.244768
752.884114,740.205942,-1149.143247,8068.244768
752.884443,1998.556043,-306.438199,8216.285956
752.884773,2590.720797,153.219100,8956.491898
752.885102,1924.535449,1608.800546,10436.903782
752.885431,370.102971,3753.867940,11843.295072
752.885761,-1258.350101,4749.792088,11917.315666
752.886090,-1480.411884,4060.306139,11399.171507
752.886419,-962.267725,2451.505594,10140.821405
752.886749,-444.123565,76.609550,8438.347739
752.887078,370.102971,-1915.238745,6957.935855
752.887407,740.205942,-1991.848295,6661.853478
752.887736,370.102971,-1072.533697,7105.977043
752.888066,-370.102971,306.438199,8216.285956
752.888395,-1406.391290,1455.581446,9474.636058
752.888724,-2368.659014,2451.505594,10658.965565
752.889054,-2812.782580,2681.334243,11399.171507
752.889383,-3627.009116,2528.115143,11695.253884
752.889712,-4145.153275,2068.457845,11695.253884
752.890042,-4293.194464,842.705048,10732.986159
752.890371,-3478.967927,-459.657299,9844.739029
752.890700,-1776.494261,-1532.190996,8438.347739
752.891030,444.123565,-2221.676944,7994.224174
752.891359,1924.535449,-1762.019645,7846.182985
752.891688,2812.782580,-459.657299,7698.141797
752.892018,3552.988522,689.485948,8660.409521
752.892347,2812.782580,2451.505594,9696.697840
752.892676,1702.473667,4290.134789,11029.068536
752.893006,0.000000,4596.572988,11843.295072
752.893335,-1406.391290,4060.306139,11547.212695
752.893664,-1850.514855,2374.896044,10955.047942
752.893993,-1924.535449,76.609550,9992.780217
752.894323,-1406.391290,-1378.971896,8660.409521
752.894652,-2146.597232,-2221.676944,7550.100608
752.894981,-2220.617826,-2451.505594,8068.244768
752.895311,-2516.700203,-383.047749,8290.306550
752.895640,-2960.823768,1455.581446,8216.285956
752.895969,-2664.741391,1685.410096,9030.512492
752.896299,-3034.844362,2528.115143,9696.697840
752.896628,-3552.988522,2911.162892,10362.883188
752.896957,-4145.153275,2604.724693,10510.924376
752.897287,-4515.256246,1838.629195,10658.965565
752.897616,-4145.153275,612.876398,9918.759623
752.897945,-2812.782580,0.000000,9622.677246
752.898275,-888.247130,-1532.190996,9104.533087
752.898604,1036.288319,-1455.581446,8438.347739
752.898933,2294.638420,-383.047749,8068.244768
752.899262,3256.906145,306.438199,8882.471304
752.899592,2886.803174,1762.019645,10510.924376
752.899921,1036.288319,3677.258390,11769.274478
752.900250,-888.247130,4519.963438,11843.295072
752.900580,-1554.432478,4213.525239,11473.192101
752.900909,-962.267725,2604.724693,10510.924376
752.901238,-370.102971,383.047749,8290.306550
752.901568,592.164754,-1455.581446,6957.935855
752.901897,740.205942,-2221.676944,6661.853478
752.902226,296.082377,-1149.143247,7031.956449
752.902556,-444.123565,153.219100,7994.224174
752.902885,-1258.350101,1532.190996,9400.615463
752.903214,-1998.556043,2834.553343,10362.883188
752.903544,-2812.782580,2911.162892,10955.047942
752.903873,-3404.947333,2757.943793,11325.150913
752.904202,-3997.112087,2298.286494,11177.109724
752.904532,-4219.173869,689.485948,10362.883188
752.904861,-3478.967927,-306.438199,9622.677246
752.905190,-2146.597232,-1378.971896,9104.533087
752.905519,0.000000,-1685.410096,7920.203579
752.905849,1554.432478,-1838.629195,7846.182985
752.906178,3182.885551,-689.485948,7846.182985
752.906507,4071.132681,689.485948,8364.327145
752.906837,3775.050304,2681.334243,10288.862594
752.907166,2146.597232,4366.744339,11399.171507
752.907495,222.061783,5132.839837,11843.295072
752.907825,-1036.288319,4749.792088,11917.315666
752.908154,-2220.617826,2911.162892,11473.192101
752.908483,-1998.556043,995.924147,10214.842000
752.908813,-2146.597232,-995.924147,8808.450710
752.909142,-2072.576638,-2451.505594,7476.080014
752.909471,-2368.659014,-3064.381992,7402.059420
752.909801,-2516.700203,-1378.971896,7994.224174
752.910130,-2738.761985,612.876398,8290.306550
752.910459,-2886.803174,1685.410096,8438.347739
752.910788,-2960.823768,2681.334243,9474.636058
752.911118,-3330.926739,2834.553343,9992.780217
752.911447,-3552.988522,2834.553343,10510.924376
752.911776,-3849.070898,1991.848295,10288.862594
752.912106,-4145.153275,1455.581446,10214.842000
752.912435,-3404.947333,76.609550,9918.759623
752.912764,-1776.494261,-1455.581446,9326.594869
752.913094,0.000000,-2451.505594,8438.347739
752.913423,1406.391290,-1378.971896,7846.182985
752.913752,2590.720797,-229.828649,8586.388927
752.914082,2294.638420,1072.533697,9992.780217
752.914411,814.226536,3064.381992,11399.171507
752.914740,-666.185348,4366.744339,11621.233289
752.915070,-1036.288319,4443.353888,11843.295072
752.915399,-592.164754,2757.943793,10436.903782
752.915728,0.000000,1149.143247,9104.533087
752.916057,592.164754,-1225.752797,7846.182985
752.916387,814.226536,-2221.676944,6883.915261
752.916716,518.144159,-1378.971896,7105.977043
752.917045,0.000000,-383.047749,8216.285956
752.917375,-888.247130,1302.362347,9400.615463
752.917704,-2294.638420,2757.943793,10362.883188
752.918033,-2812.782580,2757.943793,10955.047942
752.918363,-3256.906145,2528.115143,11177.109724
752.918692,-3552.988522,2221.676944,11251.130318
752.919021,-3627.009116,1455.581446,10955.047942
752.919351,-3627.009116,76.609550,9844.739029
752.919680,-2368.659014,-919.314598,9030.512492
752.920009,-370.102971,-1685.410096,8142.265362
752.920339,1554.432478,-1915.238745,7624.121203
752.920668,2886.803174,-1302.362347,7254.018232
752.920997,3108.864956,306.438199,8438.347739
752.921327,2812.782580,1991.848295,9474.636058
752.921656,1480.411884,3294.210641,10807.006753
752.921985,0.000000,4519.963438,11769.274478
752.922314,-1406.391290,4519.963438,11695.253884
752.922644,-1628.453072,3447.429741,11547.212695
752.922973,-1776.494261,1302.362347,10510.924376
752.923302,-1480.411884,-612.876398,9252.574275
752.923632,-1554.432478,-1991.848295,8068.244768
752.923961,-2072.576638,-2298.286494,7476.080014
752.924290,-2368.659014,-1608.800546,8068.244768
752.924620,-2738.761985,536.266849,8290.306550
752.924949,-3256.906145,1532.190996,8512.368333
752.925278,-3182.885551,1915.238745,9400.615463
752.925608,-3182.885551,2298.286494,10140.821405
752.925937,-3404.947333,2451.505594,10510.924376
752.926266,-3923.091493,1915.238745,10881.027347
752.926596,-4293.194464,1455.581446,10436.903782
752.926925,-3182.885551,459.657299,9992.780217
752.927254,-1554.432478,-842.705048,9326.594869
752.927583,0.000000,-1838.629195,8586.388927
752.927913,1924.535449,-766.095498,8068.244768
752.928242,2442.679609,76.609550,8586.388927
752.928571,2294.638420,1149.143247,10066.800811
752.928901,814.226536,2834.553343,11621.233289
752.929230,-888.247130,4136.915689,12065.356855
752.929559,-1480.411884,4136.915689,11769.274478
752.929889,-1406.391290,2681.334243,10732.986159
752.930218,-518.144159,766.095498,9030.512492
752.930547,444.123565,-1225.752797,7254.018232
752.930877,1036.288319,-2374.896044,6587.832884
752.931206,1258.350101,-1838.629195,6661.853478
752.931535,222.061783,229.828649,7328.038826
752.931865,-370.102971,1225.752797,9104.533087
752.932194,-1332.370696,2451.505594,10066.800811
752.932523,-2072.576638,2987.772442,11029.068536
752.932853,-2590.720797,3140.991542,11621.233289
752.933182,-3330.926739,2451.505594,11399.171507
752.933511,-3923.091493,1762.019645,10881.027347
752.933840,-3627.009116,76.609550,9992.780217
752.934170,-2516.700203,-1378.971896,9104.533087
752.934499,-222.061783,-1608.800546,8734.430116
752.934828,1480.411884,-1455.581446,8068.244768
752.935158,2368.659014,-1149.143247,7846.182985
752.935487,3404.947333,306.438199,8512.368333
752.935816,3108.864956,1991.848295,9770.718434
752.936146,2072.576638,3370.820191,10881.027347
752.936475,592.164754,4596.572988,11547.212695
752.936804,-888.247130,4903.011187,11991.336260
752.937134,-1924.535449,3524.039291,11843.295072
752.937463,-2220.617826,1225.752797,10732.986159
752.937792,-1924.535449,-689.485948,9400.615463
752.938122,-1850.514855,-2068.457845,7920.203579
752.938451,-1924.535449,-3064.381992,7402.059420
752.938780,-1998.556043,-1608.800546,7994.224174
752.939109,-1924.535449,76.609550,8660.409521
752.939439,-2368.659014,1608.800546,9104.533087
752.939768,-2516.700203,3064.381992,9326.594869
752.940097,-2072.576638,3140.991542,9474.636058
752.940427,-2886.803174,3217.601092,9474.636058
752.940756,-2960.823768,2528.115143,10066.800811
752.941085,-3627.009116,1685.410096,10140.821405
752.941415,-3627.009116,459.657299,9622.677246
752.941744,-2516.700203,-459.657299,9400.615463
752.942073,-1036.288319,-1915.238745,8734.430116
752.942403,222.061783,-1685.410096,8586.388927
752.942732,1184.329507,-536.266849,8438.347739
752.943061,1480.411884,612.876398,9104.533087
752.943391,666.185348,2221.676944,10658.965565
752.943720,-814.226536,3524.039291,12213.398043
752.944049,-1998.556043,4290.134789,11991.336260
752.944379,-1924.535449,3370.820191,11325.150913
752.944708,-1332.370696,1455.581446,9622.677246
752.945037,0.000000,-689.485948,7994.224174
752.945366,1480.411884,-2374.896044,6439.791695
752.945696,1480.411884,-2987.772442,6291.750507
752.946025,888.247130,-995.924147,7179.997637
752.946354,148.041188,1072.533697,8882.471304
752.946684,-962.267725,2374.896044,10436.903782
752.947013,-1628.453072,3370.820191,11473.192101
752.947342,-2664.741391,3370.820191,11325.150913
752.947671,-3034.844362,2528.115143,11251.130318
752.948001,-3552.988522,1838.629195,11251.130318
752.948330,-3701.029710,766.095498,10881.027347
752.948659,-3478.967927,0.000000,9770.718434
752.948988,-2516.700203,-1608.800546,8438.347739
752.949318,-222.061783,-2221.676944,7846.182985
752.949647,1480.411884,-2221.676944,7624.121203
752.949976,2442.679609,-689.485948,7920.203579
752.950305,2886.803174,1225.752797,8808.450710
752.950635,1924.535449,3217.601092,9992.780217
752.950964,592.164754,4136.915689,11399.171507
752.951293,-740.205942,4290.134789,11843.295072
752.951623,-1702.473667,3753.867940,11769.274478
752.951952,-1924.535449,2221.676944,10807.006753
752.952281,-1406.391290,383.047749,9474.636058
752.952610,-1110.308913,-1532.190996,8216.285956
752.952940,-814.226536,-2298.286494,7624.121203
752.953269,-1258.350101,-1915.238745,7846.182985
752.953598,-2072.576638,-229.828649,8438.347739
752.953927,-2368.659014,919.314598,9030.512492
752.954257,-2590.720797,2604.724693,9622.677246
752.954586,-2812.782580,2681.334243,9992.780217
752.954915,-3108.864956,2911.162892,10436.903782
752.955244,-3108.864956,2298.286494,10362.883188
752.955574,-3552.988522,1378.971896,9770.718434
752.955903,-3108.864956,0.000000,9104.533087
752.956232,-2368.659014,-306.438199,8882.471304
752.956562,-962.267725,-842.705048,8734.430116
752.956891,148.041188,-1149.143247,8364.327145
752.957220,1406.391290,-689.485948,8438.347739
752.957549,1924.535449,689.485948,9252.574275
752.957879,888.247130,2298.286494,10584.944971
752.958208,-592.164754,3370.820191,11843.295072
752.958537,-2072.576638,4213.525239,12139.377449
752.958866,-2072.576638,3677.258390,11399.171507
752.959196,-1184.329507,1685.410096,9844.739029
752.959525,148.041188,-459.657299,8068.244768
752.959854,1184.329507,-2221.676944,6735.874072
752.960183,1776.494261,-2451.505594,6513.812290
752.960513,1628.453072,-766.095498,7105.977043
752.960842,518.144159,842.705048,8512.368333
752.961171,-296.082377,2374.896044,9770.718434
752.961501,-1480.411884,3064.381992,10807.006753
752.961830,-2516.700203,3140.991542,11325.150913
752.962159,-3034.844362,2374.896044,11399.171507
752.962488,-3701.029710,1225.752797,11325.150913
752.962818,-4145.153275,459.657299,10658.965565
752.963147,-3478.967927,-919.314598,9918.759623
752.963476,-2294.638420,-1608.800546,8956.491898
752.963805,-296.082377,-1915.238745,7846.182985
752.964135,1850.514855,-1991.848295,7846.182985
752.964464,2886.803174,-1302.362347,7846.182985
752.964793,3478.967927,1532.190996,9030.512492
752.965122,2442.679609,3064.381992,10214.842000
752.965452,814.226536,4366.744339,11399.171507
752.965781,-740.205942,4979.620737,11769.274478
752.966110,-1702.473667,3983.696590,11769.274478
752.966440,-1924.535449,2221.676944,11029.068536
752.966769,-1480.411884,0.000000,9770.718434
752.967098,-1110.308913,-1685.410096,8586.388927
752.967427,-1332.370696,-2451.505594,7772.162391
752.967757,-1480.411884,-2068.457845,7624.121203
752.968086,-1332.370696,-612.876398,8142.265362
752.968415,-2072.576638,1991.848295,8660.409521
752.968744,-2590.720797,2604.724693,9548.656652
752.969074,-2664.741391,3217.601092,10140.821405
752.969403,-2960.823768,3140.991542,10436.903782
752.969732,-3404.947333,2528.115143,9548.656652
752.970061,-3775.050304,1762.019645,9622.677246
752.970391,-3849.070898,459.657299,9474.636058
752.970720,-2886.803174,-229.828649,9104.533087
752.971049,-1554.432478,-1225.752797,8734.430116
752.971379,148.041188,-1532.190996,8142.265362
752.971708,1480.411884,-306.438199,7698.141797
752.972037,1998.556043,76.609550,9326.594869
752.972366,1406.391290,1915.238745,10955.047942
752.972696,-148.041188,3907.087040,11695.253884
752.973025,-1702.473667,4596.572988,11695.253884
752.973354,-1924.535449,3294.210641,11325.150913
752.973683,-888.247130,2068.457845,9770.718434
752.974013,0.000000,-229.828649,8586.388927
752.974342,1110.308913,-1838.629195,7105.977043
752.974671,1480.411884,-2068.457845,6735.874072
752.975000,1332.370696,-1455.581446,6883.915261
752.975330,74.020594,459.657299,8364.327145
752.975659,-888.247130,1762.019645,9770.718434
752.975988,-1628.453072,2987.772442,10807.006753
752.976318,-2664.741391,2987.772442,11251.130318
752.976647,-3330.926739,2298.286494,11473.192101
752.976976,-3775.050304,1608.800546,11029.068536
752.977305,-4367.215058,536.266849,10288.862594
752.977635,-3404.947333,-995.924147,9696.697840
752.977964,-2294.638420,-1532.190996,8882.471304
752.978293,-666.185348,-2221.676944,8216.285956
752.978622,1036.288319,-2374.896044,7624.121203
752.978952,2072.576638,-842.705048,8068.244768
752.979281,2960.823768,766.095498,8882.471304
752.979610,2368.659014,2298.286494,10288.862594
752.979939,740.205942,3907.087040,11325.150913
752.980269,-888.247130,4903.011187,11621.233289
752.980598,-1406.391290,4596.572988,11621.233289
752.980927,-2072.576638,2451.505594,11029.068536
752.981257,-1554.432478,229.828649,9770.718434
752.981586,-1332.370696,-1455.581446,8364.327145
752.981915,-1110.308913,-2298.286494,7476.080014
752.982244,-1332.370696,-2221.676944,7105.977043
752.982574,-1776.494261,-383.047749,7994.224174
752.982903,-2442.679609,1225.752797,8660.409521
752.983232,-2664.741391,2145.067394,9474.636058
752.983561,-3034.844362,2911.162892,9992.780217
752.983891,-3552.988522,2987.772442,10140.821405
752.984220,-3849.070898,2451.505594,10362.883188
752.984549,-3552.988522,1762.019645,10214.842000
752.984878,-3404.947333,919.314598,9918.759623
752.985208,-2812.782580,0.000000,9252.574275
752.985537,-1406.391290,-689.485948,8808.450710
752.985866,222.061783,-842.705048,8216.285956
752.986196,1036.288319,-383.047749,8216.285956
752.986525,1924.535449,0.000000,9252.574275
752.986854,1480.411884,1149.143247,10881.027347
752.987183,-222.061783,3140.991542,11991.336260
752.987513,-1776.494261,3677.258390,11769.274478
752.987842,-1998.556043,3600.648841,11843.295072
752.988171,-1258.350101,2451.505594,10214.842000
752.988500,148.041188,0.000000,8068.244768
752.988830,1702.473667,-1838.629195,6513.812290
752.989159,2812.782580,-2451.505594,5847.626942
752.989488,1924.535449,-1149.143247,6439.791695
752.989817,1036.288319,842.705048,7994.224174
752.990147,74.020594,2604.724693,9992.780217
752.990476,-1480.411884,3600.648841,10732.986159
752.990805,-2738.761985,3294.210641,11177.109724
752.991134,-3182.885551,2834.553343,11103.089130
752.991464,-4071.132681,1685.410096,11399.171507
752.991793,-4737.318029,76.609550,10658.965565
752.992122,-4441.235652,-1302.362347,10140.821405
752.992452,-3256.906145,-1915.238745,9178.553681
752.992781,-1036.288319,-2221.676944,8364.327145
752.993110,1332.370696,-2528.115143,7846.182985
752.993439,2812.782580,-1225.752797,7994.224174
752.993769,3478.967927,612.876398,8586.388927
752.994098,3034.844362,2374.896044,10140.821405
752.994427,1702.473667,4060.306139,11325.150913
752.994756,0.000000,4903.011187,11917.315666
752.995086,-1406.391290,4749.792088,12139.377449
752.995415,-1628.453072,2451.505594,11769.274478
752.995744,-1258.350101,459.657299,10436.903782
752.996073,-888.247130,-1225.752797,9104.533087
752.996403,-962.267725,-2834.553343,7624.121203
752.996732,-1184.329507,-2145.067394,7476.080014
752.997061,-1702.473667,-536.266849,7846.182985
752.997391,-2072.576638,1149.143247,9030.512492
752.997720,-2664.741391,2681.334243,9400.615463
752.998049,-3182.885551,3677.258390,9844.739029
752.998378,-3701.029710,3447.429741,9844.739029
752.998708,-3849.070898,2528.115143,9918.759623
752.999037,-4293.194464,1378.971896,9992.780217
752.999366,-4663.297435,689.485948,9770.718434
752.999695,-3775.050304,-306.438199,9178.553681
753.000025,-2368.659014,-1532.190996,8882.471304
753.000354,-1110.308913,-1302.362347,8364.327145
753.000683,888.247130,-689.485948,8290.306550
753.001012,2220.617826,153.219100,8586.388927
753.001342,2442.679609,1762.019645,10140.821405
753.001671,888.247130,3370.820191,11547.212695
753.002000,-740.205942,4826.401637,12287.418637
753.002330,-1628.453072,4826.401637,11843.295072
753.002659,-1110.308913,3294.210641,10955.047942
753.002988,0.000000,842.705048,9178.553681
753.003317,1406.391290,-1838.629195,7105.977043
753.003647,1924.535449,-2681.334243,6217.729913
753.003976,1702.473667,-1685.410096,6439.791695
753.004305,592.164754,0.000000,7624.121203
753.004634,0.000000,1608.800546,9400.615463
753.004964,-1480.411884,2757.943793,10732.986159
753.005293,-2442.679609,3217.601092,11325.150913
753.005622,-3701.029710,2987.772442,11621.233289
753.005951,-4219.173869,2145.067394,11251.130318
753.006281,-4663.297435,995.924147,10807.006753
753.006610,-4071.132681,0.000000,9992.780217
753.006939,-3182.885551,-1838.629195,9178.553681
753.007269,-1628.453072,-1991.848295,8438.347739
753.007598,222.061783,-2145.067394,7846.182985
753.007927,2220.617826,-1378.971896,7846.182985
753.008256,3108.864956,76.609550,8290.306550
753.008586,3182.885551,1915.238745,9474.636058
753.008915,2072.576638,3217.601092,10807.006753
753.009244,592.164754,4826.401637,11621.233289
753.009573,-666.185348,4826.401637,11769.274478
753.009903,-1258.350101,2987.772442,11695.253884
753.010232,-1332.370696,919.314598,10658.965565
753.010561,-1480.411884,-689.485948,8808.450710
753.010890,-1036.288319,-2068.457845,7994.224174
753.011220,-1184.329507,-2451.505594,7624.121203
753.011549,-1924.535449,-1378.971896,7846.182985
753.011878,-2220.617826,76.609550,8512.368333
753.012208,-2738.761985,1915.238745,9696.697840
753.012537,-3182.885551,2911.162892,9844.739029
753.012866,-3701.029710,3064.381992,10066.800811
753.013195,-3775.050304,2451.505594,10288.862594
753.013525,-3923.091493,1302.362347,10140.821405
753.013854,-4145.153275,1225.752797,9918.759623
753.014183,-3775.050304,0.000000,9622.677246
753.014512,-2442.679609,-995.924147,9030.512492
753.014842,-1110.308913,-1378.971896,8734.430116
753.015171,518.144159,-995.924147,8512.368333
753.015500,1850.514855,76.609550,8438.347739
753.015829,1702.473667,1072.533697,9622.677246
753.016159,888.247130,2757.943793,11251.130318
753.016488,-740.205942,4213.525239,11843.295072
753.016817,-1554.432478,4443.353888,11695.253884
753.017147,-1332.370696,3370.820191,10288.862594
753.017476,0.000000,1378.971896,8512.368333
753.017805,1184.329507,-919.314598,7402.059420
753.018134,1998.556043,-1991.848295,6439.791695
753.018464,1702.473667,-1685.410096,6365.771101
753.018793,1184.329507,-153.219100,7402.059420
753.019122,0.000000,1838.629195,8734.430116
753.019451,-888.247130,2911.162892,10436.903782
753.019781,-2294.638420,3370.820191,11325.150913
753.020110,-3108.864956,2987.772442,11769.274478
753.020439,-3997.112087,2528.115143,11325.150913
753.020768,-4367.215058,1608.800546,10510.924376
753.021098,-4071.132681,-612.876398,9918.759623
753.021427,-2960.823768,-1378.971896,9178.553681
753.021756,-1480.411884,-1991.848295,8216.285956
753.022086,296.082377,-1838.629195,7624.121203
753.022415,2294.638420,-1302.362347,7698.141797
753.022744,3404.947333,229.828649,8216.285956
753.023073,3404.947333,1762.019645,9474.636058
753.023403,2516.700203,3447.429741,10955.047942
753.023732,1036.288319,4826.401637,11695.253884
753.024061,-222.061783,4979.620737,12139.377449
753.024390,-740.205942,3140.991542,11621.233289
753.024720,-1036.288319,1072.533697,11103.089130
753.025049,-1332.370696,-612.876398,9474.636058
753.025378,-1110.308913,-1838.629195,8216.285956
753.025707,-1332.370696,-2911.162892,7476.080014
753.026037,-1480.411884,-1838.629195,7550.100608
753.026366,-1998.556043,0.000000,8216.285956
753.026695,-2516.700203,1838.629195,8956.491898
753.027025,-2960.823768,2681.334243,9252.574275
753.027354,-3108.864956,2681.334243,9844.739029
753.027683,-3627.009116,2451.505594,9992.780217
753.028012,-4441.235652,2145.067394,10510.924376
753.028342,-4219.173869,842.705048,10584.944971
753.028671,-4145.153275,153.219100,10362.883188
753.029000,-3404.947333,-306.438199,9474.636058
753.029329,-1702.473667,-2145.067394,8808.450710
753.029659,296.082377,-2374.896044,8882.471304
753.029988,1480.411884,-612.876398,8660.409521
753.030317,2072.576638,306.438199,9548.656652
753.030646,1110.308913,2298.286494,10807.006753
753.030976,-444.123565,3983.696590,11029.068536
753.031305,-1332.370696,4673.182538,11399.171507
753.031634,-1036.288319,3830.477490,10658.965565
753.031964,-222.061783,1991.848295,9474.636058
753.032293,592.164754,0.000000,8068.244768
753.032622,888.247130,-1532.190996,6883.915261
753.032951,962.267725,-1302.362347,6587.832884
753.033281,592.164754,-919.314598,7105.977043
753.033610,-444.123565,229.828649,8512.368333
753.033939,-1702.473667,1915.238745,10066.800811
753.034268,-2886.803174,2681.334243,11325.150913
753.034598,-3701.029710,2834.553343,11769.274478
753.034927,-4145.153275,2451.505594,11251.130318
753.035256,-4293.194464,1685.410096,10807.006753
753.035585,-3849.070898,306.438199,10140.821405
753.035915,-3034.844362,-919.314598,9400.615463
753.036244,-1628.453072,-1685.410096,8586.388927
753.036573,148.041188,-1072.533697,7994.224174
753.036902,1776.494261,-1915.238745,7772.162391
753.037232,2886.803174,0.000000,8438.347739
753.037561,3256.906145,1072.533697,9474.636058
753.037890,2442.679609,2757.943793,10436.903782
753.038220,1480.411884,4136.915689,11769.274478
753.038549,0.000000,4903.011187,11769.274478
753.038878,-1110.308913,3983.696590,11695.253884
753.039207,-1554.432478,2221.676944,11103.089130
753.039537,-1184.329507,0.000000,9548.656652
753.039866,-1036.288319,-1225.752797,8216.285956
753.040195,-814.226536,-1685.410096,7031.956449
753.040524,-1554.432478,-1915.238745,7328.038826
753.040854,-2072.576638,-536.266849,8142.265362
753.041183,-2738.761985,1072.533697,8956.491898
753.041512,-3182.885551,2374.896044,9474.636058
753.041841,-3923.091493,3140.991542,9622.677246
753.042171,-3923.091493,2911.162892,9770.718434
753.042500,-3997.112087,1762.019645,10066.800811
753.042829,-3849.070898,995.924147,9918.759623
753.043159,-3404.947333,306.438199,9844.739029
753.043488,-2368.659014,-689.485948,9326.594869
753.043817,-1406.391290,-612.876398,8660.409521
753.044146,296.082377,-766.095498,8586.388927
753.044476,1850.514855,-383.047749,8364.327145
753.044805,2368.659014,536.266849,9548.656652
753.045134,1702.473667,1608.800546,11103.089130
753.045463,0.000000,2911.162892,11547.212695
753.045793,-1554.432478,4136.915689,11769.274478
753.046122,-1924.535449,3294.210641,11251.130318
753.046451,-1110.308913,1685.410096,9844.739029
753.046780,148.041188,-689.485948,8364.327145
753.047110,962.267725,-1762.019645,6587.832884
753.047439,1258.350101,-2221.676944,6587.832884
753.047768,814.226536,-919.314598,7031.956449
753.048098,148.041188,612.876398,8586.388927
753.048427,-1258.350101,2451.505594,9770.718434
753.048756,-2368.659014,3064.381992,10881.027347
753.049085,-3108.864956,3140.991542,11325.150913
753.049415,-4145.153275,2451.505594,11399.171507
753.049744,-4293.194464,1532.190996,11325.150913
753.050073,-4441.235652,306.438199,10436.903782
753.050403,-3330.926739,-766.095498,9844.739029
753.050732,-1628.453072,-1532.190996,8660.409521
753.051061,0.000000,-2068.457845,7994.224174
753.051390,1480.411884,-1532.190996,7550.100608
753.051720,3034.844362,-306.438199,7920.203579
753.052049,3627.009116,1378.971896,8808.450710
753.052378,3182.885551,3064.381992,10140.821405
753.052708,1628.453072,3983.696590,11399.171507
753.053037,0.000000,4749.792088,11917.315666
753.053366,-1036.288319,4290.134789,11769.274478
753.053695,-1702.473667,2221.676944,11251.130318
753.054025,-1480.411884,-153.219100,9622.677246
753.054354,-1036.288319,-1302.362347,8364.327145
753.054683,-1332.370696,-2528.115143,7550.100608
753.055013,-1554.432478,-1915.238745,7254.018232
753.055342,-1924.535449,-229.828649,8068.244768
753.055671,-2220.617826,919.314598,8660.409521
753.056000,-2368.659014,2221.676944,9696.697840
753.056330,-3108.864956,3447.429741,10140.821405
753.056659,-3552.988522,3524.039291,10362.883188
753.056988,-3627.009116,2451.505594,10214.842000
753.057318,-3849.070898,1378.971896,9918.759623
753.057647,-3404.947333,536.266849,9696.697840
753.057976,-2516.700203,-459.657299,9474.636058
753.058306,-1702.473667,-995.924147,8734.430116
753.058635,-296.082377,-995.924147,8364.327145
753.058964,1332.370696,-689.485948,8660.409521
753.059293,2368.659014,229.828649,8956.491898
753.059623,1702.473667,2221.676944,10584.944971
753.059952,444.123565,3677.258390,11473.192101
753.060281,-1110.308913,4903.011187,11621.233289
753.060611,-1332.370696,4136.915689,11325.150913
753.060940,-814.226536,2145.067394,10288.862594
753.061269,-148.041188,459.657299,8956.491898
753.061598,740.205942,-1532.190996,7402.059420
753.061928,1036.288319,-2451.505594,6587.832884
753.062257,740.205942,-1532.190996,7105.977043
753.062586,0.000000,-306.438199,8068.244768
753.062916,-1110.308913,1608.800546,9326.594869
753.063245,-1924.535449,2528.115143,10955.047942
753.063574,-2738.761985,2911.162892,11621.233289
753.063903,-3701.029710,2604.724693,11769.274478
753.064233,-4293.194464,2298.286494,11621.233289
753.064562,-4219.173869,766.095498,10362.883188
753.064891,-3404.947333,-1072.533697,9474.636058
753.065221,-1998.556043,-1608.800546,8956.491898
753.065550,-444.123565,-2068.457845,8142.265362
753.065879,1110.308913,-1915.238745,7846.182985
753.066208,2294.638420,-919.314598,7994.224174
753.066538,3256.906145,766.095498,8290.306550
753.066867,2812.782580,2221.676944,10140.821405
753.067196,1258.350101,3677.258390,11103.089130
753.067526,-148.041188,4749.792088,11843.295072
753.067855,-1258.350101,4290.134789,11769.274478
753.068184,-1554.432478,2528.115143,11029.068536
753.068513,-1628.453072,459.657299,9918.759623
753.068843,-1406.391290,-995.924147,8660.409521
753.069172,-1258.350101,-2298.286494,7846.182985
753.069501,-1850.514855,-2374.896044,7772.162391
753.069831,-2294.638420,-1225.752797,7846.182985
753.070160,-2590.720797,1072.533697,8882.471304
753.070489,-3182.885551,2068.457845,9104.533087
753.070818,-3182.885551,2451.505594,9474.636058
753.071148,-3330.926739,2757.943793,9918.759623
753.071477,-3552.988522,2757.943793,10510.924376
753.071806,-3627.009116,2068.457845,9918.759623
753.072136,-3627.009116,1149.143247,10214.842000
753.072465,-3108.864956,306.438199,9696.697840
753.072794,-1554.432478,-766.095498,9030.512492
753.073123,148.041188,-1149.143247,8660.409521
753.073453,1332.370696,0.000000,7846.182985
753.073782,2368.659014,229.828649,8808.450710
753.074111,2368.659014,1149.143247,10510.924376
753.074441,888.247130,3294.210641,11325.150913
753.074770,-1036.288319,4519.963438,11473.192101
753.075099,-1258.350101,4366.744339,11251.130318
753.075428,-962.267725,2604.724693,10066.800811
753.075758,0.000000,842.705048,8586.388927
753.076087,1036.288319,-1455.581446,7328.038826
753.076416,1628.453072,-2451.505594,6587.832884
753.076746,1110.308913,-919.314598,6809.894666
753.077075,296.082377,-459.657299,7846.182985
753.077404,-666.185348,1455.581446,9474.636058
753.077734,-2146.597232,3064.381992,10584.944971
753.078063,-2960.823768,2987.772442,11251.130318
753.078392,-3701.029710,2145.067394,11769.274478
753.078721,-3997.112087,1838.629195,11103.089130
753.079051,-4145.153275,766.095498,10658.965565
753.079380,-3701.029710,-842.705048,9844.739029
753.079709,-2442.679609,-1608.800546,9252.574275
753.080039,-518.144159,-1762.019645,8364.327145
753.080368,1480.411884,-1915.238745,7698.141797
753.080697,2664.741391,-612.876398,7772.162391
753.081026,3923.091493,919.314598,8734.430116
753.081356,3552.988522,2298.286494,10288.862594
753.081685,2368.659014,3677.258390,11621.233289
753.082014,370.102971,4749.792088,11769.274478
753.082344,-888.247130,4596.572988,11843.295072
753.082673,-1406.391290,2911.162892,11843.295072
753.083002,-1850.514855,536.266849,10732.986159
753.083331,-1850.514855,-1302.362347,8956.491898
753.083661,-1702.473667,-2528.115143,7698.141797
753.083990,-1406.391290,-2451.505594,7328.038826
753.084319,-1998.556043,-1608.800546,7846.182985
753.084649,-2368.659014,689.485948,8290.306550
753.084978,-2886.803174,2681.334243,8734.430116
753.085307,-2812.782580,2987.772442,9178.553681
753.085636,-2738.761985,2451.505594,9548.656652
753.085966,-3108.864956,2451.505594,10066.800811
753.086295,-3997.112087,2221.676944,10288.862594
753.086624,-4441.235652,1149.143247,10140.821405
753.086954,-4071.132681,459.657299,9622.677246
753.087283,-2368.659014,-612.876398,9178.553681
753.087612,-370.102971,-2298.286494,8512.368333
753.087941,962.267725,-1302.362347,8364.327145
753.088271,2220.617826,0.000000,8808.450710
753.088600,2368.659014,1378.971896,9548.656652
753.088929,1406.391290,2757.943793,10881.027347
753.089259,0.000000,4979.620737,11251.130318
753.089588,-888.247130,4519.963438,11547.212695
753.089917,-962.267725,3447.429741,10732.986159
753.090246,0.000000,1225.752797,9474.636058
753.090576,444.123565,-919.314598,7772.162391
753.090905,962.267725,-1838.629195,7254.018232
753.091234,592.164754,-1762.019645,6735.874072
753.091564,0.000000,-536.266849,7920.203579
753.091893,-962.267725,1149.143247,9178.553681
753.092222,-1776.494261,2374.896044,10214.842000
753.092551,-2664.741391,2681.334243,11251.130318
753.092881,-3330.926739,2757.943793,11473.192101
753.093210,-3923.091493,2298.286494,11473.192101
753.093539,-4071.132681,1608.800546,10807.006753
753.093869,-3701.029710,306.438199,9844.739029
753.094198,-2516.700203,-1225.752797,9030.512492
753.094527,-666.185348,-2221.676944,8364.327145
753.094856,1036.288319,-2068.457845,7698.141797
753.095186,2442.679609,-1072.533697,7624.121203
753.095515,3330.926739,0.000000,8586.388927
753.095844,3034.844362,1762.019645,9696.697840
753.096174,2368.659014,2911.162892,10955.047942
753.096503,296.082377,4749.792088,11177.109724
753.096832,-592.164754,4519.963438,11843.295072
753.097162,-1480.411884,3447.429741,11547.212695
753.097491,-1776.494261,1378.971896,10732.986159
753.097820,-1628.453072,-689.485948,9030.512492
753.098149,-1480.411884,-1762.019645,7550.100608
753.098479,-1776.494261,-2604.724693,7254.018232
753.098808,-2294.638420,-1378.971896,7624.121203
753.099137,-2516.700203,383.047749,7846.182985
753.099467,-3034.844362,1608.800546,8438.347739
753.099796,-3182.885551,2221.676944,9474.636058
753.100125,-3849.070898,2681.334243,9918.759623
753.100454,-4145.153275,2681.334243,10807.006753
753.100784,-4737.318029,2068.457845,10807.006753
753.101113,-4811.338623,1608.800546,10436.903782
753.101442,-3552.988522,383.047749,9918.759623
753.101772,-1924.535449,-1455.581446,9252.574275
753.102101,-222.061783,-1991.848295,8882.471304
753.102430,888.247130,-1149.143247,8512.368333
753.102759,2220.617826,-153.219100,9030.512492
753.103089,2294.638420,1302.362347,9770.718434
753.103418,1554.432478,3064.381992,11325.150913
753.103747,444.123565,3983.696590,11547.212695
753.104077,-666.185348,4596.572988,11473.192101
753.104406,-666.185348,3753.867940,10584.944971
753.104735,0.000000,1302.362347,9252.574275
753.105064,740.205942,-689.485948,7920.203579
753.105394,1332.370696,-1685.410096,6957.935855
753.105723,740.205942,-1455.581446,6587.832884
753.106052,148.041188,-536.266849,7031.956449
753.106382,-518.144159,536.266849,8364.327145
753.106711,-1628.453072,2221.676944,9992.780217
753.107040,-2812.782580,3064.381992,11103.089130
753.107369,-3997.112087,2911.162892,11399.171507
753.107699,-4515.256246,2298.286494,11325.150913
753.108028,-4589.276840,1378.971896,10658.965565
753.108357,-3923.091493,153.219100,9770.718434
753.108687,-2368.659014,-1378.971896,8660.409521
753.109016,-370.102971,-1762.019645,8142.265362
753.109345,1258.350101,-1685.410096,7402.059420
753.109674,2886.803174,-995.924147,7624.121203
753.110004,3997.112087,229.828649,8438.347739
753.110333,3849.070898,2221.676944,9770.718434
753.110662,2886.803174,3753.867940,11029.068536
753.110992,1258.350101,4749.792088,11991.336260
753.111321,-370.102971,4979.620737,11917.315666
753.111650,-1258.350101,3677.258390,11843.295072
753.111979,-1406.391290,1149.143247,10881.027347
753.112309,-2294.638420,0.000000,9252.574275
753.112638,-2146.597232,-2068.457845,8290.306550
753.112967,-2220.617826,-2681.334243,7402.059420
753.113297,-2294.638420,-2451.505594,7698.141797
753.113626,-2368.659014,-536.266849,8142.265362
753.113955,-2664.741391,1225.752797,8512.368333
753.114284,-2664.741391,1762.019645,9474.636058
753.114614,-3330.926739,2987.772442,9992.780217
753.114943,-3849.070898,3140.991542,10066.800811
753.115272,-4145.153275,2374.896044,10214.842000
753.115602,-3775.050304,1532.190996,10214.842000
753.115931,-3330.926739,536.266849,9918.759623
753.116260,-2516.700203,-459.657299,9326.594869
753.116590,-1258.350101,-1532.190996,8438.347739
753.116919,296.082377,-1532.190996,8364.327145
753.117248,1998.556043,-459.657299,8808.450710
753.117577,2220.617826,766.095498,9992.780217
753.117907,1258.350101,2681.334243,10881.027347
753.118236,0.000000,3907.087040,11473.192101
753.118565,-1036.288319,4213.525239,11473.192101
753.118895,-962.267725,3294.210641,10584.944971
753.119224,-666.185348,1991.848295,9400.615463
753.119553,-370.102971,-229.828649,7920.203579
753.119882,0.000000,-1685.410096,6957.935855
753.120212,0.000000,-1838.629195,6439.791695
753.120541,0.000000,-1532.190996,7328.038826
753.120870,-740.205942,-306.438199,8142.265362
753.121200,-1554.432478,2145.067394,9622.677246
753.121529,-2590.720797,2911.162892,11251.130318
753.121858,-3182.885551,3294.210641,11843.295072
753.122187,-3552.988522,2911.162892,11473.192101
753.122517,-3775.050304,1991.848295,10362.883188
753.122846,-2664.741391,689.485948,10214.842000
753.123175,-2072.576638,-459.657299,9622.677246
753.123505,-740.205942,-1149.143247,8808.450710
753.123834,666.185348,-1685.410096,7920.203579
753.124163,2072.576638,-1225.752797,7846.182985
753.124492,3627.009116,0.000000,8438.347739
753.124822,3701.029710,766.095498,9400.615463
753.125151,2664.741391,2604.724693,10510.924376
753.125480,1332.370696,3753.867940,11325.150913
753.125810,-370.102971,4290.134789,11621.233289
753.126139,-1184.329507,3753.867940,11399.171507
753.126468,-1628.453072,2068.457845,10510.924376
753.126797,-1628.453072,229.828649,9400.615463
753.127127,-1480.411884,-1378.971896,8142.265362
753.127456,-1554.432478,-2221.676944,7476.080014
753.127785,-2072.576638,-1991.848295,7846.182985
753.128115,-2516.700203,-459.657299,8808.450710
753.128444,-3108.864956,919.314598,9104.533087
753.128773,-3330.926739,1991.848295,9844.739029
753.129102,-3552.988522,2145.067394,10140.821405
753.129432,-3775.050304,2221.676944,10140.821405
753.129761,-3108.864956,2145.067394,9918.759623
753.130090,-3404.947333,1072.533697,9770.718434
753.130420,-3034.844362,459.657299,9474.636058
753.130749,-1850.514855,0.000000,9104.533087
753.131078,-666.185348,-689.485948,8586.388927
753.131407,962.267725,-459.657299,8586.388927
753.131737,1554.432478,536.266849,8512.368333
753.132066,2220.617826,766.095498,9326.594869
753.132395,1184.329507,1762.019645,10584.944971
753.132725,-592.164754,2528.115143,11695.253884
753.133054,-2442.679609,3370.820191,11991.336260
753.133383,-2886.803174,3064.381992,11399.171507
753.133712,-2294.638420,1455.581446,10140.821405
753.134042,-814.226536,-766.095498,8586.388927
753.134371,370.102971,-1991.848295,6957.935855
753.134700,962.267725,-2374.896044,6217.729913
753.135030,1184.329507,-1149.143247,6883.915261
753.135359,444.123565,383.047749,8142.265362
753.135688,-814.226536,2451.505594,9548.656652
753.136018,-1850.514855,3140.991542,10881.027347
753.136347,-2590.720797,2604.724693,11473.192101
753.136676,-3182.885551,2451.505594,11251.130318
753.137005,-3478.967927,1762.019645,10955.047942
753.137335,-3478.967927,153.219100,10362.883188
753.137664,-2738.761985,-842.705048,9844.739029
753.137993,-1406.391290,-1455.581446,9104.533087
753.138323,222.061783,-1378.971896,7698.141797
753.138652,1850.514855,-1149.143247,7772.162391
753.138981,3256.906145,0.000000,8068.244768
753.139310,3849.070898,1302.362347,9178.553681
753.139640,2812.782580,2834.553343,10066.800811
753.139969,1480.411884,4136.915689,10881.027347
753.140298,0.000000,4979.620737,11621.233289
753.140628,-1480.411884,3677.258390,11325.150913
753.140957,-2072.576638,2068.457845,10955.047942
753.141286,-2072.576638,153.219100,9474.636058
753.141615,-1406.391290,-1532.190996,8216.285956
753.141945,-1110.308913,-2068.457845,7550.100608
753.142274,-1258.350101,-2068.457845,7920.203579
753.142603,-1924.535449,0.000000,8290.306550
753.142933,-2294.638420,1378.971896,8956.491898
753.143262,-2368.659014,2528.115143,9844.739029
753.143591,-2516.700203,2834.553343,10288.862594
753.143920,-2738.761985,3064.381992,10436.903782
753.144250,-3478.967927,2451.505594,10362.883188
753.144579,-3552.988522,1302.362347,10140.821405
753.144908,-3182.885551,306.438199,9622.677246
753.145238,-2664.741391,-689.485948,8956.491898
753.145567,-1480.411884,-1149.143247,8808.450710
753.145896,74.020594,-1455.581446,8512.368333
753.146225,1258.350101,-689.485948,8660.409521
753.146555,2146.597232,612.876398,9400.615463
753.146884,1480.411884,1685.410096,10510.924376
753.147213,74.020594,3064.381992,11399.171507
753.147543,-1628.453072,4443.353888,11399.171507
753.147872,-1998.556043,3830.477490,11177.109724
753.148201,-1628.453072,2298.286494,10214.842000
753.148531,-888.247130,-306.438199,8660.409521
753.148860,-222.061783,-1608.800546,7402.059420
753.149189,518.144159,-1991.848295,6587.832884
753.149519,0.000000,-1685.410096,7254.018232
753.149848,-518.144159,-383.047749,8364.327145
753.150177,-1258.350101,1225.752797,9548.656652
753.150507,-1776.494261,2604.724693,10881.027347
753.150836,-2590.720797,2987.772442,11177.109724
753.151165,-3108.864956,2451.505594,11177.109724
753.151495,-3478.967927,1378.971896,11177.109724
753.151824,-3849.070898,536.266849,10807.006753
753.152153,-3182.885551,-153.219100,10436.903782
753.152483,-1702.473667,-1455.581446,9326.594869
753.152812,0.000000,-2298.286494,8216.285956
753.153141,1480.411884,-1762.019645,7624.121203
753.153471,2812.782580,-1225.752797,7698.141797
753.153800,3627.009116,536.266849,8882.471304
753.154129,2886.803174,2681.334243,10140.821405
753.154459,1628.453072,3907.087040,10807.006753
753.154788,74.020594,4596.572988,11695.253884
753.155117,-1036.288319,4136.915689,11769.274478
753.155447,-1702.473667,2757.943793,11177.109724
753.155776,-1702.473667,1149.143247,10066.800811
753.156105,-1258.350101,-689.485948,8660.409521
753.156435,-1332.370696,-1838.629195,7698.141797
753.156764,-2072.576638,-2221.676944,7476.080014
753.157093,-2220.617826,-689.485948,8068.244768
753.157423,-2812.782580,689.485948,8734.430116
753.157752,-3034.844362,2221.676944,9400.615463
753.158081,-2886.803174,2834.553343,9844.739029
753.158411,-3330.926739,3140.991542,10214.842000
753.158740,-3108.864956,2757.943793,10140.821405
753.159069,-3404.947333,2145.067394,10066.800811
753.159399,-2886.803174,1455.581446,10214.842000
753.159728,-2220.617826,76.609550,9400.615463
753.160057,-1184.329507,-689.485948,9104.533087
753.160387,222.061783,-536.266849,8586.388927
753.160716,1554.432478,-459.657299,8512.368333
753.161045,2220.617826,0.000000,9030.512492
753.161375,2072.576638,1838.629195,10436.903782
753.161704,148.041188,3140.991542,11473.192101
753.162033,-1480.411884,4519.963438,11769.274478
753.162363,-2072.576638,3983.696590,11177.109724
753.162692,-1480.411884,2604.724693,10066.800811
753.163021,-518.144159,0.000000,8290.306550
753.163351,444.123565,-1455.581446,7031.956449
753.163680,888.247130,-1838.629195,6513.812290
753.164009,666.185348,-1378.971896,7105.977043
753.164339,74.020594,306.438199,8142.265362
753.164668,-888.247130,1838.629195,9548.656652
753.164997,-1480.411884,2298.286494,10510.924376
753.165327,-2516.700203,2911.162892,10955.047942
753.165656,-3478.967927,2221.676944,11103.089130
753.165985,-3997.112087,1378.971896,11251.130318
753.166315,-4367.215058,0.000000,11177.109724
753.166644,-4219.173869,-1149.143247,9992.780217
753.166973,-2590.720797,-1532.190996,9474.636058
753.167303,-740.205942,-2298.286494,8586.388927
753.167632,1628.453072,-2374.896044,7920.203579
753.167961,3404.947333,-1302.362347,7920.203579
753.168291,4367.215058,536.266849,8808.450710
753.168620,4071.132681,2298.286494,10140.821405
753.168949,2072.576638,4290.134789,11251.130318
753.169279,222.061783,5362.668486,11991.336260
753.169608,-814.226536,4596.572988,12213.398043
753.169937,-1702.473667,2987.772442,11177.109724
753.170267,-1776.494261,842.705048,9992.780217
753.170596,-1776.494261,-995.924147,8808.450710
753.170925,-1850.514855,-2374.896044,7846.182985
753.171255,-2368.659014,-2681.334243,7550.100608
753.171584,-2442.679609,-919.314598,7920.203579
753.171913,-3034.844362,383.047749,8216.285956
753.172243,-2960.823768,1915.238745,9178.553681
753.172572,-2960.823768,2757.943793,9844.739029
753.172901,-3182.885551,3294.210641,10140.821405
753.173231,-3552.988522,3447.429741,9918.759623
753.173560,-3404.947333,2145.067394,9992.780217
753.173889,-3552.988522,1302.362347,9918.759623
753.174219,-3108.864956,536.266849,9474.636058
753.174548,-1924.535449,-536.266849,8882.471304
753.174877,-444.123565,-1149.143247,8290.306550
753.175207,1258.350101,-689.485948,8216.285956
753.175536,2146.597232,229.828649,8586.388927
753.175865,2220.617826,1455.581446,9918.759623
753.176195,1110.308913,3524.039291,11103.089130
753.176524,0.000000,4519.963438,11473.192101
753.176853,-740.205942,4673.182538,11177.109724
753.177183,-888.247130,3524.039291,10436.903782
753.177512,0.000000,1072.533697,9178.553681
753.177841,444.123565,-536.266849,7698.141797
753.178171,444.123565,-1608.800546,6809.894666
753.178500,296.082377,-1378.971896,6883.915261
753.178829,0.000000,-536.266849,7698.141797
753.179159,-814.226536,459.657299,9104.533087
753.179488,-1850.514855,2145.067394,10288.862594
753.179817,-2664.741391,2604.724693,11325.150913
753.180147,-3552.988522,2451.505594,11621.233289
753.180476,-4219.173869,2298.286494,11399.171507
753.180805,-4293.194464,1532.190996,10881.027347
753.181135,-3701.029710,0.000000,10362.883188
753.181464,-2516.700203,-1378.971896,9622.677246
753.181793,-1036.288319,-1608.800546,8586.388927
753.182123,666.185348,-2221.676944,7920.203579
753.182452,2368.659014,-2068.457845,7920.203579
753.182781,3330.926739,-459.657299,8586.388927
753.183111,3256.906145,1532.190996,9844.739029
753.183440,2146.597232,3140.991542,10807.006753
753.183769,296.082377,4443.353888,11399.171507
753.184099,-666.185348,4596.572988,11621.233289
753.184428,-1258.350101,2911.162892,11695.253884
753.184757,-1628.453072,1378.971896,10732.986159
753.185087,-1776.494261,-306.438199,9178.553681
753.185416,-1702.473667,-1915.238745,7846.182985
753.185745,-1998.556043,-2068.457845,7402.059420
753.186075,-2220.617826,-2145.067394,7846.182985
753.186404,-2664.741391,-306.438199,8808.450710
753.186733,-3256.906145,1302.362347,9474.636058
753.187063,-3552.988522,2298.286494,9696.697840
753.187392,-3627.009116,2374.896044,9622.677246
753.187721,-3256.906145,2451.505594,9770.718434
753.188051,-3404.947333,1915.238745,9918.759623
753.188380,-3108.864956,1378.971896,9844.739029
753.188709,-2590.720797,536.266849,9474.636058
753.189039,-1628.453072,0.000000,8882.471304
753.189368,-296.082377,0.000000,8512.368333
753.189697,1332.370696,-612.876398,8438.347739
753.190027,1924.535449,76.609550,8734.430116
753.190356,2294.638420,919.314598,9548.656652
753.190685,1110.308913,2145.067394,11103.089130
753.191015,-74.020594,3753.867940,11917.315666
753.191344,-1702.473667,4903.011187,11473.192101
753.191673,-1480.411884,3064.381992,10881.027347
753.192003,-518.144159,1149.143247,9326.594869
753.192332,444.123565,-689.485948,7698.141797
753.192661,1332.370696,-1915.238745,6513.812290
753.192991,1628.453072,-1762.019645,6365.771101
753.193320,740.205942,-306.438199,7179.997637
753.193649,0.000000,1532.190996,8660.409521
753.193979,-1480.411884,2451.505594,10140.821405
753.194308,-2664.741391,3370.820191,11177.109724
753.194637,-3108.864956,2987.772442,11251.130318
753.194967,-4071.132681,2298.286494,11473.192101
753.195296,-4145.153275,1455.581446,11325.150913
753.195625,-4071.132681,76.609550,10658.965565
753.195955,-3108.864956,-1072.533697,9622.677246
753.196284,-1036.288319,-1532.190996,8438.347739
753.196613,740.205942,-1685.410096,7550.100608
753.196943,2590.720797,-995.924147,7550.100608
753.197272,3701.029710,0.000000,8142.265362
753.197601,3701.029710,1838.629195,9104.533087
753.197931,2664.741391,3217.601092,10214.842000
753.198260,1110.308913,4749.792088,11399.171507
