#time,accel_x,accel_y,accel_z
952.625635,-1258.350101,612.876398,9622.677246
952.625964,-1110.308913,995.924147,9622.677246
952.626294,-1036.288319,919.314598,9844.739029
952.626623,-962.267725,919.314598,9622.677246
952.626952,-592.164754,842.705048,9548.656652
952.627282,-888.247130,689.485948,9326.594869
952.627611,-1184.329507,689.485948,9548.656652
952.627941,-1184.329507,919.314598,9474.636058
952.628270,-1110.308913,766.095498,9622.677246
952.628599,-1036.288319,919.314598,9548.656652
952.628929,-1036.288319,1532.190996,9622.677246
952.629258,-1258.350101,919.314598,9400.615463
952.629587,-962.267725,766.095498,9474.636058
952.629917,-962.267725,842.705048,9400.615463
952.630246,-1110.308913,995.924147,9474.636058
952.630576,-592.164754,1455.581446,9696.697840
952.630905,-740.205942,689.485948,9326.594869
952.631234,-1036.288319,919.314598,9400.615463
952.631564,-1184.329507,842.705048,9474.636058
952.631893,-1184.329507,919.314598,9474.636058
952.632223,-888.247130,995.924147,9400.615463
952.632552,-962.267725,995.924147,9326.594869
952.632881,-962.267725,919.314598,9474.636058
952.633211,-962.267725,919.314598,9548.656652
952.633540,-1036.288319,766.095498,9326.594869
952.633869,-1036.288319,1225.752797,9326.594869
952.634199,-1036.288319,995.924147,9474.636058
952.634528,-1184.329507,919.314598,9474.636058
952.634858,-1110.308913,842.705048,9696.697840
952.635187,-1036.288319,995.924147,9696.697840
952.635516,-962.267725,842.705048,9770.718434
952.635846,-1184.329507,689.485948,9400.615463
952.636175,-1036.288319,1302.362347,9326.594869
952.636505,-1036.288319,919.314598,9548.656652
952.636834,-888.247130,1149.143247,9770.718434
952.637163,-888.247130,919.314598,9918.759623
952.637493,-888.247130,995.924147,9178.553681
952.637822,-1184.329507,1455.581446,9474.636058
952.638151,-1036.288319,842.705048,9696.697840
952.638481,-962.267725,1072.533697,9400.615463
952.638810,-962.267725,995.924147,9622.677246
952.639140,-962.267725,842.705048,9474.636058
952.639469,-1332.370696,1149.143247,9400.615463
952.639798,-962.267725,995.924147,9696.697840
952.640128,-1110.308913,995.924147,9696.697840
952.640457,-1110.308913,1149.143247,9622.677246
952.640787,-1332.370696,842.705048,9400.615463
952.641116,-1406.391290,995.924147,9474.636058
952.641445,-1036.288319,612.876398,8808.450710
952.641775,-1110.308913,919.314598,9474.636058
952.642104,-962.267725,919.314598,9400.615463
952.642433,-888.247130,689.485948,9474.636058
952.642763,-592.164754,689.485948,9474.636058
952.643092,-962.267725,1149.143247,9400.615463
952.643422,-1184.329507,1072.533697,9474.636058
952.643751,-1184.329507,995.924147,9696.697840
952.644080,-1110.308913,1072.533697,9400.615463
952.644410,-1036.288319,1072.533697,9474.636058
952.644739,-888.247130,919.314598,9474.636058
952.645069,-888.247130,766.095498,9770.718434
952.645398,-962.267725,919.314598,9474.636058
952.645727,-1036.288319,842.705048,9622.677246
952.646057,-1110.308913,919.314598,9548.656652
952.646386,-1184.329507,1149.143247,9326.594869
952.646715,-740.205942,766.095498,9030.512492
952.647045,0.000000,766.095498,9030.512492
952.647374,518.144159,459.657299,9400.615463
952.647704,888.247130,612.876398,9474.636058
952.648033,592.164754,153.219100,9104.533087
952.648362,296.082377,1378.971896,10140.821405
952.648692,-296.082377,1378.971896,10214.842000
952.649021,-740.205942,1072.533697,10214.842000
952.649351,-592.164754,153.219100,10066.800811
952.649680,-222.061783,0.000000,9696.697840
952.650009,148.041188,612.876398,9474.636058
952.650339,888.247130,0.000000,9474.636058
952.650668,1776.494261,229.828649,9178.553681
952.650997,2886.803174,689.485948,8956.491898
952.651327,3478.967927,1225.752797,9104.533087
952.651656,3775.050304,1762.019645,9326.594869
952.651986,3627.009116,1991.848295,9474.636058
952.652315,3404.947333,1608.800546,9844.739029
952.652644,2442.679609,919.314598,10066.800811
952.652974,1850.514855,842.705048,10362.883188
952.653303,1554.432478,383.047749,10807.006753
952.653633,1628.453072,229.828649,10436.903782
952.653962,1776.494261,0.000000,10066.800811
952.654291,2516.700203,-153.219100,9178.553681
952.654621,3404.947333,-229.828649,9178.553681
952.654950,3923.091493,383.047749,8808.450710
952.655279,4515.256246,1991.848295,9030.512492
952.655609,3849.070898,2451.505594,9622.677246
952.655938,2812.782580,2911.162892,10362.883188
952.656268,1110.308913,2987.772442,10732.986159
952.656597,-888.247130,2911.162892,10362.883188
952.656926,-1998.556043,1838.629195,9326.594869
952.657256,-1628.453072,459.657299,8438.347739
952.657585,-296.082377,-1225.752797,7624.121203
952.657915,1406.391290,-1378.971896,6735.874072
952.658244,2812.782580,-995.924147,6217.729913
952.658573,3775.050304,-229.828649,6661.853478
952.658903,4367.215058,2145.067394,8142.265362
952.659232,2812.782580,3983.696590,9770.718434
952.659561,1776.494261,5056.230287,11473.192101
952.659891,444.123565,4519.963438,12065.356855
952.660220,-296.082377,2604.724693,12583.501014
952.660550,-1258.350101,306.438199,12509.480420
952.660879,-1850.514855,-1455.581446,11843.295072
952.661208,-1702.473667,-2528.115143,10881.027347
952.661538,-888.247130,-2604.724693,9474.636058
952.661867,814.226536,-2298.286494,8586.388927
952.662197,3182.885551,-1225.752797,7994.224174
952.662526,4737.318029,-153.219100,7105.977043
952.662855,4959.379811,1378.971896,7105.977043
952.663185,5033.400406,2911.162892,7772.162391
952.663514,4885.359217,4060.306139,8956.491898
952.663843,4071.132681,4443.353888,10436.903782
952.664173,3108.864956,3907.087040,11399.171507
952.664502,1850.514855,2451.505594,11473.192101
952.664832,148.041188,919.314598,11177.109724
952.665161,-592.164754,-383.047749,10732.986159
952.665490,-1110.308913,-1378.971896,10584.944971
952.665820,-1036.288319,-1072.533697,10214.842000
952.666149,-888.247130,-1225.752797,9844.739029
952.666479,-296.082377,-766.095498,9400.615463
952.666808,962.267725,306.438199,9104.533087
952.667137,2072.576638,229.828649,8512.368333
952.667467,3256.906145,919.314598,8142.265362
952.667796,3997.112087,919.314598,8216.285956
952.668125,4737.318029,766.095498,8068.244768
952.668455,4515.256246,766.095498,8512.368333
952.668784,3775.050304,612.876398,9548.656652
952.669114,2960.823768,1455.581446,10214.842000
952.669443,2368.659014,2298.286494,10658.965565
952.669772,2146.597232,2221.676944,10584.944971
952.670102,2146.597232,2145.067394,10362.883188
952.670431,2368.659014,1838.629195,9844.739029
952.670761,2590.720797,1685.410096,8586.388927
952.671090,3256.906145,995.924147,7846.182985
952.671419,3034.844362,612.876398,8142.265362
952.671749,2442.679609,1302.362347,8364.327145
952.672078,1036.288319,1455.581446,9030.512492
952.672407,-370.102971,842.705048,9622.677246
952.672737,-1480.411884,383.047749,9696.697840
952.673066,-2664.741391,306.438199,10807.006753
952.673396,-2886.803174,-153.219100,11695.253884
952.673725,-3108.864956,-459.657299,11695.253884
952.674054,-3404.947333,0.000000,11029.068536
952.674384,-2220.617826,-536.266849,9770.718434
952.674713,74.020594,-459.657299,8882.471304
952.675042,2368.659014,306.438199,8142.265362
952.675372,5033.400406,1532.190996,7846.182985
952.675701,7031.956449,2757.943793,8068.244768
952.676031,7994.224174,2834.553343,8290.306550
952.676360,7105.977043,4443.353888,9622.677246
952.676689,4959.379811,4903.011187,11251.130318
952.677019,1998.556043,4979.620737,11843.295072
952.677348,-666.185348,3524.039291,12361.439231
952.677678,-2812.782580,1455.581446,12879.583391
952.678007,-5403.503377,0.000000,11325.150913
952.678336,-7031.956449,-2145.067394,9400.615463
952.678666,-7254.018232,-2834.553343,7994.224174
952.678995,-5921.647536,-2911.162892,5773.606348
952.679324,-2590.720797,-3064.381992,4293.194464
952.679654,1702.473667,-1838.629195,4515.256246
952.679983,4811.338623,919.314598,4737.318029
952.680313,5033.400406,3600.648841,5625.565159
952.680642,4737.318029,4290.134789,7550.100608
952.680971,3775.050304,5286.058936,11177.109724
952.681301,1406.391290,6971.469032,15174.221811
952.681630,-2368.659014,6665.030833,16580.613101
952.681960,-6513.812290,3753.867940,15766.386565
952.682289,-8216.285956,-919.314598,14211.954086
952.682618,-7920.203579,-4749.792088,12731.542202
952.682948,-6291.750507,-5439.278036,10288.862594
952.683277,-3256.906145,-4443.353888,6587.832884
952.683606,1998.556043,-4060.306139,3775.050304
952.683936,7105.977043,-3370.820191,2368.659014
952.684265,9622.677246,0.000000,2886.803174
952.684595,9622.677246,2834.553343,5255.462188
952.684924,7772.162391,6435.202183,8660.409521
952.685253,4441.235652,9806.022374,13101.645173
952.685583,-296.082377,9116.536426,15692.365970
952.685912,-6143.709319,4979.620737,15692.365970
952.686242,-10362.883188,-1149.143247,15100.201217
952.686571,-11621.233289,-4443.353888,14137.933492
952.686900,-11103.089130,-4979.620737,11029.068536
952.687230,-7476.080014,-7354.516781,7550.100608
952.687559,-2442.679609,-8350.440928,4663.297435
952.687888,2516.700203,-6588.421283,2590.720797
952.688218,6513.812290,-1838.629195,1924.535449
952.688547,8364.327145,3140.991542,3775.050304
952.688877,8956.491898,7201.297681,8068.244768
952.689206,5477.523971,9959.241474,12731.542202
952.689535,-296.082377,10112.460574,15766.386565
952.689865,-5403.503377,7967.393179,16432.571912
952.690194,-9178.553681,3524.039291,15692.365970
952.690524,-9770.718434,-2221.676944,14508.036463
952.690853,-9918.759623,-5286.058936,10955.047942
952.691182,-5921.647536,-9422.974625,6439.791695
952.691512,-444.123565,-10265.679673,3849.070898
952.691841,3849.070898,-6358.592633,3552.988522
952.692170,6661.853478,-766.095498,2516.700203
952.692500,7994.224174,3294.210641,4663.297435
952.692829,7476.080014,6894.859482,8586.388927
952.693159,4145.153275,11261.603821,13619.789333
952.693488,-2072.576638,11874.480219,16580.613101
952.693817,-7698.141797,8886.707777,17468.860231
952.694147,-12065.356855,4366.744339,16136.489536
952.694476,-12213.398043,-1378.971896,13471.748144
952.694806,-9104.533087,-6818.249932,8882.471304
952.695135,-4663.297435,-10035.851024,4145.153275
952.695464,74.020594,-8427.050478,-0.000000
952.695794,3923.091493,-5209.449386,-666.185348
952.696123,7846.182985,-1532.190996,2294.638420
952.696453,8216.285956,4136.915689,7920.203579
952.696782,4885.359217,9882.631924,12361.439231
952.697111,-1110.308913,13559.890315,15692.365970
952.697441,-6069.688724,13866.328514,16728.654289
952.697770,-7476.080014,6205.373534,18875.251521
952.698100,-7550.100608,-1455.581446,17912.983796
952.698429,-8068.244768,-3677.258390,13397.727550
952.698758,-5847.626942,-6894.859482,7402.059420
952.699088,-962.267725,-9346.365076,2738.761985
952.699417,3478.967927,-7737.564530,592.164754
952.699747,8364.327145,-3907.087040,592.164754
952.700076,11917.315666,76.609550,3256.906145
952.700405,10732.986159,8120.612279,7031.956449
952.700735,6365.771101,15015.471761,10288.862594
952.701064,-296.082377,12717.185267,14359.995275
952.701394,-5625.565159,10418.898773,16876.695478
952.701723,-9252.574275,6435.202183,16728.654289
952.702053,-9474.636058,0.000000,14878.139434
952.702382,-9104.533087,-4903.011187,10436.903782
952.702711,-6661.853478,-8886.707777,6291.750507
952.703041,-2146.597232,-12487.356617,3849.070898
952.703370,888.247130,-8656.879127,3256.906145
952.703700,4367.215058,-1225.752797,4071.132681
952.704029,5995.668130,3830.477490,6957.935855
952.704358,4219.173869,8044.002729,9696.697840
952.704688,814.226536,11644.651570,12213.398043
952.705017,-2368.659014,10955.165621,14508.036463
952.705347,-4219.173869,8350.440928,16062.468941
952.705676,-5921.647536,4903.011187,14656.077652
952.706005,-5699.585753,-536.266849,12361.439231
952.706335,-3775.050304,-6818.249932,8586.388927
952.706664,-1036.288319,-9576.193725,6143.709319
952.706994,2516.700203,-8580.269578,4367.215058
952.707323,5699.585753,-4596.572988,4367.215058
952.707652,7105.977043,153.219100,5699.585753
952.707982,6513.812290,3830.477490,8808.450710
952.708311,2812.782580,8120.612279,11399.171507
952.708641,-1628.453072,10572.117872,13693.809927
952.708970,-5625.565159,9882.631924,15026.180623
952.709299,-7772.162391,5515.887586,15470.304188
952.709629,-8512.368333,689.485948,12731.542202
952.709958,-6957.935855,-5286.058936,9400.615463
952.710288,-4293.194464,-8810.098227,5403.503377
952.710617,-1184.329507,-8350.440928,2368.659014
952.710947,1628.453072,-6741.640382,1850.514855
952.711276,4219.173869,-4673.182538,4145.153275
952.711605,3552.988522,919.314598,8586.388927
952.711935,1110.308913,6205.373534,12361.439231
952.712264,-2072.576638,10112.460574,15396.283594
952.712594,-5181.441594,10418.898773,15322.262999
952.712923,-6439.791695,6511.811733,14137.933492
952.713252,-5477.523971,306.438199,12953.603985
952.713582,-3404.947333,-4290.134789,10955.047942
952.713911,-1406.391290,-6435.202183,7920.203579
952.714241,888.247130,-7354.516781,5773.606348
952.714570,3330.926739,-6052.154434,5107.421000
952.714899,6513.812290,-2911.162892,5403.503377
952.715229,7179.997637,383.047749,7105.977043
952.715558,5181.441594,4443.353888,9030.512492
952.715888,1332.370696,9652.803275,11103.089130
952.716217,-2664.741391,10112.460574,13545.768739
952.716546,-5551.544565,6971.469032,14804.118840
952.716876,-7846.182985,4213.525239,13693.809927
952.717205,-7624.121203,0.000000,9844.739029
952.717535,-5477.523971,-4749.792088,6513.812290
952.717864,-2960.823768,-7507.735880,4811.338623
952.718194,-814.226536,-6741.640382,4515.256246
952.718523,1110.308913,-4596.572988,5773.606348
952.718852,2368.659014,0.000000,9178.553681
952.719182,592.164754,5132.839837,12435.459826
952.719511,-2368.659014,9116.536426,13693.809927
952.719841,-5033.400406,10342.289223,13175.665768
952.720170,-5329.482782,7354.516781,12435.459826
952.720499,-4071.132681,2145.067394,12435.459826
952.720829,-2812.782580,-995.924147,10510.924376
952.721158,-1702.473667,-3294.210641,7105.977043
952.721488,518.144159,-5669.106685,4441.235652
952.721817,3775.050304,-4673.182538,4071.132681
952.722146,6735.874072,-2298.286494,4737.318029
952.722476,8956.491898,919.314598,6735.874072
952.722805,7402.059420,5056.230287,9252.574275
952.723135,2960.823768,10342.289223,11621.233289
952.723464,-1776.494261,11568.042020,13545.768739
952.723793,-5329.482782,9499.584175,14211.954086
952.724123,-7994.224174,5592.497135,13545.768739
952.724452,-8068.244768,229.828649,11769.274478
952.724782,-7105.977043,-4290.134789,9696.697840
952.725111,-5107.421000,-6818.249932,6365.771101
952.725440,-2442.679609,-6741.640382,3330.926739
952.725770,666.185348,-5975.544884,2738.761985
952.726099,3775.050304,-2221.676944,5033.400406
952.726429,4737.318029,3140.991542,9252.574275
952.726758,2960.823768,6971.469032,12361.439231
952.727088,-814.226536,9499.584175,13397.727550
952.727417,-4515.256246,10572.117872,13989.892304
952.727746,-5477.523971,7048.078582,13693.809927
952.728076,-4737.318029,306.438199,12879.583391
952.728405,-4071.132681,-3907.087040,10436.903782
952.728735,-2960.823768,-6894.859482,6661.853478
952.729064,-962.267725,-8350.440928,5699.585753
952.729393,2812.782580,-6894.859482,6217.729913
952.729723,5995.668130,-3830.477490,7105.977043
952.730052,7772.162391,689.485948,8956.491898
952.730382,6069.688724,5132.839837,10436.903782
952.730711,3478.967927,10342.289223,11695.253884
952.731040,370.102971,9576.193725,13323.706956
952.731370,-2960.823768,7124.688131,14063.912898
952.731699,-6069.688724,3753.867940,12879.583391
952.732029,-6957.935855,-1149.143247,10288.862594
952.732358,-5773.606348,-6128.763984,8142.265362
952.732687,-3701.029710,-8656.879127,6291.750507
952.733017,-1924.535449,-8120.612279,3775.050304
952.733346,592.164754,-6281.983084,2664.741391
952.733676,3330.926739,-2604.724693,5329.482782
952.734005,3034.844362,3217.601092,9696.697840
952.734334,-222.061783,7507.735880,12435.459826
952.734664,-3627.009116,9422.974625,14434.015869
952.734993,-7402.059420,9193.145976,14211.954086
952.735323,-7846.182985,5362.668486,13989.892304
952.735652,-5847.626942,-766.095498,12657.521608
952.735982,-4071.132681,-6052.154434,9918.759623
952.736311,-1924.535449,-8350.440928,6661.853478
952.736640,518.144159,-8503.660028,5403.503377
952.736970,4145.153275,-5515.887586,5773.606348
952.737299,6735.874072,-459.657299,6809.894666
952.737629,6809.894666,3140.991542,8882.471304
952.737958,4663.297435,7354.516781,10362.883188
952.738287,1406.391290,11108.384721,12657.521608
952.738617,-2146.597232,9806.022374,14137.933492
952.738946,-5477.523971,7124.688131,14508.036463
952.739276,-7994.224174,2451.505594,12509.480420
952.739605,-7920.203579,-2221.676944,9474.636058
952.739934,-5773.606348,-6741.640382,5847.626942
952.740264,-3108.864956,-8656.879127,3775.050304
952.740593,-888.247130,-6588.421283,3478.967927
952.740923,1554.432478,-2911.162892,5551.544565
952.741252,2072.576638,1532.190996,8956.491898
952.741581,148.041188,6665.030833,12805.562797
952.741911,-2664.741391,10955.165621,14211.954086
952.742240,-5699.585753,11951.089769,14137.933492
952.742570,-6513.812290,8120.612279,12879.583391
952.742899,-4885.359217,1762.019645,11769.274478
952.743229,-2664.741391,-2911.162892,9696.697840
952.743558,-1406.391290,-5745.716235,6809.894666
952.743887,0.000000,-6588.421283,4515.256246
952.744217,2442.679609,-5362.668486,4293.194464
952.744546,6513.812290,-2451.505594,5329.482782
952.744876,9178.553681,1149.143247,7105.977043
952.745205,8216.285956,6052.154434,9326.594869
952.745534,3997.112087,11338.213370,10955.047942
952.745864,-666.185348,11797.870669,13249.686362
952.746193,-4145.153275,9269.755526,14211.954086
952.746523,-6883.915261,5362.668486,14063.912898
952.746852,-6957.935855,76.609550,11251.130318
952.747181,-5921.647536,-5822.325785,8142.265362
952.747511,-3701.029710,-9193.145976,6291.750507
952.747840,-1480.411884,-8886.707777,4959.379811
952.748170,1184.329507,-6358.592633,4811.338623
952.748499,2590.720797,-995.924147,6217.729913
952.748828,2812.782580,4290.134789,9252.574275
952.749158,1406.391290,8580.269578,11473.192101
952.749487,-1184.329507,9729.412825,13323.706956
952.749817,-3923.091493,8963.317327,13545.768739
952.750146,-4885.359217,5975.544884,13249.686362
952.750475,-4515.256246,536.266849,12731.542202
952.750805,-2960.823768,-4519.963438,10955.047942
952.751134,-2220.617826,-7967.393179,7550.100608
952.751464,-296.082377,-8733.488677,5699.585753
952.751793,3552.988522,-6435.202183,5773.606348
952.752123,6735.874072,-2374.896044,7105.977043
952.752452,6809.894666,2451.505594,9548.656652
952.752781,4293.194464,6588.421283,11177.109724
952.753111,518.144159,10265.679673,12213.398043
952.753440,-2664.741391,9882.631924,12953.603985
952.753770,-5255.462188,6665.030833,13915.871710
952.754099,-6809.894666,1991.848295,12435.459826
952.754428,-6291.750507,-3370.820191,9770.718434
952.754758,-5181.441594,-8427.050478,7179.997637
952.755087,-2960.823768,-9039.926876,4737.318029
952.755417,-1850.514855,-6052.154434,2812.782580
952.755746,814.226536,-4213.525239,3330.926739
952.756075,3108.864956,-536.266849,7031.956449
952.756405,1850.514855,4213.525239,10881.027347
952.756734,-1184.329507,8656.879127,12805.562797
952.757064,-4737.318029,9193.145976,14582.057057
952.757393,-6735.874072,8656.879127,15248.242405
952.757722,-7031.956449,4290.134789,13915.871710
952.758052,-4885.359217,-2221.676944,11029.068536
952.758381,-2738.761985,-6971.469032,7994.224174
952.758711,-444.123565,-7814.174080,5699.585753
952.759040,1406.391290,-7048.078582,5033.400406
952.759369,4071.132681,-3830.477490,5551.544565
952.759699,6291.750507,306.438199,7105.977043
952.760028,5403.503377,3447.429741,9030.512492
952.760358,2590.720797,8197.221829,10881.027347
952.760687,-740.205942,10342.289223,13471.748144
952.761017,-3923.091493,9422.974625,14804.118840
952.761346,-6439.791695,6205.373534,14137.933492
952.761675,-7179.997637,536.266849,11621.233289
952.762005,-5699.585753,-4903.011187,8808.450710
952.762334,-3997.112087,-7507.735880,6365.771101
952.762664,-2294.638420,-6665.030833,4959.379811
952.762993,0.000000,-5362.668486,4811.338623
952.763322,2368.659014,-2528.115143,7105.977043
952.763652,2220.617826,2451.505594,10362.883188
952.763981,0.000000,7201.297681,12879.583391
952.764311,-2516.700203,11261.603821,13767.830521
952.764640,-4885.359217,10572.117872,12805.562797
952.764969,-4811.338623,5362.668486,11991.336260
952.765299,-3404.947333,76.609550,11547.212695
952.765628,-2294.638420,-2834.553343,9104.533087
952.765958,-814.226536,-5286.058936,6291.750507
952.766287,740.205942,-6358.592633,4737.318029
952.766616,3478.967927,-4673.182538,4441.235652
952.766946,6809.894666,-2068.457845,5699.585753
952.767275,7698.141797,1455.581446,7772.162391
952.767605,5625.565159,7354.516781,10362.883188
952.767934,888.247130,11797.870669,11769.274478
952.768264,-2590.720797,10035.851024,13841.851115
952.768593,-5773.606348,7507.735880,14582.057057
952.768922,-7105.977043,3294.210641,13101.645173
952.769252,-6143.709319,-1762.019645,10362.883188
952.769581,-4219.173869,-5898.935335,7254.018232
952.769911,-2146.597232,-8120.612279,4885.359217
952.770240,222.061783,-8120.612279,4145.153275
952.770569,2664.741391,-4903.011187,5403.503377
952.770899,4219.173869,1762.019645,7994.224174
952.771228,1554.432478,6435.202183,10807.006753
952.771558,-1924.535449,9806.022374,12213.398043
952.771887,-4885.359217,9882.631924,13101.645173
952.772216,-6291.750507,6971.469032,13323.706956
952.772546,-5921.647536,2374.896044,13101.645173
952.772875,-4737.318029,-2298.286494,11547.212695
952.773205,-3330.926739,-6588.421283,8734.430116
952.773534,-1480.411884,-9422.974625,6513.812290
952.773863,1406.391290,-7814.174080,6217.729913
952.774193,5477.523971,-3600.648841,6587.832884
952.774522,8734.430116,689.485948,7994.224174
952.774852,8068.244768,4519.963438,9770.718434
952.775181,4737.318029,9422.974625,11103.089130
952.775510,888.247130,10725.336972,12879.583391
952.775840,-2590.720797,8580.269578,14137.933492
952.776169,-5995.668130,5669.106685,13989.892304
952.776499,-7402.059420,919.314598,11917.315666
952.776828,-7105.977043,-4979.620737,9030.512492
952.777158,-4959.379811,-9422.974625,6365.771101
952.777487,-2738.761985,-9882.631924,4071.132681
952.777816,-296.082377,-6894.859482,2664.741391
952.778146,1702.473667,-2681.334243,3849.070898
952.778475,2220.617826,1455.581446,7920.203579
952.778805,0.000000,6281.983084,11621.233289
952.779134,-3034.844362,10342.289223,13767.830521
952.779463,-5551.544565,10035.851024,14878.139434
952.779793,-6587.832884,6971.469032,14211.954086
952.780122,-6217.729913,2451.505594,12583.501014
952.780452,-4589.276840,-3677.258390,9622.677246
952.780781,-2220.617826,-8197.221829,7179.997637
952.781110,222.061783,-9116.536426,5995.668130
952.781440,2664.741391,-5515.887586,5625.565159
952.781769,5773.606348,-1608.800546,5847.626942
952.782099,7179.997637,1762.019645,7105.977043
952.782428,6069.688724,4366.744339,9400.615463
952.782757,2442.679609,9269.755526,11769.274478
952.783087,-2072.576638,12104.308868,13619.789333
952.783416,-5699.585753,8963.317327,14508.036463
952.783746,-7550.100608,4060.306139,13767.830521
952.784075,-7624.121203,-1532.190996,11177.109724
952.784404,-6069.688724,-6971.469032,8438.347739
952.784734,-3849.070898,-8810.098227,5625.565159
952.785063,-1480.411884,-5975.544884,3256.906145
952.785393,1554.432478,-5515.887586,4145.153275
952.785722,3182.885551,-2221.676944,7476.080014
952.786052,1924.535449,3983.696590,10732.986159
952.786381,-592.164754,9652.803275,13397.727550
952.786710,-3849.070898,12257.527968,14804.118840
952.787040,-6291.750507,10648.727422,14211.954086
952.787369,-6365.771101,5362.668486,13175.665768
952.787699,-4441.235652,-1838.629195,11029.068536
952.788028,-2516.700203,-5132.839837,7920.203579
952.788357,-592.164754,-6971.469032,5625.565159
952.788687,1628.453072,-7277.907231,4663.297435
952.789016,3775.050304,-4136.915689,4885.359217
952.789346,6365.771101,153.219100,6291.750507
952.789675,7105.977043,3677.258390,8734.430116
952.790004,5033.400406,8427.050478,10436.903782
952.790334,1036.288319,12257.527968,11843.295072
952.790663,-2664.741391,10495.508323,13545.768739
952.790993,-5403.503377,6128.763984,13619.789333
952.791322,-6439.791695,1838.629195,12065.356855
952.791651,-5921.647536,-2451.505594,9918.759623
952.791981,-4663.297435,-7124.688131,7105.977043
952.792310,-2664.741391,-7967.393179,5847.626942
952.792640,0.000000,-6741.640382,4737.318029
952.792969,3034.844362,-3524.039291,5329.482782
952.793299,3997.112087,1302.362347,7994.224174
952.793628,2220.617826,5975.544884,10436.903782
952.793957,-518.144159,10648.727422,11917.315666
952.794287,-3404.947333,10265.679673,13397.727550
952.794616,-4737.318029,7354.516781,13693.809927
952.794945,-4885.359217,3064.381992,13175.665768
952.795275,-3478.967927,-2451.505594,11103.089130
952.795604,-1850.514855,-6588.421283,8512.368333
952.795933,-444.123565,-7737.564530,6439.791695
952.796263,2220.617826,-6358.592633,5921.647536
952.796592,5403.503377,-3983.696590,6661.853478
952.796922,6587.832884,229.828649,8512.368333
952.797251,5033.400406,5209.449386,10881.027347
952.797580,1480.411884,9959.241474,11843.295072
952.797910,-1258.350101,9882.631924,13323.706956
952.798239,-4441.235652,7967.393179,13693.809927
952.798568,-6217.729913,3753.867940,13027.624579
952.798898,-6809.894666,-1532.190996,10288.862594
952.799227,-5921.647536,-5515.887586,7550.100608
952.799556,-4145.153275,-9116.536426,5699.585753
952.799886,-1480.411884,-8427.050478,4959.379811
952.800215,1110.308913,-5362.668486,5033.400406
952.800545,3404.947333,-842.705048,6439.791695
952.800874,2960.823768,4213.525239,8364.327145
952.801203,1258.350101,8044.002729,10510.924376
952.801533,-1184.329507,9422.974625,13101.645173
952.801862,-4071.132681,9193.145976,14137.933492
952.802191,-6069.688724,7124.688131,13989.892304
952.802521,-6069.688724,1455.581446,12213.398043
952.802850,-4663.297435,-4060.306139,9548.656652
952.803179,-2590.720797,-8044.002729,6809.894666
952.803509,74.020594,-9193.145976,5107.421000
952.803838,2812.782580,-5822.325785,5033.400406
952.804168,5329.482782,-1302.362347,6439.791695
952.804497,5921.647536,2528.115143,8438.347739
952.804826,2812.782580,5898.935335,10807.006753
952.805156,-814.226536,10112.460574,12139.377449
952.805485,-3849.070898,10112.460574,13841.851115
952.805814,-6439.791695,7201.297681,14582.057057
952.806144,-7624.121203,2374.896044,12953.603985
952.806473,-6883.915261,-3677.258390,9622.677246
952.806802,-4737.318029,-9269.755526,6883.915261
952.807132,-2146.597232,-9576.193725,5625.565159
952.807461,0.000000,-6588.421283,5477.523971
952.807791,2886.803174,-3140.991542,5477.523971
952.808120,4441.235652,1378.971896,7031.956449
952.808449,3775.050304,5745.716235,10066.800811
952.808779,1998.556043,9193.145976,12213.398043
952.809108,-1628.453072,10955.165621,14063.912898
952.809437,-5107.421000,9882.631924,14211.954086
952.809767,-6661.853478,5056.230287,13693.809927
952.810096,-5773.606348,-766.095498,11177.109724
952.810425,-3478.967927,-6128.763984,7772.162391
952.810755,-518.144159,-9882.631924,5995.668130
952.811084,1332.370696,-7890.783629,5403.503377
952.811414,3627.009116,-3447.429741,5403.503377
952.811743,5625.565159,0.000000,7179.997637
952.812072,4811.338623,4213.525239,9400.615463
952.812402,1998.556043,9806.022374,11177.109724
952.812731,-888.247130,11874.480219,12657.521608
952.813060,-3330.926739,9269.755526,14137.933492
952.813390,-5403.503377,4903.011187,13841.851115
952.813719,-6291.750507,612.876398,11473.192101
952.814048,-5773.606348,-4136.915689,7105.977043
952.814378,-3330.926739,-8427.050478,4885.359217
952.814707,0.000000,-9346.365076,4737.318029
952.815037,2220.617826,-5822.325785,4811.338623
952.815366,3404.947333,-766.095498,6291.750507
952.815695,2960.823768,4060.306139,8882.471304
952.816025,1184.329507,8963.317327,11621.233289
952.816354,-1036.288319,11261.603821,13027.624579
952.816683,-3256.906145,9652.803275,13027.624579
952.817013,-4441.235652,5822.325785,13101.645173
952.817342,-4441.235652,995.924147,12213.398043
952.817671,-3404.947333,-2911.162892,10362.883188
952.818001,-2368.659014,-7201.297681,8068.244768
952.818330,-888.247130,-7354.516781,6217.729913
952.818660,1628.453072,-5209.449386,5403.503377
952.818989,5847.626942,-2298.286494,6883.915261
952.819318,6957.935855,2068.457845,9178.553681
952.819648,4071.132681,6511.811733,10436.903782
952.819977,-148.041188,10265.679673,11177.109724
952.820306,-3034.844362,10112.460574,13175.665768
952.820636,-5699.585753,7354.516781,13915.871710
952.820965,-7105.977043,3217.601092,12583.501014
952.821294,-6439.791695,-2757.943793,9622.677246
952.821624,-4737.318029,-7890.783629,6439.791695
952.821953,-2368.659014,-9422.974625,5403.503377
952.822283,-444.123565,-6971.469032,4959.379811
952.822612,2072.576638,-2757.943793,5329.482782
952.822941,3997.112087,1225.752797,7402.059420
952.823271,3701.029710,4826.401637,10584.944971
952.823600,1258.350101,9346.365076,12731.542202
952.823929,-1924.535449,11108.384721,13841.851115
952.824259,-4737.318029,9269.755526,13693.809927
952.824588,-5847.626942,3830.477490,13175.665768
952.824917,-5107.421000,-766.095498,11843.295072
952.825247,-3701.029710,-6435.202183,9178.553681
952.825576,-1702.473667,-9806.022374,6069.688724
952.825906,-222.061783,-8044.002729,4737.318029
952.826235,2664.741391,-4749.792088,5403.503377
952.826564,5847.626942,-1072.533697,7254.018232
952.826894,5477.523971,2681.334243,9400.615463
952.827223,2368.659014,8197.221829,10658.965565
952.827552,-1480.411884,11261.603821,12361.439231
952.827882,-3701.029710,9346.365076,13841.851115
952.828211,-5181.441594,5592.497135,14285.974681
952.828540,-6661.853478,76.609550,11621.233289
952.828870,-5329.482782,-5056.230287,8290.306550
952.829199,-3701.029710,-9269.755526,6217.729913
952.829529,-1332.370696,-9422.974625,5847.626942
952.829858,444.123565,-5515.887586,4959.379811
952.830187,2664.741391,-2145.067394,5551.544565
952.830517,4811.338623,2221.676944,8142.265362
952.830846,3330.926739,7354.516781,11103.089130
952.831175,0.000000,10418.898773,13323.706956
952.831505,-3849.070898,10342.289223,13841.851115
952.831834,-6143.709319,7660.954980,13989.892304
952.832163,-6883.915261,2374.896044,12509.480420
952.832493,-4885.359217,-3064.381992,10066.800811
952.832822,-3256.906145,-9116.536426,7846.182985
952.833152,-1036.288319,-9806.022374,6069.688724
952.833481,814.226536,-6894.859482,5773.606348
952.833810,4219.173869,-3140.991542,6439.791695
952.834140,5995.668130,1685.410096,7624.121203
952.834469,5033.400406,5439.278036,10140.821405
952.834798,1628.453072,10495.508323,11251.130318
952.835128,-1628.453072,11874.480219,13619.789333
952.835457,-3627.009116,9422.974625,14137.933492
952.835786,-5477.523971,4903.011187,12509.480420
952.836116,-5625.565159,-995.924147,9918.759623
952.836445,-4441.235652,-6281.983084,8068.244768
952.836775,-2294.638420,-8580.269578,6587.832884
952.837104,-666.185348,-6971.469032,4589.276840
952.837433,1924.535449,-3677.258390,3478.967927
952.837763,4737.318029,-229.828649,5477.523971
952.838092,4885.359217,3753.867940,9696.697840
952.838421,1702.473667,9116.536426,12361.439231
952.838751,-2442.679609,12410.747068,13767.830521
952.839080,-5773.606348,11568.042020,13915.871710
952.839409,-6661.853478,6435.202183,13767.830521
952.839739,-5773.606348,689.485948,11695.253884
952.840068,-3923.091493,-5669.106685,8882.471304
952.840398,-1776.494261,-9193.145976,6439.791695
952.840727,-296.082377,-7507.735880,5107.421000
952.841056,2220.617826,-4826.401637,5329.482782
952.841386,5551.544565,-1455.581446,6735.874072
952.841715,6291.750507,2451.505594,8882.471304
952.842044,3923.091493,8350.440928,10436.903782
952.842374,1258.350101,12027.699319,12139.377449
952.842703,-1702.473667,10955.165621,13323.706956
952.843032,-3627.009116,7354.516781,13249.686362
952.843362,-5329.482782,1685.410096,11843.295072
952.843691,-4663.297435,-3370.820191,9844.739029
952.844021,-3478.967927,-7048.078582,8142.265362
952.844350,-2146.597232,-8197.221829,5995.668130
952.844679,-222.061783,-6435.202183,4441.235652
952.845009,2812.782580,-3677.258390,4959.379811
952.845338,5181.441594,229.828649,7402.059420
952.845667,3330.926739,4903.011187,10658.965565
952.845997,-592.164754,9806.022374,12583.501014
952.846326,-4293.194464,10878.556072,13471.748144
952.846655,-6217.729913,8044.002729,13545.768739
952.846985,-6291.750507,2834.553343,13323.706956
952.847314,-4885.359217,-2374.896044,11399.171507
952.847644,-3552.988522,-7048.078582,8142.265362
952.847973,-1924.535449,-9193.145976,5477.523971
952.848302,-222.061783,-7890.783629,4959.379811
952.848632,2516.700203,-4903.011187,6735.874072
952.848961,4885.359217,-306.438199,9104.533087
952.849290,3849.070898,3907.087040,10658.965565
952.849620,1184.329507,8886.707777,11103.089130
952.849949,-814.226536,9806.022374,12583.501014
952.850278,-2442.679609,6741.640382,14582.057057
952.850608,-4737.318029,4290.134789,14211.954086
952.850937,-6143.709319,919.314598,10436.903782
952.851267,-5033.400406,-4749.792088,7031.956449
952.851596,-1924.535449,-8963.317327,5181.441594
952.851925,296.082377,-8886.707777,4293.194464
952.852255,2146.597232,-5592.497135,4441.235652
952.852584,4145.153275,-1072.533697,6217.729913
952.852913,3108.864956,4519.963438,8586.388927
952.853243,296.082377,8580.269578,11177.109724
952.853572,-2442.679609,9193.145976,13619.789333
952.853901,-5773.606348,9116.536426,14804.118840
952.854231,-7476.080014,6818.249932,14359.995275
952.854560,-7254.018232,1225.752797,12583.501014
952.854890,-5773.606348,-3907.087040,9770.718434
952.855219,-3552.988522,-8963.317327,6883.915261
952.855548,-1258.350101,-10265.679673,4959.379811
952.855878,1924.535449,-6281.983084,5255.462188
952.856207,5329.482782,-1532.190996,6661.853478
952.856536,6735.874072,2374.896044,8660.409521
952.856866,4811.338623,6435.202183,9474.636058
952.857195,2368.659014,10035.851024,10955.047942
952.857524,-222.061783,9346.365076,14434.015869
952.857854,-2960.823768,8350.440928,16062.468941
952.858183,-6217.729913,6205.373534,13841.851115
952.858513,-6513.812290,0.000000,9400.615463
952.858842,-4367.215058,-6588.421283,6513.812290
952.859171,-740.205942,-9729.412825,4737.318029
952.859501,1554.432478,-8503.660028,4663.297435
952.859830,2960.823768,-4366.744339,5551.544565
952.860159,3330.926739,1608.800546,7994.224174
952.860489,2146.597232,6971.469032,10510.924376
952.860818,148.041188,10112.460574,11769.274478
952.861147,-1628.453072,11338.213370,12361.439231
952.861477,-3108.864956,8197.221829,13471.748144
952.861806,-4145.153275,3830.477490,14211.954086
952.862136,-4885.359217,1608.800546,12065.356855
952.862465,-4145.153275,-3370.820191,9252.574275
952.862794,-2220.617826,-7431.126331,5403.503377
952.863124,592.164754,-7431.126331,3627.009116
952.863453,4589.276840,-5592.497135,4293.194464
952.863782,7328.038826,-1685.410096,6069.688724
952.864112,6217.729913,3294.210641,8364.327145
952.864441,1924.535449,9039.926876,10510.924376
952.864770,-1628.453072,10725.336972,13471.748144
952.865100,-4885.359217,9576.193725,15174.221811
952.865429,-6883.915261,7201.297681,14656.077652
952.865759,-5995.668130,1838.629195,12139.377449
952.866088,-4071.132681,-3907.087040,8438.347739
952.866417,-1776.494261,-8120.612279,5773.606348
952.866747,-148.041188,-10035.851024,4367.215058
952.867076,1332.370696,-6818.249932,4959.379811
952.867405,2738.761985,-1378.971896,7105.977043
952.867735,2738.761985,4136.915689,9992.780217
952.868064,666.185348,7584.345430,11399.171507
952.868393,-1258.350101,9193.145976,12509.480420
952.868723,-3330.926739,8503.660028,13471.748144
952.869052,-4737.318029,5592.497135,14063.912898
952.869382,-5477.523971,1838.629195,13249.686362
952.869711,-5181.441594,-2451.505594,11177.109724
952.870040,-4293.194464,-6971.469032,8142.265362
952.870370,-1998.556043,-8656.879127,6143.709319
952.870699,1110.308913,-7201.297681,5847.626942
952.871028,4367.215058,-3753.867940,6069.688724
952.871358,6217.729913,0.000000,8512.368333
952.871687,4367.215058,4366.744339,9770.718434
952.872016,1110.308913,8810.098227,10955.047942
952.872346,-2146.597232,8656.879127,13175.665768
952.872675,-4663.297435,7507.735880,14508.036463
952.873005,-6513.812290,4519.963438,13545.768739
952.873334,-6365.771101,-536.266849,10658.965565
952.873663,-3775.050304,-6205.373534,7105.977043
952.873993,-1554.432478,-9193.145976,4589.276840
952.874322,148.041188,-8197.221829,3849.070898
952.874651,1776.494261,-5132.839837,5181.441594
952.874981,2812.782580,919.314598,7402.059420
952.875310,1702.473667,6052.154434,9104.533087
952.875639,-296.082377,8503.660028,11103.089130
952.875969,-2516.700203,9116.536426,12879.583391
952.876298,-4885.359217,8120.612279,13767.830521
952.876628,-6587.832884,4903.011187,13545.768739
952.876957,-6809.894666,766.095498,11769.274478
952.877286,-5329.482782,-4136.915689,9178.553681
952.877616,-3330.926739,-8120.612279,6513.812290
952.877945,222.061783,-8733.488677,5403.503377
952.878274,4441.235652,-5439.278036,5995.668130
952.878604,6957.935855,-536.266849,6883.915261
952.878933,6365.771101,3217.601092,8808.450710
952.879262,3108.864956,7814.174080,10436.903782
952.879592,0.000000,10495.508323,12435.459826
952.879921,-2738.761985,9346.365076,15322.262999
952.880251,-5255.462188,7354.516781,16284.530724
952.880580,-7105.977043,3830.477490,13249.686362
952.880909,-5773.606348,-2374.896044,9104.533087
952.881239,-2664.741391,-7737.564530,6365.771101
952.881568,-148.041188,-9116.536426,4367.215058
952.881897,1776.494261,-6128.763984,4515.256246
952.882227,3627.009116,-2221.676944,5921.647536
952.882556,3552.988522,3524.039291,8068.244768
952.882885,1554.432478,7967.393179,10214.842000
952.883215,-518.144159,10265.679673,12065.356855
952.883544,-2516.700203,10265.679673,13767.830521
952.883874,-5181.441594,8810.098227,13915.871710
952.884203,-6365.771101,3753.867940,12583.501014
952.884532,-5477.523971,-1532.190996,9992.780217
952.884862,-3849.070898,-6358.592633,7476.080014
952.885191,-1258.350101,-8810.098227,5551.544565
952.885520,1554.432478,-7124.688131,5329.482782
952.885850,4811.338623,-3294.210641,5773.606348
952.886179,6735.874072,1072.533697,6957.935855
952.886508,5181.441594,4519.963438,8290.306550
952.886838,2664.741391,8656.879127,10288.862594
952.887167,-592.164754,9576.193725,13989.892304
952.887497,-4515.256246,9116.536426,15766.386565
952.887826,-7402.059420,6588.421283,14285.974681
952.888155,-6957.935855,689.485948,10658.965565
952.888485,-4515.256246,-5592.497135,7698.141797
952.888814,-888.247130,-9882.631924,5255.462188
952.889143,1036.288319,-9269.755526,4737.318029
952.889473,2368.659014,-5515.887586,5255.462188
952.889802,2960.823768,459.657299,6957.935855
952.890131,2368.659014,5362.668486,9178.553681
952.890461,444.123565,7890.783629,11547.212695
952.890790,-1554.432478,9269.755526,13767.830521
952.891120,-4441.235652,9193.145976,15692.365970
952.891449,-6883.915261,6281.983084,15248.242405
952.891778,-7698.141797,1532.190996,12657.521608
952.892108,-5773.606348,-4060.306139,9326.594869
952.892437,-3552.988522,-9499.584175,7402.059420
952.892766,-518.144159,-9806.022374,6143.709319
952.893096,2146.597232,-6281.983084,5921.647536
952.893425,5181.441594,-2451.505594,6661.853478
952.893754,6143.709319,1762.019645,7624.121203
952.894084,3997.112087,5286.058936,10140.821405
952.894413,1924.535449,7660.954980,12657.521608
952.894743,-1554.432478,8580.269578,14730.098246
952.895072,-4737.318029,8427.050478,14582.057057
952.895401,-5995.668130,3753.867940,11843.295072
952.895731,-4737.318029,-1302.362347,7476.080014
952.896060,-1628.453072,-7354.516781,5477.523971
952.896389,888.247130,-9959.241474,4441.235652
952.896719,962.267725,-6511.811733,5033.400406
952.897048,1628.453072,-1608.800546,5773.606348
952.897378,1406.391290,3294.210641,7105.977043
952.897707,444.123565,5132.839837,9696.697840
952.898036,-1406.391290,8120.612279,11399.171507
952.898366,-3627.009116,8273.831378,13619.789333
952.898695,-6735.874072,6894.859482,14137.933492
952.899025,-8512.368333,4673.182538,13101.645173
952.899354,-8142.265362,-842.705048,10584.944971
952.899684,-5551.544565,-6511.811733,8586.388927
952.900013,-2368.659014,-9116.536426,6143.709319
952.900342,1406.391290,-7584.345430,5255.462188
952.900672,5625.565159,-4443.353888,5551.544565
952.901001,7698.141797,-612.876398,7328.038826
952.901331,6217.729913,4290.134789,9844.739029
952.901660,2368.659014,8197.221829,11843.295072
952.901989,-1628.453072,10495.508323,14211.954086
952.902319,-5181.441594,10189.070123,15470.304188
952.902648,-6587.832884,6052.154434,14952.160028
952.902978,-6587.832884,76.609550,11621.233289
952.903307,-4811.338623,-5132.839837,7624.121203
952.903637,-1850.514855,-9806.022374,5847.626942
952.903966,296.082377,-9269.755526,5995.668130
952.904295,1110.308913,-3907.087040,6143.709319
952.904625,3108.864956,1072.533697,7179.997637
952.904954,3701.029710,4673.182538,8512.368333
952.905284,2664.741391,8733.488677,10066.800811
952.905613,296.082377,10801.946522,11843.295072
952.905942,-2590.720797,10112.460574,12953.603985
952.906272,-5329.482782,6205.373534,13397.727550
952.906601,-7105.977043,2528.115143,12583.501014
952.906931,-6365.771101,-2757.943793,10436.903782
952.907260,-4367.215058,-7431.126331,7698.141797
952.907589,-1924.535449,-7814.174080,4515.256246
952.907919,2368.659014,-6741.640382,3923.091493
952.908248,6587.832884,-3064.381992,4515.256246
952.908578,7772.162391,995.924147,6735.874072
952.908907,4959.379811,5515.887586,9622.677246
952.909237,148.041188,10495.508323,12287.418637
952.909566,-3404.947333,12717.185267,15026.180623
952.909895,-5403.503377,9729.412825,15692.365970
952.910225,-5551.544565,4443.353888,13175.665768
952.910554,-3997.112087,-1762.019645,8512.368333
952.910884,-1628.453072,-7277.907231,5107.421000
952.911213,1406.391290,-9882.631924,4367.215058
952.911542,1998.556043,-6818.249932,5033.400406
952.911872,2368.659014,-1838.629195,6883.915261
952.912201,2294.638420,2911.162892,7920.203579
952.912531,1702.473667,6358.592633,10214.842000
952.912860,370.102971,8197.221829,11473.192101
952.913190,-1776.494261,9499.584175,13693.809927
952.913519,-4811.338623,7431.126331,13767.830521
952.913848,-6883.915261,3064.381992,13545.768739
952.914178,-7179.997637,-1225.752797,12583.501014
952.914507,-6883.915261,-5362.668486,11251.130318
952.914837,-4885.359217,-7890.783629,8512.368333
952.915166,-1258.350101,-8044.002729,5921.647536
952.915495,3404.947333,-5515.887586,5181.441594
952.915825,7550.100608,-2068.457845,6513.812290
952.916154,8142.265362,1532.190996,8438.347739
952.916484,4589.276840,6205.373534,10288.862594
952.916813,296.082377,10572.117872,12657.521608
952.917142,-2960.823768,10801.946522,15248.242405
952.917472,-5255.462188,7584.345430,14730.098246
952.917801,-5477.523971,2145.067394,11843.295072
952.918131,-3627.009116,-3524.039291,7328.038826
952.918460,-1110.308913,-8963.317327,4515.256246
952.918790,592.164754,-10112.460574,4367.215058
952.919119,1110.308913,-5592.497135,5181.441594
952.919448,1258.350101,-842.705048,6217.729913
952.919778,1332.370696,3140.991542,7772.162391
952.920107,0.000000,6971.469032,10066.800811
952.920437,-1776.494261,9193.145976,11991.336260
952.920766,-4663.297435,8580.269578,12657.521608
952.921095,-6957.935855,5822.325785,12657.521608
952.921425,-7994.224174,1532.190996,12731.542202
952.921754,-7550.100608,-2451.505594,11399.171507
952.922084,-5699.585753,-7048.078582,8734.430116
952.922413,-3330.926739,-9116.536426,5477.523971
952.922743,814.226536,-7814.174080,4367.215058
952.923072,5477.523971,-4673.182538,5625.565159
952.923401,7402.059420,0.000000,7994.224174
952.923731,6069.688724,4366.744339,9918.759623
952.924060,2146.597232,9193.145976,11621.233289
952.924390,-1110.308913,10725.336972,14804.118840
952.924719,-3627.009116,9499.584175,15914.427753
952.925048,-4589.276840,5209.449386,14434.015869
952.925378,-4219.173869,0.000000,10658.965565
952.925707,-2812.782580,-4903.011187,7328.038826
952.926037,-592.164754,-8503.660028,6069.688724
952.926366,148.041188,-7814.174080,5773.606348
952.926695,370.102971,-3677.258390,6143.709319
952.927025,1036.288319,1072.533697,7624.121203
952.927354,814.226536,5439.278036,9622.677246
952.927684,-444.123565,7814.174080,11399.171507
952.928013,-3108.864956,9422.974625,12287.418637
952.928343,-5773.606348,8580.269578,12361.439231
952.928672,-7476.080014,5132.839837,12139.377449
952.929001,-6587.832884,995.924147,11325.150913
952.929331,-5329.482782,-3830.477490,9770.718434
952.929660,-3701.029710,-7124.688131,6661.853478
952.929990,-370.102971,-7277.907231,4515.256246
952.930319,4145.153275,-5132.839837,4663.297435
952.930648,8142.265362,-1302.362347,6069.688724
952.930978,8586.388927,2374.896044,8068.244768
952.931307,5329.482782,6588.421283,10436.903782
952.931637,1332.370696,10648.727422,12805.562797
952.931966,-2146.597232,10801.946522,15248.242405
952.932296,-3627.009116,9499.584175,15026.180623
952.932625,-3849.070898,3600.648841,11695.253884
952.932954,-2590.720797,-2221.676944,7179.997637
952.933284,-962.267725,-7124.688131,4663.297435
952.933613,740.205942,-8886.707777,4367.215058
952.933943,888.247130,-5439.278036,5921.647536
952.934272,740.205942,-1072.533697,6957.935855
952.934601,296.082377,3600.648841,8512.368333
952.934931,370.102971,5975.544884,10732.986159
952.935260,-962.267725,7967.393179,11843.295072
952.935590,-3701.029710,8810.098227,12435.459826
952.935919,-6069.688724,6205.373534,12065.356855
952.936248,-6809.894666,1072.533697,13693.809927
952.936578,-6883.915261,-1608.800546,13767.830521
952.936907,-6439.791695,-4596.572988,11325.150913
952.937237,-3923.091493,-7354.516781,7105.977043
952.937566,962.267725,-7584.345430,4959.379811
952.937896,6735.874072,-5669.106685,5107.421000
952.938225,10066.800811,-1915.238745,7328.038826
952.938554,8808.450710,2374.896044,9548.656652
952.938884,3849.070898,8810.098227,11473.192101
952.939213,-222.061783,11951.089769,13989.892304
952.939543,-3256.906145,10035.851024,14952.160028
952.939872,-4145.153275,7048.078582,13323.706956
952.940201,-3330.926739,229.828649,9696.697840
952.940531,-2072.576638,-5745.716235,6809.894666
952.940860,-1406.391290,-8427.050478,5255.462188
952.941190,-2072.576638,-7737.564530,4959.379811
952.941519,-1998.556043,-5209.449386,5995.668130
952.941848,-1332.370696,-1302.362347,7994.224174
952.942178,-888.247130,3830.477490,10288.862594
952.942507,-1406.391290,6741.640382,11473.192101
952.942837,-2516.700203,8044.002729,10807.006753
952.943166,-4367.215058,6128.763984,11621.233289
952.943496,-5847.626942,2298.286494,14359.995275
952.943825,-6661.853478,766.095498,14508.036463
952.944154,-7179.997637,-536.266849,10584.944971
952.944484,-5329.482782,-5745.716235,5699.585753
952.944813,0.000000,-7277.907231,2960.823768
952.945143,5033.400406,-7431.126331,3627.009116
952.945472,8660.409521,-4596.572988,5329.482782
952.945801,7254.018232,1149.143247,7994.224174
952.946131,2368.659014,7431.126331,11325.150913
952.946460,-1332.370696,10801.946522,14359.995275
952.946790,-3997.112087,8503.660028,16432.571912
952.947119,-5551.544565,6894.859482,15618.345376
952.947449,-5181.441594,1991.848295,13175.665768
952.947778,-3404.947333,-2145.067394,9770.718434
952.948107,-1850.514855,-5515.887586,7105.977043
952.948437,-740.205942,-8656.879127,4737.318029
952.948766,74.020594,-7354.516781,4663.297435
952.949096,1332.370696,-2757.943793,5847.626942
952.949425,2516.700203,2068.457845,9030.512492
952.949754,1332.370696,6128.763984,11029.068536
952.950084,-1184.329507,9499.584175,11399.171507
952.950413,-3330.926739,9039.926876,11177.109724
952.950743,-5107.421000,5975.544884,13027.624579
952.951072,-5847.626942,2298.286494,14656.077652
952.951401,-7105.977043,1378.971896,12731.542202
952.951731,-6735.874072,-3294.210641,8216.285956
952.952060,-3182.885551,-7354.516781,4811.338623
952.952390,1924.535449,-7507.735880,3775.050304
952.952719,6883.915261,-4903.011187,4589.276840
952.953049,8586.388927,-766.095498,6513.812290
952.953378,6365.771101,4596.572988,9474.636058
952.953707,2072.576638,10418.898773,11843.295072
952.954037,-1036.288319,11491.432470,14211.954086
952.954366,-2886.803174,8963.317327,15248.242405
952.954696,-3849.070898,6741.640382,13397.727550
952.955025,-3330.926739,919.314598,9992.780217
952.955354,-1554.432478,-3140.991542,6587.832884
952.955684,-222.061783,-6894.859482,3997.112087
952.956013,444.123565,-7737.564530,3404.947333
952.956343,888.247130,-4213.525239,5255.462188
952.956672,1332.370696,229.828649,7698.141797
952.957002,1554.432478,5209.449386,10214.842000
952.957331,-222.061783,7124.688131,10955.047942
952.957660,-2220.617826,8580.269578,10732.986159
952.957990,-4071.132681,6205.373534,13175.665768
952.958319,-5847.626942,1991.848295,16876.695478
952.958649,-7476.080014,2528.115143,16580.613101
952.958978,-8438.347739,459.657299,12065.356855
952.959307,-5107.421000,-6128.763984,7254.018232
952.959637,592.164754,-8886.707777,4145.153275
952.959966,6217.729913,-7660.954980,3478.967927
952.960296,10066.800811,-4596.572988,4737.318029
952.960625,9326.594869,766.095498,6735.874072
952.960954,4515.256246,8273.831378,10584.944971
952.961284,0.000000,10495.508323,14137.933492
952.961613,-3182.885551,9116.536426,16580.613101
952.961943,-5921.647536,8580.269578,15248.242405
952.962272,-5699.585753,2834.553343,12361.439231
952.962602,-3923.091493,-3753.867940,8512.368333
952.962931,-2294.638420,-7201.297681,5847.626942
952.963260,-1036.288319,-9882.631924,4219.173869
952.963590,-962.267725,-8580.269578,4589.276840
952.963919,-296.082377,-3217.601092,6661.853478
952.964249,740.205942,2451.505594,8808.450710
952.964578,222.061783,4903.011187,10807.006753
952.964907,-592.164754,7967.393179,10658.965565
952.965237,-2442.679609,8350.440928,10510.924376
952.965566,-4293.194464,4136.915689,12731.542202
952.965896,-6439.791695,1149.143247,14508.036463
952.966225,-8364.327145,1302.362347,13397.727550
952.966555,-7994.224174,-3524.039291,9474.636058
952.966884,-3849.070898,-8580.269578,5847.626942
952.967213,1184.329507,-8273.831378,4071.132681
952.967543,6143.709319,-6435.202183,3552.988522
952.967872,8882.471304,-3447.429741,5403.503377
952.968202,7179.997637,2757.943793,8364.327145
952.968531,2738.761985,9576.193725,11917.315666
952.968860,-814.226536,10495.508323,14804.118840
952.969190,-4071.132681,8656.879127,16210.510130
952.969519,-5625.565159,7277.907231,15396.283594
952.969849,-5699.585753,1532.190996,12879.583391
952.970178,-3997.112087,-3370.820191,8364.327145
952.970507,-2220.617826,-7584.345430,5107.421000
952.970837,0.000000,-9882.631924,3404.947333
952.971166,1036.288319,-7354.516781,4811.338623
952.971496,1998.556043,-1608.800546,7105.977043
952.971825,2072.576638,3830.477490,9474.636058
952.972155,666.185348,7124.688131,10955.047942
952.972484,-962.267725,10418.898773,10807.006753
952.972813,-2590.720797,7507.735880,13027.624579
952.973143,-3923.091493,3677.258390,16210.510130
952.973472,-6439.791695,3294.210641,15618.345376
952.973802,-7476.080014,1225.752797,11399.171507
952.974131,-4737.318029,-4903.011187,7772.162391
952.974460,74.020594,-6971.469032,4441.235652
952.974790,4811.338623,-6894.859482,2812.782580
952.975119,9030.512492,-4749.792088,3404.947333
952.975449,9400.615463,536.266849,5625.565159
952.975778,5699.585753,7814.174080,9400.615463
952.976108,1184.329507,11491.432470,12213.398043
952.976437,-2664.741391,10495.508323,14730.098246
952.976766,-5995.668130,9806.022374,15322.262999
952.977096,-6069.688724,5286.058936,14211.954086
952.977425,-4737.318029,-229.828649,10214.842000
952.977755,-3404.947333,-4443.353888,5847.626942
952.978084,-1258.350101,-8656.879127,2590.720797
952.978413,296.082377,-9116.536426,2368.659014
952.978743,2072.576638,-4136.915689,5107.421000
952.979072,2886.803174,2145.067394,8364.327145
952.979402,1480.411884,5975.544884,10214.842000
952.979731,-592.164754,9652.803275,10807.006753
952.980060,-2072.576638,10189.070123,11843.295072
952.980390,-4071.132681,5056.230287,15544.324782
952.980719,-6291.750507,3600.648841,17987.004391
952.981049,-8882.471304,3600.648841,15618.345376
952.981378,-7846.182985,-1991.848295,9992.780217
952.981708,-3478.967927,-7814.174080,6291.750507
952.982037,1998.556043,-9193.145976,3923.091493
952.982366,6587.832884,-7201.297681,3256.906145
952.982696,9474.636058,-3294.210641,4293.194464
952.983025,7624.121203,3447.429741,7254.018232
952.983355,3256.906145,9652.803275,10732.986159
952.983684,-1480.411884,10648.727422,13323.706956
952.984013,-4515.256246,9652.803275,15396.283594
952.984343,-6217.729913,7277.907231,15174.221811
952.984672,-5847.626942,919.314598,12805.562797
952.985002,-4441.235652,-3140.991542,8660.409521
952.985331,-3627.009116,-7967.393179,5625.565159
952.985661,-1924.535449,-10189.070123,4219.173869
952.985990,-592.164754,-7431.126331,5255.462188
952.986319,1702.473667,-2068.457845,7254.018232
952.986649,2442.679609,2451.505594,9178.553681
952.986978,1628.453072,5056.230287,9844.739029
952.987308,222.061783,6588.421283,11325.150913
952.987637,-1924.535449,5898.935335,15026.180623
952.987966,-5551.544565,6665.030833,16876.695478
952.988296,-8512.368333,5745.716235,14211.954086
952.988625,-7846.182985,919.314598,9252.574275
952.988955,-3997.112087,-6435.202183,5847.626942
952.989284,1036.288319,-10035.851024,3330.926739
952.989613,4737.318029,-9729.412825,3404.947333
952.989943,6735.874072,-5132.839837,4663.297435
952.990272,6439.791695,2298.286494,7624.121203
952.990602,3478.967927,6665.030833,10214.842000
952.990931,296.082377,8273.831378,12509.480420
952.991261,-2368.659014,8273.831378,15544.324782
952.991590,-4885.359217,7507.735880,16950.716072
952.991919,-6439.791695,4749.792088,15988.448347
952.992249,-6513.812290,229.828649,11621.233289
952.992578,-4885.359217,-4443.353888,6957.935855
952.992908,-2294.638420,-9652.803275,2590.720797
952.993237,666.185348,-9882.631924,2072.576638
952.993566,3108.864956,-5975.544884,4589.276840
952.993896,4293.194464,229.828649,8290.306550
952.994225,2146.597232,6052.154434,9918.759623
952.994555,-370.102971,9116.536426,11103.089130
952.994884,-2220.617826,11031.775171,11843.295072
952.995213,-4145.153275,7967.393179,13915.871710
952.995543,-5551.544565,3677.258390,15618.345376
952.995872,-7624.121203,919.314598,14211.954086
952.996202,-7846.182985,-1532.190996,10955.047942
952.996531,-4737.318029,-6741.640382,7550.100608
952.996861,-518.144159,-7967.393179,5403.503377
952.997190,3997.112087,-5515.887586,4293.194464
952.997519,7772.162391,-3294.210641,4811.338623
952.997849,8216.285956,1685.410096,7254.018232
952.998170,4515.256246,8273.831378,10436.903782
952.998500,222.061783,11491.432470,13249.686362
952.998829,-3849.070898,10189.070123,15470.304188
952.999159,-5921.647536,9499.584175,14730.098246
952.999489,-5773.606348,4596.572988,11917.315666
952.999818,-3256.906145,-2068.457845,7550.100608
953.000148,-1258.350101,-6205.373534,3627.009116
953.000477,518.144159,-9806.022374,2146.597232
953.000807,1776.494261,-7814.174080,4441.235652
953.001137,2368.659014,-1072.533697,7105.977043
953.001466,2146.597232,4596.572988,9400.615463
953.001796,444.123565,7737.564530,11399.171507
953.002125,-1258.350101,10648.727422,10362.883188
953.002455,-2294.638420,8120.612279,13175.665768
953.002785,-3404.947333,3217.601092,16876.695478
953.003114,-6661.853478,4060.306139,16876.695478
953.003444,-8734.430116,2528.115143,12361.439231
953.003773,-6439.791695,-4903.011187,7476.080014
953.004103,-1110.308913,-8350.440928,3627.009116
953.004433,3923.091493,-8197.221829,2294.638420
953.004762,7994.224174,-6511.811733,2664.741391
953.005092,8734.430116,-919.314598,5329.482782
953.005421,5847.626942,7201.297681,9104.533087
953.005751,1480.411884,9193.145976,12583.501014
953.006081,-2146.597232,9576.193725,15322.262999
953.006410,-6587.832884,9576.193725,15766.386565
953.006740,-7328.038826,4826.401637,14804.118840
953.007069,-5773.606348,-919.314598,11843.295072
953.007399,-4441.235652,-4136.915689,8512.368333
953.007729,-2368.659014,-8656.879127,5033.400406
953.008058,-296.082377,-10725.336972,4145.153275
953.008388,888.247130,-6205.373534,5255.462188
953.008717,2294.638420,153.219100,7920.203579
953.009047,2072.576638,3983.696590,9844.739029
953.009377,222.061783,7354.516781,10732.986159
953.009706,-1332.370696,10955.165621,10881.027347
953.010036,-3182.885551,6052.154434,13989.892304
953.010365,-5329.482782,2757.943793,16580.613101
953.010695,-8512.368333,2451.505594,15544.324782
953.011025,-9178.553681,-919.314598,10584.944971
953.011354,-5699.585753,-6971.469032,6587.832884
953.011684,-666.185348,-9116.536426,4071.132681
953.012013,4293.194464,-8120.612279,3701.029710
953.012343,8142.265362,-5209.449386,4589.276840
953.012673,7254.018232,1838.629195,7105.977043
953.013002,3552.988522,9422.974625,9400.615463
953.013332,-148.041188,10801.946522,11769.274478
953.013661,-3108.864956,9039.926876,15026.180623
953.013991,-5995.668130,8273.831378,15544.324782
953.014321,-6883.915261,3140.991542,13693.809927
953.014650,-5773.606348,-2068.457845,9992.780217
953.014980,-3997.112087,-5209.449386,6143.709319
953.015309,-2220.617826,-9959.241474,3849.070898
953.015639,-666.185348,-9652.803275,3849.070898
953.015969,1258.350101,-4213.525239,5551.544565
953.016298,2590.720797,2298.286494,8068.244768
953.016628,2516.700203,5362.668486,9770.718434
953.016957,592.164754,8810.098227,9844.739029
953.017287,-1184.329507,9346.365076,11251.130318
953.017617,-3330.926739,4673.182538,15100.201217
953.017946,-5403.503377,3600.648841,16728.654289
953.018276,-7846.182985,3600.648841,14434.015869
953.018605,-6587.832884,-2374.896044,10066.800811
953.018935,-2072.576638,-7890.783629,6069.688724
953.019265,3108.864956,-8503.660028,4071.132681
953.019594,7846.182985,-6894.859482,3478.967927
953.019924,9622.677246,-2834.553343,5107.421000
953.020253,7179.997637,5132.839837,8808.450710
953.020583,2368.659014,10495.508323,12509.480420
953.020913,-1184.329507,10342.289223,15248.242405
953.021242,-4959.379811,10265.679673,16210.510130
953.021572,-6587.832884,7201.297681,14434.015869
953.021901,-5625.565159,229.828649,11399.171507
953.022231,-3997.112087,-4136.915689,7105.977043
953.022561,-2516.700203,-7660.954980,4145.153275
953.022890,-666.185348,-9806.022374,2812.782580
953.023220,222.061783,-6511.811733,4515.256246
953.023549,1480.411884,153.219100,7328.038826
953.023879,2368.659014,4903.011187,9770.718434
953.024209,666.185348,8120.612279,10881.027347
953.024538,-444.123565,10801.946522,10658.965565
953.024868,-1850.514855,6894.859482,14359.995275
953.025197,-4071.132681,4366.744339,17616.901420
953.025527,-7402.059420,5132.839837,15618.345376
953.025857,-8142.265362,1149.143247,10510.924376
953.026186,-4219.173869,-5592.497135,6217.729913
953.026516,740.205942,-8503.660028,2664.741391
953.026845,5107.421000,-8044.002729,1702.473667
953.027175,8512.368333,-5132.839837,1924.535449
953.027505,7994.224174,1378.971896,5625.565159
953.027834,4663.297435,8810.098227,9622.677246
953.028164,222.061783,10801.946522,12805.562797
953.028493,-3701.029710,10342.289223,15618.345376
953.028823,-7254.018232,9269.755526,16284.530724
953.029153,-7254.018232,3370.820191,14582.057057
953.029482,-6365.771101,-1838.629195,11399.171507
953.029812,-5181.441594,-5669.106685,8216.285956
953.030141,-3404.947333,-9499.584175,4885.359217
953.030471,-1998.556043,-9729.412825,3404.947333
953.030801,962.267725,-5669.106685,5033.400406
953.031130,3034.844362,-153.219100,8068.244768
953.031460,2516.700203,4749.792088,10140.821405
953.031789,1554.432478,8350.440928,10881.027347
953.032119,148.041188,8273.831378,14063.912898
953.032449,-2812.782580,6971.469032,16432.571912
953.032778,-6217.729913,6818.249932,16358.551318
953.033108,-7476.080014,2757.943793,12953.603985
953.033437,-5181.441594,-2298.286494,8364.327145
953.033767,-1480.411884,-7354.516781,5403.503377
953.034097,2146.597232,-10189.070123,3478.967927
953.034426,5255.462188,-8350.440928,3775.050304
953.034756,5995.668130,-2298.286494,5773.606348
953.035085,4293.194464,4290.134789,8734.430116
953.035415,1776.494261,7737.564530,11695.253884
953.035745,-296.082377,9499.584175,14211.954086
953.036074,-2664.741391,8503.660028,16062.468941
953.036404,-5477.523971,6052.154434,15396.283594
953.036733,-6587.832884,2834.553343,12435.459826
953.037063,-5477.523971,-1302.362347,8512.368333
953.037393,-3701.029710,-6741.640382,4515.256246
953.037722,-1628.453072,-9499.584175,1480.411884
953.038052,1110.308913,-8350.440928,2960.823768
953.038381,3182.885551,-3907.087040,5255.462188
953.038711,2812.782580,2604.724693,7994.224174
953.039041,370.102971,6205.373534,9770.718434
953.039370,-888.247130,9499.584175,10436.903782
953.039700,-3182.885551,8733.488677,13175.665768
953.040030,-5403.503377,5975.544884,16580.613101
953.040359,-7550.100608,2681.334243,17098.757260
953.040689,-7994.224174,919.314598,13841.851115
953.041018,-6143.709319,-4136.915689,9178.553681
953.041348,-1850.514855,-8963.317327,5773.606348
953.041678,2738.761985,-8503.660028,4219.173869
953.042007,6661.853478,-5286.058936,3923.091493
953.042337,8068.244768,-1915.238745,5699.585753
953.042666,6217.729913,4903.011187,8438.347739
953.042996,2812.782580,9882.631924,12509.480420
953.043326,-1332.370696,10418.898773,15322.262999
953.043655,-5255.462188,9422.974625,16062.468941
953.043985,-6809.894666,6281.983084,14359.995275
953.044314,-5403.503377,612.876398,10881.027347
953.044644,-3552.988522,-4519.963438,7105.977043
953.044974,-2146.597232,-8120.612279,4145.153275
953.045303,-962.267725,-9346.365076,4367.215058
953.045633,592.164754,-5362.668486,6069.688724
953.045962,1776.494261,995.924147,7772.162391
953.046292,1924.535449,3907.087040,9252.574275
953.046622,518.144159,8044.002729,9844.739029
953.046951,-814.226536,9499.584175,11251.130318
953.047281,-2664.741391,5822.325785,15174.221811
953.047610,-5033.400406,5286.058936,16876.695478
953.047940,-7846.182985,4673.182538,14211.954086
953.048270,-6439.791695,0.000000,9252.574275
953.048599,-2294.638420,-6052.154434,5477.523971
953.048929,1998.556043,-7737.564530,2738.761985
953.049258,6587.832884,-6971.469032,1850.514855
953.049588,8956.491898,-3677.258390,2886.803174
953.049918,7698.141797,3447.429741,6069.688724
953.050247,4071.132681,8044.002729,10955.047942
953.050577,-444.123565,9652.803275,13693.809927
953.050906,-4885.359217,11261.603821,15766.386565
953.051236,-7476.080014,8733.488677,15544.324782
953.051566,-7254.018232,2374.896044,13693.809927
953.051895,-5329.482782,-1838.629195,9622.677246
953.052225,-3552.988522,-6971.469032,6069.688724
953.052554,-1184.329507,-9806.022374,2960.823768
953.052884,74.020594,-7814.174080,3627.009116
953.053214,2072.576638,-3370.820191,6069.688724
953.053543,2442.679609,1838.629195,9178.553681
953.053873,740.205942,6435.202183,11251.130318
953.054202,-740.205942,10189.070123,11399.171507
953.054532,-1628.453072,8810.098227,12953.603985
953.054862,-3256.906145,4213.525239,15692.365970
953.055191,-5847.626942,2987.772442,16136.489536
953.055521,-7550.100608,536.266849,13249.686362
953.055850,-6217.729913,-3217.601092,8734.430116
953.056180,-2072.576638,-7507.735880,6143.709319
953.056510,2590.720797,-8503.660028,4441.235652
953.056839,6513.812290,-6128.763984,3478.967927
953.057169,7698.141797,-2681.334243,4959.379811
953.057498,6735.874072,4136.915689,8364.327145
953.057828,2220.617826,9422.974625,12139.377449
953.058158,-2072.576638,10189.070123,15544.324782
953.058487,-5921.647536,9959.241474,16654.633695
953.058817,-8438.347739,6435.202183,14878.139434
953.059146,-6439.791695,459.657299,11473.192101
953.059476,-4145.153275,-4596.572988,7328.038826
953.059806,-2590.720797,-8963.317327,3552.988522
953.060135,-962.267725,-10342.289223,1554.432478
953.060465,888.247130,-7584.345430,3182.885551
953.060794,2368.659014,-1532.190996,6217.729913
953.061124,2146.597232,4136.915689,8808.450710
953.061454,-296.082377,7354.516781,10881.027347
953.061783,-1628.453072,9499.584175,11251.130318
953.062113,-3330.926739,6741.640382,14211.954086
953.062442,-5477.523971,4519.963438,16728.654289
953.062772,-7772.162391,3064.381992,15914.427753
953.063102,-7550.100608,-766.095498,11103.089130
953.063431,-4071.132681,-6052.154434,6809.894666
953.063761,1110.308913,-9806.022374,4145.153275
953.064090,5699.585753,-8273.831378,3404.947333
953.064420,8512.368333,-4749.792088,4071.132681
953.064750,7846.182985,1455.581446,6883.915261
953.065079,4663.297435,7967.393179,10436.903782
953.065409,592.164754,9806.022374,13841.851115
953.065738,-3404.947333,9729.412825,16506.592507
953.066068,-6587.832884,9116.536426,16802.674883
953.066398,-7254.018232,3217.601092,15248.242405
953.066727,-5403.503377,-995.924147,10807.006753
953.067057,-3701.029710,-5669.106685,6735.874072
953.067386,-1554.432478,-9346.365076,3627.009116
953.067716,-222.061783,-8963.317327,2368.659014
953.068046,1850.514855,-4290.134789,4737.318029
953.068375,3627.009116,1915.238745,7772.162391
953.068705,2442.679609,5286.058936,9992.780217
953.069034,74.020594,8886.707777,11325.150913
953.069364,-1776.494261,8733.488677,14285.974681
953.069694,-4515.256246,6741.640382,17394.839637
953.070023,-6883.915261,6894.859482,16580.613101
953.070353,-7031.956449,2911.162892,12583.501014
953.070682,-3849.070898,-2528.115143,7402.059420
953.071012,370.102971,-6665.030833,2738.761985
953.071342,5255.462188,-8886.707777,1036.288319
953.071671,8586.388927,-5669.106685,1628.453072
953.072001,8290.306550,1072.533697,4441.235652
953.072330,5699.585753,6358.592633,7772.162391
953.072660,1924.535449,9806.022374,10881.027347
953.072990,-1776.494261,11338.213370,13027.624579
953.073319,-5329.482782,9039.926876,15914.427753
953.073649,-7772.162391,5056.230287,16654.633695
953.073978,-8364.327145,689.485948,14137.933492
953.074308,-7254.018232,-2757.943793,9474.636058
953.074638,-5181.441594,-6894.859482,5255.462188
953.074967,-1998.556043,-9116.536426,2886.803174
953.075297,1480.411884,-7277.907231,2886.803174
953.075626,4737.318029,-2451.505594,4811.338623
953.075956,5551.544565,3140.991542,7698.141797
953.076286,3552.988522,7277.907231,11029.068536
953.076615,518.144159,9576.193725,12879.583391
953.076945,-3330.926739,10035.851024,15840.407159
953.077274,-6735.874072,8044.002729,17172.777854
953.077604,-7772.162391,4213.525239,15248.242405
953.077934,-6143.709319,-995.924147,10584.944971
953.078263,-3034.844362,-7737.564530,7772.162391
953.078593,518.144159,-10418.898773,5847.626942
953.078922,2368.659014,-8580.269578,4367.215058
953.079252,4737.318029,-4749.792088,4515.256246
953.079582,5921.647536,-153.219100,6809.894666
953.079911,4737.318029,5439.278036,10658.965565
953.080241,1702.473667,8810.098227,12953.603985
953.080570,-1850.514855,9346.365076,15396.283594
953.080900,-5329.482782,9039.926876,15618.345376
953.081230,-7031.956449,4903.011187,13841.851115
953.081559,-5403.503377,-153.219100,10288.862594
953.081889,-3775.050304,-5592.497135,5551.544565
953.082218,-1332.370696,-10035.851024,2664.741391
953.082548,518.144159,-9576.193725,3108.864956
953.082878,1850.514855,-4903.011187,5181.441594
953.083207,1924.535449,1685.410096,6957.935855
953.083537,1110.308913,4826.401637,8882.471304
953.083866,-296.082377,7814.174080,10658.965565
953.084196,-1998.556043,9422.974625,12509.480420
953.084526,-4737.318029,5745.716235,15396.283594
953.084855,-7031.956449,3217.601092,16580.613101
953.085185,-8660.409521,2145.067394,14285.974681
953.085514,-7698.141797,-2451.505594,10362.883188
953.085844,-2886.803174,-7584.345430,6735.874072
953.086174,1406.391290,-8733.488677,3775.050304
953.086503,5773.606348,-6894.859482,2294.638420
953.086833,9474.636058,-2834.553343,3775.050304
953.087162,8586.388927,3217.601092,7105.977043
953.087492,4589.276840,9116.536426,10288.862594
953.087822,444.123565,10418.898773,13619.789333
953.088151,-3849.070898,10112.460574,16358.551318
953.088481,-6735.874072,8503.660028,16210.510130
953.088810,-7105.977043,2374.896044,14211.954086
953.089140,-5477.523971,-2987.772442,10140.821405
953.089470,-3923.091493,-6665.030833,6883.915261
953.089799,-1406.391290,-9729.412825,4663.297435
953.090129,148.041188,-7967.393179,4071.132681
953.090458,2812.782580,-2757.943793,5773.606348
953.090788,3627.009116,2451.505594,8068.244768
953.091118,1998.556043,6665.030833,10288.862594
953.091447,-370.102971,9422.974625,11843.295072
953.091777,-2442.679609,8503.660028,14804.118840
953.092106,-5107.421000,7048.078582,16432.571912
953.092436,-7105.977043,5439.278036,14952.160028
953.092766,-6365.771101,842.705048,10955.047942
953.093095,-3627.009116,-4826.401637,6513.812290
953.093425,814.226536,-8273.831378,2516.700203
953.093754,4663.297435,-7660.954980,2146.597232
953.094084,8216.285956,-4596.572988,2516.700203
953.094414,8290.306550,2298.286494,5921.647536
953.094743,5773.606348,6741.640382,9548.656652
953.095073,1110.308913,10189.070123,11991.336260
953.095402,-2294.638420,11338.213370,15618.345376
953.095732,-5921.647536,9346.365076,16654.633695
953.096062,-7698.141797,5745.716235,15396.283594
953.096391,-7179.997637,-383.047749,11399.171507
953.096721,-5181.441594,-5056.230287,6661.853478
953.097050,-2368.659014,-9499.584175,3478.967927
953.097380,-222.061783,-9346.365076,2294.638420
953.097709,1924.535449,-6358.592633,3404.947333
953.098039,3701.029710,-383.047749,6735.874072
953.098368,3182.885551,4749.792088,9918.759623
953.098698,1036.288319,8810.098227,11399.171507
953.099027,-888.247130,9959.241474,12213.398043
953.099357,-3775.050304,6588.421283,15544.324782
953.099686,-6439.791695,4366.744339,17542.880825
953.100016,-7846.182985,2451.505594,15988.448347
953.100345,-7031.956449,-2145.067394,11621.233289
953.100675,-3478.967927,-7660.954980,7402.059420
953.101004,814.226536,-9806.022374,4663.297435
953.101333,4959.379811,-8120.612279,3478.967927
953.101663,8290.306550,-4290.134789,4441.235652
953.101992,7550.100608,2374.896044,7105.977043
953.102322,4071.132681,8810.098227,11029.068536
953.102651,0.000000,10878.556072,13545.768739
953.102981,-4145.153275,10495.508323,15840.407159
953.103310,-6735.874072,8044.002729,15544.324782
953.103640,-7105.977043,2298.286494,13027.624579
953.103969,-5921.647536,-3370.820191,8882.471304
953.104299,-4663.297435,-7354.516781,5329.482782
953.104628,-2590.720797,-10035.851024,3478.967927
953.104958,-1110.308913,-8350.440928,3256.906145
953.105287,1628.453072,-3677.258390,4811.338623
953.105617,2664.741391,1762.019645,7179.997637
953.105946,2072.576638,5822.325785,9474.636058
953.106276,518.144159,9959.241474,10362.883188
953.106605,-1702.473667,9422.974625,12287.418637
953.106935,-4367.215058,6741.640382,15396.283594
953.107264,-6587.832884,4519.963438,16210.510130
953.107593,-7772.162391,1455.581446,13323.706956
953.107923,-5847.626942,-3447.429741,9104.533087
953.108252,-2146.597232,-8120.612279,5033.400406
953.108582,2368.659014,-9269.755526,3182.885551
953.108911,6513.812290,-7201.297681,2590.720797
953.109241,8290.306550,-2221.676944,5255.462188
953.109570,6587.832884,4979.620737,8882.471304
953.109900,2738.761985,9346.365076,11917.315666
953.110229,-1258.350101,10801.946522,14952.160028
953.110559,-4885.359217,9806.022374,16802.674883
953.110888,-7031.956449,6281.983084,16136.489536
953.111218,-6587.832884,1378.971896,13323.706956
953.111547,-4885.359217,-3677.258390,9400.615463
953.111877,-2442.679609,-8120.612279,5995.668130
953.112206,-592.164754,-9346.365076,3701.029710
953.112536,1776.494261,-6588.421283,3775.050304
953.112865,4071.132681,-2298.286494,5773.606348
953.113194,3923.091493,2757.943793,8882.471304
953.113524,1554.432478,8350.440928,10658.965565
953.113853,-296.082377,9729.412825,13027.624579
953.114183,-2738.761985,7431.126331,16580.613101
953.114512,-6069.688724,7201.297681,17172.777854
953.114842,-7550.100608,4136.915689,13841.851115
953.115171,-5329.482782,-1608.800546,9474.636058
953.115501,-1924.535449,-5592.497135,5255.462188
953.115830,2146.597232,-8044.002729,2220.617826
953.116160,5329.482782,-7890.783629,1258.350101
953.116489,8068.244768,-2757.943793,3108.864956
953.116819,7105.977043,3830.477490,7105.977043
953.117148,3849.070898,8503.660028,10584.944971
953.117478,-518.144159,10878.556072,12731.542202
953.117807,-4145.153275,10035.851024,15840.407159
953.118137,-7105.977043,7584.345430,17098.757260
953.118466,-8734.430116,3600.648841,14656.077652
953.118796,-7179.997637,-1072.533697,10436.903782
953.119125,-4737.318029,-6358.592633,5551.544565
953.119454,-1480.411884,-10035.851024,2590.720797
953.119784,1184.329507,-8963.317327,1628.453072
953.120113,3775.050304,-4443.353888,3330.926739
953.120443,4959.379811,1532.190996,6069.688724
953.120772,3034.844362,6511.811733,10881.027347
953.121102,-888.247130,10955.165621,12731.542202
953.121431,-3627.009116,11951.089769,13397.727550
953.121761,-5625.565159,7354.516781,16210.510130
953.122090,-6661.853478,2604.724693,17616.901420
953.122420,-7254.018232,306.438199,15100.201217
953.122749,-6217.729913,-4673.182538,10658.965565
953.123079,-2664.741391,-9269.755526,6809.894666
953.123408,1110.308913,-9116.536426,4145.153275
953.123738,5181.441594,-6894.859482,2960.823768
953.124067,8364.327145,-3064.381992,4737.318029
953.124397,7550.100608,3600.648841,7920.203579
953.124726,4441.235652,10189.070123,11103.089130
953.125055,518.144159,11568.042020,13989.892304
953.125385,-3552.988522,10112.460574,15692.365970
953.125714,-6661.853478,7201.297681,15322.262999
953.126044,-6365.771101,1302.362347,12583.501014
953.126373,-4737.318029,-3830.477490,8364.327145
953.126703,-3330.926739,-8197.221829,5033.400406
953.127032,-1850.514855,-10035.851024,2738.761985
953.127362,0.000000,-8120.612279,3256.906145
953.127691,2220.617826,-3064.381992,5921.647536
953.128021,2590.720797,2374.896044,8512.368333
953.128350,370.102971,7354.516781,10881.027347
953.128680,-1554.432478,9729.412825,11251.130318
953.129009,-3034.844362,6358.592633,14285.974681
953.129339,-4959.379811,5592.497135,16950.716072
953.129668,-7402.059420,4136.915689,15470.304188
953.129998,-6809.894666,-306.438199,11177.109724
953.130327,-3997.112087,-5209.449386,6957.935855
953.130657,74.020594,-8427.050478,3108.864956
953.130986,4145.153275,-9576.193725,1480.411884
953.131315,7994.224174,-6358.592633,2812.782580
953.131645,8142.265362,995.924147,6217.729913
953.131974,5181.441594,6971.469032,10362.883188
953.132304,962.267725,9576.193725,12731.542202
953.132633,-2812.782580,10418.898773,15470.304188
953.132963,-6291.750507,8503.660028,17616.901420
953.133292,-7846.182985,4366.744339,16950.716072
953.133622,-7254.018232,-229.828649,12879.583391
953.133951,-5403.503377,-4979.620737,8068.244768
953.134281,-2812.782580,-9806.022374,3849.070898
953.134610,0.000000,-10418.898773,2886.803174
953.134940,2294.638420,-6588.421283,3997.112087
953.135269,3775.050304,-383.047749,7105.977043
953.135599,2664.741391,5362.668486,9992.780217
953.135928,0.000000,9729.412825,10955.047942
953.136258,-1480.411884,10189.070123,12213.398043
953.136587,-3478.967927,7201.297681,15470.304188
953.136916,-5551.544565,5515.887586,16654.633695
953.137246,-7179.997637,2987.772442,13693.809927
953.137575,-5699.585753,-1762.019645,9178.553681
953.137905,-2738.761985,-6588.421283,5699.585753
953.138234,962.267725,-8886.707777,3108.864956
953.138564,5255.462188,-7201.297681,2738.761985
953.138893,8290.306550,-2604.724693,4145.153275
953.139223,7624.121203,3753.867940,7031.956449
953.139552,4071.132681,8886.707777,10214.842000
953.139882,0.000000,10648.727422,12731.542202
953.140211,-3997.112087,10878.556072,15470.304188
953.140541,-6809.894666,9116.536426,15914.427753
953.140870,-7179.997637,4290.134789,13989.892304
953.141200,-4885.359217,-1608.800546,9326.594869
953.141529,-3108.864956,-7584.345430,4441.235652
953.141859,-962.267725,-10572.117872,1702.473667
953.142188,888.247130,-8580.269578,2368.659014
953.142518,3108.864956,-3677.258390,4811.338623
953.142847,3108.864956,1991.848295,8142.265362
953.143176,1554.432478,6588.421283,10807.006753
953.143506,-962.267725,9882.631924,12139.377449
953.143835,-2960.823768,8810.098227,15322.262999
953.144165,-5477.523971,7201.297681,17987.004391
953.144494,-7328.038826,5132.839837,17394.839637
953.144824,-6661.853478,1149.143247,13471.748144
953.145153,-3627.009116,-4826.401637,8734.430116
953.145483,222.061783,-9269.755526,4959.379811
953.145812,3552.988522,-8810.098227,3256.906145
953.146142,6809.894666,-5745.716235,3182.885551
953.146471,7994.224174,-536.266849,5847.626942
953.146801,6069.688724,4826.401637,9104.533087
953.147130,1776.494261,9346.365076,12361.439231
953.147460,-2146.597232,10801.946522,14656.077652
953.147789,-5625.565159,9499.584175,16136.489536
953.148119,-7550.100608,5669.106685,15174.221811
953.148448,-6809.894666,153.219100,12139.377449
953.148777,-5181.441594,-4903.011187,8068.244768
953.149107,-2960.823768,-8810.098227,4219.173869
953.149436,-1036.288319,-9806.022374,1924.535449
953.149766,1628.453072,-7354.516781,2960.823768
953.150095,3849.070898,-2145.067394,5847.626942
953.150425,2960.823768,3600.648841,8734.430116
953.150754,148.041188,8273.831378,10955.047942
953.151084,-1702.473667,10265.679673,12287.418637
953.151413,-3997.112087,7890.783629,15766.386565
953.151743,-5773.606348,5745.716235,17320.819043
953.152072,-7846.182985,2681.334243,14878.139434
953.152402,-6513.812290,-1455.581446,9918.759623
953.152731,-3478.967927,-6435.202183,5551.544565
953.153061,740.205942,-9806.022374,3108.864956
953.153390,4367.215058,-8963.317327,2220.617826
953.153720,7402.059420,-4749.792088,3997.112087
953.154049,6735.874072,1149.143247,6661.853478
953.154379,3404.947333,7201.297681,10732.986159
953.154708,-444.123565,9269.755526,14137.933492
953.155037,-4441.235652,9729.412825,17246.798449
953.155367,-7550.100608,9116.536426,18357.107362
953.155696,-8364.327145,4060.306139,15840.407159
953.156026,-6291.750507,-689.485948,10807.006753
953.156355,-4071.132681,-6205.373534,5921.647536
953.156685,-814.226536,-10955.165621,2664.741391
953.157014,1850.514855,-9652.803275,2146.597232
953.157344,3923.091493,-4749.792088,3701.029710
953.157673,4589.276840,1302.362347,7550.100608
953.158003,2294.638420,5975.544884,10362.883188
953.158332,-666.185348,9959.241474,11843.295072
953.158662,-2738.761985,8963.317327,15322.262999
953.158991,-5255.462188,6894.859482,17542.880825
953.159321,-7402.059420,6435.202183,17246.798449
953.159650,-7254.018232,1762.019645,12657.521608
953.159980,-4737.318029,-4213.525239,8068.244768
953.160309,-592.164754,-8427.050478,4515.256246
953.160639,3627.009116,-8733.488677,2220.617826
953.160968,7105.977043,-6052.154434,1702.473667
953.161297,8364.327145,0.000000,3923.091493
953.161627,6661.853478,5209.449386,8512.368333
953.161956,3404.947333,8810.098227,12583.501014
953.162286,-888.247130,11644.651570,14656.077652
953.162615,-5847.626942,11721.261119,15544.324782
953.162945,-7772.162391,7890.783629,15248.242405
953.163274,-6809.894666,2604.724693,12065.356855
953.163604,-4737.318029,-3140.991542,7105.977043
953.163933,-2590.720797,-8963.317327,2664.741391
953.164263,-518.144159,-10342.289223,1480.411884
953.164592,1110.308913,-6894.859482,3256.906145
953.164922,3330.926739,-1762.019645,7476.080014
953.165251,2294.638420,3600.648841,9696.697840
953.165581,-148.041188,8197.221829,10584.944971
953.165910,-1258.350101,8656.879127,12509.480420
953.166240,-3404.947333,6665.030833,16580.613101
953.166569,-5477.523971,6971.469032,18727.210333
953.166898,-7179.997637,4060.306139,16136.489536
953.167228,-5773.606348,-689.485948,10732.986159
953.167557,-2368.659014,-5822.325785,6217.729913
953.167887,1998.556043,-8733.488677,2812.782580
953.168216,5995.668130,-8273.831378,2368.659014
953.168546,8660.409521,-3907.087040,2738.761985
953.168875,7920.203579,2145.067394,7550.100608
953.169205,3256.906145,7354.516781,11103.089130
953.169534,-740.205942,10725.336972,13027.624579
953.169864,-4885.359217,10342.289223,15914.427753
953.170193,-8142.265362,7737.564530,17024.736666
953.170523,-8586.388927,3907.087040,15100.201217
953.170852,-6809.894666,-2298.286494,10732.986159
953.171182,-4959.379811,-7507.735880,5847.626942
953.171511,-2738.761985,-10035.851024,2220.617826
953.171841,-296.082377,-9576.193725,2368.659014
953.172170,2590.720797,-5286.058936,4885.359217
953.172500,4145.153275,1149.143247,7254.018232
953.172829,2812.782580,6511.811733,10214.842000
953.173158,1110.308913,8656.879127,10881.027347
953.173488,-1628.453072,8427.050478,13693.809927
953.173817,-4293.194464,7124.688131,17246.798449
953.174147,-6809.894666,5439.278036,16802.674883
953.174476,-6587.832884,2145.067394,12953.603985
953.174806,-4071.132681,-3753.867940,7698.141797
953.175135,-888.247130,-9039.926876,3849.070898
953.175465,3034.844362,-10112.460574,2220.617826
953.175794,6439.791695,-7507.735880,2516.700203
953.176124,7254.018232,-766.095498,5921.647536
953.176453,4589.276840,5745.716235,8808.450710
953.176783,1332.370696,8886.707777,11843.295072
953.177112,-2146.597232,10265.679673,14359.995275
953.177442,-5403.503377,9039.926876,16580.613101
953.177771,-7698.141797,5592.497135,16654.633695
953.178101,-7698.141797,842.705048,13027.624579
953.178430,-6957.935855,-3830.477490,8290.306550
953.178759,-4515.256246,-8810.098227,4219.173869
953.179089,-1406.391290,-10495.508323,2516.700203
953.179418,1998.556043,-8044.002729,3478.967927
953.179748,4737.318029,-2987.772442,5329.482782
953.180077,4293.194464,3217.601092,8512.368333
953.180407,2220.617826,8350.440928,10658.965565
953.180736,518.144159,9422.974625,12583.501014
953.181066,-2220.617826,7967.393179,16950.716072
953.181395,-5921.647536,8427.050478,18505.148550
953.181725,-7994.224174,5898.935335,16284.530724
953.182054,-6587.832884,0.000000,11103.089130
953.182384,-3256.906145,-5822.325785,6957.935855
953.182713,1110.308913,-9576.193725,3108.864956
953.183043,4885.359217,-9576.193725,1776.494261
953.183372,7698.141797,-4290.134789,2146.597232
953.183702,7105.977043,2681.334243,5699.585753
953.184031,3849.070898,7507.735880,9548.656652
953.184361,518.144159,10878.556072,12583.501014
953.184690,-3552.988522,11261.603821,15248.242405
953.185019,-6439.791695,9346.365076,16506.592507
953.185349,-7550.100608,4903.011187,15248.242405
953.185678,-7031.956449,0.000000,11029.068536
953.186008,-5625.565159,-5822.325785,5847.626942
953.186337,-3108.864956,-9806.022374,2294.638420
953.186667,518.144159,-9193.145976,1924.535449
953.186996,3404.947333,-5975.544884,3775.050304
953.187326,4441.235652,383.047749,7550.100608
953.187655,2294.638420,6665.030833,9770.718434
953.187985,740.205942,10495.508323,10732.986159
953.188314,-444.123565,10265.679673,13471.748144
953.188644,-3627.009116,7737.564530,17172.777854
953.188973,-7031.956449,6741.640382,17987.004391
953.189303,-8512.368333,2451.505594,14137.933492
953.189632,-5995.668130,-2834.553343,9696.697840
953.189962,-2220.617826,-7660.954980,5625.565159
953.190291,1850.514855,-9422.974625,2738.761985
953.190620,5847.626942,-8120.612279,1850.514855
953.190950,8438.347739,-3677.258390,2960.823768
953.191279,7105.977043,3600.648841,7698.141797
953.191609,3108.864956,9269.755526,11473.192101
953.191938,-740.205942,11414.822920,14730.098246
953.192268,-5477.523971,11414.822920,16876.695478
953.192597,-8290.306550,8580.269578,16654.633695
953.192927,-7105.977043,2451.505594,14285.974681
953.193256,-5181.441594,-3370.820191,9030.512492
953.193586,-3552.988522,-8503.660028,4367.215058
953.193915,-1332.370696,-11951.089769,1554.432478
953.194245,1406.391290,-9729.412825,2664.741391
953.194574,4145.153275,-3907.087040,4959.379811
953.194904,3701.029710,2145.067394,9030.512492
953.195233,740.205942,7967.393179,10955.047942
953.195563,444.123565,10035.851024,11103.089130
953.195892,-666.185348,7124.688131,14359.995275
953.196222,-2738.761985,5822.325785,17542.880825
953.196551,-6513.812290,4290.134789,16062.468941
953.196880,-6661.853478,-612.876398,12065.356855
953.197210,-4515.256246,-5209.449386,8438.347739
953.197539,-1702.473667,-8197.221829,5033.400406
953.197869,2664.741391,-9193.145976,2738.761985
953.198198,6513.812290,-7354.516781,2516.700203
953.198528,7550.100608,-766.095498,5107.421000
953.198857,6143.709319,5056.230287,9178.553681
953.199187,1776.494261,9116.536426,12509.480420
953.199516,-3034.844362,10342.289223,14730.098246
953.199846,-7476.080014,9193.145976,17246.798449
953.200175,-9326.594869,5592.497135,17098.757260
953.200504,-8068.244768,1149.143247,13175.665768
953.200834,-5625.565159,-5439.278036,7179.997637
953.201163,-2368.659014,-11031.775171,2368.659014
953.201493,-814.226536,-11338.213370,666.185348
953.201822,2516.700203,-7814.174080,2812.782580
953.202152,4737.318029,-2298.286494,6809.894666
953.202481,2442.679609,5286.058936,10510.924376
953.202811,-148.041188,12104.308868,11695.253884
953.203140,-666.185348,11721.261119,12287.418637
953.203469,-1850.514855,7431.126331,15618.345376
953.203799,-4145.153275,4213.525239,18061.024985
953.204128,-7031.956449,2757.943793,15988.448347
953.204458,-7105.977043,-842.705048,10584.944971
953.204787,-3997.112087,-6281.983084,7476.080014
953.205117,0.000000,-8886.707777,4515.256246
953.205446,4219.173869,-8427.050478,2516.700203
953.205776,7846.182985,-5439.278036,2738.761985
953.206105,8216.285956,1685.410096,5773.606348
953.206434,4219.173869,10648.727422,9844.739029
953.206764,-518.144159,12870.404366,12287.418637
953.207093,-4367.215058,11338.213370,14878.139434
953.207423,-8438.347739,9576.193725,15618.345376
953.207752,-8808.450710,4366.744339,14952.160028
953.208082,-6513.812290,-995.924147,11029.068536
953.208411,-4885.359217,-6665.030833,6143.709319
953.208740,-2664.741391,-11414.822920,2664.741391
953.209070,-222.061783,-10112.460574,2220.617826
953.209399,3552.988522,-5362.668486,4441.235652
953.209729,5107.421000,766.095498,6957.935855
953.210058,3997.112087,6588.421283,9622.677246
953.210388,1480.411884,10648.727422,12731.542202
953.210717,-444.123565,10495.508323,16062.468941
953.211047,-3701.029710,9116.536426,17764.942608
953.211376,-5625.565159,8044.002729,15544.324782
953.211705,-4811.338623,2221.676944,11695.253884
953.212035,-2664.741391,-4903.011187,7920.203579
953.212364,296.082377,-8197.221829,3701.029710
953.212694,2886.803174,-9422.974625,1184.329507
953.213023,6143.709319,-6741.640382,2146.597232
953.213353,7105.977043,0.000000,6143.709319
953.213682,4071.132681,5439.278036,10214.842000
953.214011,0.000000,8963.317327,12139.377449
953.214341,-3552.988522,10265.679673,14211.954086
953.214670,-6365.771101,9729.412825,16432.571912
953.215000,-8438.347739,5669.106685,17024.736666
953.215329,-8142.265362,842.705048,14211.954086
953.215659,-6439.791695,-3677.258390,8068.244768
953.215988,-3182.885551,-9193.145976,2738.761985
953.216318,148.041188,-11031.775171,1184.329507
953.216647,3182.885551,-7967.393179,3182.885551
953.216976,5847.626942,-2757.943793,5995.668130
953.217306,4885.359217,3370.820191,8808.450710
953.217635,2590.720797,8963.317327,10362.883188
953.217965,666.185348,10112.460574,13101.645173
953.218294,-1554.432478,7354.516781,16802.674883
953.218624,-4811.338623,6511.811733,19245.354492
953.218953,-7254.018232,4366.744339,16284.530724
953.219283,-6069.688724,-842.705048,11399.171507
953.219612,-2960.823768,-6511.811733,6883.915261
953.219941,0.000000,-9729.412825,3701.029710
953.220271,3775.050304,-9959.241474,2664.741391
953.220600,7031.956449,-5898.935335,1776.494261
953.220930,6587.832884,1072.533697,6365.771101
953.221259,3182.885551,7048.078582,9992.780217
953.221589,-962.267725,9882.631924,12361.439231
953.221918,-4219.173869,9576.193725,15692.365970
953.222247,-7550.100608,8044.002729,16802.674883
953.222577,-9178.553681,4749.792088,15322.262999
953.222906,-7846.182985,-842.705048,10955.047942
953.223236,-6217.729913,-6511.811733,6069.688724
953.223565,-3330.926739,-10572.117872,2590.720797
953.223895,0.000000,-10342.289223,1702.473667
953.224224,3701.029710,-7048.078582,4441.235652
953.224554,4441.235652,-306.438199,6809.894666
953.224883,3182.885551,6205.373534,9622.677246
953.225212,1184.329507,10265.679673,11325.150913
953.225542,444.123565,11031.775171,12435.459826
953.225871,-2072.576638,8044.002729,16284.530724
953.226201,-4811.338623,5362.668486,17987.004391
953.226530,-7476.080014,3294.210641,15692.365970
953.226860,-6809.894666,-1685.410096,10658.965565
953.227189,-3404.947333,-6971.469032,6957.935855
953.227518,222.061783,-10035.851024,3108.864956
953.227848,4219.173869,-8733.488677,1702.473667
953.228177,7920.203579,-5056.230287,2886.803174
953.228507,7179.997637,2221.676944,6439.791695
953.228836,3108.864956,8810.098227,10732.986159
953.229166,-296.082377,10801.946522,14063.912898
953.229495,-5033.400406,11338.213370,16062.468941
953.229825,-7994.224174,9806.022374,15914.427753
953.230154,-6883.915261,3830.477490,14211.954086
953.230483,-4589.276840,-2145.067394,9474.636058
953.230813,-3034.844362,-6665.030833,5255.462188
953.231142,-666.185348,-10418.898773,2368.659014
953.231472,1110.308913,-8580.269578,3330.926739
953.231801,3627.009116,-3217.601092,5699.585753
953.232131,3701.029710,2528.115143,8586.388927
953.232460,1480.411884,7048.078582,10066.800811
953.232790,222.061783,10265.679673,11103.089130
953.233119,-592.164754,7507.735880,14730.098246
953.233448,-3108.864956,7277.907231,17764.942608
953.233778,-6661.853478,6665.030833,16210.510130
953.234107,-6439.791695,1608.800546,11843.295072
953.234437,-3404.947333,-4213.525239,7624.121203
953.234766,-444.123565,-7354.516781,4219.173869
953.235096,3552.988522,-9039.926876,1776.494261
953.235425,7105.977043,-6971.469032,1850.514855
953.235754,7624.121203,-153.219100,5107.421000
953.236084,5329.482782,6052.154434,9326.594869
953.236413,962.267725,9806.022374,12509.480420
953.236743,-2886.803174,11338.213370,13989.892304
953.237072,-6365.771101,9499.584175,15692.365970
953.237402,-7772.162391,5822.325785,16654.633695
953.237731,-6513.812290,919.314598,13471.748144
953.238061,-5033.400406,-4290.134789,8512.368333
953.238390,-3256.906145,-9269.755526,4293.194464
953.238719,-1776.494261,-9882.631924,2368.659014
953.239049,1332.370696,-7201.297681,4219.173869
953.239378,3775.050304,-3140.991542,7105.977043
953.239708,3108.864956,3524.039291,9178.553681
953.240037,888.247130,8580.269578,10214.842000
953.240367,0.000000,9882.631924,11843.295072
953.240696,-1998.556043,6128.763984,15618.345376
953.241025,-5033.400406,5975.544884,17320.819043
953.241355,-7105.977043,3294.210641,15396.283594
953.241684,-6143.709319,-995.924147,10881.027347
953.242014,-2516.700203,-5745.716235,7105.977043
953.242343,962.267725,-9269.755526,4441.235652
953.242673,4737.318029,-9039.926876,3701.029710
953.243002,7105.977043,-5209.449386,4737.318029
953.243332,6143.709319,1685.410096,7031.956449
953.243661,2738.761985,6588.421283,11251.130318
953.243990,-1036.288319,9499.584175,14434.015869
953.244320,-4959.379811,9806.022374,16136.489536
953.244649,-7624.121203,7890.783629,15322.262999
953.244979,-7105.977043,2987.772442,12287.418637
953.245308,-4737.318029,-1532.190996,8290.306550
953.245638,-3034.844362,-7201.297681,3997.112087
953.245967,-1258.350101,-10418.898773,1850.514855
953.246297,74.020594,-8350.440928,3034.844362
953.246626,2738.761985,-3447.429741,5477.523971
953.246955,2664.741391,2451.505594,7994.224174
953.247285,1554.432478,6205.373534,10436.903782
953.247614,74.020594,9422.974625,10510.924376
953.247944,-888.247130,7890.783629,13545.768739
953.248273,-3182.885551,4366.744339,18061.024985
953.248603,-7179.997637,5209.449386,18505.148550
953.248932,-9030.512492,3370.820191,14359.995275
953.249261,-5477.523971,-3140.991542,9474.636058
953.249591,0.000000,-8197.221829,5033.400406
953.249920,4663.297435,-9193.145976,1332.370696
953.250250,8660.409521,-7660.954980,296.082377
953.250579,9622.677246,-1762.019645,2738.761985
953.250909,6513.812290,6818.249932,8216.285956
953.251238,1110.308913,10878.556072,13175.665768
953.251568,-3478.967927,11338.213370,15988.448347
953.251897,-7772.162391,10955.165621,16802.674883
953.252226,-9104.533087,6281.983084,16136.489536
953.252556,-7476.080014,-689.485948,12953.603985
953.252885,-5329.482782,-5132.839837,8512.368333
953.253215,-3108.864956,-9499.584175,3997.112087
953.253544,-518.144159,-10112.460574,2220.617826
953.253874,1776.494261,-6205.373534,2738.761985
953.254203,4293.194464,-766.095498,5773.606348
953.254532,4663.297435,3753.867940,9178.553681
953.254862,2812.782580,9499.584175,10288.862594
953.255191,1184.329507,11338.213370,12287.418637
953.255521,-1184.329507,7737.564530,15618.345376
953.255850,-4737.318029,7660.954980,17616.901420
953.256180,-7402.059420,4826.401637,15766.386565
953.256509,-6587.832884,-919.314598,10807.006753
953.256839,-3997.112087,-5898.935335,5921.647536
953.257168,222.061783,-8886.707777,2960.823768
953.257497,4589.276840,-9729.412825,2368.659014
953.257827,6513.812290,-5209.449386,2960.823768
953.258156,6069.688724,2451.505594,6217.729913
953.258486,3478.967927,7354.516781,9918.759623
953.258815,0.000000,10112.460574,12879.583391
953.259145,-3775.050304,10725.336972,15470.304188
953.259474,-7031.956449,8810.098227,17172.777854
953.259804,-7698.141797,3830.477490,15544.324782
953.260133,-6143.709319,-383.047749,11251.130318
953.260462,-4219.173869,-5822.325785,6143.709319
953.260792,-1406.391290,-9959.241474,2368.659014
953.261121,592.164754,-9882.631924,1924.535449
953.261451,3627.009116,-6281.983084,4441.235652
953.261780,4515.256246,0.000000,7846.182985
953.262110,2664.741391,6511.811733,10214.842000
953.262439,296.082377,10418.898773,11251.130318
953.262768,-1258.350101,9039.926876,14063.912898
953.263098,-4293.194464,6511.811733,17542.880825
953.263427,-6957.935855,5745.716235,18061.024985
953.263757,-8142.265362,1991.848295,14211.954086
953.264086,-5625.565159,-3370.820191,9104.533087
953.264416,-1776.494261,-8810.098227,5773.606348
953.264745,2516.700203,-10725.336972,3404.947333
953.265075,6365.771101,-8810.098227,2294.638420
953.265404,7698.141797,-2834.553343,3404.947333
953.265733,5921.647536,4979.620737,7624.121203
953.266063,2812.782580,9039.926876,11917.315666
953.266392,-444.123565,10495.508323,14878.139434
953.266722,-4811.338623,10189.070123,16580.613101
953.267051,-7550.100608,7584.345430,16062.468941
953.267381,-7254.018232,2374.896044,13175.665768
953.267710,-5551.544565,-2528.115143,8956.491898
953.268039,-3330.926739,-8503.660028,4663.297435
953.268369,-1258.350101,-10418.898773,1776.494261
953.268698,1036.288319,-8273.831378,2368.659014
953.269028,3552.988522,-3370.820191,4885.359217
953.269357,3404.947333,2298.286494,7550.100608
953.269687,444.123565,8120.612279,10288.862594
953.270016,-962.267725,10955.165621,11399.171507
953.270346,-2590.720797,8197.221829,15692.365970
953.270675,-5033.400406,6818.249932,18209.066173
953.271004,-7994.224174,4979.620737,16358.551318
953.271334,-7624.121203,-306.438199,11251.130318
953.271663,-4367.215058,-5362.668486,6883.915261
953.271993,0.000000,-9422.974625,4441.235652
953.272322,3997.112087,-9422.974625,2960.823768
953.272652,6587.832884,-5592.497135,2886.803174
953.272981,7105.977043,689.485948,5847.626942
953.273311,4959.379811,6971.469032,10066.800811
953.273640,1480.411884,9806.022374,13027.624579
953.273969,-2664.741391,11338.213370,15322.262999
953.274299,-6439.791695,9882.631924,16358.551318
953.274628,-7476.080014,5669.106685,15026.180623
953.274958,-6587.832884,766.095498,11843.295072
953.275287,-4811.338623,-5132.839837,7254.018232
953.275617,-2738.761985,-9576.193725,3330.926739
953.275946,-592.164754,-9576.193725,2664.741391
953.276275,2072.576638,-6511.811733,4145.153275
953.276605,3478.967927,-612.876398,6957.935855
953.276934,2220.617826,4749.792088,9400.615463
953.277264,444.123565,9346.365076,10362.883188
953.277593,-888.247130,9346.365076,13323.706956
953.277923,-3330.926739,7277.907231,16876.695478
953.278252,-6439.791695,7354.516781,16728.654289
953.278582,-7328.038826,3064.381992,13915.871710
953.278911,-5033.400406,-2145.067394,9252.574275
953.279240,-1406.391290,-7048.078582,5329.482782
953.279570,3034.844362,-9576.193725,2738.761985
953.279899,6957.935855,-7814.174080,2146.597232
953.280229,8734.430116,-2451.505594,3330.926739
953.280558,7105.977043,4136.915689,7698.141797
953.280888,3552.988522,8273.831378,11991.336260
953.281217,-592.164754,11108.384721,14804.118840
953.281546,-4959.379811,11568.042020,16358.551318
953.281876,-7920.203579,7660.954980,15914.427753
953.282205,-7254.018232,2604.724693,13397.727550
953.282535,-4811.338623,-3140.991542,8808.450710
953.282864,-2738.761985,-8580.269578,4441.235652
953.283194,-1554.432478,-10418.898773,2220.617826
953.283523,0.000000,-7584.345430,2220.617826
953.283853,2368.659014,-3370.820191,5625.565159
953.284182,2960.823768,2451.505594,8586.388927
953.284511,1406.391290,7890.783629,10881.027347
953.284841,518.144159,9882.631924,11325.150913
953.285170,-1184.329507,8044.002729,14508.036463
953.285500,-4589.276840,6435.202183,17246.798449
953.285829,-7772.162391,4213.525239,17172.777854
953.286159,-8364.327145,995.924147,12953.603985
953.286488,-5551.544565,-4060.306139,9030.512492
953.286818,-1406.391290,-8197.221829,5033.400406
953.287147,3478.967927,-9882.631924,2738.761985
953.287476,6957.935855,-7431.126331,2072.576638
953.287806,7772.162391,-766.095498,4589.276840
953.288135,6439.791695,5745.716235,9400.615463
953.288465,2368.659014,10418.898773,12657.521608
953.288794,-2294.638420,11261.603821,14434.015869
953.289124,-6069.688724,10035.851024,15322.262999
953.289453,-7031.956449,6205.373534,15026.180623
953.289782,-5699.585753,766.095498,11917.315666
953.290112,-4293.194464,-4903.011187,7476.080014
953.290441,-3404.947333,-9882.631924,2738.761985
953.290771,-1628.453072,-10265.679673,1850.514855
953.291100,1110.308913,-7124.688131,4071.132681
953.291430,2590.720797,-2298.286494,7402.059420
953.291759,1776.494261,4443.353888,10066.800811
953.292089,0.000000,9499.584175,10881.027347
953.292418,-740.205942,8273.831378,13175.665768
953.292747,-2738.761985,6052.154434,16950.716072
953.293077,-6069.688724,7048.078582,17838.963202
953.293406,-7772.162391,3983.696590,14359.995275
953.293736,-5403.503377,-1991.848295,9696.697840
953.294065,-2368.659014,-6665.030833,5403.503377
953.294395,1776.494261,-9652.803275,2516.700203
953.294724,5699.585753,-9422.974625,2146.597232
953.295053,8216.285956,-3753.867940,3182.885551
953.295383,6809.894666,4290.134789,6365.771101
953.295712,3849.070898,7967.393179,9844.739029
953.296042,518.144159,10189.070123,12953.603985
953.296371,-4145.153275,10265.679673,15692.365970
953.296701,-7402.059420,7967.393179,17838.963202
953.297030,-8660.409521,3370.820191,16654.633695
953.297360,-7550.100608,-1608.800546,11843.295072
953.297689,-6587.832884,-6511.811733,6513.812290
953.298018,-3627.009116,-11338.213370,2960.823768
953.298348,-148.041188,-9959.241474,2220.617826
953.298677,3701.029710,-5898.935335,3552.988522
953.299007,5181.441594,76.609550,6661.853478
953.299336,3627.009116,7201.297681,9622.677246
953.299666,740.205942,10648.727422,11843.295072
953.299995,-1036.288319,10495.508323,14804.118840
953.300324,-4589.276840,9576.193725,17024.736666
953.300654,-6809.894666,7431.126331,16876.695478
953.300983,-5699.585753,1991.848295,13027.624579
953.301313,-3627.009116,-4596.572988,8142.265362
953.301642,-962.267725,-9116.536426,4293.194464
953.301972,1628.453072,-10112.460574,2442.679609
953.302301,4737.318029,-7277.907231,3034.844362
953.302630,6069.688724,-689.485948,6069.688724
953.302960,4367.215058,5592.497135,9474.636058
953.303289,1850.514855,9652.803275,12361.439231
953.303619,-1184.329507,10725.336972,14211.954086
953.303948,-5033.400406,10035.851024,15470.304188
953.304278,-7179.997637,7660.954980,15174.221811
953.304607,-6291.750507,2681.334243,12287.418637
953.304936,-4441.235652,-3064.381992,7402.059420
953.305266,-2516.700203,-8120.612279,2886.803174
953.305595,-592.164754,-10342.289223,1110.308913
953.305925,2516.700203,-7967.393179,2886.803174
953.306254,4515.256246,-2451.505594,5329.482782
953.306584,3478.967927,3524.039291,8882.471304
953.306913,1776.494261,8427.050478,10362.883188
953.307242,0.000000,10572.117872,13101.645173
953.307572,-3108.864956,8503.660028,16950.716072
953.307901,-6513.812290,7890.783629,18875.251521
953.308231,-7846.182985,5132.839837,16062.468941
953.308560,-5699.585753,-306.438199,11177.109724
953.308890,-2368.659014,-6741.640382,7105.977043
953.309219,962.267725,-10418.898773,3182.885551
953.309548,4441.235652,-9576.193725,1628.453072
953.309878,7105.977043,-5362.668486,2368.659014
953.310207,7031.956449,1378.971896,6365.771101
953.310537,3923.091493,7507.735880,11325.150913
953.310866,518.144159,10418.898773,13545.768739
953.311196,-3034.844362,9729.412825,14952.160028
953.311525,-6291.750507,8197.221829,15766.386565
953.311854,-7328.038826,4060.306139,15100.201217
953.312184,-5995.668130,-842.705048,11399.171507
953.312513,-4737.318029,-6281.983084,6661.853478
953.312843,-3108.864956,-10265.679673,3108.864956
953.313172,-296.082377,-10265.679673,3034.844362
953.313502,2738.761985,-6588.421283,5403.503377
953.313831,3256.906145,-153.219100,8142.265362
953.314161,2146.597232,5898.935335,9696.697840
953.314490,740.205942,10035.851024,11177.109724
953.314819,-296.082377,8886.707777,13545.768739
953.315149,-3108.864956,6741.640382,16432.571912
953.315478,-6809.894666,6741.640382,16876.695478
953.315808,-8068.244768,3140.991542,13619.789333
953.316137,-6143.709319,-3294.210641,8956.491898
953.316467,-3034.844362,-8503.660028,5181.441594
953.316796,592.164754,-10418.898773,2516.700203
953.317125,4219.173869,-9116.536426,1406.391290
953.317455,6957.935855,-3983.696590,3256.906145
953.317784,6217.729913,3830.477490,7772.162391
953.318114,2812.782580,8886.707777,11325.150913
953.318443,-518.144159,11568.042020,13693.809927
953.318773,-4441.235652,10955.165621,16506.592507
953.319102,-7105.977043,8810.098227,17098.757260
953.319431,-7550.100608,3677.258390,14508.036463
953.319761,-6069.688724,-2374.896044,9696.697840
953.320090,-4367.215058,-7967.393179,5403.503377
953.320420,-2220.617826,-10418.898773,2368.659014
953.320749,518.144159,-9882.631924,3034.844362
953.321079,3627.009116,-4903.011187,5107.421000
953.321408,3627.009116,1685.410096,7846.182985
953.321737,1776.494261,7354.516781,10066.800811
953.322067,1184.329507,11031.775171,11547.212695
953.322396,-814.226536,9652.803275,15248.242405
953.322726,-3997.112087,8197.221829,17172.777854
953.323055,-6661.853478,6435.202183,16358.551318
953.323385,-5995.668130,1838.629195,12509.480420
953.323714,-3478.967927,-4060.306139,8068.244768
953.324043,-296.082377,-9729.412825,4515.256246
953.324373,2812.782580,-9346.365076,2442.679609
953.324702,6661.853478,-6971.469032,2960.823768
953.325032,7846.182985,-689.485948,5403.503377
953.325361,5625.565159,6511.811733,9104.533087
953.325691,1998.556043,9806.022374,12509.480420
953.326020,-1332.370696,11797.870669,15026.180623
953.326349,-5625.565159,11721.261119,15988.448347
953.326679,-7031.956449,7660.954980,15618.345376
953.327008,-5699.585753,1378.971896,12805.562797
953.327338,-4663.297435,-4903.011187,7402.059420
953.327667,-3478.967927,-9269.755526,3182.885551
953.327997,-1480.411884,-10112.460574,1850.514855
953.328326,1332.370696,-6894.859482,2812.782580
953.328655,3404.947333,-1838.629195,5625.565159
953.328985,2960.823768,2528.115143,8512.368333
953.329314,740.205942,7967.393179,10807.006753
953.329644,-592.164754,10035.851024,13693.809927
953.329973,-3330.926739,8350.440928,17024.736666
953.330303,-6365.771101,8656.879127,17838.963202
953.330632,-7031.956449,4903.011187,15322.262999
953.330961,-3997.112087,-1225.752797,10214.842000
953.331291,-1184.329507,-7201.297681,5551.544565
953.331620,1554.432478,-9652.803275,2294.638420
953.331950,4367.215058,-8733.488677,2220.617826
953.332279,6735.874072,-4213.525239,4071.132681
953.332609,6069.688724,2834.553343,7476.080014
953.332938,3182.885551,7201.297681,10436.903782
953.333267,-148.041188,9652.803275,12953.603985
953.333597,-4441.235652,10265.679673,15100.201217
953.333926,-7624.121203,7584.345430,16284.530724
953.334256,-8142.265362,3830.477490,14952.160028
953.334585,-6661.853478,-1455.581446,10732.986159
953.334915,-5699.585753,-7048.078582,5921.647536
953.335244,-3627.009116,-11261.603821,2812.782580
953.335573,-1110.308913,-10495.508323,3108.864956
953.335903,2220.617826,-6818.249932,5329.482782
953.336232,2664.741391,-306.438199,7476.080014
953.336562,1776.494261,5822.325785,9474.636058
953.336891,1480.411884,8503.660028,11843.295072
953.337221,-148.041188,7660.954980,15840.407159
953.337550,-3997.112087,8197.221829,17764.942608
953.337879,-6957.935855,7814.174080,16506.592507
953.338209,-6513.812290,3294.210641,12435.459826
953.338538,-3478.967927,-3064.381992,7698.141797
953.338868,-444.123565,-8580.269578,3701.029710
953.339197,2294.638420,-10495.508323,1554.432478
953.339527,4737.318029,-8963.317327,2294.638420
953.339856,5847.626942,-1685.410096,5773.606348
953.340185,3404.947333,5515.887586,9030.512492
953.340515,1184.329507,7967.393179,11917.315666
953.340844,-1184.329507,8580.269578,14656.077652
953.341174,-5033.400406,8197.221829,16580.613101
953.341503,-6809.894666,7201.297681,16284.530724
953.341833,-6809.894666,2911.162892,13397.727550
953.342162,-5477.523971,-1838.629195,9474.636058
953.342491,-4071.132681,-7354.516781,5255.462188
953.342821,-1480.411884,-10189.070123,2220.617826
953.343150,2368.659014,-8503.660028,1924.535449
953.343480,4885.359217,-3600.648841,4663.297435
953.343809,3923.091493,2681.334243,7994.224174
953.344139,666.185348,8197.221829,11029.068536
953.344468,-1480.411884,10572.117872,11843.295072
953.344797,-3701.029710,9576.193725,14730.098246
953.345127,-6587.832884,8350.440928,17320.819043
953.345456,-8734.430116,5286.058936,16580.613101
953.345786,-7846.182985,-383.047749,11843.295072
953.346115,-5847.626942,-5669.106685,7105.977043
953.346445,-2442.679609,-8503.660028,3923.091493
953.346774,888.247130,-9193.145976,3552.988522
953.347104,3775.050304,-5975.544884,4663.297435
953.347433,3552.988522,766.095498,6143.709319
953.347762,2072.576638,7277.907231,8586.388927
953.348092,888.247130,10035.851024,10510.924376
953.348421,-1110.308913,10801.946522,13027.624579
953.348751,-5329.482782,9422.974625,14952.160028
953.349080,-8808.450710,5745.716235,15692.365970
953.349410,-9622.677246,1838.629195,13027.624579
953.349739,-9326.594869,-2451.505594,8882.471304
953.350068,-7328.038826,-7890.783629,5551.544565
953.350398,-4219.173869,-10955.165621,4367.215058
953.350727,-1110.308913,-7814.174080,4219.173869
953.351057,1036.288319,-2757.943793,4367.215058
953.351386,740.205942,2528.115143,6587.832884
953.351716,0.000000,8273.831378,9696.697840
953.352045,-814.226536,11108.384721,12361.439231
953.352374,-3627.009116,10648.727422,15100.201217
953.352704,-6883.915261,8886.707777,14656.077652
953.353033,-9474.636058,3983.696590,13027.624579
953.353363,-9548.656652,-2221.676944,11843.295072
953.353692,-9696.697840,-6665.030833,10214.842000
953.354022,-8216.285956,-8580.269578,7772.162391
953.354351,-4811.338623,-8580.269578,5033.400406
953.354680,-222.061783,-6358.592633,4293.194464
953.355010,2664.741391,-1532.190996,5255.462188
953.355339,4441.235652,3064.381992,7105.977043
953.355669,4737.318029,7814.174080,9252.574275
953.355998,2368.659014,11874.480219,11325.150913
953.356328,-1554.432478,11874.480219,12879.583391
953.356657,-5181.441594,6741.640382,15544.324782
953.356986,-8660.409521,1302.362347,16284.530724
953.357316,-12213.398043,-1532.190996,14582.057057
953.357645,-14063.912898,-5439.278036,10288.862594
953.357975,-11473.192101,-8656.879127,6217.729913
953.358304,-6661.853478,-10342.289223,4737.318029
953.358634,-2072.576638,-8886.707777,3849.070898
953.358963,1258.350101,-3447.429741,4441.235652
953.359292,2516.700203,4519.963438,4959.379811
953.359622,2220.617826,10265.679673,7105.977043
953.359951,1258.350101,12487.356617,10436.903782
953.360281,-1184.329507,11261.603821,12805.562797
953.360610,-3701.029710,7507.735880,13175.665768
953.360940,-6365.771101,3447.429741,12879.583391
953.361269,-9770.718434,-689.485948,11843.295072
953.361598,-12065.356855,-5362.668486,11325.150913
953.361928,-11695.253884,-9729.412825,10807.006753
953.362257,-9474.636058,-8656.879127,9622.677246
953.362587,-6735.874072,-4443.353888,7105.977043
953.362916,-1628.453072,-1762.019645,5107.421000
953.363246,2442.679609,459.657299,5403.503377
953.363575,4441.235652,4213.525239,7624.121203
953.363904,4367.215058,8810.098227,9770.718434
953.364234,1776.494261,10572.117872,11473.192101
953.364563,-962.267725,8120.612279,12879.583391
953.364893,-4737.318029,4366.744339,14582.057057
953.365222,-8290.306550,1149.143247,14211.954086
953.365552,-9918.759623,-2221.676944,11547.212695
953.365881,-8956.491898,-5592.497135,8068.244768
953.366210,-6513.812290,-6281.983084,6069.688724
953.366540,-4441.235652,-4826.401637,5699.585753
953.366869,-2368.659014,-3217.601092,5921.647536
953.367199,-592.164754,842.705048,6365.771101
953.367528,-296.082377,5975.544884,7550.100608
953.367858,-666.185348,9882.631924,9252.574275
953.368187,-1702.473667,10035.851024,11695.253884
953.368516,-3775.050304,7048.078582,12361.439231
953.368846,-5033.400406,4290.134789,12435.459826
953.369175,-6513.812290,842.705048,11991.336260
953.369505,-7994.224174,-1455.581446,11029.068536
953.369834,-9030.512492,-3140.991542,10732.986159
953.370164,-7698.141797,-4213.525239,9548.656652
953.370493,-4811.338623,-2221.676944,7920.203579
953.370822,-1332.370696,0.000000,6217.729913
953.371152,1406.391290,1608.800546,5699.585753
953.371481,2590.720797,4596.572988,6883.915261
953.371811,1554.432478,6511.811733,8586.388927
953.372140,518.144159,7890.783629,10140.821405
953.372470,-1110.308913,6435.202183,11399.171507
953.372799,-2812.782580,5056.230287,11325.150913
953.373128,-3701.029710,2681.334243,11103.089130
953.373458,-4441.235652,-459.657299,10066.800811
953.373787,-3923.091493,-2298.286494,9104.533087
953.374117,-3330.926739,-2374.896044,8216.285956
953.374446,-2738.761985,306.438199,8512.368333
953.374776,-2812.782580,2987.772442,8734.430116
953.375105,-2442.679609,3294.210641,9696.697840
953.375434,-1924.535449,5362.668486,10066.800811
953.375764,-1702.473667,6358.592633,10584.944971
953.376093,-1628.453072,5822.325785,10955.047942
953.376423,-1702.473667,4826.401637,11177.109724
953.376752,-1850.514855,2911.162892,10807.006753
953.377082,-1702.473667,2298.286494,9918.759623
953.377411,-1850.514855,1455.581446,8882.471304
953.377740,-1406.391290,1149.143247,8808.450710
953.378070,-444.123565,2374.896044,9326.594869
953.378399,0.000000,4213.525239,9918.759623
953.378729,-518.144159,6818.249932,10066.800811
953.379058,-1258.350101,7507.735880,9918.759623
953.379388,-1628.453072,7354.516781,9622.677246
953.379717,-1924.535449,7124.688131,9178.553681
953.380047,-1776.494261,5898.935335,8290.306550
953.380376,-1554.432478,3677.258390,6809.894666
953.380705,-1258.350101,1762.019645,5699.585753
953.381035,-1110.308913,459.657299,6143.709319
953.381364,-1776.494261,612.876398,7550.100608
953.381694,-2368.659014,2451.505594,8734.430116
953.382023,-2664.741391,4060.306139,9178.553681
953.382353,-3182.885551,5592.497135,9696.697840
953.382682,-2368.659014,6281.983084,10658.965565
953.383011,-1258.350101,6894.859482,11029.068536
953.383341,-592.164754,6052.154434,10436.903782
953.383670,74.020594,5898.935335,9918.759623
953.384000,-222.061783,4673.182538,9770.718434
953.384329,-666.185348,3753.867940,9770.718434
953.384659,-666.185348,2604.724693,9474.636058
953.384988,-518.144159,2451.505594,9326.594869
953.385317,-444.123565,2374.896044,9622.677246
953.385647,0.000000,2145.067394,9622.677246
953.385976,-444.123565,2528.115143,10362.883188
953.386306,-1110.308913,4060.306139,11177.109724
953.386635,-1702.473667,5515.887586,11695.253884
953.386965,-1406.391290,5669.106685,11473.192101
953.387294,-1036.288319,5056.230287,10955.047942
953.387623,-814.226536,4673.182538,10584.944971
953.387953,-1110.308913,4136.915689,9770.718434
953.388282,-888.247130,4366.744339,9178.553681
953.388612,0.000000,4519.963438,8882.471304
953.388941,444.123565,4596.572988,7846.182985
953.389271,148.041188,3370.820191,7031.956449
953.389600,74.020594,2451.505594,6291.750507
953.389929,222.061783,1915.238745,6513.812290
953.390259,-148.041188,1762.019645,7698.141797
953.390588,-1776.494261,2911.162892,9104.533087
953.390918,-3256.906145,3217.601092,10436.903782
953.391247,-3552.988522,3753.867940,11325.150913
953.391577,-2886.803174,4060.306139,11843.295072
953.391906,-2294.638420,5209.449386,11547.212695
953.392235,-1258.350101,4749.792088,10510.924376
953.392565,0.000000,5209.449386,9696.697840
953.392894,296.082377,5592.497135,9474.636058
953.393224,148.041188,5515.887586,8808.450710
953.393553,-592.164754,5362.668486,7772.162391
953.393883,-1258.350101,4443.353888,7105.977043
953.394212,-1924.535449,3064.381992,6513.812290
953.394541,-1850.514855,1378.971896,6883.915261
953.394871,-1776.494261,0.000000,7254.018232
953.395200,-1924.535449,-919.314598,7846.182985
953.395530,-2146.597232,306.438199,9474.636058
953.395859,-2220.617826,1762.019645,10584.944971
953.396189,-1480.411884,3600.648841,12509.480420
953.396518,-592.164754,5056.230287,13101.645173
953.396847,0.000000,6052.154434,12731.542202
953.397177,370.102971,6281.983084,12139.377449
953.397506,962.267725,5209.449386,10807.006753
953.397836,666.185348,3753.867940,10140.821405
953.398165,-296.082377,3294.210641,9400.615463
953.398495,-1332.370696,2604.724693,8438.347739
953.398824,-2294.638420,1378.971896,7920.203579
953.399153,-2294.638420,76.609550,7328.038826
953.399483,-2146.597232,0.000000,7698.141797
953.399812,-1776.494261,0.000000,7476.080014
953.400142,-740.205942,459.657299,8142.265362
953.400471,0.000000,689.485948,9252.574275
953.400801,0.000000,2145.067394,10658.965565
953.401131,-222.061783,4290.134789,12287.418637
953.401460,-1406.391290,5592.497135,12287.418637
953.401790,-1628.453072,5515.887586,12287.418637
953.402119,-1554.432478,4826.401637,11399.171507
953.402449,-1480.411884,3753.867940,10881.027347
953.402778,-1998.556043,3217.601092,8956.491898
953.403108,-1850.514855,2374.896044,7031.956449
953.403437,-1036.288319,1302.362347,5255.462188
953.403767,518.144159,229.828649,5033.400406
953.404096,1554.432478,-306.438199,5551.544565
953.404426,1036.288319,-383.047749,5773.606348
953.404756,-370.102971,459.657299,7328.038826
953.405085,-1554.432478,612.876398,9844.739029
953.405415,-3701.029710,1455.581446,12435.459826
953.405744,-5107.421000,2451.505594,13989.892304
953.406074,-5551.544565,2145.067394,14730.098246
953.406403,-5107.421000,2451.505594,13989.892304
953.406733,-4367.215058,2451.505594,11473.192101
953.407062,-2072.576638,1608.800546,8734.430116
953.407392,888.247130,0.000000,6069.688724
953.407722,3701.029710,-459.657299,4811.338623
953.408051,5255.462188,612.876398,4737.318029
953.408381,5181.441594,995.924147,5551.544565
953.408710,3849.070898,689.485948,7624.121203
953.409040,888.247130,1378.971896,11029.068536
953.409369,-2886.803174,2451.505594,14211.954086
953.409699,-5329.482782,2604.724693,16728.654289
953.410028,-6513.812290,2451.505594,17320.819043
953.410358,-7328.038826,1608.800546,15470.304188
953.410687,-6735.874072,459.657299,12657.521608
953.411017,-4219.173869,-689.485948,8808.450710
953.411347,-740.205942,-1225.752797,4737.318029
953.411676,2664.741391,-1915.238745,2368.659014
953.412006,5107.421000,-1762.019645,1924.535449
953.412335,5773.606348,0.000000,2664.741391
953.412665,4219.173869,766.095498,4737.318029
953.412994,740.205942,919.314598,8216.285956
953.413324,-2738.761985,2451.505594,13175.665768
953.413653,-5699.585753,3294.210641,17764.942608
953.413983,-7476.080014,3524.039291,19541.436869
953.414313,-7994.224174,2604.724693,17320.819043
953.414642,-6439.791695,689.485948,13619.789333
953.414972,-2664.741391,-1915.238745,8660.409521
953.415301,1258.350101,-2451.505594,4885.359217
953.415631,4589.276840,-1762.019645,2368.659014
953.415960,6587.832884,-612.876398,1850.514855
953.416290,6809.894666,919.314598,2368.659014
953.416619,4145.153275,2068.457845,4515.256246
953.416949,370.102971,1378.971896,8660.409521
953.417279,-3627.009116,2681.334243,13397.727550
953.417608,-6217.729913,3294.210641,17098.757260
953.417938,-7698.141797,2221.676944,18061.024985
953.418267,-7772.162391,306.438199,16580.613101
953.418597,-5921.647536,-1378.971896,13249.686362
953.418926,-2368.659014,-2757.943793,9030.512492
953.419256,1702.473667,-2451.505594,5995.668130
953.419585,4663.297435,0.000000,3701.029710
953.419915,6217.729913,1225.752797,3478.967927
953.420244,5921.647536,1991.848295,4367.215058
953.420574,3256.906145,3447.429741,6735.874072
953.420904,-740.205942,4443.353888,10807.006753
953.421233,-4737.318029,4903.011187,14359.995275
953.421563,-7254.018232,3753.867940,16654.633695
953.421892,-8364.327145,1762.019645,16580.613101
953.422222,-7328.038826,-766.095498,14656.077652
953.422551,-4959.379811,-1225.752797,11103.089130
953.422881,-1184.329507,-1608.800546,7402.059420
953.423210,2812.782580,-1608.800546,3923.091493
953.423540,5847.626942,76.609550,2516.700203
953.423870,6661.853478,2987.772442,2738.761985
953.424199,4811.338623,4213.525239,4441.235652
953.424529,1702.473667,5515.887586,7105.977043
953.424858,-2072.576638,5975.544884,11177.109724
953.425188,-5107.421000,5515.887586,14656.077652
953.425517,-6883.915261,4136.915689,16358.551318
953.425847,-6735.874072,1532.190996,15396.283594
953.426176,-5847.626942,-612.876398,11917.315666
953.426506,-2738.761985,-2374.896044,8438.347739
953.426835,814.226536,-3064.381992,5921.647536
953.427165,3404.947333,-1762.019645,4071.132681
953.427495,4071.132681,1532.190996,3775.050304
953.427824,3478.967927,3370.820191,4293.194464
953.428154,2146.597232,3370.820191,7031.956449
953.428483,-888.247130,3983.696590,10214.842000
953.428813,-4367.215058,4366.744339,12583.501014
953.429142,-6143.709319,2681.334243,14434.015869
953.429472,-6587.832884,1225.752797,15100.201217
953.429801,-5699.585753,-459.657299,13323.706956
953.430131,-3330.926739,-1915.238745,10658.965565
953.430461,74.020594,-2911.162892,8068.244768
953.430790,2886.803174,-2068.457845,6069.688724
953.431120,4367.215058,459.657299,5625.565159
953.431449,4071.132681,1762.019645,6069.688724
953.431779,2738.761985,2451.505594,7698.141797
953.432108,370.102971,2604.724693,10214.842000
953.432438,-2590.720797,3140.991542,12435.459826
953.432767,-5033.400406,2757.943793,13027.624579
953.433097,-6291.750507,459.657299,13693.809927
953.433427,-5403.503377,-1532.190996,12435.459826
953.433756,-3108.864956,-2221.676944,10288.862594
953.434086,-296.082377,-2604.724693,8216.285956
953.434415,2146.597232,-2834.553343,5773.606348
953.434745,2960.823768,-1072.533697,5625.565159
953.435074,2368.659014,995.924147,6661.853478
953.435404,1332.370696,2604.724693,7846.182985
953.435733,0.000000,2374.896044,9844.739029
953.436063,-2368.659014,1455.581446,11769.274478
953.436392,-4737.318029,1378.971896,12731.542202
953.436722,-6217.729913,229.828649,12879.583391
953.437052,-5625.565159,-689.485948,11917.315666
953.437381,-3701.029710,-1455.581446,9918.759623
953.437711,-666.185348,-1838.629195,8438.347739
953.438040,2220.617826,-1838.629195,7328.038826
953.438370,3404.947333,-995.924147,6439.791695
953.438699,3330.926739,995.924147,6587.832884
953.439029,2220.617826,2604.724693,7772.162391
953.439358,592.164754,3140.991542,9252.574275
953.439688,-888.247130,1838.629195,11251.130318
953.440018,-3627.009116,1378.971896,12583.501014
953.440347,-5181.441594,1072.533697,13175.665768
953.440677,-5403.503377,153.219100,12361.439231
953.441006,-3923.091493,-689.485948,10140.821405
953.441336,-962.267725,-1455.581446,8660.409521
953.441665,1258.350101,-1302.362347,7402.059420
953.441995,2368.659014,0.000000,6587.832884
953.442324,2368.659014,1302.362347,6365.771101
953.442654,1924.535449,2298.286494,7402.059420
953.442983,518.144159,2374.896044,9104.533087
953.443313,-962.267725,1915.238745,10955.047942
953.443643,-3330.926739,1762.019645,12805.562797
953.443972,-5329.482782,1608.800546,12731.542202
953.444302,-5625.565159,1149.143247,12361.439231
953.444631,-3923.091493,383.047749,11621.233289
953.444961,-1480.411884,383.047749,9992.780217
