#time,accel_x,accel_y,accel_z
1052.467452,-1036.288319,919.314598,9548.656652
1052.467782,-1036.288319,842.705048,9548.656652
1052.468112,-740.205942,536.266849,9326.594869
1052.468442,-814.226536,995.924147,9548.656652
1052.468771,-888.247130,1072.533697,9474.636058
1052.469101,-1036.288319,1072.533697,9474.636058
1052.469431,-1110.308913,995.924147,9400.615463
1052.469761,-1036.288319,995.924147,9548.656652
1052.470091,-814.226536,919.314598,9474.636058
1052.470420,-1036.288319,919.314598,9400.615463
1052.470750,-1036.288319,995.924147,9474.636058
1052.471080,-1036.288319,842.705048,9474.636058
1052.471410,-1184.329507,1225.752797,9104.533087
1052.471740,-888.247130,1225.752797,9252.574275
1052.472069,-1110.308913,1072.533697,9474.636058
1052.472399,-1184.329507,1072.533697,9474.636058
1052.472729,-962.267725,995.924147,9548.656652
1052.473059,-1258.350101,1149.143247,9326.594869
1052.473388,-1258.350101,1378.971896,9178.553681
1052.473718,-1036.288319,919.314598,9474.636058
1052.474048,-1184.329507,842.705048,9400.615463
1052.474378,-1258.350101,995.924147,9548.656652
1052.474708,-962.267725,842.705048,9696.697840
1052.475037,-1036.288319,919.314598,9548.656652
1052.475367,-1036.288319,919.314598,9400.615463
1052.475697,-1036.288319,766.095498,9474.636058
1052.476027,-1110.308913,919.314598,9548.656652
1052.476357,-962.267725,842.705048,9696.697840
1052.476686,-592.164754,1378.971896,9770.718434
1052.477016,-888.247130,689.485948,9474.636058
1052.477346,-1110.308913,919.314598,9548.656652
1052.477676,-1258.350101,612.876398,9548.656652
1052.478005,-1184.329507,842.705048,9474.636058
1052.478335,-814.226536,689.485948,9474.636058
1052.478665,-666.185348,766.095498,9400.615463
1052.478995,-962.267725,1072.533697,9548.656652
1052.479325,-888.247130,1072.533697,9548.656652
1052.479654,-962.267725,1072.533697,9548.656652
1052.479984,-1184.329507,842.705048,9474.636058
1052.480314,-1184.329507,689.485948,9696.697840
1052.480644,-1110.308913,1072.533697,9400.615463
1052.480974,-1110.308913,612.876398,9474.636058
1052.481303,-1184.329507,919.314598,9252.574275
1052.481633,-1110.308913,919.314598,9474.636058
1052.481963,-888.247130,1072.533697,9400.615463
1052.482293,-1184.329507,842.705048,9474.636058
1052.482622,-1036.288319,995.924147,9474.636058
1052.482952,-962.267725,1149.143247,9548.656652
1052.483282,-1110.308913,919.314598,9474.636058
1052.483612,-740.205942,689.485948,9252.574275
1052.483942,-1258.350101,766.095498,9474.636058
1052.484271,-1184.329507,1072.533697,9548.656652
1052.484601,-1110.308913,919.314598,9622.677246
1052.484931,-1036.288319,842.705048,9622.677246
1052.485261,-1184.329507,689.485948,9474.636058
1052.485591,-1554.432478,842.705048,9252.574275
1052.485920,-1184.329507,995.924147,9474.636058
1052.486250,-740.205942,919.314598,9696.697840
1052.486580,-1110.308913,919.314598,9622.677246
1052.486910,-1036.288319,919.314598,9622.677246
1052.487239,-1036.288319,1378.971896,10066.800811
1052.487569,-518.144159,766.095498,9770.718434
1052.487899,-962.267725,766.095498,9622.677246
1052.488229,-1036.288319,1072.533697,9474.636058
1052.488559,-962.267725,919.314598,9622.677246
1052.488888,-1110.308913,1455.581446,9770.718434
1052.489218,-740.205942,919.314598,9474.636058
1052.489548,-962.267725,995.924147,9622.677246
1052.489878,-1110.308913,689.485948,9696.697840
1052.490208,-1036.288319,766.095498,9622.677246
1052.490537,-962.267725,842.705048,9548.656652
1052.490867,-1184.329507,766.095498,9104.533087
1052.491197,-518.144159,919.314598,8882.471304
1052.491527,296.082377,536.266849,8882.471304
1052.491856,814.226536,459.657299,9326.594869
1052.492186,592.164754,612.876398,9252.574275
1052.492516,1036.288319,1455.581446,9326.594869
1052.492846,370.102971,995.924147,9622.677246
1052.493176,0.000000,612.876398,10140.821405
1052.493505,-370.102971,612.876398,10510.924376
1052.493835,-592.164754,536.266849,10584.944971
1052.494165,-370.102971,689.485948,9400.615463
1052.494495,814.226536,153.219100,9252.574275
1052.494825,1628.453072,-153.219100,8956.491898
1052.495154,2516.700203,536.266849,9030.512492
1052.495484,2960.823768,1072.533697,8808.450710
1052.495814,3478.967927,1838.629195,8882.471304
1052.496144,3627.009116,1608.800546,9104.533087
1052.496474,3627.009116,1685.410096,9622.677246
1052.496803,2960.823768,842.705048,10510.924376
1052.497133,2146.597232,689.485948,10584.944971
1052.497463,1332.370696,612.876398,10584.944971
1052.497793,1184.329507,229.828649,10362.883188
1052.498122,1258.350101,0.000000,10362.883188
1052.498452,2072.576638,-536.266849,9844.739029
1052.498782,2812.782580,-306.438199,9326.594869
1052.499112,3552.988522,0.000000,9326.594869
1052.499442,4811.338623,1302.362347,9252.574275
1052.499771,4145.153275,2374.896044,9252.574275
1052.500101,3701.029710,2604.724693,9844.739029
1052.500431,2516.700203,2834.553343,10584.944971
1052.500761,592.164754,2911.162892,10436.903782
1052.501091,-1184.329507,2451.505594,10214.842000
1052.501420,-2072.576638,1378.971896,9104.533087
1052.501750,-1184.329507,0.000000,8216.285956
1052.502080,370.102971,-1072.533697,7254.018232
1052.502410,2294.638420,-995.924147,6809.894666
1052.502739,3701.029710,-383.047749,6661.853478
1052.503069,4145.153275,536.266849,7254.018232
1052.503399,3256.906145,2604.724693,8882.471304
1052.503729,2368.659014,4213.525239,10584.944971
1052.504059,1036.288319,4290.134789,11917.315666
1052.504388,0.000000,3370.820191,12583.501014
1052.504718,-1480.411884,2068.457845,12213.398043
1052.505048,-1924.535449,-383.047749,11547.212695
1052.505378,-2072.576638,-1915.238745,10288.862594
1052.505708,-1332.370696,-2834.553343,9030.512492
1052.506037,0.000000,-2987.772442,8068.244768
1052.506367,1480.411884,-2451.505594,7698.141797
1052.506697,3256.906145,-612.876398,7105.977043
1052.507027,4367.215058,383.047749,7254.018232
1052.507356,4515.256246,1991.848295,8290.306550
1052.507686,4219.173869,3064.381992,9326.594869
1052.508016,4071.132681,3830.477490,10436.903782
1052.508346,3478.967927,3600.648841,11325.150913
1052.508676,2812.782580,2604.724693,11843.295072
1052.509005,1702.473667,995.924147,11695.253884
1052.509335,888.247130,-536.266849,11029.068536
1052.509665,222.061783,-1225.752797,10955.047942
1052.509995,370.102971,-1225.752797,11029.068536
1052.510325,666.185348,-995.924147,10140.821405
1052.510654,666.185348,-536.266849,9992.780217
1052.510984,1258.350101,153.219100,9252.574275
1052.511314,1924.535449,383.047749,8290.306550
1052.511644,2738.761985,919.314598,7624.121203
1052.511973,3627.009116,766.095498,7920.203579
1052.512303,3849.070898,612.876398,7920.203579
1052.512633,3478.967927,689.485948,8364.327145
1052.512963,2738.761985,842.705048,9326.594869
1052.513293,1776.494261,1532.190996,10140.821405
1052.513622,666.185348,2145.067394,10510.924376
1052.513952,444.123565,2068.457845,10807.006753
1052.514282,666.185348,2145.067394,10881.027347
1052.514612,1480.411884,2145.067394,10436.903782
1052.514942,2220.617826,1685.410096,9474.636058
1052.515271,3034.844362,1685.410096,7698.141797
1052.515601,3552.988522,153.219100,7328.038826
1052.515931,4071.132681,536.266849,7772.162391
1052.516261,3404.947333,1072.533697,8438.347739
1052.516590,2368.659014,1378.971896,9104.533087
1052.516920,888.247130,612.876398,9474.636058
1052.517250,0.000000,1762.019645,10362.883188
1052.517580,-666.185348,842.705048,11029.068536
1052.517910,-666.185348,76.609550,11325.150913
1052.518239,-740.205942,306.438199,11325.150913
1052.518569,-814.226536,536.266849,10807.006753
1052.518899,222.061783,612.876398,9696.697840
1052.519229,1850.514855,459.657299,8734.430116
1052.519559,3552.988522,1225.752797,7550.100608
1052.519888,5847.626942,2145.067394,7254.018232
1052.520218,7550.100608,2757.943793,7846.182985
1052.520548,7772.162391,3370.820191,8512.368333
1052.520878,6513.812290,4060.306139,9770.718434
1052.521207,4071.132681,5056.230287,10732.986159
1052.521537,1850.514855,3600.648841,12361.439231
1052.521867,-370.102971,1072.533697,14211.954086
1052.522197,-3775.050304,919.314598,13545.768739
1052.522527,-6957.935855,-1302.362347,12213.398043
1052.522856,-7550.100608,-3064.381992,10732.986159
1052.523186,-5625.565159,-2757.943793,7772.162391
1052.523516,-1332.370696,-2604.724693,4071.132681
1052.523846,4885.359217,-4443.353888,2072.576638
1052.524176,10066.800811,-3447.429741,1998.556043
1052.524505,11473.192101,1685.410096,3997.112087
1052.524835,9844.739029,5439.278036,7105.977043
1052.525165,7698.141797,8427.050478,10807.006753
1052.525495,4441.235652,10648.727422,13545.768739
1052.525824,962.267725,8350.440928,14952.160028
1052.526154,-2368.659014,2987.772442,15914.427753
1052.526484,-5181.441594,-689.485948,15988.448347
1052.526814,-6661.853478,-3140.991542,14211.954086
1052.527144,-6291.750507,-5439.278036,10807.006753
1052.527473,-2738.761985,-6894.859482,7994.224174
1052.527803,1628.453072,-6052.154434,5329.482782
1052.528133,6513.812290,-4366.744339,2516.700203
1052.528463,11103.089130,-2451.505594,2590.720797
1052.528793,12509.480420,1455.581446,5477.523971
1052.529122,10658.965565,6281.983084,9770.718434
1052.529452,4885.359217,9039.926876,12287.418637
1052.529782,-222.061783,8963.317327,14582.057057
1052.530112,-2516.700203,6128.763984,15618.345376
1052.530441,-2516.700203,1685.410096,14434.015869
1052.530771,-1998.556043,-3064.381992,11917.315666
1052.531101,-962.267725,-6052.154434,7031.956449
1052.531431,1628.453072,-7048.078582,4737.318029
1052.531761,3923.091493,-7201.297681,5699.585753
1052.532090,3997.112087,-2451.505594,7105.977043
1052.532420,2812.782580,2374.896044,8512.368333
1052.532750,1924.535449,4903.011187,9548.656652
1052.533080,2294.638420,6741.640382,11251.130318
1052.533410,2442.679609,5745.716235,12361.439231
1052.533739,2738.761985,2911.162892,13027.624579
1052.534069,1258.350101,-306.438199,12731.542202
1052.534399,-888.247130,-1685.410096,11917.315666
1052.534729,-3478.967927,-1608.800546,10362.883188
1052.535058,-3775.050304,-2681.334243,8438.347739
1052.535388,-1036.288319,-4136.915689,5625.565159
1052.535718,3775.050304,-4366.744339,4589.276840
1052.536048,8512.368333,-2451.505594,5699.585753
1052.536378,10732.986159,1991.848295,6291.750507
1052.536707,9918.759623,5745.716235,6809.894666
1052.537037,7550.100608,6971.469032,9104.533087
1052.537367,3627.009116,8427.050478,12509.480420
1052.537697,-148.041188,9269.755526,14804.118840
1052.538027,-2590.720797,5515.887586,15840.407159
1052.538356,-4663.297435,-1149.143247,15692.365970
1052.538686,-6587.832884,-3830.477490,13915.871710
1052.539016,-7031.956449,-4903.011187,11177.109724
1052.539346,-5551.544565,-7507.735880,9474.636058
1052.539675,-4885.359217,-5362.668486,7476.080014
1052.540005,-3256.906145,-842.705048,3330.926739
1052.540335,2442.679609,-153.219100,1776.494261
1052.540665,9178.553681,0.000000,3404.947333
1052.540995,11177.109724,3907.087040,6217.729913
1052.541324,9622.677246,8580.269578,7550.100608
1052.541654,7402.059420,9806.022374,10436.903782
1052.541984,4737.318029,10418.898773,13397.727550
1052.542313,1110.308913,8886.707777,15544.324782
1052.542643,-1036.288319,5745.716235,14285.974681
1052.542973,-1776.494261,842.705048,12139.377449
1052.543302,-2294.638420,-3140.991542,10881.027347
1052.543632,-3182.885551,-3983.696590,10362.883188
1052.543962,-4293.194464,-4903.011187,11177.109724
1052.544291,-6291.750507,-3064.381992,9474.636058
1052.544621,-7179.997637,1838.629195,6217.729913
1052.544950,-4071.132681,2451.505594,3997.112087
1052.545280,2146.597232,76.609550,3775.050304
1052.545610,6365.771101,-1149.143247,3775.050304
1052.545939,6513.812290,-229.828649,4737.318029
1052.546269,4293.194464,2451.505594,7846.182985
1052.546599,1406.391290,6818.249932,11769.274478
1052.546928,444.123565,7354.516781,12879.583391
1052.547258,814.226536,2374.896044,13027.624579
1052.547588,-222.061783,-229.828649,11621.233289
1052.547917,-814.226536,766.095498,11621.233289
1052.548247,-888.247130,-1991.848295,12731.542202
1052.548577,-4737.318029,-3753.867940,14211.954086
1052.548906,-10140.821405,-1915.238745,13027.624579
1052.549236,-11399.171507,0.000000,10658.965565
1052.549566,-5403.503377,-1915.238745,9252.574275
1052.549895,1628.453072,-3753.867940,8364.327145
1052.550225,5107.421000,-2221.676944,5699.585753
1052.550555,5181.441594,-1302.362347,2146.597232
1052.550884,4737.318029,-1302.362347,3997.112087
1052.551214,3849.070898,2987.772442,10362.883188
1052.551544,1628.453072,9499.584175,15544.324782
1052.551873,-2442.679609,7814.174080,16210.510130
1052.552203,-5329.482782,3370.820191,14285.974681
1052.552533,-6143.709319,1149.143247,13101.645173
1052.552862,-4885.359217,-2451.505594,11547.212695
1052.553192,-6291.750507,-5669.106685,9844.739029
1052.553521,-8364.327145,-4826.401637,7994.224174
1052.553851,-7179.997637,-3140.991542,6883.915261
1052.554181,-3108.864956,-3753.867940,5921.647536
1052.554510,1924.535449,229.828649,4885.359217
1052.554840,5551.544565,2145.067394,4145.153275
1052.555170,6809.894666,1455.581446,5921.647536
1052.555499,5551.544565,4903.011187,9548.656652
1052.555829,4145.153275,9346.365076,13397.727550
1052.556159,1924.535449,10112.460574,15174.221811
1052.556488,-3182.885551,9346.365076,14137.933492
1052.556818,-5995.668130,5975.544884,10658.965565
1052.557148,-3849.070898,-3294.210641,8068.244768
1052.557477,-1628.453072,-8427.050478,7476.080014
1052.557807,-3034.844362,-4903.011187,7105.977043
1052.558137,-4515.256246,-1608.800546,5403.503377
1052.558466,-1776.494261,-2374.896044,4219.173869
1052.558796,3034.844362,-1685.410096,4367.215058
1052.559126,7328.038826,229.828649,5255.462188
1052.559455,7254.018232,3064.381992,7698.141797
1052.559785,4811.338623,7737.564530,10732.986159
1052.560115,2886.803174,11261.603821,13619.789333
1052.560444,1332.370696,8350.440928,14508.036463
1052.560774,-962.267725,3447.429741,15766.386565
1052.561104,-5477.523971,1532.190996,14804.118840
1052.561433,-8290.306550,-1149.143247,12583.501014
1052.561763,-9178.553681,-4519.963438,9178.553681
1052.562092,-6809.894666,-6588.421283,7254.018232
1052.562422,-2960.823768,-7584.345430,5551.544565
1052.562752,0.000000,-6741.640382,4515.256246
1052.563081,2220.617826,-2221.676944,3849.070898
1052.563411,3997.112087,3830.477490,4515.256246
1052.563741,4737.318029,5132.839837,7031.956449
1052.564070,3256.906145,6281.983084,12435.459826
1052.564400,888.247130,9422.974625,17246.798449
1052.564730,-592.164754,8350.440928,18431.127956
1052.565059,-2664.741391,4213.525239,16728.654289
1052.565389,-6217.729913,2451.505594,13841.851115
1052.565719,-7994.224174,-2068.457845,10436.903782
1052.566048,-7550.100608,-9499.584175,8216.285956
1052.566378,-6587.832884,-9116.536426,7031.956449
1052.566708,-4293.194464,-4903.011187,5995.668130
1052.567037,-888.247130,-4060.306139,5847.626942
1052.567367,1998.556043,-1608.800546,4811.338623
1052.567697,4145.153275,2987.772442,3627.009116
1052.568026,7402.059420,2834.553343,4441.235652
1052.568356,6809.894666,4903.011187,9178.553681
1052.568686,3849.070898,10955.165621,14878.139434
1052.569015,518.144159,11414.822920,17764.942608
1052.569345,-2442.679609,5822.325785,15840.407159
1052.569675,-5477.523971,3830.477490,10955.047942
1052.570004,-7402.059420,-1991.848295,7179.997637
1052.570334,-8142.265362,-8350.440928,6365.771101
1052.570663,-8586.388927,-6818.249932,7105.977043
1052.570993,-6365.771101,-5669.106685,5921.647536
1052.571323,-2146.597232,-6894.859482,4663.297435
1052.571652,1406.391290,-4290.134789,4293.194464
1052.571982,4219.173869,842.705048,5033.400406
1052.572312,7772.162391,1762.019645,6365.771101
1052.572641,8216.285956,3830.477490,9992.780217
1052.572971,6143.709319,11414.822920,14211.954086
1052.573301,3849.070898,13253.452115,16654.633695
1052.573630,1924.535449,7507.735880,16654.633695
1052.573960,-1258.350101,2451.505594,16210.510130
1052.574290,-5181.441594,-995.924147,12583.501014
1052.574619,-7476.080014,-5132.839837,9104.533087
1052.574949,-7328.038826,-7354.516781,7624.121203
1052.575279,-5255.462188,-5745.716235,6587.832884
1052.575608,-2220.617826,-6741.640382,4663.297435
1052.575938,1332.370696,-6741.640382,3923.091493
1052.576268,3478.967927,-2068.457845,4959.379811
1052.576597,4441.235652,6435.202183,6661.853478
1052.576927,3108.864956,8963.317327,10807.006753
1052.577257,1850.514855,9193.145976,15174.221811
1052.577586,-518.144159,9422.974625,16876.695478
1052.577916,-2220.617826,6358.592633,16654.633695
1052.578246,-4811.338623,4060.306139,15988.448347
1052.578575,-7772.162391,2451.505594,11695.253884
1052.578905,-9548.656652,-4903.011187,7105.977043
1052.579234,-7920.203579,-11031.775171,5403.503377
1052.579564,-5255.462188,-8886.707777,7179.997637
1052.579894,-2294.638420,-2528.115143,7846.182985
1052.580223,888.247130,0.000000,4145.153275
1052.580553,3552.988522,1838.629195,2368.659014
1052.580883,6957.935855,2987.772442,4219.173869
1052.581212,8586.388927,5056.230287,9548.656652
1052.581542,6069.688724,9652.803275,15470.304188
1052.581872,666.185348,14479.204912,17690.922014
1052.582201,-3404.947333,12104.308868,14952.160028
1052.582531,-4885.359217,4979.620737,11843.295072
1052.582861,-3701.029710,-2451.505594,9918.759623
1052.583190,-3997.112087,-7354.516781,6883.915261
1052.583520,-5995.668130,-6894.859482,4515.256246
1052.583850,-5847.626942,-4979.620737,4589.276840
1052.584179,-3182.885551,-4136.915689,5699.585753
1052.584509,0.000000,-2528.115143,5255.462188
1052.584839,2590.720797,-229.828649,4589.276840
1052.585168,5181.441594,3447.429741,4589.276840
1052.585498,6365.771101,4596.572988,7328.038826
1052.585828,4885.359217,7814.174080,12805.562797
1052.586157,1184.329507,9116.536426,17690.922014
1052.586487,-2664.741391,8044.002729,16580.613101
1052.586817,-5551.544565,4596.572988,14211.954086
1052.587146,-6439.791695,-612.876398,12139.377449
1052.587476,-6883.915261,-5669.106685,9474.636058
1052.587805,-8068.244768,-10035.851024,7179.997637
1052.588135,-7105.977043,-8580.269578,6439.791695
1052.588465,-3478.967927,-6052.154434,6217.729913
1052.588794,296.082377,-4826.401637,5921.647536
1052.589124,3330.926739,-2221.676944,5921.647536
1052.589454,5477.523971,1532.190996,7105.977043
1052.589783,6587.832884,4060.306139,9992.780217
1052.590113,6143.709319,7660.954980,13175.665768
1052.590443,3849.070898,10112.460574,17320.819043
1052.590772,1332.370696,7890.783629,18727.210333
1052.591102,-2812.782580,4290.134789,16506.592507
1052.591432,-6661.853478,1762.019645,12731.542202
1052.591761,-6809.894666,-3830.477490,9252.574275
1052.592091,-7105.977043,-9652.803275,7179.997637
1052.592421,-7105.977043,-7737.564530,8068.244768
1052.592750,-5033.400406,-5056.230287,7846.182985
1052.593080,-2368.659014,-4443.353888,5477.523971
1052.593410,1036.288319,-842.705048,3182.885551
1052.593739,4145.153275,3600.648841,3849.070898
1052.594069,6587.832884,4596.572988,7698.141797
1052.594399,4737.318029,7431.126331,11251.130318
1052.594728,1036.288319,11721.261119,14211.954086
1052.595058,-2220.617826,10648.727422,15026.180623
1052.595388,-5477.523971,7584.345430,14508.036463
1052.595717,-6587.832884,3830.477490,11917.315666
1052.596047,-6587.832884,-3600.648841,7476.080014
1052.596376,-5995.668130,-9193.145976,4293.194464
1052.596706,-4441.235652,-6588.421283,4367.215058
1052.597036,-1258.350101,-3524.039291,5329.482782
1052.597365,2220.617826,-2757.943793,3997.112087
1052.597695,4515.256246,919.314598,2812.782580
1052.598025,6735.874072,3983.696590,4515.256246
1052.598354,8512.368333,6435.202183,8586.388927
1052.598684,6587.832884,9806.022374,13767.830521
1052.599014,1480.411884,12487.356617,16432.571912
1052.599343,-2368.659014,11031.775171,15470.304188
1052.599673,-4367.215058,4443.353888,13841.851115
1052.600003,-5255.462188,-1455.581446,13915.871710
1052.600332,-7402.059420,-4366.744339,12509.480420
1052.600662,-11029.068536,-6665.030833,7994.224174
1052.600992,-11473.192101,-7124.688131,4589.276840
1052.601321,-7031.956449,-6971.469032,4885.359217
1052.601651,0.000000,-5822.325785,6069.688724
1052.601981,2590.720797,-3064.381992,5773.606348
1052.602310,3775.050304,2681.334243,4219.173869
1052.602640,5255.462188,5592.497135,5477.523971
1052.602970,5773.606348,5592.497135,10955.047942
1052.603299,2886.803174,8503.660028,18135.045579
1052.603629,-888.247130,10265.679673,20281.642811
1052.603958,-4219.173869,6665.030833,18357.107362
1052.604288,-5699.585753,2604.724693,14582.057057
1052.604618,-5699.585753,-1762.019645,10955.047942
1052.604947,-5403.503377,-10418.898773,7328.038826
1052.605277,-5773.606348,-10955.165621,6365.771101
1052.605607,-5107.421000,-4673.182538,6957.935855
1052.605936,-1702.473667,-2221.676944,6587.832884
1052.606266,1628.453072,-995.924147,4737.318029
1052.606596,3182.885551,1685.410096,4515.256246
1052.606925,4737.318029,3064.381992,5551.544565
1052.607255,5107.421000,3140.991542,10584.944971
1052.607585,2516.700203,8810.098227,14582.057057
1052.607914,-1406.391290,11644.651570,16506.592507
1052.608244,-4737.318029,6205.373534,14952.160028
1052.608574,-6735.874072,2298.286494,12583.501014
1052.608903,-5403.503377,-1991.848295,9178.553681
1052.609233,-3478.967927,-7124.688131,6291.750507
1052.609563,-4219.173869,-6741.640382,5551.544565
1052.609892,-4737.318029,-2911.162892,6291.750507
1052.610222,-1184.329507,-2451.505594,5403.503377
1052.610552,2368.659014,-1685.410096,4071.132681
1052.610881,5403.503377,2145.067394,4219.173869
1052.611211,7402.059420,4826.401637,6069.688724
1052.611541,6291.750507,5132.839837,10362.883188
1052.611870,3034.844362,8963.317327,13767.830521
1052.612200,0.000000,10878.556072,14508.036463
1052.612529,-1628.453072,6205.373534,13545.768739
1052.612859,-3997.112087,2987.772442,13545.768739
1052.613189,-6439.791695,459.657299,11991.336260
1052.613518,-7994.224174,-4903.011187,8512.368333
1052.613848,-8364.327145,-7354.516781,5403.503377
1052.614178,-6883.915261,-5745.716235,6365.771101
1052.614507,-3775.050304,-2834.553343,7550.100608
1052.614837,-518.144159,-2528.115143,7031.956449
1052.615167,2442.679609,-842.705048,5773.606348
1052.615496,4737.318029,2221.676944,5329.482782
1052.615826,4737.318029,3524.039291,8438.347739
1052.616156,4367.215058,7201.297681,13989.892304
1052.616485,1480.411884,9806.022374,18135.045579
1052.616815,-1702.473667,7967.393179,16876.695478
1052.617145,-4219.173869,4366.744339,13545.768739
1052.617474,-4737.318029,-76.609550,11843.295072
1052.617804,-4515.256246,-4596.572988,10584.944971
1052.618134,-5699.585753,-7277.907231,9178.553681
1052.618463,-5995.668130,-5592.497135,7328.038826
1052.618793,-2812.782580,-4290.134789,6291.750507
1052.619123,814.226536,-3217.601092,5921.647536
1052.619452,4367.215058,-153.219100,5847.626942
1052.619782,5255.462188,2528.115143,6069.688724
1052.620112,4663.297435,3217.601092,7698.141797
1052.620441,1554.432478,6741.640382,11621.233289
1052.620771,-1036.288319,9806.022374,15766.386565
1052.621100,-3627.009116,8350.440928,16210.510130
1052.621430,-5699.585753,3064.381992,13249.686362
1052.621760,-6439.791695,-1072.533697,10658.965565
1052.622089,-5551.544565,-5286.058936,7698.141797
1052.622419,-4737.318029,-8197.221829,6291.750507
1052.622749,-3478.967927,-5822.325785,5107.421000
1052.623078,-2146.597232,-3447.429741,5033.400406
1052.623408,2294.638420,-1915.238745,4737.318029
1052.623738,6143.709319,1225.752797,5921.647536
1052.624067,7994.224174,4673.182538,6587.832884
1052.624397,6291.750507,5822.325785,8438.347739
1052.624727,3256.906145,8963.317327,10955.047942
1052.625056,1258.350101,9806.022374,14211.954086
1052.625386,666.185348,6588.421283,15914.427753
1052.625716,-2886.803174,3064.381992,14359.995275
1052.626045,-7254.018232,1072.533697,11029.068536
1052.626375,-9252.574275,-4443.353888,7476.080014
1052.626705,-8438.347739,-8886.707777,6883.915261
1052.627034,-6735.874072,-5822.325785,7920.203579
1052.627364,-5477.523971,-2911.162892,8364.327145
1052.627694,-2590.720797,-2987.772442,5551.544565
1052.628023,518.144159,-1838.629195,4145.153275
1052.628353,3997.112087,1532.190996,5699.585753
1052.628683,5625.565159,2987.772442,8808.450710
1052.629012,2886.803174,5975.544884,11917.315666
1052.629342,518.144159,9576.193725,15840.407159
1052.629671,-1332.370696,6971.469032,16506.592507
1052.630001,-2664.741391,3907.087040,15692.365970
1052.630331,-5181.441594,1149.143247,12953.603985
1052.630660,-6883.915261,-3140.991542,9770.718434
1052.630990,-6883.915261,-6818.249932,8512.368333
1052.631320,-4959.379811,-5515.887586,8512.368333
1052.631649,-2442.679609,-3830.477490,9178.553681
1052.631979,-814.226536,-1991.848295,6735.874072
1052.632309,1036.288319,0.000000,4515.256246
1052.632638,4441.235652,1838.629195,5551.544565
1052.632968,7476.080014,2987.772442,7920.203579
1052.633298,5403.503377,5286.058936,11843.295072
1052.633627,592.164754,9269.755526,14211.954086
1052.633957,-2146.597232,9652.803275,14804.118840
1052.634287,-3478.967927,5592.497135,13693.809927
1052.634616,-4293.194464,919.314598,11843.295072
1052.634946,-5329.482782,-3600.648841,9400.615463
1052.635276,-6513.812290,-6588.421283,7254.018232
1052.635605,-6661.853478,-4290.134789,7031.956449
1052.635935,-3701.029710,-2911.162892,6439.791695
1052.636265,370.102971,-3217.601092,5033.400406
1052.636594,3775.050304,-1225.752797,4219.173869
1052.636924,6143.709319,2298.286494,5477.523971
1052.637254,7328.038826,5209.449386,7402.059420
1052.637583,6069.688724,7584.345430,9252.574275
1052.637913,3627.009116,10189.070123,12287.418637
1052.638242,1554.432478,8810.098227,14434.015869
1052.638572,-1184.329507,5439.278036,14137.933492
1052.638902,-3552.988522,1608.800546,13175.665768
1052.639231,-5551.544565,-1915.238745,11029.068536
1052.639561,-8586.388927,-4596.572988,8068.244768
1052.639891,-8660.409521,-4903.011187,7698.141797
1052.640220,-4145.153275,-3907.087040,6957.935855
1052.640550,-148.041188,-4366.744339,4737.318029
1052.640879,2960.823768,-3600.648841,3034.844362
1052.641209,4515.256246,-612.876398,5033.400406
1052.641538,4663.297435,3140.991542,9252.574275
1052.641868,1850.514855,6971.469032,12435.459826
1052.642197,-962.267725,10342.289223,14878.139434
1052.642527,-2368.659014,8350.440928,16284.530724
1052.642857,-3256.906145,3830.477490,15618.345376
1052.643186,-4959.379811,0.000000,14137.933492
1052.643516,-6809.894666,-2604.724693,10881.027347
1052.643845,-7994.224174,-6435.202183,7254.018232
1052.644175,-7772.162391,-6894.859482,7328.038826
1052.644504,-5551.544565,-4443.353888,9178.553681
1052.644834,-1850.514855,-3600.648841,8142.265362
1052.645163,2072.576638,-1991.848295,5329.482782
1052.645493,4515.256246,2221.676944,3849.070898
1052.645822,5921.647536,3370.820191,6439.791695
1052.646152,5033.400406,4979.620737,11399.171507
1052.646481,1406.391290,8350.440928,15100.201217
1052.646811,-1702.473667,9422.974625,15840.407159
1052.647140,-3404.947333,6358.592633,14137.933492
1052.647470,-4515.256246,1532.190996,12879.583391
1052.647799,-4589.276840,-2681.334243,10436.903782
1052.648129,-5329.482782,-8044.002729,7179.997637
1052.648459,-6069.688724,-7124.688131,6069.688724
1052.648788,-4441.235652,-1915.238745,7105.977043
1052.649118,-888.247130,-842.705048,7254.018232
1052.649447,2220.617826,-842.705048,5773.606348
1052.649777,3923.091493,1685.410096,4737.318029
1052.650106,6143.709319,3753.867940,4515.256246
1052.650436,7402.059420,4826.401637,7846.182985
1052.650765,5181.441594,8350.440928,12583.501014
1052.651095,1998.556043,10342.289223,14582.057057
1052.651424,-1258.350101,5669.106685,12953.603985
1052.651754,-3330.926739,306.438199,11917.315666
1052.652083,-3849.070898,-229.828649,11103.089130
1052.652413,-4811.338623,-2528.115143,9326.594869
1052.652742,-5551.544565,-4903.011187,7772.162391
1052.653072,-4885.359217,-3447.429741,6439.791695
1052.653401,-1184.329507,-2757.943793,5107.421000
1052.653731,3108.864956,-2757.943793,4293.194464
1052.654061,4589.276840,0.000000,5255.462188
1052.654390,5033.400406,3294.210641,7846.182985
1052.654720,3108.864956,5439.278036,10955.047942
1052.655049,888.247130,7507.735880,13249.686362
1052.655379,-592.164754,8886.707777,15544.324782
1052.655708,-2294.638420,4979.620737,15248.242405
1052.656038,-4959.379811,995.924147,13841.851115
1052.656367,-7772.162391,-1378.971896,11843.295072
1052.656697,-8734.430116,-5362.668486,10214.842000
1052.657026,-8956.491898,-6665.030833,8586.388927
1052.657356,-7994.224174,-4060.306139,7254.018232
1052.657685,-3849.070898,-4366.744339,6069.688724
1052.658015,1258.350101,-5132.839837,5477.523971
1052.658344,4959.379811,-1072.533697,6217.729913
1052.658674,5921.647536,4903.011187,6365.771101
1052.659003,4811.338623,6588.421283,8216.285956
1052.659333,3552.988522,8197.221829,12509.480420
1052.659663,2442.679609,9422.974625,16950.716072
1052.659992,222.061783,6818.249932,17468.860231
1052.660322,-3701.029710,4366.744339,14656.077652
1052.660651,-8068.244768,2451.505594,11843.295072
1052.660981,-8660.409521,-2451.505594,8808.450710
1052.661310,-7772.162391,-7890.783629,6957.935855
1052.661640,-5847.626942,-7737.564530,6587.832884
1052.661969,-3552.988522,-4979.620737,6439.791695
1052.662299,-1110.308913,-2604.724693,5033.400406
1052.662628,1554.432478,229.828649,4219.173869
1052.662958,4737.318029,2757.943793,4959.379811
1052.663287,5847.626942,4519.963438,7328.038826
1052.663617,4441.235652,8580.269578,10436.903782
1052.663946,2220.617826,11874.480219,13249.686362
1052.664276,1110.308913,8580.269578,13471.748144
1052.664605,-962.267725,3370.820191,12213.398043
1052.664935,-3330.926739,0.000000,11843.295072
1052.665264,-5847.626942,-2451.505594,10807.006753
1052.665594,-6809.894666,-4903.011187,9252.574275
1052.665924,-5551.544565,-3907.087040,7179.997637
1052.666253,-1850.514855,-2451.505594,4959.379811
1052.666583,3108.864956,-4213.525239,3404.947333
1052.666912,7179.997637,-2374.896044,3330.926739
1052.667242,8512.368333,1991.848295,5773.606348
1052.667571,6439.791695,6588.421283,8660.409521
1052.667901,2368.659014,9116.536426,12435.459826
1052.668230,-296.082377,9116.536426,16876.695478
1052.668560,-2072.576638,6665.030833,18579.169144
1052.668889,-4589.276840,2221.676944,16580.613101
1052.669219,-6587.832884,-1378.971896,13027.624579
1052.669548,-7179.997637,-5056.230287,10436.903782
1052.669878,-7402.059420,-7737.564530,7328.038826
1052.670207,-7031.956449,-6435.202183,4441.235652
1052.670537,-4293.194464,-4596.572988,2960.823768
1052.670866,814.226536,-5745.716235,3997.112087
1052.671196,3627.009116,-2681.334243,6883.915261
1052.671526,3552.988522,3677.258390,9844.739029
1052.671855,3182.885551,8197.221829,10658.965565
1052.672185,2294.638420,8197.221829,12731.542202
1052.672514,1998.556043,8427.050478,15766.386565
1052.672844,1554.432478,6128.763984,16506.592507
1052.673173,-740.205942,2145.067394,14582.057057
1052.673503,-5181.441594,1455.581446,10881.027347
1052.673832,-7179.997637,-1225.752797,9030.512492
1052.674162,-6143.709319,-8656.879127,9474.636058
1052.674491,-5699.585753,-7737.564530,9992.780217
1052.674821,-6143.709319,-3064.381992,8290.306550
1052.675150,-3034.844362,-2068.457845,4219.173869
1052.675480,2442.679609,-3370.820191,2220.617826
1052.675809,6735.874072,0.000000,4885.359217
1052.676139,7179.997637,3524.039291,8142.265362
1052.676468,3849.070898,6358.592633,10510.924376
1052.676798,1184.329507,12487.356617,12879.583391
1052.677128,-370.102971,10725.336972,14730.098246
1052.677457,-1924.535449,4596.572988,15026.180623
1052.677787,-4219.173869,1685.410096,12509.480420
1052.678116,-5255.462188,-2145.067394,9474.636058
1052.678446,-5329.482782,-5515.887586,6217.729913
1052.678775,-4737.318029,-4519.963438,5699.585753
1052.679105,-2664.741391,-3753.867940,5773.606348
1052.679434,518.144159,-3600.648841,3627.009116
1052.679764,3404.947333,-2221.676944,2812.782580
1052.680093,6143.709319,2145.067394,5773.606348
1052.680423,6661.853478,6052.154434,9030.512492
1052.680752,4737.318029,8044.002729,11103.089130
1052.681082,1480.411884,8810.098227,13545.768739
1052.681411,-296.082377,5669.106685,16210.510130
1052.681741,-1924.535449,3830.477490,16358.551318
1052.682070,-4589.276840,1149.143247,14582.057057
1052.682400,-7105.977043,-2221.676944,11843.295072
1052.682730,-8882.471304,-5745.716235,7846.182985
1052.683059,-7846.182985,-7124.688131,4589.276840
1052.683389,-3256.906145,-6588.421283,3923.091493
1052.683718,1332.370696,-5515.887586,4515.256246
1052.684048,2664.741391,-2374.896044,6217.729913
1052.684377,2590.720797,2298.286494,8216.285956
1052.684707,2368.659014,6052.154434,9696.697840
1052.685036,2368.659014,8580.269578,11547.212695
1052.685366,1776.494261,9269.755526,15544.324782
1052.685695,148.041188,8273.831378,17172.777854
1052.686025,-2072.576638,4443.353888,15618.345376
1052.686354,-4811.338623,995.924147,11843.295072
1052.686684,-6217.729913,-842.705048,9400.615463
1052.687013,-6883.915261,-5975.544884,8438.347739
1052.687343,-7254.018232,-8273.831378,8586.388927
1052.687672,-6217.729913,-4903.011187,8882.471304
1052.688002,-3256.906145,-2757.943793,6217.729913
1052.688332,1110.308913,-2221.676944,4589.276840
1052.688661,4071.132681,0.000000,5033.400406
1052.688991,5255.462188,2681.334243,6809.894666
1052.689320,4811.338623,4903.011187,9104.533087
1052.689650,3701.029710,7660.954980,12657.521608
1052.689979,2368.659014,9729.412825,15766.386565
1052.690309,-814.226536,6971.469032,16136.489536
1052.690638,-4367.215058,2681.334243,14137.933492
1052.690968,-5847.626942,-153.219100,11029.068536
1052.691297,-4959.379811,-3064.381992,8586.388927
1052.691627,-4071.132681,-4903.011187,5477.523971
1052.691956,-3552.988522,-3677.258390,2886.803174
1052.692286,-222.061783,-3907.087040,1554.432478
1052.692615,3775.050304,-3753.867940,2516.700203
1052.692945,5921.647536,-229.828649,4811.338623
1052.693274,5033.400406,5515.887586,7698.141797
1052.693604,2812.782580,7354.516781,9992.780217
1052.693934,888.247130,8503.660028,11695.253884
1052.694263,1406.391290,7124.688131,15988.448347
1052.694593,1258.350101,1149.143247,17690.922014
1052.694922,-2960.823768,459.657299,14878.139434
1052.695252,-8882.471304,1225.752797,10436.903782
1052.695581,-10140.821405,-3907.087040,9252.574275
1052.695911,-7772.162391,-7201.297681,8290.306550
1052.696240,-4737.318029,-5592.497135,5403.503377
1052.696570,-1406.391290,-6281.983084,2368.659014
1052.696899,3182.885551,-6741.640382,3330.926739
1052.697229,5477.523971,-536.266849,7772.162391
1052.697558,5329.482782,4060.306139,10436.903782
1052.697888,3552.988522,5898.935335,11695.253884
1052.698217,1332.370696,10495.508323,14359.995275
1052.698547,666.185348,12104.308868,18505.148550
1052.698876,814.226536,6818.249932,17764.942608
1052.699206,-444.123565,766.095498,14137.933492
1052.699536,-3552.988522,-3830.477490,11325.150913
1052.699865,-6661.853478,-5592.497135,10288.862594
1052.700195,-8882.471304,-6511.811733,11251.130318
1052.700524,-8660.409521,-4060.306139,9400.615463
1052.700854,-5551.544565,-2757.943793,5329.482782
1052.701183,148.041188,-4903.011187,1332.370696
1052.701513,6217.729913,-3677.258390,1850.514855
1052.701842,9326.594869,459.657299,5329.482782
1052.702172,6661.853478,5975.544884,8512.368333
1052.702501,1036.288319,11108.384721,11695.253884
1052.702831,-1924.535449,13636.499864,15248.242405
1052.703160,-2220.617826,9729.412825,16580.613101
1052.703490,-2886.803174,3064.381992,15692.365970
1052.703819,-4515.256246,-383.047749,12139.377449
1052.704149,-6217.729913,-3370.820191,8364.327145
1052.704478,-6587.832884,-5975.544884,7179.997637
1052.704808,-6069.688724,-4519.963438,5033.400406
1052.705138,-4145.153275,-2834.553343,1776.494261
1052.705467,1406.391290,-3294.210641,-0.000000
1052.705797,6587.832884,-1991.848295,2960.823768
1052.706126,8882.471304,4136.915689,7105.977043
1052.706456,7031.956449,8886.707777,8808.450710
1052.706785,3701.029710,9959.241474,9326.594869
1052.707115,2146.597232,10648.727422,13175.665768
1052.707444,740.205942,7201.297681,17098.757260
1052.707774,-2294.638420,2068.457845,17838.963202
1052.708103,-6735.874072,0.000000,14730.098246
1052.708433,-10066.800811,-3217.601092,10584.944971
1052.708762,-10066.800811,-5286.058936,8956.491898
1052.709092,-7328.038826,-6281.983084,7254.018232
1052.709421,-3923.091493,-6052.154434,3849.070898
1052.709751,222.061783,-6511.811733,1258.350101
1052.710080,3552.988522,-4443.353888,2738.761985
1052.710410,5477.523971,2451.505594,8068.244768
1052.710740,3256.906145,6358.592633,11695.253884
1052.711069,74.020594,9193.145976,13397.727550
1052.711399,-1554.432478,10955.165621,16062.468941
1052.711728,222.061783,7584.345430,17394.839637
1052.712058,444.123565,2528.115143,15766.386565
1052.712387,-3182.885551,-306.438199,10732.986159
1052.712717,-6957.935855,-3140.991542,8882.471304
1052.713046,-7031.956449,-8963.317327,9770.718434
1052.713376,-6439.791695,-6818.249932,11621.233289
1052.713705,-5995.668130,-1532.190996,9326.594869
1052.714035,-2812.782580,-2834.553343,4737.318029
1052.714364,1258.350101,-3753.867940,2368.659014
1052.714694,5255.462188,-995.924147,4071.132681
1052.715023,7328.038826,2528.115143,7772.162391
1052.715353,5181.441594,5362.668486,11325.150913
1052.715682,1554.432478,10955.165621,14952.160028
1052.716012,-2072.576638,10418.898773,16802.674883
1052.716342,-3330.926739,4826.401637,16284.530724
1052.716671,-4515.256246,2145.067394,13545.768739
1052.717001,-5699.585753,-766.095498,9918.759623
1052.717330,-5625.565159,-4673.182538,6439.791695
1052.717660,-4589.276840,-4673.182538,4145.153275
1052.717989,-1332.370696,-3907.087040,2368.659014
1052.718319,1850.514855,-4290.134789,962.267725
1052.718648,3997.112087,-2298.286494,2294.638420
1052.718978,4737.318029,3677.258390,6069.688724
1052.719307,4811.338623,7201.297681,9622.677246
1052.719637,2442.679609,9116.536426,11547.212695
1052.719966,888.247130,11108.384721,12139.377449
1052.720296,888.247130,5362.668486,16284.530724
1052.720625,-444.123565,459.657299,17690.922014
1052.720955,-5551.544565,2757.943793,14804.118840
1052.721284,-10658.965565,1991.848295,9622.677246
1052.721614,-10807.006753,-4749.792088,7031.956449
1052.721944,-8142.265362,-6128.763984,6291.750507
1052.722273,-3923.091493,-4903.011187,4293.194464
1052.722603,962.267725,-6894.859482,3330.926739
1052.722932,2886.803174,-5669.106685,3478.967927
1052.723262,2294.638420,3370.820191,6143.709319
1052.723591,2516.700203,4903.011187,9548.656652
1052.723921,2368.659014,5822.325785,12953.603985
1052.724250,1258.350101,11108.384721,15914.427753
1052.724580,888.247130,10035.851024,17246.798449
1052.724909,74.020594,4136.915689,15396.283594
1052.725239,-2516.700203,919.314598,12139.377449
1052.725568,-5033.400406,-2374.896044,11325.150913
1052.725898,-6809.894666,-8197.221829,11843.295072
1052.726227,-8734.430116,-5898.935335,11029.068536
1052.726557,-8586.388927,-1838.629195,8586.388927
1052.726886,-3849.070898,-4213.525239,5699.585753
1052.727216,2220.617826,-5669.106685,2960.823768
1052.727545,6661.853478,-2374.896044,2960.823768
1052.727875,8660.409521,0.000000,5699.585753
1052.728205,5847.626942,5209.449386,10066.800811
1052.728534,444.123565,11568.042020,14359.995275
1052.728864,-1406.391290,11108.384721,17246.798449
1052.729193,-1628.453072,5822.325785,16654.633695
1052.729523,-2368.659014,2374.896044,13545.768739
1052.729852,-3182.885551,-842.705048,10510.924376
1052.730182,-3849.070898,-4673.182538,7698.141797
1052.730511,-4293.194464,-6281.983084,5847.626942
1052.730841,-4293.194464,-4519.963438,3627.009116
1052.731170,-222.061783,-3524.039291,2886.803174
1052.731500,4367.215058,-2221.676944,2960.823768
1052.731829,6587.832884,1149.143247,5921.647536
1052.732159,6217.729913,5822.325785,7476.080014
1052.732488,4515.256246,7737.564530,8290.306550
1052.732818,3552.988522,7201.297681,12657.521608
1052.733147,1702.473667,8580.269578,17246.798449
1052.733477,-2294.638420,6741.640382,17468.860231
1052.733807,-5181.441594,1302.362347,13693.809927
1052.734136,-6587.832884,-1532.190996,10658.965565
1052.734466,-6513.812290,-4136.915689,9326.594869
1052.734795,-6143.709319,-6358.592633,7476.080014
1052.735125,-5477.523971,-4596.572988,4145.153275
1052.735454,-2294.638420,-2451.505594,1036.288319
1052.735784,3034.844362,-4903.011187,3256.906145
1052.736113,5773.606348,-1532.190996,6957.935855
1052.736443,4145.153275,6281.983084,8956.491898
1052.736772,666.185348,7354.516781,9622.677246
1052.737102,-592.164754,9193.145976,13323.706956
1052.737431,-1110.308913,11491.432470,17912.983796
1052.737761,-740.205942,6281.983084,17764.942608
1052.738090,-3108.864956,-459.657299,12287.418637
1052.738420,-7476.080014,-1149.143247,8364.327145
1052.738749,-9030.512492,-3907.087040,7402.059420
1052.739079,-7920.203579,-9269.755526,10510.924376
1052.739408,-8142.265362,-6128.763984,11177.109724
1052.739738,-7550.100608,-536.266849,8364.327145
1052.740067,-3330.926739,-3447.429741,5329.482782
1052.740396,2368.659014,-3217.601092,4441.235652
1052.740726,5995.668130,1225.752797,6365.771101
1052.741055,5773.606348,2604.724693,9252.574275
1052.741385,2812.782580,7048.078582,11843.295072
1052.741714,1184.329507,11184.994271,15026.180623
1052.742043,1480.411884,7507.735880,17838.963202
1052.742373,-1924.535449,1762.019645,17172.777854
1052.742702,-7105.977043,1838.629195,13175.665768
1052.743032,-7550.100608,-689.485948,9178.553681
1052.743361,-4663.297435,-6052.154434,7179.997637
1052.743690,-2368.659014,-4443.353888,5477.523971
1052.744020,-962.267725,-3447.429741,3034.844362
1052.744349,1924.535449,-6511.811733,1998.556043
1052.744679,4071.132681,-1302.362347,3701.029710
1052.745008,5329.482782,6281.983084,7179.997637
1052.745337,5699.585753,7814.174080,9178.553681
1052.745667,3478.967927,7967.393179,10066.800811
1052.745996,1480.411884,7431.126331,14137.933492
1052.746325,1554.432478,4213.525239,16580.613101
1052.746655,-444.123565,2451.505594,13989.892304
1052.746984,-3849.070898,2451.505594,10732.986159
1052.747314,-7105.977043,-842.705048,8512.368333
1052.747643,-7994.224174,-5515.887586,9474.636058
1052.747972,-7031.956449,-4979.620737,8068.244768
1052.748302,-3478.967927,-4060.306139,4441.235652
1052.748631,1628.453072,-3600.648841,1332.370696
1052.748961,5403.503377,-919.314598,2590.720797
1052.749290,7550.100608,459.657299,6735.874072
1052.749619,6439.791695,3600.648841,8586.388927
1052.749949,1554.432478,8273.831378,9992.780217
1052.750278,-888.247130,12334.137518,14804.118840
1052.750608,-1702.473667,10265.679673,19837.519246
1052.750937,-3256.906145,2681.334243,19985.560434
1052.751266,-6143.709319,-2221.676944,13841.851115
1052.751596,-9474.636058,-4213.525239,7105.977043
1052.751925,-8808.450710,-8044.002729,5699.585753
1052.752254,-7105.977043,-8733.488677,8512.368333
1052.752584,-5773.606348,-4290.134789,8956.491898
1052.752913,-2442.679609,-2374.896044,5921.647536
1052.753243,1702.473667,-2987.772442,3997.112087
1052.753572,5255.462188,1378.971896,5477.523971
1052.753901,6587.832884,5822.325785,8660.409521
1052.754231,5107.421000,6818.249932,12435.459826
1052.754560,1924.535449,9729.412825,15396.283594
1052.754890,-296.082377,11644.651570,16432.571912
1052.755219,-1850.514855,6358.592633,14730.098246
1052.755548,-4515.256246,689.485948,12361.439231
1052.755878,-7920.203579,-4060.306139,11843.295072
1052.756207,-9104.533087,-7967.393179,10881.027347
1052.756537,-9474.636058,-6358.592633,8734.430116
1052.756866,-7994.224174,-3524.039291,6513.812290
1052.757195,-2960.823768,-3140.991542,4219.173869
1052.757525,2368.659014,-4443.353888,2664.741391
1052.757854,6365.771101,-536.266849,2442.679609
1052.758184,9104.533087,5056.230287,5181.441594
1052.758513,7846.182985,7660.954980,8808.450710
1052.758842,4515.256246,12257.527968,12435.459826
1052.759172,962.267725,10648.727422,14582.057057
1052.759501,-666.185348,5745.716235,14582.057057
1052.759830,-2368.659014,2221.676944,11917.315666
1052.760160,-3404.947333,-459.657299,10140.821405
1052.760489,-5033.400406,-3447.429741,9104.533087
1052.760819,-7105.977043,-5592.497135,7550.100608
1052.761148,-6217.729913,-3677.258390,5625.565159
1052.761477,-1776.494261,-3677.258390,3849.070898
1052.761807,2368.659014,-2604.724693,3478.967927
1052.762136,3701.029710,1608.800546,5847.626942
1052.762466,3256.906145,4596.572988,8438.347739
1052.762795,2072.576638,6588.421283,9622.677246
1052.763124,888.247130,8120.612279,12879.583391
1052.763454,-962.267725,7660.954980,16506.592507
1052.763783,-2960.823768,4290.134789,17468.860231
1052.764113,-6217.729913,-153.219100,14137.933492
1052.764442,-7402.059420,-2604.724693,10140.821405
1052.764771,-7254.018232,-6358.592633,7105.977043
1052.765101,-6069.688724,-7354.516781,6439.791695
1052.765430,-4145.153275,-5745.716235,6513.812290
1052.765759,-518.144159,-4060.306139,6735.874072
1052.766089,2368.659014,-2298.286494,6957.935855
1052.766418,4367.215058,2604.724693,7698.141797
1052.766748,5033.400406,5286.058936,9844.739029
1052.767077,4885.359217,7201.297681,12731.542202
1052.767406,2738.761985,9576.193725,16136.489536
1052.767736,370.102971,10418.898773,15470.304188
1052.768065,-1258.350101,3983.696590,14211.954086
1052.768395,-3923.091493,-2987.772442,13545.768739
1052.768724,-7994.224174,-1532.190996,13619.789333
1052.769053,-10066.800811,-4903.011187,10732.986159
1052.769383,-9326.594869,-6741.640382,6513.812290
1052.769712,-7402.059420,-4596.572988,3182.885551
1052.770042,-1332.370696,-5286.058936,1776.494261
1052.770371,5033.400406,-6205.373534,2368.659014
1052.770700,7698.141797,0.000000,4589.276840
1052.771030,5847.626942,8197.221829,7402.059420
1052.771359,3108.864956,9959.241474,9474.636058
1052.771689,2146.597232,10725.336972,13693.809927
1052.772018,1776.494261,9806.022374,17024.736666
1052.772347,0.000000,5898.935335,15100.201217
1052.772677,-2960.823768,2221.676944,9992.780217
1052.773006,-4515.256246,-1072.533697,8586.388927
1052.773335,-5773.606348,-5669.106685,9548.656652
1052.773665,-7772.162391,-6435.202183,8142.265362
1052.773994,-8512.368333,-4060.306139,5255.462188
1052.774324,-3108.864956,-2221.676944,3775.050304
1052.774653,2146.597232,-2298.286494,4441.235652
1052.774982,5181.441594,383.047749,4885.359217
1052.775312,5921.647536,3983.696590,6291.750507
1052.775641,5033.400406,6588.421283,7550.100608
1052.775971,2812.782580,9806.022374,11695.253884
1052.776300,296.082377,9499.584175,16950.716072
1052.776629,-2368.659014,4979.620737,18283.086767
1052.776959,-5699.585753,-306.438199,14656.077652
1052.777288,-8216.285956,-2451.505594,11103.089130
1052.777618,-7698.141797,-4903.011187,10214.842000
1052.777947,-6217.729913,-8273.831378,9622.677246
1052.778276,-6217.729913,-6128.763984,7402.059420
1052.778606,-3330.926739,-3983.696590,5329.482782
1052.778935,1850.514855,-3447.429741,4589.276840
1052.779264,5625.565159,1072.533697,6365.771101
1052.779594,6513.812290,4903.011187,9474.636058
1052.779923,5181.441594,6818.249932,11695.253884
1052.780253,2516.700203,9576.193725,13249.686362
1052.780582,1036.288319,10418.898773,14359.995275
1052.780911,1036.288319,5745.716235,14804.118840
1052.781241,-1924.535449,-1072.533697,14285.974681
1052.781570,-6587.832884,-2451.505594,13175.665768
1052.781900,-9548.656652,-4903.011187,11473.192101
1052.782229,-8882.471304,-7277.907231,9992.780217
1052.782558,-7698.141797,-3677.258390,7031.956449
1052.782888,-3997.112087,-3064.381992,4441.235652
1052.783217,2220.617826,-4749.792088,2072.576638
1052.783547,6809.894666,-1991.848295,2664.741391
1052.783876,8586.388927,4826.401637,5403.503377
1052.784205,6957.935855,8810.098227,8586.388927
1052.784535,3256.906145,10189.070123,10807.006753
1052.784864,370.102971,11414.822920,13989.892304
1052.785194,74.020594,7507.735880,15544.324782
1052.785523,-222.061783,2451.505594,13767.830521
1052.785852,-3330.926739,153.219100,9844.739029
1052.786182,-5773.606348,-3753.867940,8364.327145
1052.786511,-6587.832884,-6971.469032,8364.327145
1052.786840,-6883.915261,-5286.058936,8068.244768
1052.787170,-5033.400406,-2451.505594,5033.400406
1052.787499,-444.123565,-2068.457845,2516.700203
1052.787829,3701.029710,-1532.190996,3701.029710
1052.788158,6365.771101,2604.724693,7105.977043
1052.788487,5699.585753,5286.058936,9252.574275
1052.788817,2368.659014,7660.954980,10140.821405
1052.789146,-444.123565,10648.727422,13323.706956
1052.789476,-1850.514855,7201.297681,16506.592507
1052.789805,-2886.803174,1378.971896,16728.654289
1052.790134,-5995.668130,-1608.800546,13101.645173
1052.790464,-8586.388927,-3064.381992,9030.512492
1052.790793,-8956.491898,-6741.640382,7105.977043
1052.791123,-7105.977043,-7660.954980,7920.203579
1052.791452,-4441.235652,-3983.696590,7550.100608
1052.791781,-444.123565,-3600.648841,5847.626942
1052.792111,2442.679609,-2451.505594,4959.379811
1052.792440,4663.297435,2298.286494,7550.100608
1052.792769,5625.565159,4979.620737,10584.944971
1052.793099,3627.009116,6588.421283,12879.583391
1052.793428,518.144159,9269.755526,15396.283594
1052.793758,0.000000,6511.811733,17024.736666
1052.794087,-444.123565,1225.752797,16358.551318
1052.794416,-3923.091493,-766.095498,12953.603985
1052.794746,-6809.894666,-1608.800546,9844.739029
1052.795075,-6661.853478,-6205.373534,7624.121203
1052.795405,-5033.400406,-6205.373534,6735.874072
1052.795734,-3108.864956,-2987.772442,5329.482782
1052.796063,-148.041188,-3064.381992,3552.988522
1052.796393,3182.885551,-1608.800546,2738.761985
1052.796722,4959.379811,3677.258390,5551.544565
1052.797052,6143.709319,5439.278036,9030.512492
1052.797381,3552.988522,6281.983084,10955.047942
1052.797710,0.000000,9806.022374,13027.624579
1052.798040,-2294.638420,8350.440928,14582.057057
1052.798369,-2664.741391,3294.210641,14730.098246
1052.798699,-4071.132681,306.438199,12139.377449
1052.799028,-4959.379811,-1762.019645,9326.594869
1052.799357,-4811.338623,-5286.058936,7550.100608
1052.799687,-4737.318029,-5286.058936,6957.935855
1052.800016,-2738.761985,-2528.115143,4885.359217
1052.800345,740.205942,-1378.971896,2738.761985
1052.800675,5255.462188,-459.657299,2516.700203
1052.801004,8068.244768,3294.210641,4737.318029
1052.801334,8290.306550,5822.325785,8586.388927
1052.801663,5625.565159,6358.592633,11029.068536
1052.801992,1184.329507,9116.536426,14359.995275
1052.802322,-2072.576638,8886.707777,17764.942608
1052.802651,-3849.070898,5132.839837,17394.839637
1052.802981,-5847.626942,-229.828649,14804.118840
1052.803310,-7254.018232,-2834.553343,11399.171507
1052.803639,-8956.491898,-5439.278036,7624.121203
1052.803969,-8512.368333,-7277.907231,4959.379811
1052.804298,-6365.771101,-5286.058936,5107.421000
1052.804628,-2146.597232,-3370.820191,4441.235652
1052.804957,1406.391290,-3600.648841,4737.318029
1052.805286,3330.926739,-383.047749,7031.956449
1052.805616,3478.967927,4290.134789,8660.409521
1052.805945,2294.638420,7201.297681,10881.027347
1052.806274,1406.391290,9193.145976,14656.077652
1052.806604,296.082377,9422.974625,16728.654289
1052.806933,-222.061783,4903.011187,14582.057057
1052.807263,-1924.535449,-2068.457845,13249.686362
1052.807592,-5033.400406,-3524.039291,12583.501014
1052.807921,-7994.224174,-4366.744339,12361.439231
1052.808251,-9104.533087,-5975.544884,10214.842000
1052.808580,-7179.997637,-3064.381992,8068.244768
1052.808910,-2368.659014,-2451.505594,4515.256246
1052.809239,4219.173869,-4903.011187,2368.659014
1052.809568,8660.409521,-2987.772442,3108.864956
1052.809898,7846.182985,3370.820191,5625.565159
1052.810227,4885.359217,6588.421283,8808.450710
1052.810557,1406.391290,9193.145976,13619.789333
1052.810886,-444.123565,11951.089769,17246.798449
1052.811215,-1924.535449,7431.126331,16580.613101
1052.811545,-3182.885551,689.485948,12805.562797
1052.811874,-4145.153275,-1838.629195,9400.615463
1052.812204,-4515.256246,-5286.058936,8660.409521
1052.812533,-5477.523971,-6358.592633,8216.285956
1052.812862,-6513.812290,-3064.381992,5699.585753
1052.813192,-3108.864956,-1532.190996,2886.803174
1052.813521,3034.844362,-3064.381992,2072.576638
1052.813850,7179.997637,0.000000,3997.112087
1052.814180,7846.182985,5362.668486,6439.791695
1052.814509,6143.709319,5898.935335,8956.491898
1052.814839,2664.741391,7584.345430,12583.501014
1052.815168,-1110.308913,10801.946522,16728.654289
1052.815497,-2960.823768,7124.688131,17987.004391
1052.815827,-4293.194464,1455.581446,14434.015869
1052.816156,-5995.668130,-1072.533697,10510.924376
1052.816486,-5921.647536,-4443.353888,8512.368333
1052.816815,-5181.441594,-7354.516781,6439.791695
1052.817144,-5107.421000,-4826.401637,6069.688724
1052.817474,-3627.009116,-2145.067394,4441.235652
1052.817803,-370.102971,-1685.410096,4145.153275
1052.818133,2590.720797,459.657299,5773.606348
1052.818462,4737.318029,3370.820191,8808.450710
1052.818791,4515.256246,5132.839837,11177.109724
1052.819121,1184.329507,8044.002729,11991.336260
1052.819450,-888.247130,8044.002729,16506.592507
1052.819779,-370.102971,3677.258390,18801.230927
1052.820109,-3256.906145,1762.019645,15766.386565
1052.820438,-7031.956449,-766.095498,10955.047942
1052.820768,-7105.977043,-5286.058936,9104.533087
1052.821097,-5255.462188,-7431.126331,9992.780217
1052.821426,-3997.112087,-4290.134789,9252.574275
1052.821756,-1850.514855,-2068.457845,5773.606348
1052.822085,2072.576638,-1991.848295,2590.720797
1052.822415,5403.503377,766.095498,2294.638420
1052.822744,6883.915261,2987.772442,6513.812290
1052.823073,4885.359217,4979.620737,10362.883188
1052.823403,1184.329507,9806.022374,11843.295072
1052.823732,-1924.535449,8810.098227,14434.015869
1052.824062,-2220.617826,4596.572988,17246.798449
1052.824391,-3923.091493,2221.676944,15914.427753
1052.824720,-5403.503377,-1532.190996,11103.089130
1052.825050,-5699.585753,-5515.887586,7476.080014
1052.825379,-5181.441594,-6894.859482,7105.977043
1052.825709,-4885.359217,-2757.943793,7920.203579
1052.826038,-2516.700203,-1072.533697,5847.626942
1052.826367,2146.597232,-1378.971896,1554.432478
1052.826697,6513.812290,1685.410096,666.185348
1052.827026,9400.615463,3524.039291,3775.050304
1052.827355,9992.780217,4290.134789,7550.100608
1052.827685,5847.626942,6435.202183,11177.109724
1052.828014,592.164754,8963.317327,14804.118840
1052.828344,-2664.741391,7814.174080,16358.551318
1052.828673,-3034.844362,2451.505594,16358.551318
1052.829002,-4145.153275,-2451.505594,13915.871710
1052.829332,-6661.853478,-3907.087040,10214.842000
1052.829661,-8586.388927,-5592.497135,8142.265362
1052.829991,-8068.244768,-5822.325785,8068.244768
1052.830320,-5847.626942,-2681.334243,7179.997637
1052.830649,-1480.411884,-1225.752797,4885.359217
1052.830979,2368.659014,-2145.067394,3849.070898
1052.831308,5033.400406,0.000000,5403.503377
1052.831638,5107.421000,4366.744339,8290.306550
1052.831967,1776.494261,6128.763984,11251.130318
1052.832296,-1110.308913,9346.365076,14434.015869
1052.832626,-2368.659014,8503.660028,17246.798449
1052.832955,-3108.864956,1532.190996,17468.860231
1052.833284,-4219.173869,-2068.457845,14656.077652
1052.833614,-7031.956449,-2911.162892,10510.924376
1052.833943,-7402.059420,-5898.935335,8808.450710
1052.834273,-6587.832884,-5975.544884,9622.677246
1052.834602,-4737.318029,-2145.067394,8438.347739
1052.834931,-148.041188,-459.657299,4885.359217
1052.835261,4737.318029,-2987.772442,2368.659014
1052.835590,7624.121203,306.438199,4441.235652
1052.835920,6883.915261,5439.278036,8438.347739
1052.836249,4145.153275,7507.735880,11399.171507
1052.836578,592.164754,11491.432470,12509.480420
1052.836908,-1332.370696,8273.831378,14730.098246
1052.837237,-2294.638420,2681.334243,16580.613101
1052.837567,-5329.482782,536.266849,14137.933492
1052.837896,-7402.059420,-2298.286494,10288.862594
1052.838225,-7402.059420,-5515.887586,7105.977043
1052.838555,-7624.121203,-5898.935335,6291.750507
1052.838884,-4959.379811,-2987.772442,5181.441594
1052.839214,-148.041188,-3064.381992,3256.906145
1052.839543,4589.276840,-2374.896044,1480.411884
1052.839872,7402.059420,3294.210641,2590.720797
1052.840202,8364.327145,5669.106685,6365.771101
1052.840531,6735.874072,6971.469032,9770.718434
1052.840860,3330.926739,10035.851024,13471.748144
1052.841190,888.247130,8580.269578,16580.613101
1052.841519,-592.164754,4903.011187,16358.551318
1052.841849,-2960.823768,842.705048,13915.871710
1052.842178,-4811.338623,-2528.115143,11769.274478
1052.842507,-6365.771101,-5669.106685,10288.862594
1052.842837,-7698.141797,-6128.763984,9474.636058
1052.843166,-7179.997637,-2757.943793,6809.894666
1052.843496,-3108.864956,-1685.410096,4219.173869
1052.843825,2294.638420,-2604.724693,3034.844362
1052.844154,5699.585753,-919.314598,4515.256246
1052.844484,5921.647536,1991.848295,7105.977043
1052.844813,3404.947333,5745.716235,9770.718434
1052.845143,-296.082377,9652.803275,13175.665768
1052.845472,-2664.741391,9652.803275,16506.592507
1052.845801,-3552.988522,4826.401637,17468.860231
1052.846131,-4589.276840,-2834.553343,15248.242405
1052.846460,-6809.894666,-3524.039291,11917.315666
1052.846790,-7624.121203,-5362.668486,10288.862594
1052.847119,-7105.977043,-7584.345430,9474.636058
1052.847448,-6587.832884,-3140.991542,7328.038826
1052.847778,-2886.803174,-1378.971896,3849.070898
1052.848107,3182.885551,-3983.696590,2886.803174
1052.848437,7179.997637,-1991.848295,5551.544565
1052.848766,6365.771101,5745.716235,8660.409521
1052.849095,2960.823768,8044.002729,9918.759623
1052.849425,592.164754,8886.707777,12213.398043
1052.849754,-444.123565,11108.384721,14359.995275
1052.850084,-222.061783,5362.668486,13693.809927
1052.850413,-1850.514855,-3370.820191,12731.542202
1052.850742,-5625.565159,-3830.477490,11473.192101
1052.851072,-9178.553681,-2374.896044,11103.089130
1052.851401,-9400.615463,-5439.278036,9474.636058
1052.851731,-7624.121203,-3600.648841,8364.327145
1052.852060,-4219.173869,-1225.752797,4219.173869
1052.852389,2516.700203,-3983.696590,1924.535449
1052.852719,8068.244768,-2451.505594,2072.576638
1052.853048,9696.697840,4826.401637,5329.482782
1052.853378,7772.162391,7354.516781,8882.471304
1052.853707,4145.153275,8273.831378,12731.542202
1052.854036,444.123565,10725.336972,15840.407159
1052.854366,-666.185348,8733.488677,15692.365970
1052.854695,-1480.411884,1685.410096,13693.809927
1052.855025,-3849.070898,-1685.410096,10436.903782
1052.855354,-5255.462188,-4519.963438,9770.718434
1052.855683,-6069.688724,-7124.688131,8956.491898
1052.856013,-6513.812290,-3907.087040,7994.224174
1052.856342,-4885.359217,0.000000,5107.421000
1052.856672,-370.102971,-1762.019645,3108.864956
1052.857001,4219.173869,-2221.676944,4515.256246
1052.857330,5995.668130,2145.067394,7105.977043
1052.857660,5329.482782,5592.497135,8808.450710
1052.857989,1998.556043,7431.126331,11769.274478
1052.858319,-1406.391290,8810.098227,15840.407159
1052.858648,-2812.782580,5822.325785,18135.045579
1052.858977,-4293.194464,383.047749,15470.304188
1052.859307,-5625.565159,-2221.676944,11251.130318
1052.859636,-6143.709319,-3370.820191,8068.244768
1052.859966,-5033.400406,-7277.907231,7846.182985
1052.860295,-3849.070898,-6358.592633,8734.430116
1052.860624,-2886.803174,-1455.581446,6587.832884
1052.860954,444.123565,-766.095498,3997.112087
1052.861283,4219.173869,-612.876398,5699.585753
1052.861613,5921.647536,3830.477490,9030.512492
1052.861942,4737.318029,6665.030833,11177.109724
1052.862271,2738.761985,7277.907231,11473.192101
1052.862601,148.041188,8733.488677,12805.562797
1052.862930,-814.226536,6358.592633,13915.871710
1052.863260,-2886.803174,0.000000,14730.098246
1052.863589,-7105.977043,-2911.162892,13545.768739
1052.863918,-10362.883188,-1991.848295,11029.068536
1052.864248,-10066.800811,-5056.230287,8956.491898
1052.864577,-7994.224174,-5439.278036,7698.141797
1052.864907,-4589.276840,-2528.115143,5773.606348
1052.865236,370.102971,-3447.429741,2664.741391
1052.865565,5625.565159,-3370.820191,2294.638420
1052.865895,7179.997637,3753.867940,5181.441594
1052.866224,6365.771101,9269.755526,9030.512492
1052.866554,3701.029710,8580.269578,10510.924376
1052.866883,1036.288319,10189.070123,11843.295072
1052.867212,1110.308913,8963.317327,13471.748144
1052.867542,1924.535449,2068.457845,13767.830521
1052.867871,-1258.350101,-1915.238745,12139.377449
1052.868201,-6217.729913,-2987.772442,10584.944971
1052.868530,-9400.615463,-4979.620737,10807.006753
1052.868859,-9770.718434,-3983.696590,11029.068536
1052.869189,-7476.080014,-306.438199,8882.471304
1052.869518,-1702.473667,-2145.067394,4589.276840
1052.869848,3330.926739,-3447.429741,1850.514855
1052.870177,6809.894666,76.609550,3034.844362
1052.870506,7402.059420,3830.477490,7476.080014
1052.870836,3997.112087,6511.811733,10066.800811
1052.871165,-1036.288319,10572.117872,13027.624579
1052.871495,-3478.967927,8733.488677,16136.489536
1052.871824,-2960.823768,3064.381992,16728.654289
1052.872153,-4737.318029,-1455.581446,14211.954086
1052.872483,-6069.688724,-3983.696590,10658.965565
1052.872812,-6735.874072,-6894.859482,9178.553681
1052.873142,-6217.729913,-6358.592633,8808.450710
1052.873471,-4811.338623,-1685.410096,7254.018232
1052.873800,-1110.308913,-1685.410096,4441.235652
1052.874130,3701.029710,-1838.629195,3552.988522
1052.874459,6957.935855,1608.800546,6365.771101
1052.874789,6957.935855,5286.058936,10510.924376
1052.875118,4515.256246,8044.002729,12435.459826
1052.875447,444.123565,9882.631924,13249.686362
1052.875777,-1258.350101,7354.516781,14730.098246
1052.876106,-1776.494261,76.609550,15248.242405
1052.876436,-4441.235652,-2681.334243,14285.974681
1052.876765,-7846.182985,-1762.019645,10881.027347
1052.877094,-8808.450710,-5745.716235,8364.327145
1052.877424,-7402.059420,-6971.469032,7624.121203
1052.877753,-5477.523971,-3753.867940,6143.709319
1052.878083,-740.205942,-2911.162892,3997.112087
1052.878412,4589.276840,-2451.505594,2664.741391
1052.878741,7031.956449,2911.162892,3701.029710
1052.879071,7105.977043,6358.592633,7254.018232
1052.879400,5551.544565,7660.954980,10214.842000
1052.879730,2812.782580,9882.631924,13323.706956
1052.880059,888.247130,10035.851024,15544.324782
1052.880388,-1036.288319,4213.525239,14508.036463
1052.880718,-4219.173869,-919.314598,12583.501014
1052.881047,-6143.709319,-3447.429741,10362.883188
1052.881377,-7031.956449,-5439.278036,9252.574275
1052.881706,-6883.915261,-5975.544884,8290.306550
1052.882035,-5477.523971,-2911.162892,6291.750507
1052.882365,-1554.432478,-2757.943793,4811.338623
1052.882694,2294.638420,-2681.334243,3034.844362
1052.883024,5107.421000,536.266849,4219.173869
1052.883353,6217.729913,4903.011187,7254.018232
1052.883682,4885.359217,6358.592633,10510.924376
1052.884012,2368.659014,7967.393179,13989.892304
1052.884341,-1406.391290,7967.393179,16358.551318
1052.884671,-2960.823768,3370.820191,16358.551318
1052.885000,-4737.318029,-612.876398,14137.933492
1052.885329,-6883.915261,-1608.800546,10288.862594
1052.885659,-6661.853478,-5898.935335,8734.430116
1052.885988,-6217.729913,-8503.660028,7772.162391
1052.886318,-6143.709319,-4596.572988,6809.894666
1052.886647,-3108.864956,-1685.410096,5329.482782
1052.886976,1776.494261,-1991.848295,5477.523971
1052.887306,4589.276840,689.485948,7328.038826
1052.887635,4737.318029,4903.011187,9030.512492
1052.887965,3849.070898,6205.373534,10510.924376
1052.888294,2368.659014,8044.002729,12361.439231
1052.888623,1184.329507,9422.974625,13619.789333
1052.888953,0.000000,4136.915689,14063.912898
1052.889282,-2664.741391,-1762.019645,14063.912898
1052.889612,-7105.977043,-1838.629195,12805.562797
1052.889941,-9400.615463,-3370.820191,11621.233289
1052.890270,-9400.615463,-6511.811733,9696.697840
1052.890600,-8068.244768,-3753.867940,7846.182985
1052.890929,-3775.050304,-2681.334243,4441.235652
1052.891259,2368.659014,-4903.011187,2146.597232
1052.891588,6957.935855,-2221.676944,2442.679609
1052.891917,7698.141797,5209.449386,5921.647536
1052.892247,5107.421000,7354.516781,9474.636058
1052.892576,1776.494261,10035.851024,11695.253884
1052.892906,-518.144159,12257.527968,13545.768739
1052.893235,444.123565,7201.297681,15026.180623
1052.893564,-518.144159,306.438199,13619.789333
1052.893894,-4663.297435,-1149.143247,10881.027347
1052.894223,-7031.956449,-3907.087040,9400.615463
1052.894553,-7179.997637,-6358.592633,9770.718434
1052.894882,-7698.141797,-3600.648841,9474.636058
1052.895211,-6143.709319,-689.485948,5773.606348
1052.895541,-1110.308913,-3830.477490,2368.659014
1052.895870,4145.153275,-2604.724693,2146.597232
1052.896200,5921.647536,2987.772442,4811.338623
1052.896529,4737.318029,4749.792088,9252.574275
1052.896858,1332.370696,8273.831378,12287.418637
1052.897188,-2590.720797,12257.527968,14137.933492
1052.897517,-3256.906145,8273.831378,14878.139434
1052.897847,-3256.906145,153.219100,14508.036463
1052.898176,-4515.256246,-2757.943793,13249.686362
1052.898505,-7031.956449,-2757.943793,9918.759623
1052.898835,-9030.512492,-6052.154434,8068.244768
1052.899164,-9622.677246,-5286.058936,7476.080014
1052.899494,-8586.388927,-2681.334243,7550.100608
1052.899823,-4885.359217,-4213.525239,6439.791695
1052.900152,-1628.453072,-3140.991542,7105.977043
1052.900482,-148.041188,2451.505594,8512.368333
1052.900811,1110.308913,5439.278036,9992.780217
1052.901141,1332.370696,4826.401637,11473.192101
1052.901470,148.041188,7048.078582,12509.480420
1052.901799,-666.185348,7354.516781,13693.809927
1052.902129,-1184.329507,3983.696590,12435.459826
1052.902458,-3404.947333,1915.238745,10140.821405
1052.902788,-4737.318029,76.609550,9400.615463
1052.903117,-5847.626942,-3600.648841,8808.450710
1052.903446,-7179.997637,-4136.915689,9474.636058
1052.903776,-8660.409521,-2604.724693,9178.553681
1052.904105,-8364.327145,-1762.019645,8586.388927
1052.904434,-6957.935855,-1302.362347,8068.244768
1052.904764,-5329.482782,0.000000,7402.059420
1052.905093,-2442.679609,1225.752797,8142.265362
1052.905423,296.082377,2451.505594,8586.388927
1052.905752,888.247130,3907.087040,9474.636058
1052.906081,-962.267725,4213.525239,10214.842000
1052.906411,-3256.906145,4366.744339,10658.965565
1052.906740,-4367.215058,4673.182538,10066.800811
1052.907070,-4515.256246,2374.896044,9178.553681
1052.907399,-3701.029710,229.828649,8808.450710
1052.907728,-2960.823768,-306.438199,8216.285956
1052.908058,-2886.803174,-1762.019645,7550.100608
1052.908387,-3552.988522,-2528.115143,7550.100608
1052.908717,-4515.256246,-306.438199,8438.347739
1052.909046,-5329.482782,3140.991542,9178.553681
1052.909375,-5033.400406,3064.381992,9770.718434
1052.909705,-4293.194464,1762.019645,10436.903782
1052.910034,-3330.926739,2987.772442,10362.883188
1052.910364,-1702.473667,2604.724693,9696.697840
1052.910693,-1850.514855,919.314598,9030.512492
1052.911022,-3627.009116,0.000000,9844.739029
1052.911352,-7179.997637,1149.143247,10881.027347
1052.911681,-9252.574275,1455.581446,10881.027347
1052.912011,-8808.450710,-153.219100,10658.965565
1052.912340,-7254.018232,-306.438199,10288.862594
1052.912669,-5699.585753,-229.828649,10214.842000
1052.912999,-3701.029710,-1225.752797,9252.574275
1052.913328,-1776.494261,-1149.143247,7772.162391
1052.913658,-1184.329507,1149.143247,7920.203579
1052.913987,-1258.350101,3524.039291,10288.862594
1052.914316,-2738.761985,4060.306139,11547.212695
1052.914646,-4811.338623,3217.601092,11843.295072
1052.914975,-6513.812290,2451.505594,11251.130318
1052.915305,-7179.997637,766.095498,10584.944971
1052.915634,-5847.626942,76.609550,10140.821405
1052.915963,-5181.441594,-1072.533697,8956.491898
1052.916293,-3701.029710,-2221.676944,7031.956449
1052.916622,-2220.617826,-1762.019645,5625.565159
1052.916952,148.041188,-689.485948,6735.874072
1052.917281,1628.453072,1072.533697,9030.512492
1052.917610,-444.123565,3294.210641,11177.109724
1052.917940,-4737.318029,5056.230287,11029.068536
1052.918269,-7179.997637,5056.230287,11029.068536
1052.918599,-7254.018232,2987.772442,11991.336260
1052.918928,-6809.894666,842.705048,11769.274478
1052.919257,-5773.606348,-2604.724693,9474.636058
1052.919587,-4515.256246,-4136.915689,7698.141797
1052.919916,-2664.741391,-4136.915689,6439.791695
1052.920246,-814.226536,-2528.115143,6069.688724
1052.920575,1184.329507,-766.095498,7105.977043
1052.920904,1036.288319,1455.581446,8512.368333
1052.921234,-592.164754,4749.792088,10214.842000
1052.921563,-2738.761985,6052.154434,11177.109724
1052.921893,-4515.256246,5439.278036,12287.418637
1052.922222,-6069.688724,4443.353888,12509.480420
1052.922551,-6661.853478,2528.115143,11843.295072
1052.922881,-5921.647536,0.000000,10066.800811
1052.923210,-4145.153275,-2604.724693,8290.306550
1052.923540,-2516.700203,-3983.696590,6217.729913
1052.923869,-1924.535449,-3217.601092,5921.647536
1052.924198,-592.164754,-383.047749,6439.791695
1052.924528,0.000000,1991.848295,7698.141797
1052.924857,-1406.391290,4596.572988,9696.697840
1052.925187,-4367.215058,5669.106685,11991.336260
1052.925516,-7179.997637,6128.763984,13249.686362
1052.925845,-9400.615463,4979.620737,13915.871710
1052.926175,-10362.883188,2221.676944,14063.912898
1052.926504,-10066.800811,0.000000,12435.459826
1052.926834,-8956.491898,-2757.943793,9474.636058
1052.927163,-6069.688724,-5209.449386,6587.832884
1052.927492,-1998.556043,-5515.887586,5107.421000
1052.927822,1480.411884,-2221.676944,5181.441594
1052.928151,3775.050304,1608.800546,5773.606348
1052.928481,3330.926739,3830.477490,7402.059420
1052.928810,1480.411884,7431.126331,9474.636058
1052.929139,-888.247130,9193.145976,11325.150913
1052.929469,-2442.679609,7048.078582,13101.645173
1052.929798,-5773.606348,3370.820191,14285.974681
1052.930128,-9252.574275,689.485948,13989.892304
1052.930457,-11399.171507,-1762.019645,12435.459826
1052.930786,-11325.150913,-4443.353888,9844.739029
1052.931116,-8882.471304,-5132.839837,6291.750507
1052.931445,-4959.379811,-5515.887586,4515.256246
1052.931775,-1406.391290,-3907.087040,3923.091493
1052.932104,592.164754,-306.438199,4885.359217
1052.932433,740.205942,4060.306139,6735.874072
1052.932763,0.000000,7660.954980,8586.388927
1052.933092,-1332.370696,9422.974625,10214.842000
1052.933422,-3701.029710,7737.564530,11769.274478
1052.933751,-5847.626942,3983.696590,12361.439231
1052.934080,-7698.141797,153.219100,11843.295072
1052.934410,-8956.491898,-3217.601092,11251.130318
1052.934739,-9474.636058,-7124.688131,10881.027347
1052.935069,-8142.265362,-7507.735880,10362.883188
1052.935398,-6143.709319,-4979.620737,9474.636058
1052.935727,-3034.844362,-2987.772442,7772.162391
1052.936057,296.082377,-1455.581446,7105.977043
1052.936386,3034.844362,1685.410096,8660.409521
1052.936716,3701.029710,5286.058936,10362.883188
1052.937045,2368.659014,7354.516781,11695.253884
1052.937374,-444.123565,6971.469032,12583.501014
1052.937704,-2960.823768,4826.401637,13397.727550
1052.938033,-5329.482782,2298.286494,12879.583391
1052.938363,-7179.997637,0.000000,10955.047942
1052.938692,-6809.894666,-3524.039291,8438.347739
1052.939021,-6069.688724,-6052.154434,6661.853478
1052.939351,-4737.318029,-4826.401637,6365.771101
1052.939680,-4663.297435,-2221.676944,6883.915261
1052.940010,-3701.029710,153.219100,7105.977043
1052.940339,-3034.844362,3370.820191,8068.244768
1052.940668,-3256.906145,6435.202183,9622.677246
1052.940998,-3478.967927,7354.516781,10658.965565
1052.941327,-4145.153275,5592.497135,11547.212695
1052.941657,-4885.359217,3524.039291,11621.233289
1052.941986,-5255.462188,1762.019645,11177.109724
1052.942315,-5921.647536,229.828649,10584.944971
1052.942645,-6069.688724,-1072.533697,9474.636058
1052.942974,-4959.379811,-2298.286494,8216.285956
1052.943304,-2886.803174,-1302.362347,7402.059420
1052.943633,-370.102971,1532.190996,7031.956449
1052.943963,666.185348,2757.943793,7624.121203
1052.944292,888.247130,4903.011187,8364.327145
1052.944621,0.000000,6665.030833,9400.615463
1052.944951,-1184.329507,6818.249932,9992.780217
1052.945280,-1850.514855,5898.935335,10510.924376
1052.945610,-2886.803174,4060.306139,11029.068536
1052.945939,-3923.091493,2681.334243,9918.759623
1052.946269,-4145.153275,459.657299,9326.594869
1052.946598,-3849.070898,-842.705048,8660.409521
1052.946928,-3627.009116,-536.266849,8438.347739
1052.947257,-3108.864956,919.314598,8586.388927
1052.947586,-3034.844362,3600.648841,9326.594869
1052.947916,-2960.823768,4136.915689,9918.759623
1052.948245,-2738.761985,4519.963438,10584.944971
1052.948575,-2294.638420,5745.716235,10807.006753
1052.948904,-1702.473667,5362.668486,10436.903782
1052.949234,-1628.453072,4443.353888,10362.883188
1052.949563,-1184.329507,2987.772442,10066.800811
1052.949893,-814.226536,2068.457845,9474.636058
1052.950222,-370.102971,1838.629195,9178.553681
1052.950551,-148.041188,2528.115143,9474.636058
1052.950881,148.041188,3064.381992,9992.780217
1052.951210,-148.041188,4903.011187,10510.924376
1052.951540,-1258.350101,6128.763984,10807.006753
1052.951869,-2368.659014,7201.297681,10362.883188
1052.952199,-2442.679609,6435.202183,9992.780217
1052.952528,-2812.782580,5975.544884,7994.224174
1052.952858,-2220.617826,4136.915689,7179.997637
1052.953187,-962.267725,1991.848295,6143.709319
1052.953517,-370.102971,536.266849,5699.585753
1052.953846,-518.144159,459.657299,6291.750507
1052.954175,-2072.576638,1608.800546,7105.977043
1052.954505,-2738.761985,2834.553343,8956.491898
1052.954834,-3034.844362,4826.401637,10436.903782
1052.955164,-2960.823768,5439.278036,11103.089130
1052.955493,-2590.720797,5515.887586,11473.192101
1052.955823,-2146.597232,5745.716235,10510.924376
1052.956152,-1184.329507,4826.401637,10362.883188
1052.956482,-518.144159,3907.087040,10214.842000
1052.956811,-592.164754,3677.258390,9992.780217
1052.957140,-666.185348,3294.210641,9474.636058
1052.957470,-296.082377,3140.991542,8216.285956
1052.957799,444.123565,2681.334243,8438.347739
1052.958129,1184.329507,2911.162892,8808.450710
1052.958458,1406.391290,2528.115143,9548.656652
1052.958788,222.061783,3370.820191,10510.924376
1052.959117,-888.247130,4826.401637,11251.130318
1052.959447,-1628.453072,5439.278036,11177.109724
1052.959776,-1184.329507,4519.963438,11695.253884
1052.960105,-814.226536,4136.915689,11769.274478
1052.960435,-1036.288319,4213.525239,11251.130318
1052.960764,-1110.308913,4903.011187,10436.903782
1052.961094,-370.102971,5439.278036,9696.697840
1052.961423,296.082377,4903.011187,9400.615463
1052.961753,296.082377,4903.011187,8142.265362
1052.962082,74.020594,4060.306139,6809.894666
1052.962412,0.000000,2911.162892,5477.523971
1052.962741,-444.123565,2298.286494,5625.565159
1052.963070,-814.226536,1455.581446,7105.977043
1052.963400,-2812.782580,2298.286494,9474.636058
1052.963729,-4367.215058,3294.210641,10436.903782
1052.964059,-4737.318029,4290.134789,10732.986159
1052.964388,-3182.885551,4596.572988,11177.109724
1052.964718,-1850.514855,4519.963438,10955.047942
1052.965047,-740.205942,5439.278036,10584.944971
1052.965377,0.000000,6588.421283,9770.718434
1052.965706,518.144159,6971.469032,9104.533087
1052.966036,444.123565,6435.202183,7994.224174
1052.966365,666.185348,5669.106685,6883.915261
1052.966694,370.102971,3983.696590,6587.832884
1052.967024,148.041188,2374.896044,6587.832884
1052.967353,-814.226536,1072.533697,6587.832884
1052.967683,-1702.473667,153.219100,7105.977043
1052.968012,-2146.597232,-306.438199,9326.594869
1052.968342,-2146.597232,919.314598,11399.171507
1052.968671,-2368.659014,2911.162892,13027.624579
1052.969001,-1702.473667,4213.525239,13397.727550
1052.969330,-888.247130,4979.620737,13249.686362
1052.969659,-518.144159,5822.325785,13027.624579
1052.969989,222.061783,6588.421283,12213.398043
1052.970318,444.123565,6205.373534,11399.171507
1052.970648,0.000000,4903.011187,9918.759623
1052.970977,-592.164754,3294.210641,8882.471304
1052.971307,-1776.494261,2681.334243,8364.327145
1052.971636,-2220.617826,2068.457845,7476.080014
1052.971966,-2886.803174,1378.971896,7179.997637
1052.972295,-1850.514855,919.314598,7772.162391
1052.972624,-1332.370696,1532.190996,7920.203579
1052.972954,-592.164754,2068.457845,8660.409521
1052.973283,592.164754,3217.601092,9400.615463
1052.973613,0.000000,4290.134789,10214.842000
1052.973942,-296.082377,6435.202183,11251.130318
1052.974272,-740.205942,7737.564530,11843.295072
1052.974601,-666.185348,7431.126331,11991.336260
1052.974931,-1332.370696,7277.907231,11547.212695
1052.975260,-1628.453072,6894.859482,9844.739029
1052.975589,-2368.659014,6052.154434,7179.997637
1052.975919,-740.205942,4060.306139,4663.297435
1052.976248,1258.350101,2221.676944,4293.194464
1052.976578,2516.700203,1608.800546,4367.215058
1052.976907,1850.514855,995.924147,4885.359217
1052.977237,0.000000,2451.505594,6661.853478
1052.977566,-2812.782580,4366.744339,9548.656652
1052.977896,-5107.421000,5898.935335,12731.542202
1052.978225,-5625.565159,6435.202183,14804.118840
1052.978555,-5699.585753,5975.544884,14878.139434
1052.978884,-5107.421000,4979.620737,13471.748144
1052.979213,-4589.276840,3907.087040,10955.047942
1052.979543,-2442.679609,2987.772442,9030.512492
1052.979872,592.164754,2298.286494,6587.832884
1052.980202,3627.009116,2451.505594,5995.668130
1052.980531,5625.565159,3447.429741,5477.523971
1052.980861,5329.482782,4903.011187,6069.688724
1052.981190,3330.926739,5132.839837,8512.368333
1052.981520,-148.041188,6511.811733,11399.171507
1052.981849,-3182.885551,8580.269578,13767.830521
1052.982178,-4515.256246,8120.612279,15026.180623
1052.982508,-4219.173869,4749.792088,13619.789333
1052.982837,-2812.782580,1608.800546,11621.233289
1052.983167,-1850.514855,0.000000,8734.430116
1052.983496,-1036.288319,-153.219100,6661.853478
1052.983826,-370.102971,1225.752797,6587.832884
1052.984155,0.000000,3983.696590,7476.080014
1052.984485,-592.164754,5286.058936,7920.203579
1052.984814,-962.267725,5745.716235,6957.935855
1052.985143,-814.226536,3907.087040,5551.544565
1052.985473,-444.123565,1991.848295,7105.977043
1052.985802,-1036.288319,2221.676944,11177.109724
1052.986132,-2886.803174,4903.011187,13841.851115
1052.986461,-4367.215058,5592.497135,13989.892304
1052.986791,-4293.194464,4903.011187,12953.603985
1052.987120,-2960.823768,3677.258390,11029.068536
1052.987450,-1406.391290,3217.601092,8808.450710
1052.987779,1332.370696,1915.238745,6143.709319
1052.988109,3256.906145,459.657299,4811.338623
1052.988438,3478.967927,1608.800546,4885.359217
1052.988767,2368.659014,2298.286494,5921.647536
1052.989097,1702.473667,2298.286494,8068.244768
1052.989426,222.061783,3140.991542,11843.295072
1052.989756,-2294.638420,5132.839837,13101.645173
1052.990085,-3478.967927,5132.839837,12139.377449
1052.990415,-2368.659014,1149.143247,11843.295072
1052.990744,-888.247130,-1072.533697,12805.562797
1052.991074,-1554.432478,1762.019645,12361.439231
1052.991403,-2738.761985,4443.353888,11325.150913
1052.991732,-2368.659014,4826.401637,9548.656652
1052.992062,-1480.411884,5286.058936,8808.450710
1052.992391,-370.102971,5362.668486,7550.100608
1052.992721,1332.370696,2911.162892,5847.626942
1052.993050,2812.782580,0.000000,5033.400406
1052.993380,1554.432478,919.314598,5995.668130
1052.993709,-1258.350101,2068.457845,8216.285956
1052.994039,-3108.864956,2451.505594,11917.315666
1052.994368,-4589.276840,3524.039291,14508.036463
1052.994697,-5181.441594,5132.839837,13767.830521
1052.995027,-4219.173869,4136.915689,11991.336260
1052.995356,-1628.453072,536.266849,11029.068536
1052.995686,-296.082377,229.828649,9770.718434
1052.996015,-1110.308913,2834.553343,7550.100608
1052.996345,-962.267725,3907.087040,5995.668130
1052.996674,518.144159,4213.525239,6957.935855
1052.997004,1480.411884,4979.620737,7846.182985
1052.997333,1702.473667,5056.230287,7031.956449
1052.997662,1924.535449,2911.162892,5921.647536
1052.997992,2368.659014,2221.676944,6735.874072
1052.998321,1406.391290,2374.896044,8660.409521
1052.998651,-888.247130,1455.581446,11177.109724
1052.998980,-3849.070898,1532.190996,12731.542202
1052.999310,-5181.441594,1532.190996,12435.459826
1052.999639,-4811.338623,153.219100,11621.233289
1052.999969,-4071.132681,-536.266849,10140.821405
1053.000298,-2442.679609,-229.828649,10066.800811
1053.000628,-1554.432478,-383.047749,8586.388927
1053.000957,-1184.329507,76.609550,7031.956449
1053.001286,-666.185348,1225.752797,6143.709319
1053.001616,1850.514855,2451.505594,7846.182985
1053.001945,2960.823768,2987.772442,8808.450710
1053.002275,2442.679609,2987.772442,8290.306550
1053.002604,2886.803174,1608.800546,8438.347739
1053.002934,3108.864956,-306.438199,10658.965565
1053.003263,444.123565,459.657299,12731.542202
1053.003593,-3478.967927,1608.800546,13767.830521
1053.003922,-4737.318029,-383.047749,13545.768739
1053.004251,-3997.112087,-2834.553343,12657.521608
1053.004581,-4219.173869,-2298.286494,12065.356855
1053.004910,-4515.256246,-1532.190996,10584.944971
1053.005240,-3775.050304,-1762.019645,8586.388927
1053.005569,-2146.597232,-536.266849,6587.832884
1053.005899,444.123565,0.000000,5625.565159
1053.006228,3034.844362,-766.095498,6217.729913
1053.006558,3478.967927,-153.219100,7476.080014
1053.006887,2146.597232,1302.362347,8290.306550
1053.007216,740.205942,1072.533697,10510.924376
1053.007546,-666.185348,1991.848295,13545.768739
1053.007875,-2442.679609,3447.429741,15322.262999
1053.008205,-3552.988522,1455.581446,15248.242405
1053.008534,-4219.173869,-1762.019645,13767.830521
1053.008864,-4071.132681,-1532.190996,12213.398043
1053.009193,-3552.988522,-153.219100,10214.842000
1053.009523,-2886.803174,229.828649,7846.182985
1053.009852,-2220.617826,995.924147,5625.565159
1053.010181,518.144159,1149.143247,4737.318029
1053.010511,3108.864956,229.828649,4367.215058
1053.010840,2738.761985,536.266849,3701.029710
1053.011170,1184.329507,2221.676944,4367.215058
1053.011499,888.247130,1302.362347,7254.018232
1053.011829,74.020594,1378.971896,11251.130318
1053.012158,-2294.638420,3983.696590,13619.789333
1053.012488,-4663.297435,3217.601092,14063.912898
1053.012817,-5033.400406,995.924147,14211.954086
1053.013147,-5107.421000,1838.629195,13101.645173
1053.013476,-4737.318029,2221.676944,11843.295072
1053.013805,-2590.720797,-383.047749,8956.491898
1053.014135,-1258.350101,-1149.143247,6217.729913
1053.014464,-148.041188,153.219100,4293.194464
1053.014794,2146.597232,153.219100,4367.215058
1053.015123,3627.009116,536.266849,5033.400406
1053.015453,3478.967927,1915.238745,5847.626942
1053.015782,3034.844362,2757.943793,8956.491898
1053.016112,2146.597232,1532.190996,12435.459826
1053.016441,0.000000,2451.505594,14730.098246
1053.016770,-2590.720797,2604.724693,15766.386565
1053.017100,-3997.112087,1762.019645,15618.345376
1053.017429,-4441.235652,1762.019645,15544.324782
1053.017759,-4293.194464,1991.848295,14063.912898
1053.018088,-3923.091493,0.000000,10362.883188
1053.018418,-2368.659014,-1225.752797,5847.626942
1053.018747,666.185348,-995.924147,2738.761985
1053.019077,5181.441594,-1838.629195,2664.741391
1053.019406,6291.750507,-1915.238745,3330.926739
1053.019735,3997.112087,1608.800546,5033.400406
1053.020065,1406.391290,3370.820191,8586.388927
1053.020394,-592.164754,3677.258390,13101.645173
1053.020724,-2960.823768,5898.935335,16062.468941
1053.021053,-4367.215058,4826.401637,17024.736666
1053.021383,-3997.112087,766.095498,15692.365970
1053.021712,-4145.153275,-1149.143247,13323.706956
1053.022042,-4589.276840,-1072.533697,11177.109724
1053.022371,-5033.400406,-766.095498,8956.491898
1053.022700,-4441.235652,-229.828649,4885.359217
1053.023030,-2072.576638,842.705048,2664.741391
1053.023359,3478.967927,0.000000,1924.535449
1053.023689,6365.771101,-1149.143247,1554.432478
1053.024018,4589.276840,76.609550,1554.432478
1053.024348,2368.659014,1455.581446,4367.215058
1053.024677,-296.082377,2757.943793,10214.842000
1053.025007,-3108.864956,5132.839837,15914.427753
1053.025336,-5033.400406,4443.353888,18431.127956
1053.025666,-5773.606348,612.876398,17764.942608
1053.025995,-6069.688724,-306.438199,14878.139434
1053.026324,-5773.606348,-919.314598,12361.439231
1053.026654,-4367.215058,-2987.772442,9992.780217
1053.026983,-3034.844362,-3064.381992,6883.915261
1053.027313,-1258.350101,-1685.410096,4441.235652
1053.027642,1850.514855,-1455.581446,3256.906145
1053.027972,4071.132681,-689.485948,4293.194464
1053.028301,4293.194464,842.705048,5107.421000
1053.028631,3478.967927,2374.896044,7476.080014
1053.028960,2886.803174,3140.991542,11621.233289
1053.029289,962.267725,2681.334243,15988.448347
1053.029619,-1702.473667,2451.505594,17987.004391
1053.029948,-4663.297435,1838.629195,17690.922014
1053.030278,-6217.729913,-306.438199,15544.324782
1053.030607,-5773.606348,-1302.362347,13767.830521
1053.030937,-3997.112087,-2298.286494,11177.109724
1053.031266,-2442.679609,-2911.162892,6735.874072
1053.031596,-444.123565,-2681.334243,2516.700203
1053.031925,2516.700203,-2604.724693,962.267725
1053.032254,5921.647536,-1225.752797,2146.597232
1053.032584,5847.626942,1149.143247,4219.173869
1053.032913,4663.297435,3907.087040,7476.080014
1053.033243,2220.617826,5209.449386,12509.480420
1053.033572,-740.205942,6052.154434,15618.345376
1053.033902,-3330.926739,6128.763984,16950.716072
1053.034231,-3997.112087,3370.820191,17024.736666
1053.034561,-4515.256246,459.657299,14952.160028
1053.034890,-5625.565159,229.828649,11843.295072
1053.035219,-5699.585753,-1225.752797,9030.512492
1053.035549,-5403.503377,-2451.505594,5403.503377
1053.035878,-3256.906145,-919.314598,2294.638420
1053.036208,1332.370696,-306.438199,1110.308913
1053.036537,5255.462188,-766.095498,1110.308913
1053.036867,5625.565159,1225.752797,1850.514855
1053.037196,2960.823768,3217.601092,4367.215058
1053.037526,370.102971,4443.353888,9622.677246
1053.037855,-1702.473667,6511.811733,14804.118840
1053.038185,-3627.009116,7048.078582,17394.839637
1053.038514,-4071.132681,3524.039291,17468.860231
1053.038843,-5033.400406,-536.266849,14285.974681
1053.039173,-5773.606348,-1991.848295,11769.274478
1053.039502,-4737.318029,-2298.286494,9474.636058
1053.039832,-3923.091493,-2757.943793,7105.977043
1053.040161,-2220.617826,-766.095498,4885.359217
1053.040491,740.205942,-1302.362347,3923.091493
1053.040820,3775.050304,-689.485948,4663.297435
1053.041150,4219.173869,1302.362347,4441.235652
1053.041479,3552.988522,2451.505594,5625.565159
1053.041808,2886.803174,2911.162892,9844.739029
1053.042139,1184.329507,3447.429741,15396.283594
1053.042468,-2368.659014,4596.572988,17764.942608
1053.042797,-4515.256246,2068.457845,16876.695478
1053.043127,-5181.441594,-2145.067394,14359.995275
1053.043456,-5477.523971,-3217.601092,12287.418637
1053.043786,-4737.318029,-3524.039291,11325.150913
1053.044115,-3701.029710,-3983.696590,8290.306550
1053.044444,-2220.617826,-3294.210641,4811.338623
1053.044774,666.185348,-2757.943793,3404.947333
1053.045103,4145.153275,-1685.410096,5403.503377
1053.045433,5181.441594,1225.752797,6883.915261
1053.045762,3849.070898,3983.696590,8586.388927
1053.046092,2294.638420,4903.011187,10807.006753
1053.046421,518.144159,4060.306139,14137.933492
1053.046750,-1480.411884,3524.039291,17172.777854
1053.047080,-3775.050304,2757.943793,16876.695478
1053.047409,-5107.421000,76.609550,14508.036463
1053.047739,-5773.606348,-1302.362347,10955.047942
1053.048068,-5773.606348,-2834.553343,8882.471304
1053.048397,-4589.276840,-3983.696590,6513.812290
1053.048727,-3182.885551,-2528.115143,4441.235652
1053.049056,74.020594,153.219100,2664.741391
1053.049386,3330.926739,306.438199,2146.597232
1053.049715,4885.359217,306.438199,3108.864956
1053.050045,4441.235652,2528.115143,6069.688724
1053.050374,2368.659014,5286.058936,10066.800811
1053.050703,222.061783,6741.640382,14137.933492
1053.051033,-2886.803174,6128.763984,16210.510130
1053.051362,-4441.235652,4366.744339,16506.592507
1053.051692,-5033.400406,612.876398,14878.139434
1053.052021,-5551.544565,-1991.848295,11917.315666
1053.052351,-4959.379811,-1762.019645,8660.409521
1053.052680,-4367.215058,-2451.505594,6513.812290
1053.053009,-3108.864956,-2451.505594,4515.256246
1053.053339,-1332.370696,-459.657299,3552.988522
1053.053668,1850.514855,-766.095498,3997.112087
1053.053998,3775.050304,153.219100,4737.318029
1053.054327,3404.947333,3370.820191,5625.565159
1053.054656,2960.823768,4749.792088,8660.409521
1053.054986,2368.659014,2911.162892,12509.480420
1053.055315,-148.041188,2757.943793,16284.530724
1053.055645,-2960.823768,3370.820191,17172.777854
1053.055974,-4441.235652,1838.629195,15988.448347
1053.056304,-5181.441594,-306.438199,14656.077652
1053.056633,-5181.441594,-995.924147,11843.295072
1053.056962,-4219.173869,-3524.039291,8956.491898
1053.057292,-1998.556043,-3600.648841,5921.647536
1053.057621,296.082377,-459.657299,3404.947333
1053.057951,3404.947333,-612.876398,3182.885551
1053.058280,5625.565159,-689.485948,4515.256246
1053.058610,4885.359217,2068.457845,7105.977043
1053.058939,2738.761985,5439.278036,10140.821405
1053.059268,518.144159,5975.544884,12953.603985
1053.059598,-1036.288319,4979.620737,15322.262999
1053.059927,-3034.844362,3600.648841,16284.530724
1053.060257,-3923.091493,919.314598,15396.283594
1053.060586,-5033.400406,-995.924147,12731.542202
1053.060915,-5625.565159,-1608.800546,10436.903782
1053.061245,-5773.606348,-2757.943793,8882.471304
1053.061574,-5329.482782,-995.924147,6587.832884
1053.061904,-2590.720797,0.000000,3478.967927
1053.062233,2368.659014,-1225.752797,1554.432478
1053.062563,6439.791695,-1378.971896,1998.556043
1053.062892,5921.647536,1378.971896,3997.112087
1053.063221,3034.844362,4290.134789,7328.038826
1053.063551,148.041188,5286.058936,12435.459826
1053.063880,-1850.514855,7354.516781,16210.510130
1053.064210,-4071.132681,6818.249932,17838.963202
1053.064539,-3849.070898,2145.067394,16284.530724
1053.064868,-4219.173869,-2068.457845,12435.459826
1053.065198,-5181.441594,-3524.039291,9400.615463
1053.065527,-4737.318029,-2757.943793,8068.244768
1053.065857,-4071.132681,-995.924147,6661.853478
1053.066186,-3034.844362,-229.828649,3849.070898
1053.066516,222.061783,-1072.533697,2812.782580
1053.066845,3849.070898,-2068.457845,3849.070898
1053.067174,4145.153275,1685.410096,5329.482782
1053.067504,2960.823768,4366.744339,7476.080014
1053.067833,1480.411884,4290.134789,11399.171507
1053.068163,0.000000,3370.820191,15840.407159
1053.068492,-3034.844362,3753.867940,18061.024985
1053.068822,-4737.318029,2681.334243,17320.819043
1053.069151,-5477.523971,-459.657299,14359.995275
1053.069480,-5329.482782,-1838.629195,11621.233289
1053.069810,-3552.988522,-2604.724693,9622.677246
1053.070139,-2220.617826,-3677.258390,6439.791695
1053.070469,-444.123565,-2451.505594,3923.091493
1053.070798,2220.617826,-1072.533697,2294.638420
1053.071127,4959.379811,-995.924147,3627.009116
1053.071457,5625.565159,1149.143247,6217.729913
1053.071786,4145.153275,3983.696590,8882.471304
1053.072116,2146.597232,4903.011187,12139.377449
1053.072445,-222.061783,4596.572988,15396.283594
1053.072775,-2146.597232,4596.572988,17246.798449
1053.073104,-3404.947333,2298.286494,16580.613101
1053.073433,-3701.029710,-919.314598,14063.912898
1053.073763,-4959.379811,-1685.410096,11769.274478
1053.074092,-5477.523971,-919.314598,10732.986159
1053.074422,-5773.606348,-229.828649,8142.265362
1053.074751,-4515.256246,612.876398,3552.988522
1053.075081,592.164754,-689.485948,592.164754
1053.075410,5625.565159,-1915.238745,1702.473667
1053.075739,6365.771101,153.219100,3478.967927
1053.076069,2590.720797,4136.915689,5625.565159
1053.076398,-740.205942,5439.278036,9326.594869
1053.076728,-2516.700203,7048.078582,14285.974681
1053.077057,-3478.967927,7967.393179,17246.798449
1053.077386,-3997.112087,4443.353888,16284.530724
1053.077716,-3775.050304,-689.485948,12953.603985
1053.078045,-4219.173869,-2145.067394,9844.739029
1053.078375,-4737.318029,-919.314598,9104.533087
1053.078704,-4811.338623,-459.657299,7179.997637
1053.079034,-3849.070898,153.219100,4589.276840
1053.079363,222.061783,919.314598,3108.864956
1053.079692,4515.256246,0.000000,2886.803174
1053.080022,6069.688724,-459.657299,3182.885551
1053.080351,4663.297435,995.924147,5107.421000
1053.080681,1776.494261,3294.210641,9770.718434
1053.081010,-1406.391290,5439.278036,15914.427753
1053.081339,-3849.070898,7354.516781,19615.457463
1053.081669,-4589.276840,4060.306139,19023.292709
1053.081998,-4737.318029,-536.266849,15766.386565
1053.082328,-5329.482782,-2451.505594,12065.356855
1053.082657,-4589.276840,-2757.943793,10140.821405
1053.082987,-3256.906145,-3294.210641,8068.244768
1053.083316,-2072.576638,-1532.190996,5847.626942
1053.083645,222.061783,383.047749,4589.276840
1053.083975,3627.009116,-383.047749,3701.029710
1053.084304,5255.462188,-1072.533697,4441.235652
1053.084634,4145.153275,2221.676944,6661.853478
1053.084963,1850.514855,3983.696590,11029.068536
1053.085293,-296.082377,4673.182538,15692.365970
1053.085622,-2146.597232,5898.935335,17764.942608
1053.085951,-3182.885551,3370.820191,15544.324782
1053.086281,-3330.926739,-536.266849,13175.665768
1053.086610,-3701.029710,-1915.238745,11473.192101
1053.086940,-3997.112087,-536.266849,10140.821405
1053.087269,-4219.173869,-842.705048,7846.182985
1053.087598,-3478.967927,-536.266849,4441.235652
1053.087928,-296.082377,612.876398,2886.803174
1053.088257,3330.926739,-766.095498,2368.659014
1053.088587,4737.318029,-612.876398,3478.967927
1053.088916,3256.906145,2374.896044,5847.626942
1053.089246,592.164754,4213.525239,9400.615463
1053.089575,-1924.535449,5439.278036,14137.933492
1053.089904,-3923.091493,6358.592633,16876.695478
1053.090234,-4737.318029,4290.134789,16136.489536
1053.090563,-4219.173869,-229.828649,13175.665768
1053.090893,-3701.029710,-2145.067394,10807.006753
1053.091222,-3552.988522,-1302.362347,9104.533087
1053.091552,-4515.256246,-766.095498,8068.244768
1053.091881,-3404.947333,0.000000,5921.647536
1053.092210,-740.205942,1455.581446,4293.194464
1053.092540,2738.761985,842.705048,3182.885551
1053.092869,5477.523971,306.438199,3108.864956
1053.093199,5181.441594,766.095498,3923.091493
1053.093528,3330.926739,2374.896044,8808.450710
1053.093857,740.205942,4749.792088,14656.077652
1053.094187,-2812.782580,7277.907231,17912.983796
1053.094516,-4589.276840,5132.839837,17542.880825
1053.094846,-4589.276840,689.485948,15396.283594
1053.095175,-4293.194464,-1455.581446,13249.686362
1053.095505,-4367.215058,-1378.971896,10732.986159
1053.095834,-3997.112087,-2374.896044,8142.265362
1053.096163,-3034.844362,-1838.629195,5107.421000
1053.096493,-814.226536,0.000000,3701.029710
1053.096822,2294.638420,-612.876398,3849.070898
1053.097152,4367.215058,-229.828649,4145.153275
1053.097481,3923.091493,1455.581446,4959.379811
1053.097811,2442.679609,2987.772442,7920.203579
1053.098140,1036.288319,3294.210641,13619.789333
1053.098469,-1554.432478,3753.867940,17542.880825
1053.098799,-4071.132681,4443.353888,17987.004391
1053.099128,-4663.297435,1225.752797,15544.324782
1053.099458,-4515.256246,-1378.971896,13471.748144
1053.099787,-4441.235652,-1455.581446,11843.295072
1053.100116,-4219.173869,-1532.190996,10140.821405
1053.100446,-3182.885551,-153.219100,6587.832884
1053.100775,-444.123565,612.876398,3330.926739
1053.101105,3775.050304,-1072.533697,2294.638420
1053.101434,6217.729913,-1532.190996,2960.823768
1053.101764,4885.359217,842.705048,4885.359217
1053.102093,2146.597232,4366.744339,8216.285956
1053.102422,-814.226536,5209.449386,12213.398043
1053.102752,-3108.864956,5362.668486,15914.427753
1053.103081,-4515.256246,3447.429741,16654.633695
1053.103411,-5403.503377,919.314598,15026.180623
1053.103740,-5181.441594,-1455.581446,11695.253884
1053.104069,-5181.441594,-1685.410096,9400.615463
1053.104399,-4737.318029,-1302.362347,8364.327145
1053.104728,-4663.297435,-995.924147,6513.812290
1053.105058,-2664.741391,-229.828649,3330.926739
1053.105387,1480.411884,229.828649,1850.514855
1053.105717,5255.462188,-383.047749,2960.823768
1053.106046,5181.441594,1532.190996,3849.070898
1053.106375,3034.844362,2604.724693,6365.771101
1053.106705,1258.350101,3524.039291,11843.295072
1053.107034,-1850.514855,4749.792088,16358.551318
1053.107364,-4367.215058,6205.373534,18135.045579
1053.107693,-4811.338623,2451.505594,16728.654289
1053.108023,-4145.153275,-1838.629195,14211.954086
1053.108352,-3775.050304,-2145.067394,11103.089130
1053.108681,-3256.906145,-1991.848295,9252.574275
1053.109011,-1998.556043,-2451.505594,6957.935855
1053.109340,-444.123565,-1149.143247,4589.276840
1053.109670,1776.494261,-383.047749,3997.112087
1053.109999,4219.173869,-153.219100,4737.318029
1053.110328,4737.318029,1838.629195,5847.626942
1053.110658,3478.967927,3294.210641,7846.182985
1053.110987,1258.350101,3524.039291,12065.356855
1053.111317,-1184.329507,3447.429741,16358.551318
1053.111646,-3701.029710,4443.353888,18283.086767
1053.111976,-4959.379811,2221.676944,16876.695478
1053.112305,-5477.523971,-536.266849,13915.871710
1053.112634,-5329.482782,-1302.362347,11621.233289
1053.112964,-4737.318029,-1532.190996,9696.697840
1053.113293,-3256.906145,-1532.190996,6735.874072
1053.113623,-1332.370696,-766.095498,3182.885551
1053.113952,2146.597232,-612.876398,1998.556043
1053.114282,5255.462188,-306.438199,2516.700203
1053.114611,5255.462188,1225.752797,4293.194464
1053.114940,3034.844362,3677.258390,6439.791695
1053.115270,592.164754,4519.963438,10362.883188
1053.115599,-1258.350101,4749.792088,14878.139434
1053.115929,-3330.926739,5975.544884,17024.736666
1053.116258,-4367.215058,3447.429741,15544.324782
1053.116587,-3775.050304,-689.485948,12287.418637
1053.116917,-3775.050304,-2834.553343,9844.739029
1053.117246,-4737.318029,-2068.457845,8734.430116
1053.117576,-4663.297435,-306.438199,7476.080014
1053.117905,-3330.926739,76.609550,5107.421000
1053.118235,222.061783,383.047749,2516.700203
1053.118564,4293.194464,-1455.581446,2368.659014
1053.118893,5255.462188,-1685.410096,3182.885551
1053.119223,3701.029710,919.314598,6217.729913
1053.119552,296.082377,2911.162892,10658.965565
1053.119882,-1924.535449,4826.401637,16432.571912
1053.120211,-4293.194464,6358.592633,19467.416275
1053.120540,-5329.482782,3753.867940,17912.983796
1053.120870,-4515.256246,-1685.410096,14508.036463
1053.121199,-4145.153275,-4443.353888,11769.274478
1053.121529,-3775.050304,-2221.676944,9474.636058
1053.121858,-3034.844362,-1608.800546,7476.080014
1053.122188,-1406.391290,-2145.067394,5403.503377
1053.122517,814.226536,-919.314598,3775.050304
1053.122846,3552.988522,-766.095498,3997.112087
1053.123176,5181.441594,-612.876398,5255.462188
1053.123505,3849.070898,1455.581446,7476.080014
1053.123835,1406.391290,3217.601092,11177.109724
1053.124164,-740.205942,3524.039291,14508.036463
1053.124494,-2812.782580,4213.525239,16358.551318
1053.124823,-3923.091493,2528.115143,16654.633695
1053.125152,-3849.070898,0.000000,14359.995275
1053.125482,-3849.070898,-1608.800546,11843.295072
1053.125811,-3849.070898,-1762.019645,9770.718434
1053.126141,-3404.947333,-1149.143247,7698.141797
1053.126470,-2294.638420,-536.266849,4811.338623
1053.126799,74.020594,766.095498,3330.926739
1053.127129,3478.967927,0.000000,3256.906145
1053.127458,4737.318029,76.609550,4663.297435
1053.127788,3256.906145,2374.896044,6439.791695
1053.128117,0.000000,4060.306139,9992.780217
1053.128447,-1924.535449,4749.792088,14211.954086
1053.128776,-3404.947333,5745.716235,16210.510130
1053.129105,-3849.070898,3983.696590,15100.201217
1053.129435,-2516.700203,-536.266849,12361.439231
1053.129764,-2368.659014,-2681.334243,10807.006753
1053.130094,-3923.091493,-459.657299,9770.718434
1053.130423,-4885.359217,1225.752797,8438.347739
1053.130753,-3701.029710,2145.067394,6587.832884
1053.131082,-592.164754,2145.067394,3552.988522
1053.131411,3923.091493,0.000000,1850.514855
1053.131741,6587.832884,-1685.410096,2516.700203
1053.132070,4885.359217,459.657299,4367.215058
1053.132400,1924.535449,3294.210641,8142.265362
1053.132729,-1480.411884,5132.839837,13471.748144
1053.133058,-3552.988522,6435.202183,17098.757260
1053.133388,-5181.441594,5515.887586,17172.777854
1053.133717,-4959.379811,766.095498,14952.160028
1053.134047,-4737.318029,-2451.505594,11769.274478
1053.134376,-4515.256246,-2757.943793,9474.636058
1053.134706,-4145.153275,-2145.067394,7846.182985
1053.135035,-3923.091493,-842.705048,6439.791695
1053.135364,-1776.494261,-536.266849,5403.503377
1053.135694,1258.350101,-842.705048,4663.297435
1053.136023,3775.050304,-2068.457845,3849.070898
1053.136353,4071.132681,-1378.971896,5773.606348
1053.136682,3404.947333,153.219100,10066.800811
1053.137011,962.267725,2374.896044,14137.933492
1053.137341,-1776.494261,3370.820191,17468.860231
1053.137670,-3108.864956,3370.820191,17690.922014
1053.138000,-3256.906145,842.705048,16876.695478
1053.138329,-2812.782580,-1378.971896,14508.036463
1053.138659,-3256.906145,-1762.019645,11399.171507
1053.138988,-2960.823768,-2604.724693,8216.285956
1053.139317,-1554.432478,-2757.943793,6661.853478
1053.139647,444.123565,-919.314598,4811.338623
1053.139976,2664.741391,229.828649,3552.988522
1053.140306,4293.194464,-1149.143247,2812.782580
1053.140635,3997.112087,-229.828649,4589.276840
1053.140965,1702.473667,2681.334243,8142.265362
1053.141294,-1258.350101,3600.648841,13175.665768
1053.141623,-3849.070898,4519.963438,15840.407159
1053.141953,-5551.544565,4136.915689,15100.201217
1053.142282,-5551.544565,995.924147,13841.851115
1053.142612,-4293.194464,-2451.505594,12065.356855
1053.142941,-4515.256246,-1608.800546,10732.986159
1053.143270,-4959.379811,306.438199,8216.285956
1053.143600,-3997.112087,689.485948,5403.503377
1053.143929,-740.205942,689.485948,3552.988522
1053.144259,3034.844362,229.828649,2960.823768
1053.144588,5699.585753,-536.266849,3404.947333
1053.144918,4885.359217,919.314598,3997.112087
1053.145247,3256.906145,3677.258390,7328.038826
1053.145576,666.185348,3677.258390,12509.480420
1053.145906,-2146.597232,5362.668486,17172.777854
1053.146235,-4737.318029,5975.544884,18209.066173
1053.146565,-5181.441594,2911.162892,16284.530724
1053.146894,-4145.153275,-459.657299,13323.706956
1053.147224,-4071.132681,-1685.410096,10066.800811
1053.147553,-4293.194464,-1991.848295,8364.327145
1053.147883,-3552.988522,-1608.800546,6735.874072
1053.148212,-1924.535449,536.266849,5033.400406
1053.148542,666.185348,1762.019645,3182.885551
1053.148871,3627.009116,612.876398,2220.617826
1053.149201,5255.462188,-995.924147,2738.761985
1053.149530,4145.153275,536.266849,6439.791695
1053.149860,2072.576638,3294.210641,11917.315666
1053.150190,-1036.288319,5439.278036,15988.448347
1053.150519,-3849.070898,5362.668486,17468.860231
1053.150849,-4441.235652,1991.848295,16876.695478
1053.151178,-3627.009116,-1072.533697,15396.283594
1053.151508,-3478.967927,-1915.238745,12805.562797
1053.151837,-3849.070898,-1532.190996,10288.862594
1053.152167,-3330.926739,-1225.752797,7105.977043
1053.152496,-1480.411884,-995.924147,4219.173869
1053.152826,2294.638420,-919.314598,3256.906145
1053.153156,5181.441594,-1225.752797,4293.194464
1053.153485,5477.523971,766.095498,4219.173869
1053.153815,3034.844362,2221.676944,5847.626942
1053.154144,888.247130,2374.896044,10584.944971
1053.154474,-1480.411884,4443.353888,15618.345376
1053.154803,-3627.009116,5592.497135,18653.189738
1053.155133,-5107.421000,3600.648841,17320.819043
1053.155462,-4663.297435,-229.828649,14211.954086
1053.155792,-3997.112087,-2528.115143,11843.295072
1053.156122,-3552.988522,-1991.848295,10807.006753
1053.156451,-4737.318029,-306.438199,7846.182985
1053.156781,-3552.988522,995.924147,4367.215058
1053.157110,222.061783,689.485948,1924.535449
1053.157440,4441.235652,-1072.533697,1554.432478
1053.157769,6513.812290,-1225.752797,2664.741391
1053.158099,3923.091493,1378.971896,4515.256246
1053.158428,814.226536,3370.820191,7698.141797
1053.158758,-2072.576638,5439.278036,13545.768739
1053.159088,-4145.153275,6665.030833,17764.942608
1053.159417,-5329.482782,5132.839837,17690.922014
1053.159747,-5551.544565,306.438199,13841.851115
1053.160076,-4515.256246,-2451.505594,10881.027347
1053.160406,-3849.070898,-1685.410096,8956.491898
1053.160735,-3478.967927,-766.095498,7846.182985
1053.161065,-2368.659014,306.438199,5625.565159
1053.161394,0.000000,536.266849,2590.720797
1053.161724,3108.864956,-229.828649,2516.700203
1053.162054,5255.462188,-536.266849,3701.029710
1053.162383,4145.153275,1455.581446,5921.647536
1053.162713,2368.659014,2451.505594,9474.636058
1053.163042,666.185348,3140.991542,14434.015869
1053.163372,-1776.494261,4213.525239,17764.942608
1053.163701,-3849.070898,4136.915689,18801.230927
1053.164031,-4293.194464,919.314598,16506.592507
1053.164360,-4293.194464,-1532.190996,13693.809927
1053.164690,-3997.112087,-1762.019645,11251.130318
1053.165020,-3404.947333,-1455.581446,9030.512492
1053.165349,-1480.411884,-1378.971896,6883.915261
1053.165679,518.144159,-459.657299,4219.173869
1053.166008,3701.029710,-1532.190996,2960.823768
1053.166338,5921.647536,-1225.752797,3997.112087
1053.166667,5033.400406,383.047749,6217.729913
1053.166997,2368.659014,4290.134789,9326.594869
1053.167326,74.020594,5132.839837,13249.686362
1053.167656,-2072.576638,5286.058936,16284.530724
1053.167986,-2960.823768,4749.792088,17098.757260
1053.168315,-3552.988522,2068.457845,14804.118840
1053.168645,-4145.153275,-1302.362347,11547.212695
1053.168974,-4515.256246,-2451.505594,9622.677246
1053.169304,-5995.668130,-1608.800546,9252.574275
1053.169633,-5921.647536,306.438199,7179.997637
1053.169963,-3478.967927,2068.457845,3108.864956
1053.170292,1702.473667,612.876398,962.267725
1053.170622,5921.647536,-1302.362347,740.205942
1053.170952,5625.565159,-153.219100,2442.679609
1053.171281,2442.679609,2528.115143,6143.709319
1053.171611,-1332.370696,5515.887586,11547.212695
1053.171940,-3627.009116,7354.516781,16358.551318
1053.172270,-5033.400406,7124.688131,18283.086767
1053.172599,-4663.297435,2911.162892,17098.757260
1053.172929,-3997.112087,-842.705048,13693.809927
1053.173258,-4367.215058,-1532.190996,10584.944971
1053.173588,-4367.215058,-612.876398,8586.388927
1053.173918,-3256.906145,76.609550,7624.121203
1053.174247,-1850.514855,459.657299,5255.462188
1053.174577,1036.288319,229.828649,3108.864956
1053.174906,4441.235652,-766.095498,2516.700203
1053.175236,5699.585753,-306.438199,3330.926739
1053.175565,4367.215058,2068.457845,6957.935855
1053.175895,1628.453072,3140.991542,12805.562797
1053.176224,-1924.535449,5056.230287,17098.757260
1053.176554,-4293.194464,5745.716235,18209.066173
1053.176884,-4811.338623,2757.943793,17098.757260
1053.177213,-4663.297435,-842.705048,14508.036463
1053.177543,-4367.215058,-1991.848295,12065.356855
1053.177872,-3775.050304,-1455.581446,9770.718434
1053.178202,-2738.761985,-1532.190996,7105.977043
1053.178531,-1258.350101,-919.314598,3997.112087
1053.178861,1850.514855,-383.047749,2812.782580
1053.179190,4663.297435,-1149.143247,3330.926739
1053.179520,4589.276840,766.095498,4293.194464
1053.179850,3923.091493,2298.286494,6365.771101
1053.180179,2146.597232,2681.334243,11621.233289
1053.180509,-740.205942,4596.572988,16136.489536
1053.180838,-3627.009116,5439.278036,17690.922014
1053.181168,-4441.235652,2911.162892,16506.592507
1053.181497,-4071.132681,0.000000,13619.789333
1053.181827,-3923.091493,-459.657299,11843.295072
1053.182156,-4293.194464,-842.705048,9992.780217
1053.182486,-4367.215058,-1685.410096,7254.018232
1053.182816,-2590.720797,-536.266849,3552.988522
1053.183145,1258.350101,-612.876398,1850.514855
1053.183475,4737.318029,-1149.143247,2294.638420
1053.183804,5329.482782,-995.924147,3108.864956
1053.184134,3256.906145,1225.752797,5921.647536
1053.184463,592.164754,3217.601092,10140.821405
1053.184793,-1998.556043,6128.763984,15396.283594
1053.185122,-3775.050304,7507.735880,18283.086767
1053.185452,-4515.256246,4136.915689,17098.757260
1053.185782,-3775.050304,-689.485948,13989.892304
1053.186111,-4071.132681,-1685.410096,11029.068536
1053.186441,-4441.235652,0.000000,9104.533087
1053.186770,-4441.235652,-536.266849,7105.977043
1053.187100,-3182.885551,-383.047749,4959.379811
1053.187429,-592.164754,-306.438199,2960.823768
1053.187759,3256.906145,-1915.238745,2368.659014
1053.188088,3775.050304,-1685.410096,3108.864956
1053.188418,2886.803174,459.657299,4515.256246
1053.188748,1332.370696,1762.019645,9770.718434
1053.189077,-962.267725,3524.039291,16210.510130
1053.189407,-3478.967927,6205.373534,19023.292709
1053.189736,-4663.297435,4826.401637,18801.230927
1053.190066,-3701.029710,383.047749,15914.427753
1053.190395,-2960.823768,-1378.971896,13397.727550
1053.190725,-2442.679609,-1455.581446,10510.924376
1053.191054,-1480.411884,-1302.362347,7846.182985
1053.191384,-296.082377,-536.266849,5477.523971
1053.191714,1184.329507,766.095498,4589.276840
1053.192043,3182.885551,-383.047749,3923.091493
1053.192373,4145.153275,-919.314598,4367.215058
1053.192702,3330.926739,689.485948,5329.482782
1053.193032,1924.535449,1532.190996,9474.636058
1053.193361,-148.041188,3600.648841,14804.118840
1053.193691,-3108.864956,4903.011187,17024.736666
1053.194020,-4737.318029,3294.210641,16284.530724
1053.194350,-4737.318029,766.095498,14359.995275
1053.194680,-4367.215058,306.438199,12139.377449
1053.195009,-4515.256246,0.000000,10436.903782
1053.195339,-4219.173869,-306.438199,7550.100608
1053.195668,-2738.761985,229.828649,3923.091493
1053.195998,370.102971,153.219100,1702.473667
1053.196327,4811.338623,-1149.143247,1554.432478
1053.196657,6069.688724,-995.924147,2812.782580
1053.196986,3849.070898,1762.019645,5107.421000
1053.197316,888.247130,4366.744339,8734.430116
1053.197646,-1258.350101,5822.325785,13545.768739
1053.197975,-2960.823768,6281.983084,17172.777854
1053.198305,-4441.235652,4596.572988,17246.798449
1053.198634,-4589.276840,1302.362347,14878.139434
1053.198964,-4367.215058,-1302.362347,11843.295072
1053.199293,-4811.338623,-1149.143247,9844.739029
1053.199623,-5107.421000,-842.705048,8438.347739
1053.199952,-4293.194464,-919.314598,5107.421000
1053.200282,-1554.432478,-612.876398,3034.844362
1053.200612,2368.659014,-2298.286494,1480.411884
1053.200941,4737.318029,-2374.896044,2812.782580
1053.201271,3701.029710,0.000000,4293.194464
1053.201600,2368.659014,2451.505594,7624.121203
1053.201930,740.205942,3600.648841,13841.851115
1053.202259,-1554.432478,4903.011187,18875.251521
1053.202589,-3923.091493,5822.325785,20133.601622
1053.202918,-4441.235652,2451.505594,17616.901420
1053.203248,-4145.153275,-383.047749,13323.706956
1053.203578,-3701.029710,-1991.848295,10881.027347
1053.203907,-2368.659014,-2068.457845,9104.533087
1053.204237,-2072.576638,-1991.848295,6365.771101
1053.204566,-592.164754,-536.266849,2664.741391
1053.204896,1258.350101,-2374.896044,1776.494261
1053.205225,4071.132681,-2451.505594,2442.679609
1053.205555,3849.070898,-383.047749,4663.297435
1053.205884,2516.700203,1378.971896,7994.224174
1053.206214,148.041188,1991.848295,13027.624579
1053.206544,-2294.638420,3600.648841,16432.571912
1053.206873,-4145.153275,4826.401637,18283.086767
1053.207203,-4589.276840,2604.724693,17987.004391
1053.207532,-4737.318029,1149.143247,15618.345376
1053.207862,-4293.194464,76.609550,11917.315666
1053.208191,-3256.906145,-1991.848295,8438.347739
1053.208521,-1850.514855,-2757.943793,5181.441594
1053.208850,296.082377,-919.314598,3701.029710
1053.209180,2886.803174,-153.219100,3404.947333
1053.209510,5033.400406,229.828649,3330.926739
1053.209839,4219.173869,995.924147,4441.235652
1053.210169,2516.700203,2757.943793,7402.059420
1053.210498,296.082377,3524.039291,11843.295072
1053.210828,-1776.494261,4826.401637,15840.407159
1053.211157,-3627.009116,4903.011187,17172.777854
1053.211487,-4367.215058,2374.896044,15396.283594
1053.211816,-4959.379811,-612.876398,12731.542202
1053.212146,-5255.462188,-1608.800546,10436.903782
1053.212476,-5107.421000,-1455.581446,9030.512492
1053.212805,-4515.256246,0.000000,6661.853478
1053.213135,-2442.679609,306.438199,2442.679609
1053.213464,1480.411884,-1072.533697,1036.288319
1053.213794,4441.235652,-1608.800546,1628.453072
1053.214123,4811.338623,-612.876398,3478.967927
1053.214453,2738.761985,2298.286494,6143.709319
1053.214782,444.123565,3677.258390,10881.027347
1053.215112,-1628.453072,4596.572988,16506.592507
1053.215442,-3775.050304,5822.325785,18875.251521
1053.215771,-4663.297435,3524.039291,17468.860231
1053.216101,-3701.029710,-766.095498,14211.954086
1053.216430,-3701.029710,-2145.067394,11103.089130
1053.216760,-3404.947333,-2145.067394,9400.615463
1053.217089,-2664.741391,-2374.896044,7920.203579
1053.217419,-1628.453072,-1149.143247,5255.462188
1053.217748,962.267725,-689.485948,2738.761985
1053.218078,3108.864956,-1762.019645,3627.009116
1053.218408,3701.029710,-1149.143247,4515.256246
1053.218737,3256.906145,229.828649,7624.121203
1053.219067,1554.432478,1072.533697,11843.295072
1053.219396,-888.247130,3907.087040,16580.613101
1053.219726,-3627.009116,4519.963438,18801.230927
1053.220055,-4441.235652,2757.943793,18431.127956
1053.220385,-4145.153275,76.609550,16062.468941
1053.220714,-3923.091493,-306.438199,12805.562797
1053.221044,-2886.803174,0.000000,9326.594869
1053.221374,-1702.473667,-1149.143247,6883.915261
1053.221703,148.041188,-995.924147,3108.864956
1053.222033,2072.576638,-383.047749,2960.823768
1053.222362,4071.132681,536.266849,2590.720797
1053.222692,4071.132681,1455.581446,3108.864956
1053.223021,2220.617826,1532.190996,5477.523971
1053.223351,-888.247130,2757.943793,9770.718434
1053.223680,-3034.844362,3294.210641,14508.036463
1053.224010,-4811.338623,4366.744339,16284.530724
1053.224340,-5699.585753,3217.601092,15396.283594
1053.224669,-4663.297435,383.047749,12879.583391
1053.224999,-4737.318029,-1762.019645,11177.109724
1053.225328,-4441.235652,-995.924147,9918.759623
1053.225658,-4071.132681,536.266849,7846.182985
1053.225987,-2516.700203,2221.676944,5255.462188
1053.226317,592.164754,1072.533697,2146.597232
1053.226646,4811.338623,-766.095498,2146.597232
1053.226976,5921.647536,-1532.190996,3997.112087
1053.227306,4589.276840,1378.971896,5847.626942
1053.227635,1702.473667,3677.258390,10066.800811
1053.227965,-592.164754,4596.572988,14952.160028
1053.228294,-3404.947333,5822.325785,17616.901420
1053.228624,-4071.132681,3294.210641,17764.942608
1053.228953,-3627.009116,-383.047749,14804.118840
1053.229283,-3182.885551,-1991.848295,11621.233289
1053.229612,-3627.009116,-1915.238745,9400.615463
1053.229942,-3404.947333,-1149.143247,8364.327145
1053.230272,-2368.659014,-1378.971896,6883.915261
1053.230601,-1184.329507,0.000000,4071.132681
1053.230931,2072.576638,-1072.533697,3182.885551
1053.231260,3701.029710,-2374.896044,4145.153275
1053.231590,3478.967927,-153.219100,5995.668130
1053.231919,1110.308913,1762.019645,10362.883188
1053.232249,-888.247130,2757.943793,14952.160028
1053.232579,-2812.782580,4366.744339,18061.024985
1053.232908,-4219.173869,3830.477490,18061.024985
1053.233238,-4441.235652,995.924147,15988.448347
1053.233567,-4071.132681,-1762.019645,13101.645173
1053.233897,-3552.988522,-1455.581446,10214.842000
1053.234226,-2590.720797,-1072.533697,7550.100608
1053.234556,-1332.370696,-612.876398,5625.565159
1053.234885,814.226536,0.000000,2738.761985
1053.235215,4219.173869,-612.876398,2220.617826
1053.235545,5403.503377,-612.876398,2812.782580
1053.235874,4367.215058,919.314598,4737.318029
1053.236204,1554.432478,2987.772442,8364.327145
1053.236533,-1480.411884,4749.792088,13323.706956
1053.236863,-3182.885551,5975.544884,16358.551318
1053.237192,-4367.215058,4826.401637,16580.613101
1053.237522,-4885.359217,1838.629195,14656.077652
1053.237851,-4811.338623,-1072.533697,11843.295072
1053.238181,-4959.379811,-1915.238745,10214.842000
1053.238511,-4885.359217,-229.828649,8586.388927
1053.238840,-4737.318029,1455.581446,5181.441594
1053.239170,-1554.432478,383.047749,2368.659014
1053.239499,2072.576638,-612.876398,1702.473667
1053.239829,4959.379811,-1302.362347,2590.720797
1053.240158,4737.318029,383.047749,4071.132681
1053.240488,2516.700203,2528.115143,7179.997637
1053.240817,-740.205942,4060.306139,12805.562797
1053.241147,-3330.926739,5362.668486,17320.819043
1053.241477,-4885.359217,4826.401637,18727.210333
1053.241806,-5033.400406,1838.629195,16580.613101
1053.242136,-3997.112087,-1149.143247,13175.665768
1053.242465,-3775.050304,-2298.286494,11177.109724
1053.242795,-2738.761985,-1991.848295,9696.697840
1053.243124,-2368.659014,-2145.067394,6957.935855
1053.243454,0.000000,-689.485948,4441.235652
1053.243783,2220.617826,-1225.752797,2664.741391
1053.244113,5107.421000,-689.485948,2960.823768
1053.244443,5033.400406,612.876398,4959.379811
1053.244772,4515.256246,2757.943793,7476.080014
1053.245102,1998.556043,2911.162892,11991.336260
1053.245431,-370.102971,3600.648841,16580.613101
1053.245761,-4367.215058,4366.744339,18949.272115
1053.246090,-6143.709319,2145.067394,18209.066173
1053.246420,-6587.832884,153.219100,15544.324782
1053.246749,-6143.709319,-1072.533697,12139.377449
1053.247079,-4663.297435,-2298.286494,9104.533087
1053.247409,-2960.823768,-3140.991542,5699.585753
1053.247738,-296.082377,-1762.019645,3849.070898
1053.248068,2442.679609,-995.924147,1406.391290
1053.248397,5329.482782,-536.266849,1554.432478
1053.248727,5255.462188,0.000000,3478.967927
1053.249056,3552.988522,2757.943793,7179.997637
1053.249386,1110.308913,4366.744339,12287.418637
1053.249716,-1184.329507,6665.030833,16358.551318
1053.250045,-3256.906145,5975.544884,17838.963202
1053.250375,-3775.050304,2528.115143,16580.613101
1053.250704,-4293.194464,-229.828649,14063.912898
1053.251034,-4441.235652,-1302.362347,11843.295072
1053.251363,-4959.379811,-306.438199,9252.574275
1053.251693,-4737.318029,0.000000,6587.832884
1053.252022,-2368.659014,536.266849,3627.009116
1053.252352,1628.453072,-1149.143247,814.226536
1053.252682,5921.647536,-1378.971896,1850.514855
1053.253011,6439.791695,306.438199,3256.906145
1053.253341,3108.864956,2987.772442,5033.400406
1053.253670,-370.102971,4979.620737,9178.553681
1053.254000,-2812.782580,5439.278036,14656.077652
1053.254329,-3997.112087,5975.544884,18727.210333
1053.254659,-4737.318029,4290.134789,17838.963202
1053.254988,-5403.503377,1302.362347,14730.098246
1053.255318,-5551.544565,-536.266849,11251.130318
1053.255648,-5107.421000,-1762.019645,8586.388927
1053.255977,-4441.235652,-2987.772442,6809.894666
1053.256307,-2220.617826,-1225.752797,4293.194464
1053.256636,-148.041188,-995.924147,3256.906145
1053.256966,3034.844362,-995.924147,2368.659014
1053.257295,4515.256246,-383.047749,3923.091493
1053.257625,3775.050304,1302.362347,6069.688724
1053.257955,2220.617826,3064.381992,11695.253884
1053.258284,0.000000,4903.011187,16876.695478
1053.258614,-3034.844362,6971.469032,19097.313304
1053.258943,-3997.112087,3064.381992,17987.004391
1053.259273,-3552.988522,-1532.190996,15766.386565
1053.259602,-3108.864956,-1838.629195,12953.603985
1053.259932,-3108.864956,-1608.800546,10658.965565
1053.260261,-2368.659014,-1685.410096,8956.491898
1053.260591,-148.041188,-306.438199,5329.482782
1053.260921,1702.473667,-842.705048,3701.029710
1053.261250,4737.318029,-1455.581446,2220.617826
1053.261580,5847.626942,-1149.143247,3034.844362
1053.261909,4663.297435,2221.676944,5329.482782
1053.262239,1702.473667,3830.477490,9696.697840
1053.262568,-1258.350101,4903.011187,14063.912898
1053.262898,-3256.906145,4903.011187,16802.674883
1053.263227,-4589.276840,3294.210641,16728.654289
1053.263557,-5625.565159,612.876398,14211.954086
1053.263887,-5699.585753,-612.876398,11843.295072
1053.264216,-5625.565159,-1762.019645,9326.594869
1053.264546,-5551.544565,-1685.410096,6809.894666
1053.264875,-3701.029710,383.047749,4663.297435
1053.265205,-296.082377,1302.362347,3034.844362
1053.265534,3404.947333,229.828649,1702.473667
1053.265864,5033.400406,-459.657299,2220.617826
1053.266194,4589.276840,459.657299,3775.050304
1053.266523,2368.659014,2451.505594,8438.347739
1053.266853,-444.123565,5056.230287,13471.748144
1053.267182,-3404.947333,6588.421283,17468.860231
1053.267512,-4589.276840,4519.963438,18283.086767
1053.267841,-4737.318029,1302.362347,16580.613101
1053.268171,-4737.318029,-689.485948,13767.830521
1053.268500,-4219.173869,-689.485948,10584.944971
1053.268830,-3627.009116,-919.314598,8142.265362
1053.269160,-2072.576638,-612.876398,5921.647536
1053.269489,-148.041188,-459.657299,3182.885551
1053.269819,3552.988522,-1302.362347,2960.823768
1053.270148,4663.297435,-383.047749,2960.823768
1053.270478,4663.297435,689.485948,4589.276840
1053.270807,2738.761985,2221.676944,8808.450710
1053.271137,74.020594,3907.087040,14211.954086
1053.271467,-2368.659014,4290.134789,17838.963202
1053.271796,-4071.132681,3217.601092,18505.148550
1053.272126,-4515.256246,919.314598,16654.633695
1053.272455,-4885.359217,-995.924147,14952.160028
1053.272785,-4885.359217,-612.876398,12657.521608
