#time,accel_x,accel_y,accel_z
1081.913566,-1036.288319,919.314598,9400.615463
1081.913896,-1258.350101,459.657299,9252.574275
1081.914225,-1036.288319,766.095498,9770.718434
1081.914555,-1036.288319,689.485948,9548.656652
1081.914884,-962.267725,919.314598,9474.636058
1081.915214,-962.267725,1149.143247,9622.677246
1081.915543,-814.226536,1072.533697,9474.636058
1081.915873,-888.247130,1532.190996,9326.594869
1081.916202,-1036.288319,842.705048,9548.656652
1081.916531,-888.247130,919.314598,9622.677246
1081.916861,-962.267725,689.485948,9696.697840
1081.917190,-962.267725,842.705048,9770.718434
1081.917520,-740.205942,995.924147,9622.677246
1081.917849,-888.247130,612.876398,9622.677246
1081.918179,-814.226536,689.485948,9770.718434
1081.918508,-888.247130,842.705048,9696.697840
1081.918838,-888.247130,919.314598,9622.677246
1081.919167,-962.267725,1149.143247,9548.656652
1081.919496,-814.226536,689.485948,9474.636058
1081.919826,-962.267725,842.705048,9474.636058
1081.920155,-962.267725,842.705048,9548.656652
1081.920485,-1036.288319,919.314598,9474.636058
1081.920814,-888.247130,842.705048,9474.636058
1081.921144,-888.247130,995.924147,9622.677246
1081.921473,-962.267725,919.314598,9474.636058
1081.921803,-888.247130,995.924147,9400.615463
1081.922132,-1110.308913,766.095498,9474.636058
1081.922461,-1036.288319,1225.752797,9400.615463
1081.922791,-1036.288319,383.047749,9178.553681
1081.923120,-1110.308913,842.705048,9474.636058
1081.923450,-1258.350101,919.314598,9474.636058
1081.923779,-1110.308913,842.705048,9622.677246
1081.924109,-888.247130,919.314598,9474.636058
1081.924438,-888.247130,459.657299,9104.533087
1081.924768,-1184.329507,459.657299,9400.615463
1081.925097,-888.247130,919.314598,9548.656652
1081.925426,-740.205942,842.705048,9400.615463
1081.925756,-888.247130,689.485948,9696.697840
1081.926085,-740.205942,766.095498,9548.656652
1081.926415,-666.185348,919.314598,9474.636058
1081.926744,-1036.288319,1072.533697,9770.718434
1081.927074,-1110.308913,766.095498,9622.677246
1081.927403,-1184.329507,842.705048,9622.677246
1081.927733,-1110.308913,919.314598,9622.677246
1081.928062,-1110.308913,459.657299,9252.574275
1081.928391,-962.267725,995.924147,9622.677246
1081.928721,-740.205942,919.314598,9622.677246
1081.929050,-888.247130,995.924147,9622.677246
1081.929380,-1036.288319,842.705048,9474.636058
1081.929709,-1332.370696,1302.362347,9770.718434
1081.930039,-1036.288319,766.095498,9474.636058
1081.930368,-1036.288319,1072.533697,9548.656652
1081.930698,-962.267725,612.876398,9770.718434
1081.931027,-1036.288319,919.314598,9474.636058
1081.931356,-888.247130,919.314598,9400.615463
1081.931686,-814.226536,1532.190996,9622.677246
1081.932015,-1184.329507,842.705048,9474.636058
1081.932345,-1036.288319,995.924147,9474.636058
1081.932674,-888.247130,842.705048,9548.656652
1081.933004,-1036.288319,766.095498,9474.636058
1081.933333,-1258.350101,1455.581446,9400.615463
1081.933663,-1184.329507,1149.143247,9326.594869
1081.933992,-1184.329507,919.314598,9622.677246
1081.934321,-1036.288319,689.485948,9474.636058
1081.934651,-1036.288319,919.314598,9178.553681
1081.934980,-962.267725,1072.533697,9326.594869
1081.935310,-1184.329507,536.266849,9326.594869
1081.935639,-1110.308913,919.314598,9622.677246
1081.935969,-1110.308913,842.705048,9474.636058
1081.936298,-962.267725,995.924147,9548.656652
1081.936628,-592.164754,1149.143247,9474.636058
1081.936957,-814.226536,536.266849,9252.574275
1081.937286,-962.267725,995.924147,9474.636058
1081.937616,-962.267725,919.314598,9252.574275
1081.937945,-666.185348,919.314598,9104.533087
1081.938275,370.102971,766.095498,9178.553681
1081.938604,592.164754,919.314598,9104.533087
1081.938934,962.267725,459.657299,9474.636058
1081.939263,592.164754,919.314598,9622.677246
1081.939593,296.082377,536.266849,10066.800811
1081.939922,-518.144159,919.314598,10658.965565
1081.940251,-814.226536,1302.362347,11029.068536
1081.940581,-370.102971,459.657299,10436.903782
1081.940910,0.000000,383.047749,9696.697840
1081.941240,814.226536,76.609550,9252.574275
1081.941569,1850.514855,153.219100,9178.553681
1081.941899,2590.720797,229.828649,8364.327145
1081.942228,2960.823768,1762.019645,8808.450710
1081.942558,3256.906145,1685.410096,9178.553681
1081.942887,3552.988522,2145.067394,9548.656652
1081.943216,3478.967927,1838.629195,9696.697840
1081.943546,2812.782580,1302.362347,10288.862594
1081.943875,2442.679609,766.095498,10658.965565
1081.944205,1480.411884,766.095498,10362.883188
1081.944534,1184.329507,383.047749,10881.027347
1081.944864,1480.411884,0.000000,10362.883188
1081.945193,1702.473667,-689.485948,9696.697840
1081.945523,2664.741391,0.000000,8734.430116
1081.945852,3849.070898,-306.438199,8808.450710
1081.946181,4441.235652,689.485948,9104.533087
1081.946511,4293.194464,2068.457845,9252.574275
1081.946840,3627.009116,2834.553343,9770.718434
1081.947170,2442.679609,3064.381992,9992.780217
1081.947499,814.226536,2987.772442,10807.006753
1081.947829,-1184.329507,2451.505594,10436.903782
1081.948158,-1924.535449,1149.143247,9252.574275
1081.948488,-1406.391290,-229.828649,8290.306550
1081.948817,444.123565,-1225.752797,7179.997637
1081.949146,2072.576638,-1225.752797,6513.812290
1081.949476,3552.988522,-995.924147,6513.812290
1081.949805,4293.194464,306.438199,7328.038826
1081.950135,3552.988522,2451.505594,8956.491898
1081.950464,2220.617826,4443.353888,11103.089130
1081.950794,888.247130,4826.401637,12435.459826
1081.951123,-296.082377,3447.429741,13175.665768
1081.951453,-1184.329507,2221.676944,12805.562797
1081.951782,-2294.638420,0.000000,11769.274478
1081.952111,-1924.535449,-1608.800546,10362.883188
1081.952441,-888.247130,-2757.943793,9030.512492
1081.952770,740.205942,-2681.334243,8068.244768
1081.953100,2294.638420,-2298.286494,7402.059420
1081.953429,3404.947333,-1149.143247,7179.997637
1081.953759,4515.256246,306.438199,7254.018232
1081.954088,4663.297435,1915.238745,7920.203579
1081.954417,4219.173869,3524.039291,9178.553681
1081.954747,3552.988522,3907.087040,10288.862594
1081.955076,3256.906145,3524.039291,11325.150913
1081.955406,2516.700203,2604.724693,11843.295072
1081.955735,1628.453072,1072.533697,11769.274478
1081.956065,1110.308913,-76.609550,11103.089130
1081.956394,74.020594,-995.924147,10658.965565
1081.956724,-222.061783,-1302.362347,10732.986159
1081.957053,148.041188,-1225.752797,10658.965565
1081.957382,444.123565,-383.047749,10066.800811
1081.957712,740.205942,306.438199,8956.491898
1081.958041,2146.597232,612.876398,7846.182985
1081.958371,3034.844362,383.047749,7772.162391
1081.958700,3923.091493,842.705048,8142.265362
1081.959030,4293.194464,612.876398,7846.182985
1081.959359,3997.112087,766.095498,8290.306550
1081.959689,3182.885551,1455.581446,9030.512492
1081.960018,2072.576638,1149.143247,10362.883188
1081.960347,740.205942,1838.629195,10955.047942
1081.960677,370.102971,1991.848295,11473.192101
1081.961006,296.082377,1762.019645,11029.068536
1081.961336,1110.308913,1838.629195,10436.903782
1081.961665,1702.473667,1685.410096,9548.656652
1081.961995,2812.782580,919.314598,8068.244768
1081.962324,3775.050304,383.047749,7254.018232
1081.962654,3997.112087,536.266849,7772.162391
1081.962983,3701.029710,1302.362347,8364.327145
1081.963312,2368.659014,1685.410096,9178.553681
1081.963642,814.226536,1149.143247,9474.636058
1081.963971,-222.061783,1072.533697,10214.842000
1081.964301,-296.082377,995.924147,11399.171507
1081.964630,-444.123565,306.438199,11843.295072
1081.964960,-1258.350101,153.219100,11251.130318
1081.965289,-1258.350101,383.047749,10362.883188
1081.965619,-222.061783,153.219100,9622.677246
1081.965948,1480.411884,459.657299,9104.533087
1081.966277,3330.926739,1378.971896,8216.285956
1081.966607,5477.523971,2451.505594,7402.059420
1081.966936,7994.224174,2604.724693,7920.203579
1081.967266,7920.203579,3064.381992,8586.388927
1081.967595,6661.853478,3983.696590,9770.718434
1081.967925,4737.318029,4749.792088,10955.047942
1081.968254,2442.679609,3217.601092,12139.377449
1081.968584,-296.082377,1838.629195,13841.851115
1081.968913,-3775.050304,612.876398,13619.789333
1081.969242,-6513.812290,-995.924147,12065.356855
1081.969572,-6957.935855,-2451.505594,10510.924376
1081.969901,-5551.544565,-2451.505594,7624.121203
1081.970231,-1036.288319,-2374.896044,4515.256246
1081.970560,4441.235652,-4290.134789,2220.617826
1081.970890,9178.553681,-3140.991542,1924.535449
1081.971219,10732.986159,1378.971896,3775.050304
1081.971549,9696.697840,5286.058936,6957.935855
1081.971878,7698.141797,8120.612279,10955.047942
1081.972207,4959.379811,9806.022374,13545.768739
1081.972537,666.185348,9039.926876,15100.201217
1081.972866,-2590.720797,3524.039291,16358.551318
1081.973196,-5107.421000,-842.705048,16580.613101
1081.973525,-6809.894666,-2451.505594,14285.974681
1081.973855,-6439.791695,-4749.792088,10807.006753
1081.974184,-2664.741391,-7277.907231,8512.368333
1081.974514,2072.576638,-7354.516781,5773.606348
1081.974843,6513.812290,-4903.011187,2146.597232
1081.975172,11399.171507,-2604.724693,2220.617826
1081.975502,13323.706956,1455.581446,5033.400406
1081.975831,10732.986159,7048.078582,9252.574275
1081.976161,5181.441594,9039.926876,12139.377449
1081.976490,-222.061783,8580.269578,14508.036463
1081.976820,-3108.864956,6511.811733,15692.365970
1081.977149,-2886.803174,2451.505594,15100.201217
1081.977479,-1924.535449,-2298.286494,12287.418637
1081.977808,-962.267725,-6128.763984,7550.100608
1081.978137,1554.432478,-8197.221829,4441.235652
1081.978467,3627.009116,-7890.783629,4885.359217
1081.978796,3775.050304,-2374.896044,7624.121203
1081.979126,1998.556043,2298.286494,8364.327145
1081.979455,1036.288319,4903.011187,9696.697840
1081.979785,2368.659014,6588.421283,11325.150913
1081.980114,3330.926739,4903.011187,12361.439231
1081.980444,3108.864956,2298.286494,12509.480420
1081.980773,1110.308913,-306.438199,11695.253884
1081.981102,-888.247130,-1302.362347,11621.233289
1081.981432,-2886.803174,-1685.410096,11991.336260
1081.981761,-3478.967927,-1685.410096,9770.718434
1081.982091,-1184.329507,-2987.772442,5551.544565
1081.982420,3478.967927,-4673.182538,3404.947333
1081.982750,8290.306550,-3447.429741,4589.276840
1081.983079,10584.944971,1532.190996,6513.812290
1081.983409,9844.739029,4979.620737,7846.182985
1081.983738,7031.956449,6741.640382,9992.780217
1081.984067,2368.659014,9193.145976,12139.377449
1081.984397,-518.144159,9576.193725,14137.933492
1081.984726,-2590.720797,3753.867940,15840.407159
1081.985056,-3330.926739,-1072.533697,16358.551318
1081.985385,-5329.482782,-2757.943793,14211.954086
1081.985715,-6365.771101,-4903.011187,11177.109724
1081.986044,-5625.565159,-5898.935335,9178.553681
1081.986374,-4737.318029,-4749.792088,7624.121203
1081.986703,-2516.700203,-2221.676944,3849.070898
1081.987033,3108.864956,0.000000,2220.617826
1081.987362,9770.718434,1685.410096,3330.926739
1081.987692,12583.501014,3983.696590,4663.297435
1081.988021,11991.336260,6511.811733,6883.915261
1081.988351,9770.718434,8656.879127,9992.780217
1081.988680,6587.832884,10572.117872,13101.645173
1081.989010,2590.720797,10189.070123,14582.057057
1081.989339,0.000000,5822.325785,15618.345376
1081.989669,-296.082377,-612.876398,14656.077652
1081.989998,-666.185348,-3907.087040,13323.706956
1081.990328,-2294.638420,-3217.601092,11843.295072
1081.990657,-3182.885551,-3830.477490,10584.944971
1081.990987,-4515.256246,-1685.410096,7772.162391
1081.991316,-3627.009116,536.266849,4959.379811
1081.991646,0.000000,0.000000,2516.700203
1081.991975,6069.688724,459.657299,1480.411884
1081.992305,11103.089130,995.924147,2368.659014
1081.992634,10732.986159,1608.800546,4885.359217
1081.992964,5847.626942,3600.648841,7994.224174
1081.993293,888.247130,6971.469032,10732.986159
1081.993623,814.226536,6665.030833,13323.706956
1081.993952,962.267725,2604.724693,15544.324782
1081.994282,-1184.329507,-383.047749,16802.674883
1081.994611,-2960.823768,-3140.991542,15026.180623
1081.994941,-4885.359217,-5822.325785,11843.295072
1081.995270,-7031.956449,-4443.353888,10881.027347
1081.995600,-7105.977043,-1149.143247,10584.944971
1081.995929,-2146.597232,-612.876398,7772.162391
1081.996259,4811.338623,-3140.991542,5625.565159
1081.996588,8660.409521,-4136.915689,5625.565159
1081.996918,7772.162391,1302.362347,5921.647536
1081.997247,5329.482782,4979.620737,6809.894666
1081.997577,3404.947333,4443.353888,11399.171507
1081.997906,1776.494261,7890.783629,15470.304188
1081.998236,-1480.411884,8044.002729,17616.901420
1081.998565,-4441.235652,2145.067394,16580.613101
1081.998895,-7550.100608,-1149.143247,11325.150913
1081.999224,-8660.409521,-2834.553343,7624.121203
1081.999554,-5625.565159,-5822.325785,8660.409521
1081.999883,-2368.659014,-6588.421283,8734.430116
1082.000213,-1628.453072,-3983.696590,5847.626942
1082.000542,-1850.514855,-2528.115143,5033.400406
1082.000872,-740.205942,-306.438199,5847.626942
1082.001201,1850.514855,5745.716235,7550.100608
1082.001531,5107.421000,5669.106685,9992.780217
1082.001860,6069.688724,5669.106685,11325.150913
1082.002190,3404.947333,8427.050478,12435.459826
1082.002519,666.185348,6665.030833,12879.583391
1082.002849,-2664.741391,3830.477490,10732.986159
1082.003178,-5921.647536,1838.629195,8808.450710
1082.003508,-4589.276840,0.000000,8290.306550
1082.003838,-1702.473667,-4366.744339,8068.244768
1082.004167,0.000000,-5056.230287,6291.750507
1082.004497,0.000000,-4443.353888,3108.864956
1082.004826,370.102971,-2987.772442,3182.885551
1082.005156,2294.638420,1762.019645,5995.668130
1082.005485,3701.029710,3600.648841,9474.636058
1082.005815,4145.153275,5056.230287,13249.686362
1082.006144,1776.494261,8197.221829,14211.954086
1082.006474,-1850.514855,6588.421283,13693.809927
1082.006803,-4811.338623,2528.115143,13101.645173
1082.007133,-5773.606348,1378.971896,12287.418637
1082.007462,-6217.729913,689.485948,10732.986159
1082.007792,-5255.462188,-3217.601092,8438.347739
1082.008121,-4293.194464,-7124.688131,7846.182985
1082.008451,-2590.720797,-5056.230287,6365.771101
1082.008780,0.000000,-1455.581446,4441.235652
1082.009110,2590.720797,306.438199,5329.482782
1082.009439,4663.297435,2374.896044,8438.347739
1082.009769,4145.153275,4979.620737,13323.706956
1082.010098,888.247130,6741.640382,16284.530724
1082.010428,-4145.153275,8197.221829,16358.551318
1082.010757,-6587.832884,8044.002729,14434.015869
1082.011087,-5477.523971,2604.724693,13471.748144
1082.011416,-1998.556043,-4366.744339,12139.377449
1082.011746,-740.205942,-7354.516781,8808.450710
1082.012075,-1332.370696,-7277.907231,3849.070898
1082.012405,0.000000,-5209.449386,2886.803174
1082.012734,3849.070898,-1302.362347,5995.668130
1082.013064,5107.421000,2298.286494,8216.285956
1082.013393,4367.215058,3907.087040,8660.409521
1082.013723,1776.494261,7431.126331,10066.800811
1082.014052,74.020594,10495.508323,11177.109724
1082.014382,-2368.659014,8810.098227,11399.171507
1082.014711,-5551.544565,2834.553343,12139.377449
1082.015041,-7031.956449,-1302.362347,11473.192101
1082.015370,-6587.832884,-3830.477490,8660.409521
1082.015700,-4515.256246,-7124.688131,5699.585753
1082.016029,-2368.659014,-9269.755526,3775.050304
1082.016359,-740.205942,-6741.640382,3478.967927
1082.016688,2960.823768,-2528.115143,5255.462188
1082.017018,6809.894666,229.828649,8512.368333
1082.017347,6439.791695,6052.154434,10881.027347
1082.017677,2368.659014,9729.412825,10362.883188
1082.018006,-1110.308913,8427.050478,11843.295072
1082.018336,-2368.659014,5745.716235,14582.057057
1082.018665,-3034.844362,3907.087040,15396.283594
1082.018995,-4071.132681,306.438199,13693.809927
1082.019324,-5847.626942,-4673.182538,10658.965565
1082.019654,-5625.565159,-8273.831378,7254.018232
1082.019983,-2664.741391,-9422.974625,5921.647536
1082.020313,1036.288319,-7124.688131,7105.977043
1082.020642,3701.029710,-1225.752797,7179.997637
1082.020972,4293.194464,2451.505594,7920.203579
1082.021301,2442.679609,5132.839837,11029.068536
1082.021631,0.000000,8580.269578,13693.809927
1082.021960,-3404.947333,9116.536426,15988.448347
1082.022290,-5699.585753,7814.174080,16358.551318
1082.022619,-7550.100608,5362.668486,14804.118840
1082.022949,-6883.915261,306.438199,12435.459826
1082.023278,-4885.359217,-5515.887586,8438.347739
1082.023608,-1998.556043,-8963.317327,3701.029710
1082.023937,518.144159,-6894.859482,2072.576638
1082.024267,2738.761985,-2068.457845,2812.782580
1082.024596,4589.276840,1149.143247,6809.894666
1082.024926,4737.318029,3830.477490,9622.677246
1082.025255,1258.350101,8656.879127,10955.047942
1082.025585,-1998.556043,12104.308868,11695.253884
1082.025914,-2886.803174,11108.384721,13101.645173
1082.026244,-1850.514855,7124.688131,12361.439231
1082.026573,-1702.473667,153.219100,10881.027347
1082.026903,-2664.741391,-4903.011187,8660.409521
1082.027232,-3701.029710,-5439.278036,5181.441594
1082.027562,-2294.638420,-5515.887586,3552.988522
1082.027891,1406.391290,-4213.525239,4663.297435
1082.028221,4515.256246,-2757.943793,5773.606348
1082.028550,4737.318029,0.000000,6365.771101
1082.028880,2960.823768,3370.820191,7402.059420
1082.029209,296.082377,8273.831378,9474.636058
1082.029539,-2368.659014,10342.289223,13545.768739
1082.029868,-6069.688724,7277.907231,14878.139434
1082.030198,-7031.956449,3217.601092,14730.098246
1082.030527,-4811.338623,-1762.019645,12139.377449
1082.030857,-3182.885551,-6358.592633,8808.450710
1082.031186,-2886.803174,-8886.707777,5403.503377
1082.031516,-962.267725,-8273.831378,6661.853478
1082.031845,2294.638420,-5286.058936,8364.327145
1082.032175,4145.153275,-536.266849,9770.718434
1082.032504,3923.091493,3294.210641,11251.130318
1082.032834,1850.514855,6435.202183,12953.603985
1082.033163,-444.123565,6588.421283,14730.098246
1082.033493,-2368.659014,7277.907231,16284.530724
1082.033822,-3256.906145,6205.373534,15914.427753
1082.034152,-2886.803174,2068.457845,13693.809927
1082.034481,-2664.741391,-3217.601092,10214.842000
1082.034811,-2886.803174,-8886.707777,6513.812290
1082.035140,-3108.864956,-8886.707777,4959.379811
1082.035470,-1554.432478,-5209.449386,5995.668130
1082.035799,1702.473667,-995.924147,7550.100608
1082.036129,2590.720797,1762.019645,8734.430116
1082.036458,148.041188,3677.258390,8808.450710
1082.036788,-2072.576638,7201.297681,9474.636058
1082.037117,-1628.453072,8580.269578,11103.089130
1082.037447,-1332.370696,7814.174080,11843.295072
1082.037776,-2516.700203,4519.963438,10658.965565
1082.038106,-4145.153275,1072.533697,8734.430116
1082.038436,-3330.926739,-2145.067394,6513.812290
1082.038765,-1258.350101,-4903.011187,4293.194464
1082.039095,370.102971,-4673.182538,2886.803174
1082.039424,1332.370696,-1991.848295,3552.988522
1082.039754,2146.597232,76.609550,6217.729913
1082.040083,1998.556043,1915.238745,9844.739029
1082.040413,-814.226536,5745.716235,11769.274478
1082.040742,-5181.441594,9882.631924,11991.336260
1082.041072,-6587.832884,9422.974625,12731.542202
1082.041401,-5329.482782,3677.258390,12805.562797
1082.041731,-3034.844362,-306.438199,12139.377449
1082.042060,-3256.906145,-3677.258390,8216.285956
1082.042390,-3478.967927,-6818.249932,5699.585753
1082.042719,-962.267725,-6435.202183,6069.688724
1082.043049,1110.308913,-3217.601092,8142.265362
1082.043378,2812.782580,306.438199,9474.636058
1082.043708,2886.803174,1838.629195,10807.006753
1082.044037,1702.473667,4826.401637,11843.295072
1082.044367,-888.247130,7354.516781,13841.851115
1082.044696,-2812.782580,7431.126331,16580.613101
1082.045026,-4145.153275,7124.688131,17098.757260
1082.045355,-5107.421000,3447.429741,14137.933492
1082.045685,-4663.297435,-1532.190996,11325.150913
1082.046014,-3404.947333,-4903.011187,7698.141797
1082.046344,-1480.411884,-6281.983084,5477.523971
1082.046673,1036.288319,-5669.106685,5255.462188
1082.047003,3478.967927,-1838.629195,5995.668130
1082.047332,3997.112087,1991.848295,8586.388927
1082.047662,1184.329507,4290.134789,10066.800811
1082.047991,-1702.473667,6665.030833,10881.027347
1082.048321,-2960.823768,9039.926876,11473.192101
1082.048650,-3182.885551,8350.440928,12213.398043
1082.048980,-2664.741391,5209.449386,11251.130318
1082.049309,-1702.473667,0.000000,9030.512492
1082.049639,-1036.288319,-4290.134789,5403.503377
1082.049968,-444.123565,-6435.202183,3108.864956
1082.050298,592.164754,-5132.839837,4145.153275
1082.050627,2738.761985,-1532.190996,5699.585753
1082.050957,4293.194464,1149.143247,7254.018232
1082.051286,4071.132681,3217.601092,8364.327145
1082.051616,518.144159,6435.202183,8364.327145
1082.051945,-2146.597232,7354.516781,10066.800811
1082.052275,-2590.720797,6511.811733,12953.603985
1082.052604,-4737.318029,4903.011187,13619.789333
1082.052934,-6143.709319,995.924147,12287.418637
1082.053263,-6809.894666,-3524.039291,9030.512492
1082.053593,-5107.421000,-7354.516781,6439.791695
1082.053922,-1258.350101,-8733.488677,6291.750507
1082.054252,1998.556043,-6128.763984,7254.018232
1082.054581,3701.029710,-2145.067394,7402.059420
1082.054911,3923.091493,766.095498,9104.533087
1082.055240,2664.741391,1915.238745,12435.459826
1082.055570,-444.123565,7277.907231,14804.118840
1082.055899,-2960.823768,9652.803275,17172.777854
1082.056229,-3923.091493,6665.030833,16728.654289
1082.056558,-3182.885551,3140.991542,15470.304188
1082.056888,-2146.597232,-1915.238745,12583.501014
1082.057217,-2294.638420,-6971.469032,8290.306550
1082.057547,-2738.761985,-8503.660028,6439.791695
1082.057876,-1702.473667,-4443.353888,6661.853478
1082.058206,1258.350101,-1532.190996,7031.956449
1082.058535,4293.194464,-153.219100,8216.285956
1082.058865,2886.803174,1915.238745,10436.903782
1082.059194,-370.102971,6128.763984,10214.842000
1082.059524,-2368.659014,9193.145976,9474.636058
1082.059853,-2220.617826,6741.640382,11029.068536
1082.060183,-2664.741391,3983.696590,11917.315666
1082.060512,-4293.194464,3064.381992,10881.027347
1082.060842,-3701.029710,-2374.896044,7772.162391
1082.061171,-1702.473667,-6205.373534,4589.276840
1082.061501,-444.123565,-3907.087040,3108.864956
1082.061830,1776.494261,-919.314598,3775.050304
1082.062160,4515.256246,-1532.190996,5699.585753
1082.062489,4737.318029,2374.896044,7920.203579
1082.062819,1184.329507,7660.954980,8586.388927
1082.063148,-2368.659014,9193.145976,9178.553681
1082.063478,-4071.132681,8273.831378,10881.027347
1082.063807,-5255.462188,5898.935335,12583.501014
1082.064137,-5403.503377,2068.457845,12509.480420
1082.064466,-5403.503377,-1608.800546,9474.636058
1082.064796,-4737.318029,-5362.668486,6365.771101
1082.065125,-3108.864956,-8656.879127,4737.318029
1082.065455,-1036.288319,-6435.202183,6735.874072
1082.065784,1776.494261,-2374.896044,8290.306550
1082.066114,3997.112087,766.095498,10362.883188
1082.066443,2738.761985,3370.820191,11621.233289
1082.066773,-1036.288319,8120.612279,12361.439231
1082.067102,-2738.761985,8733.488677,14656.077652
1082.067432,-2294.638420,5822.325785,15840.407159
1082.067761,-2072.576638,3140.991542,15248.242405
1082.068091,-3701.029710,153.219100,13619.789333
1082.068420,-4515.256246,-3753.867940,10436.903782
1082.068750,-3182.885551,-7354.516781,8290.306550
1082.069079,-370.102971,-7277.907231,8216.285956
1082.069409,2072.576638,-2911.162892,8364.327145
1082.069738,3182.885551,1455.581446,8290.306550
1082.070068,3478.967927,2068.457845,9104.533087
1082.070397,592.164754,4136.915689,9622.677246
1082.070727,-1258.350101,8503.660028,10955.047942
1082.071056,-2960.823768,7967.393179,12287.418637
1082.071386,-4071.132681,5362.668486,12139.377449
1082.071715,-3997.112087,2221.676944,10955.047942
1082.072045,-3182.885551,-2757.943793,8068.244768
1082.072374,-2664.741391,-6205.373534,5033.400406
1082.072704,-1258.350101,-6205.373534,2886.803174
1082.073033,1258.350101,-2757.943793,3552.988522
1082.073363,4959.379811,-995.924147,6957.935855
1082.073693,4959.379811,3140.991542,9104.533087
1082.074022,814.226536,7507.735880,9622.677246
1082.074352,-1332.370696,9652.803275,8216.285956
1082.074681,-1554.432478,6358.592633,11547.212695
1082.075011,-2368.659014,4903.011187,13767.830521
1082.075340,-4663.297435,3447.429741,12065.356855
1082.075670,-4589.276840,-1149.143247,8586.388927
1082.075999,-3997.112087,-5669.106685,4811.338623
1082.076329,-2072.576638,-6818.249932,3034.844362
1082.076658,296.082377,-6741.640382,5255.462188
1082.076988,2812.782580,-3907.087040,7994.224174
1082.077317,3034.844362,1455.581446,10362.883188
1082.077647,888.247130,5515.887586,12361.439231
1082.077976,-1850.514855,7431.126331,12213.398043
1082.078306,-3256.906145,8427.050478,13027.624579
1082.078635,-3478.967927,5822.325785,14285.974681
1082.078965,-3627.009116,1302.362347,14211.954086
1082.079294,-4959.379811,-536.266849,12879.583391
1082.079624,-6291.750507,-3983.696590,11251.130318
1082.079953,-5033.400406,-6971.469032,8364.327145
1082.080283,-2738.761985,-8044.002729,7105.977043
1082.080612,1110.308913,-5056.230287,8438.347739
1082.080942,3775.050304,-612.876398,9844.739029
1082.081271,4737.318029,3677.258390,10807.006753
1082.081601,2812.782580,5515.887586,10362.883188
1082.081930,148.041188,7967.393179,10955.047942
1082.082260,-2294.638420,9269.755526,12657.521608
1082.082589,-2960.823768,7584.345430,13545.768739
1082.082919,-2664.741391,1302.362347,12731.542202
1082.083248,-3108.864956,-1838.629195,9104.533087
1082.083578,-3849.070898,-4136.915689,4663.297435
1082.083907,-1480.411884,-7967.393179,2886.803174
1082.084237,1998.556043,-6052.154434,4589.276840
1082.084566,4293.194464,-1225.752797,6291.750507
1082.084896,4071.132681,3600.648841,7698.141797
1082.085225,1850.514855,6894.859482,8364.327145
1082.085555,0.000000,8733.488677,8068.244768
1082.085884,-370.102971,8273.831378,10510.924376
1082.086214,-2812.782580,5132.839837,13101.645173
1082.086543,-5181.441594,3983.696590,12879.583391
1082.086873,-6365.771101,1072.533697,10066.800811
1082.087202,-5773.606348,-4596.572988,7402.059420
1082.087532,-3849.070898,-6894.859482,4885.359217
1082.087863,-1480.411884,-7507.735880,3775.050304
1082.088193,2146.597232,-5592.497135,4589.276840
1082.088523,4959.379811,-1149.143247,8068.244768
1082.088852,3849.070898,4443.353888,11177.109724
1082.089182,74.020594,8733.488677,11177.109724
1082.089511,-2442.679609,8656.879127,11547.212695
1082.089841,-3775.050304,6205.373534,14211.954086
1082.090171,-3701.029710,4979.620737,16062.468941
1082.090500,-4145.153275,1302.362347,14730.098246
1082.090830,-4589.276840,-3830.477490,11251.130318
1082.091159,-4293.194464,-7890.783629,7994.224174
1082.091489,-2516.700203,-7584.345430,7402.059420
1082.091819,296.082377,-5286.058936,8512.368333
1082.092148,2960.823768,-2604.724693,9548.656652
1082.092478,3478.967927,2911.162892,12065.356855
1082.092807,1776.494261,7737.564530,12361.439231
1082.093137,0.000000,9346.365076,11103.089130
1082.093467,-1702.473667,7354.516781,11473.192101
1082.093796,-2960.823768,6052.154434,12731.542202
1082.094126,-3849.070898,3140.991542,12657.521608
1082.094455,-4663.297435,-306.438199,10955.047942
1082.094785,-5181.441594,-4060.306139,6809.894666
1082.095115,-4441.235652,-6894.859482,3627.009116
1082.095444,-370.102971,-6665.030833,4219.173869
1082.095774,3701.029710,-2987.772442,7031.956449
1082.096103,5107.421000,2987.772442,8290.306550
1082.096433,3330.926739,6741.640382,7179.997637
1082.096763,1184.329507,7814.174080,7105.977043
1082.097092,518.144159,7354.516781,10436.903782
1082.097422,-1850.514855,7584.345430,13989.892304
1082.097751,-3330.926739,6818.249932,13693.809927
1082.098081,-2812.782580,2451.505594,10362.883188
1082.098411,-2146.597232,-3064.381992,6143.709319
1082.098740,-2072.576638,-6971.469032,2516.700203
1082.099070,0.000000,-8656.879127,2738.761985
1082.099399,3330.926739,-5898.935335,4885.359217
1082.099729,4367.215058,0.000000,7920.203579
1082.100059,3182.885551,6128.763984,10807.006753
1082.100388,-148.041188,7354.516781,11399.171507
1082.100718,-2516.700203,5898.935335,11843.295072
1082.101048,-5255.462188,4903.011187,14063.912898
1082.101377,-7105.977043,5975.544884,15692.365970
1082.101707,-7254.018232,2528.115143,13767.830521
1082.102036,-5773.606348,-4903.011187,10510.924376
1082.102366,-4737.318029,-9576.193725,6291.750507
1082.102696,-3997.112087,-10189.070123,4367.215058
1082.103025,0.000000,-7660.954980,7031.956449
1082.103355,4219.173869,-2911.162892,10436.903782
1082.103684,5773.606348,2834.553343,12583.501014
1082.104014,2960.823768,7354.516781,13027.624579
1082.104344,592.164754,10418.898773,12435.459826
1082.104673,0.000000,8427.050478,13101.645173
1082.105003,-370.102971,6818.249932,13471.748144
1082.105332,-2368.659014,3370.820191,13397.727550
1082.105662,-3182.885551,-306.438199,13323.706956
1082.105992,-4071.132681,-4903.011187,10732.986159
1082.106321,-4737.318029,-7507.735880,5995.668130
1082.106651,-3108.864956,-6511.811733,4071.132681
1082.106980,740.205942,-5515.887586,4959.379811
1082.107310,4589.276840,-1225.752797,6957.935855
1082.107640,4811.338623,2757.943793,7698.141797
1082.107969,2590.720797,5592.497135,8808.450710
1082.108299,0.000000,8503.660028,10436.903782
1082.108628,-2590.720797,9039.926876,13101.645173
1082.108958,-3849.070898,7890.783629,12435.459826
1082.109288,-2664.741391,3983.696590,10140.821405
1082.109617,-1480.411884,-1991.848295,6957.935855
1082.109947,-1554.432478,-5822.325785,2368.659014
1082.110276,-1036.288319,-7737.564530,1036.288319
1082.110606,2146.597232,-5669.106685,3923.091493
1082.110936,2886.803174,-842.705048,8142.265362
1082.111265,1702.473667,4366.744339,10288.862594
1082.111595,-1554.432478,7048.078582,10584.944971
1082.111924,-2220.617826,7124.688131,9548.656652
1082.112254,-2368.659014,5975.544884,12805.562797
1082.112584,-3627.009116,4596.572988,14656.077652
1082.112913,-5699.585753,2604.724693,13323.706956
1082.113243,-5847.626942,-1685.410096,10140.821405
1082.113572,-5403.503377,-5439.278036,7920.203579
1082.113902,-3775.050304,-6435.202183,5033.400406
1082.114232,-370.102971,-8427.050478,5773.606348
1082.114561,3182.885551,-5822.325785,8586.388927
1082.114891,3923.091493,1455.581446,11843.295072
1082.115221,2294.638420,6588.421283,13545.768739
1082.115550,222.061783,7967.393179,12805.562797
1082.115880,-592.164754,8197.221829,13175.665768
1082.116209,-1776.494261,7507.735880,14656.077652
1082.116539,-2664.741391,5439.278036,14952.160028
1082.116869,-3552.988522,1915.238745,13323.706956
1082.117198,-4515.256246,-2298.286494,9992.780217
1082.117528,-4145.153275,-6818.249932,7179.997637
1082.117857,-2072.576638,-7431.126331,6957.935855
1082.118187,222.061783,-4903.011187,6883.915261
1082.118517,1850.514855,-1685.410096,6587.832884
1082.118846,2220.617826,2298.286494,7105.977043
1082.119176,2072.576638,3294.210641,10140.821405
1082.119505,0.000000,5439.278036,12213.398043
1082.119835,-2072.576638,8273.831378,13027.624579
1082.120165,-3478.967927,8120.612279,11547.212695
1082.120494,-2664.741391,4596.572988,9178.553681
1082.120824,-1036.288319,-766.095498,5773.606348
1082.121153,-444.123565,-5132.839837,3034.844362
1082.121483,1480.411884,-7814.174080,2368.659014
1082.121813,3108.864956,-4136.915689,4441.235652
1082.122142,3404.947333,1302.362347,5403.503377
1082.122472,1776.494261,2374.896044,7105.977043
1082.122801,-814.226536,3140.991542,8660.409521
1082.123131,-2590.720797,6128.763984,10658.965565
1082.123461,-3256.906145,6511.811733,13767.830521
1082.123790,-4663.297435,4290.134789,15766.386565
1082.124120,-6587.832884,2374.896044,15174.221811
1082.124449,-6217.729913,-689.485948,11473.192101
1082.124779,-4589.276840,-5975.544884,6809.894666
1082.125109,-1702.473667,-8810.098227,3701.029710
1082.125438,1702.473667,-6588.421283,4071.132681
1082.125768,4737.318029,-3983.696590,7254.018232
1082.126097,5995.668130,-1225.752797,11103.089130
1082.126427,4737.318029,3907.087040,13323.706956
1082.126757,1110.308913,8044.002729,12583.501014
1082.127086,-814.226536,8350.440928,12509.480420
1082.127416,-1480.411884,5515.887586,17246.798449
1082.127745,-1850.514855,4136.915689,19023.292709
1082.128075,-3404.947333,1302.362347,15840.407159
1082.128405,-4737.318029,-2757.943793,10584.944971
1082.128734,-5033.400406,-4903.011187,6661.853478
1082.129064,-2886.803174,-6358.592633,5921.647536
1082.129394,444.123565,-6052.154434,5921.647536
1082.129723,3182.885551,-2681.334243,6291.750507
1082.130053,3182.885551,2604.724693,7550.100608
1082.130382,1998.556043,7354.516781,9178.553681
1082.130712,-370.102971,7354.516781,10510.924376
1082.131042,-2368.659014,7354.516781,12657.521608
1082.131371,-3701.029710,7814.174080,13397.727550
1082.131701,-3997.112087,5132.839837,11843.295072
1082.132030,-2590.720797,1608.800546,8808.450710
1082.132360,-2516.700203,-3447.429741,5551.544565
1082.132690,-1702.473667,-5822.325785,1628.453072
1082.133019,814.226536,-6052.154434,1258.350101
1082.133349,3552.988522,-2604.724693,2664.741391
1082.133678,4071.132681,2604.724693,6513.812290
1082.134008,1998.556043,5439.278036,9844.739029
1082.134338,-1406.391290,7354.516781,10510.924376
1082.134667,-3552.988522,9269.755526,10510.924376
1082.134997,-4145.153275,5898.935335,13101.645173
1082.135326,-4145.153275,3983.696590,14211.954086
1082.135656,-5477.523971,1455.581446,11991.336260
1082.135986,-5329.482782,-3370.820191,8142.265362
1082.136315,-4811.338623,-6818.249932,4071.132681
1082.136645,-1850.514855,-7354.516781,3552.988522
1082.136974,2294.638420,-5362.668486,5921.647536
1082.137304,3404.947333,-2987.772442,9844.739029
1082.137634,2590.720797,2451.505594,12287.418637
1082.137963,740.205942,6741.640382,13249.686362
1082.138293,-888.247130,8733.488677,13101.645173
1082.138622,-2220.617826,8197.221829,14063.912898
1082.138952,-2960.823768,4443.353888,16432.571912
1082.139282,-2516.700203,536.266849,16728.654289
1082.139611,-2886.803174,76.609550,13841.851115
1082.139941,-4145.153275,-3830.477490,9474.636058
1082.140270,-3182.885551,-7737.564530,6217.729913
1082.140600,-740.205942,-7737.564530,6513.812290
1082.140930,2442.679609,-3753.867940,7328.038826
1082.141259,4737.318029,0.000000,7994.224174
1082.141589,3552.988522,2834.553343,9326.594869
1082.141918,666.185348,5898.935335,11177.109724
1082.142248,-1850.514855,7277.907231,13249.686362
1082.142578,-3627.009116,7814.174080,13545.768739
1082.142907,-4219.173869,6971.469032,11695.253884
1082.143237,-2664.741391,2145.067394,9252.574275
1082.143567,-962.267725,-2451.505594,6439.791695
1082.143896,-296.082377,-6205.373534,3034.844362
1082.144226,740.205942,-6435.202183,1924.535449
1082.144555,1776.494261,-2451.505594,2294.638420
1082.144885,1406.391290,1378.971896,4737.318029
1082.145215,-222.061783,3830.477490,8142.265362
1082.145544,-2368.659014,6128.763984,9770.718434
1082.145874,-3775.050304,7124.688131,9918.759623
1082.146203,-4515.256246,4673.182538,12213.398043
1082.146533,-5995.668130,3370.820191,13915.871710
1082.146863,-6439.791695,2987.772442,12435.459826
1082.147192,-4737.318029,-2604.724693,9252.574275
1082.147522,-2886.803174,-7124.688131,4959.379811
1082.147851,-1332.370696,-4213.525239,3256.906145
1082.148181,1924.535449,-4366.744339,5329.482782
1082.148511,5107.421000,-4366.744339,8882.471304
1082.148840,4589.276840,2374.896044,11621.233289
1082.149170,1628.453072,5975.544884,12213.398043
1082.149499,-666.185348,5592.497135,12287.418637
1082.149829,-2220.617826,6128.763984,15544.324782
1082.150159,-3404.947333,4826.401637,17987.004391
1082.150488,-3478.967927,1762.019645,17542.880825
1082.150818,-3034.844362,-306.438199,13101.645173
1082.151147,-2442.679609,-2757.943793,9474.636058
1082.151477,-1850.514855,-6588.421283,6513.812290
1082.151807,518.144159,-6818.249932,5773.606348
1082.152136,3775.050304,-3600.648841,6143.709319
1082.152466,6143.709319,0.000000,7476.080014
1082.152795,5181.441594,4290.134789,9622.677246
1082.153125,1406.391290,5822.325785,11695.253884
1082.153455,-1480.411884,5669.106685,13397.727550
1082.153784,-3404.947333,6435.202183,15174.221811
1082.154114,-4885.359217,6588.421283,13915.871710
1082.154443,-3404.947333,2987.772442,11473.192101
1082.154773,-1258.350101,-2451.505594,7846.182985
1082.155103,-296.082377,-5056.230287,3330.926739
1082.155432,1332.370696,-5898.935335,222.061783
1082.155762,4071.132681,-4060.306139,1406.391290
1082.156091,5699.585753,1532.190996,4885.359217
1082.156421,4663.297435,5515.887586,7846.182985
1082.156751,1110.308913,6971.469032,9104.533087
1082.157080,-1480.411884,7354.516781,9030.512492
1082.157410,-2812.782580,6205.373534,11695.253884
1082.157739,-4811.338623,4749.792088,14063.912898
1082.158069,-5921.647536,2987.772442,14137.933492
1082.158399,-5699.585753,-383.047749,10955.047942
1082.158728,-5403.503377,-4749.792088,6143.709319
1082.159058,-3256.906145,-5592.497135,2886.803174
1082.159388,444.123565,-5975.544884,3404.947333
1082.159717,3997.112087,-4903.011187,6735.874072
1082.160047,3997.112087,153.219100,9548.656652
1082.160376,1258.350101,5898.935335,11695.253884
1082.160706,-1628.453072,7584.345430,11769.274478
1082.161036,-3552.988522,7124.688131,13027.624579
1082.161365,-5107.421000,5209.449386,15174.221811
1082.161695,-5477.523971,3600.648841,15396.283594
1082.162024,-4663.297435,-842.705048,14211.954086
1082.162354,-4737.318029,-3983.696590,12065.356855
1082.162684,-5921.647536,-6281.983084,9474.636058
1082.163013,-4145.153275,-6588.421283,9104.533087
1082.163343,-222.061783,-4136.915689,8290.306550
1082.163672,3256.906145,-1532.190996,8808.450710
1082.164002,4441.235652,1915.238745,9770.718434
1082.164332,3108.864956,4903.011187,10955.047942
1082.164661,1110.308913,6435.202183,11325.150913
1082.164991,-2146.597232,7124.688131,12065.356855
1082.165320,-4515.256246,6358.592633,12435.459826
1082.165650,-3478.967927,3600.648841,12287.418637
1082.165980,-2294.638420,-306.438199,9992.780217
1082.166309,-2146.597232,-4903.011187,5403.503377
1082.166639,-222.061783,-6741.640382,2812.782580
1082.166968,2442.679609,-4290.134789,3034.844362
1082.167298,4589.276840,612.876398,4071.132681
1082.167628,3997.112087,3140.991542,5847.626942
1082.167957,2368.659014,5286.058936,8290.306550
1082.168287,0.000000,8197.221829,9474.636058
1082.168616,-1850.514855,7201.297681,11029.068536
1082.168946,-4959.379811,5209.449386,13693.809927
1082.169276,-6735.874072,3753.867940,13249.686362
1082.169605,-5551.544565,-536.266849,11917.315666
1082.169935,-4071.132681,-5209.449386,7846.182985
1082.170264,-2960.823768,-6052.154434,2960.823768
1082.170594,-444.123565,-6128.763984,1628.453072
1082.170924,4219.173869,-5056.230287,4293.194464
1082.171253,6957.935855,306.438199,7698.141797
1082.171583,5033.400406,5362.668486,10584.944971
1082.171912,1258.350101,7048.078582,10214.842000
1082.172242,-1702.473667,7890.783629,12139.377449
1082.172572,-3404.947333,6818.249932,16358.551318
1082.172901,-4293.194464,4443.353888,18061.024985
1082.173231,-4737.318029,919.314598,15396.283594
1082.173561,-4737.318029,-3983.696590,11325.150913
1082.173890,-3923.091493,-7660.954980,8142.265362
1082.174220,-2146.597232,-7814.174080,7550.100608
1082.174549,814.226536,-5745.716235,7772.162391
1082.174879,3330.926739,-2221.676944,9252.574275
1082.175209,3701.029710,3064.381992,11103.089130
1082.175538,2220.617826,7354.516781,11547.212695
1082.175868,518.144159,7814.174080,11621.233289
1082.176197,-1850.514855,5132.839837,13989.892304
1082.176527,-4737.318029,6205.373534,15470.304188
1082.176857,-5995.668130,4903.011187,13471.748144
1082.177186,-4441.235652,-306.438199,9474.636058
1082.177516,-3552.988522,-5132.839837,5477.523971
1082.177845,-2220.617826,-7431.126331,2664.741391
1082.178175,444.123565,-6971.469032,2516.700203
1082.178505,3627.009116,-2374.896044,3997.112087
1082.178834,5329.482782,2987.772442,6513.812290
1082.179164,4145.153275,7584.345430,9178.553681
1082.179493,740.205942,9346.365076,8364.327145
1082.179823,-740.205942,9499.584175,9622.677246
1082.180153,-2220.617826,6128.763984,13767.830521
1082.180482,-4219.173869,5362.668486,14434.015869
1082.180812,-5699.585753,3217.601092,11843.295072
1082.181141,-6365.771101,-2681.334243,8438.347739
1082.181471,-5625.565159,-6358.592633,4145.153275
1082.181801,-2812.782580,-7660.954980,2368.659014
1082.182130,1258.350101,-6281.983084,2960.823768
1082.182460,3627.009116,-1225.752797,4737.318029
1082.182789,2886.803174,3753.867940,7846.182985
1082.183119,518.144159,5592.497135,9918.759623
1082.183449,-1998.556043,7354.516781,11769.274478
1082.183778,-4737.318029,8503.660028,13841.851115
1082.184108,-5477.523971,6435.202183,15692.365970
1082.184437,-4737.318029,1608.800546,15470.304188
1082.184767,-3182.885551,-2298.286494,13767.830521
1082.185097,-3404.947333,-6052.154434,10362.883188
1082.185426,-2738.761985,-7967.393179,7179.997637
1082.185756,-296.082377,-6052.154434,6883.915261
1082.186085,3404.947333,-3140.991542,8956.491898
1082.186415,5551.544565,1685.410096,12583.501014
1082.186745,3627.009116,5209.449386,12583.501014
1082.187075,1406.391290,7354.516781,11325.150913
1082.187404,-666.185348,6435.202183,13101.645173
1082.187734,-2368.659014,5209.449386,15988.448347
1082.188064,-4293.194464,4366.744339,15618.345376
1082.188393,-4885.359217,153.219100,11695.253884
1082.188723,-3404.947333,-3677.258390,7550.100608
1082.189053,-2072.576638,-6435.202183,2960.823768
1082.189382,296.082377,-6052.154434,148.041188
1082.189712,3108.864956,-4979.620737,1480.411884
1082.190042,5107.421000,-1685.410096,6587.832884
1082.190372,3627.009116,6971.469032,10436.903782
1082.190701,-740.205942,11338.213370,10362.883188
1082.191031,-2664.741391,9806.022374,9474.636058
1082.191361,-4071.132681,5975.544884,12879.583391
1082.191690,-4367.215058,4290.134789,15100.201217
1082.192020,-4515.256246,1762.019645,13249.686362
1082.192350,-4737.318029,-1685.410096,8364.327145
1082.192679,-5255.462188,-4443.353888,3849.070898
1082.193009,-2812.782580,-8656.879127,1628.453072
1082.193339,1258.350101,-8044.002729,2516.700203
1082.193669,3775.050304,-3140.991542,3997.112087
1082.193998,3923.091493,2374.896044,6661.853478
1082.194328,2590.720797,6205.373534,9548.656652
1082.194658,518.144159,9039.926876,11399.171507
1082.194987,-2590.720797,8120.612279,13027.624579
1082.195317,-5773.606348,5592.497135,15322.262999
1082.195647,-5699.585753,4673.182538,16062.468941
1082.195977,-4663.297435,459.657299,13693.809927
1082.196306,-3701.029710,-4903.011187,10140.821405
1082.196636,-3330.926739,-8580.269578,7402.059420
1082.196966,-1184.329507,-9346.365076,7698.141797
1082.197295,1406.391290,-4519.963438,8956.491898
1082.197625,2886.803174,1072.533697,10584.944971
1082.197955,2590.720797,4903.011187,12657.521608
1082.198284,888.247130,6128.763984,12509.480420
1082.198614,-296.082377,5362.668486,14582.057057
1082.198944,-2220.617826,5898.935335,15174.221811
1082.199274,-3701.029710,5592.497135,14137.933492
1082.199603,-3182.885551,2451.505594,11843.295072
1082.199933,-1776.494261,-2681.334243,8956.491898
1082.200263,-1702.473667,-6052.154434,4589.276840
1082.200592,0.000000,-6281.983084,1776.494261
1082.200922,3182.885551,-4826.401637,3108.864956
1082.201252,5181.441594,-229.828649,6217.729913
1082.201582,3552.988522,5592.497135,9178.553681
1082.201911,888.247130,7431.126331,9622.677246
1082.202241,-740.205942,8350.440928,9770.718434
1082.202571,-2368.659014,7814.174080,13545.768739
1082.202900,-4515.256246,6894.859482,14211.954086
1082.203230,-5625.565159,4136.915689,12509.480420
1082.203560,-3775.050304,-1838.629195,9252.574275
1082.203889,-3108.864956,-5056.230287,5921.647536
1082.204219,-2368.659014,-6281.983084,888.247130
1082.204549,444.123565,-6435.202183,222.061783
1082.204879,3923.091493,-4979.620737,2960.823768
1082.205208,4663.297435,1608.800546,7698.141797
1082.205538,1850.514855,7124.688131,9696.697840
1082.205868,-1850.514855,8273.831378,9400.615463
1082.206197,-2738.761985,7354.516781,12065.356855
1082.206527,-4811.338623,5745.716235,16876.695478
1082.206857,-6735.874072,3447.429741,18061.024985
1082.207187,-7476.080014,-153.219100,14359.995275
1082.207516,-6809.894666,-3753.867940,8808.450710
1082.207846,-4219.173869,-7967.393179,5625.565159
1082.208176,74.020594,-9576.193725,6217.729913
1082.208505,3923.091493,-6281.983084,7254.018232
1082.208835,5847.626942,-2145.067394,8586.388927
1082.209165,4663.297435,3677.258390,10955.047942
1082.209494,2072.576638,9499.584175,12953.603985
1082.209824,370.102971,9116.536426,15174.221811
1082.210154,-1406.391290,4826.401637,18431.127956
1082.210484,-4219.173869,6128.763984,18505.148550
1082.210813,-5181.441594,4596.572988,14952.160028
1082.211143,-4293.194464,-1685.410096,9400.615463
1082.211473,-4145.153275,-7124.688131,3627.009116
1082.211802,-2590.720797,-9729.412825,1702.473667
1082.212132,1036.288319,-8427.050478,2368.659014
1082.212462,3923.091493,-3677.258390,4885.359217
1082.212792,2886.803174,3294.210641,7846.182985
1082.213121,0.000000,7967.393179,9696.697840
1082.213451,-1332.370696,8963.317327,9400.615463
1082.213781,-814.226536,7201.297681,12805.562797
1082.214110,-1924.535449,6281.983084,15248.242405
1082.214440,-3997.112087,7354.516781,13767.830521
1082.214770,-4219.173869,2834.553343,10288.862594
1082.215099,-3034.844362,-4060.306139,7772.162391
1082.215429,-2516.700203,-6205.373534,3775.050304
1082.215759,-888.247130,-6588.421283,740.205942
1082.216089,4145.153275,-5132.839837,1776.494261
1082.216418,6069.688724,-612.876398,5181.441594
1082.216748,4071.132681,5286.058936,7920.203579
1082.217078,-296.082377,5822.325785,9030.512492
1082.217407,-3330.926739,7124.688131,11103.089130
1082.217737,-5477.523971,8273.831378,15766.386565
1082.218067,-7402.059420,7507.735880,17616.901420
1082.218396,-7254.018232,2834.553343,14582.057057
1082.218726,-5699.585753,-3983.696590,9104.533087
1082.219056,-3849.070898,-9116.536426,5625.565159
1082.219386,-962.267725,-9039.926876,3775.050304
1082.219715,1110.308913,-6281.983084,5403.503377
1082.220045,3404.947333,-3217.601092,8660.409521
1082.220375,4145.153275,2451.505594,12361.439231
1082.220704,2294.638420,7507.735880,13693.809927
1082.221034,1332.370696,9039.926876,12731.542202
1082.221364,-222.061783,5515.887586,15026.180623
1082.221694,-2368.659014,5822.325785,18949.272115
1082.222023,-3997.112087,5286.058936,18431.127956
1082.222353,-4145.153275,383.047749,12805.562797
1082.222683,-3182.885551,-4749.792088,7254.018232
1082.223012,-2072.576638,-8120.612279,3256.906145
1082.223342,518.144159,-8580.269578,2664.741391
1082.223672,3404.947333,-6281.983084,3701.029710
1082.224001,4293.194464,-995.924147,6217.729913
1082.224331,2368.659014,5592.497135,9030.512492
1082.224661,-814.226536,8044.002729,10881.027347
1082.224991,-3182.885551,8810.098227,12509.480420
1082.225320,-4811.338623,7967.393179,14359.995275
1082.225650,-4515.256246,5975.544884,14508.036463
1082.225980,-2738.761985,3217.601092,11695.253884
1082.226309,-1776.494261,-1378.971896,7328.038826
1082.226639,-2960.823768,-6052.154434,2516.700203
1082.226969,-1998.556043,-8350.440928,296.082377
1082.227299,1628.453072,-5056.230287,2072.576638
1082.227628,4885.359217,-995.924147,5329.482782
1082.227958,4663.297435,3600.648841,8142.265362
1082.228288,1110.308913,7048.078582,9326.594869
1082.228617,-740.205942,6358.592633,11325.150913
1082.228947,-3330.926739,6205.373534,14952.160028
1082.229277,-7105.977043,7660.954980,17098.757260
1082.229606,-7994.224174,4903.011187,16506.592507
1082.229936,-6069.688724,-1455.581446,11473.192101
1082.230266,-4145.153275,-5745.716235,5477.523971
1082.230596,-1332.370696,-9039.926876,1406.391290
1082.230925,1998.556043,-9959.241474,1850.514855
1082.231255,5033.400406,-5975.544884,5699.585753
1082.231585,5255.462188,1762.019645,10436.903782
1082.231914,2664.741391,6588.421283,12953.603985
1082.232244,222.061783,8427.050478,14434.015869
1082.232574,-1110.308913,6741.640382,17542.880825
1082.232904,-3330.926739,8273.831378,18653.189738
1082.233233,-4737.318029,7507.735880,16580.613101
1082.233563,-3478.967927,919.314598,13471.748144
1082.233893,-2516.700203,-3524.039291,10288.862594
1082.234222,-3182.885551,-6665.030833,5403.503377
1082.234552,-1702.473667,-8963.317327,3701.029710
1082.234882,1036.288319,-6358.592633,3923.091493
1082.235211,3552.988522,-536.266849,4663.297435
1082.235541,4293.194464,2221.676944,7698.141797
1082.235871,2590.720797,3294.210641,10510.924376
1082.236201,-1110.308913,9422.974625,12139.377449
1082.236530,-4145.153275,10495.508323,14359.995275
1082.236860,-4219.173869,7201.297681,14878.139434
1082.237190,-3701.029710,4903.011187,13027.624579
1082.237519,-2516.700203,459.657299,8512.368333
1082.237849,-1184.329507,-6971.469032,4663.297435
1082.238179,444.123565,-7354.516781,1702.473667
1082.238509,2812.782580,-3907.087040,1924.535449
1082.238838,3997.112087,-1838.629195,2812.782580
1082.239168,3997.112087,1302.362347,5995.668130
1082.239498,1776.494261,5286.058936,9030.512492
1082.239827,-814.226536,7048.078582,11103.089130
1082.240157,-3330.926739,7507.735880,13693.809927
1082.240487,-6513.812290,7354.516781,14878.139434
1082.240816,-7698.141797,3983.696590,15840.407159
1082.241146,-6143.709319,-842.705048,13767.830521
1082.241476,-5255.462188,-4366.744339,8586.388927
1082.241806,-4811.338623,-7354.516781,2220.617826
1082.242135,-2072.576638,-8350.440928,1332.370696
1082.242465,2442.679609,-6818.249932,5403.503377
1082.242795,4737.318029,-1838.629195,10066.800811
1082.243124,2664.741391,4060.306139,11251.130318
1082.243454,-740.205942,6741.640382,11769.274478
1082.243784,-2590.720797,9959.241474,13249.686362
1082.244113,-3404.947333,7584.345430,16802.674883
1082.244443,-3404.947333,4596.572988,18505.148550
1082.244773,-2516.700203,1762.019645,15988.448347
1082.245103,-2146.597232,-2145.067394,11177.109724
1082.245432,-2220.617826,-5439.278036,7105.977043
1082.245762,-888.247130,-8503.660028,5329.482782
1082.246092,1628.453072,-7584.345430,5773.606348
1082.246421,4293.194464,-2911.162892,6513.812290
1082.246751,3997.112087,2604.724693,8142.265362
1082.247081,1628.453072,5592.497135,9844.739029
1082.247411,-592.164754,4979.620737,12139.377449
1082.247740,-2368.659014,6818.249932,14804.118840
1082.248070,-4885.359217,8963.317327,13841.851115
1082.248400,-4441.235652,5515.887586,12139.377449
1082.248729,-2072.576638,842.705048,9104.533087
1082.249059,-1258.350101,-3140.991542,5255.462188
1082.249389,0.000000,-6741.640382,2072.576638
1082.249718,1406.391290,-6128.763984,1554.432478
1082.250048,3404.947333,-995.924147,3034.844362
1082.250378,4589.276840,3294.210641,6661.853478
1082.250708,2886.803174,4366.744339,9844.739029
1082.251037,-296.082377,5132.839837,11177.109724
1082.251367,-3849.070898,6435.202183,12731.542202
1082.251697,-5699.585753,6358.592633,15988.448347
1082.252026,-6587.832884,6435.202183,15988.448347
1082.252356,-5477.523971,2757.943793,12509.480420
1082.252686,-3404.947333,-3217.601092,6291.750507
1082.253016,-1480.411884,-7431.126331,1184.329507
1082.253345,2294.638420,-7967.393179,148.041188
1082.253675,5329.482782,-4673.182538,4145.153275
1082.254005,5255.462188,383.047749,9474.636058
1082.254334,2294.638420,6588.421283,12287.418637
1082.254664,-592.164754,7584.345430,12287.418637
1082.254994,-2812.782580,7048.078582,11843.295072
1082.255323,-5033.400406,5362.668486,15544.324782
1082.255653,-6587.832884,3907.087040,18727.210333
1082.255983,-6809.894666,1455.581446,17098.757260
1082.256313,-5847.626942,-2221.676944,12509.480420
1082.256642,-5255.462188,-6281.983084,7994.224174
1082.256972,-2664.741391,-7354.516781,5033.400406
1082.257302,1702.473667,-7354.516781,4589.276840
1082.257631,5477.523971,-4136.915689,5329.482782
1082.257961,5995.668130,2298.286494,8290.306550
1082.258291,3404.947333,8044.002729,10140.821405
1082.258621,518.144159,8886.707777,11695.253884
1082.258950,-2220.617826,6052.154434,14211.954086
1082.259280,-5033.400406,7354.516781,15026.180623
1082.259610,-5181.441594,4903.011187,13693.809927
1082.259939,-2516.700203,-766.095498,10881.027347
1082.260269,-1998.556043,-4596.572988,6957.935855
1082.260599,-1406.391290,-7507.735880,3256.906145
1082.260928,888.247130,-6818.249932,2590.720797
1082.261258,3552.988522,-1991.848295,3330.926739
1082.261588,5699.585753,2604.724693,6217.729913
1082.261918,3849.070898,5975.544884,8660.409521
1082.262247,814.226536,7814.174080,10288.862594
1082.262577,-2368.659014,7584.345430,11547.212695
1082.262907,-4885.359217,5439.278036,14285.974681
1082.263236,-5921.647536,4903.011187,14582.057057
1082.263566,-5773.606348,1072.533697,12287.418637
1082.263896,-5403.503377,-5056.230287,7994.224174
1082.264225,-4737.318029,-7814.174080,2812.782580
1082.264555,-1258.350101,-7737.564530,1924.535449
1082.264885,3701.029710,-5745.716235,3627.009116
1082.265215,6439.791695,-919.314598,6513.812290
1082.265544,5107.421000,4136.915689,9474.636058
1082.265874,2590.720797,7354.516781,11547.212695
1082.266204,74.020594,8503.660028,13175.665768
1082.266533,-3034.844362,7737.564530,16876.695478
1082.266863,-4663.297435,7048.078582,18135.045579
1082.267193,-5181.441594,2834.553343,16358.551318
1082.267523,-2812.782580,-2374.896044,11991.336260
1082.267852,-2368.659014,-8044.002729,7402.059420
1082.268182,-1332.370696,-9499.584175,4959.379811
1082.268512,518.144159,-6052.154434,5847.626942
1082.268841,3108.864956,-2451.505594,7550.100608
1082.269171,4071.132681,3217.601092,9474.636058
1082.269501,2516.700203,6358.592633,10732.986159
1082.269830,962.267725,7431.126331,11399.171507
1082.270160,-1998.556043,7048.078582,13175.665768
1082.270490,-5255.462188,6588.421283,14730.098246
1082.270820,-6291.750507,4903.011187,13989.892304
1082.271149,-5625.565159,1532.190996,10881.027347
1082.271479,-5255.462188,-4213.525239,7254.018232
1082.271809,-4219.173869,-8120.612279,2664.741391
1082.272138,-1258.350101,-7354.516781,814.226536
1082.272468,3330.926739,-3830.477490,2738.761985
1082.272798,6513.812290,919.314598,6587.832884
1082.273128,4737.318029,6435.202183,9252.574275
1082.273457,962.267725,9422.974625,9326.594869
1082.273787,-518.144159,8350.440928,11621.233289
1082.274117,-3034.844362,7354.516781,14878.139434
1082.274446,-5699.585753,8120.612279,15396.283594
1082.274776,-5403.503377,2451.505594,13249.686362
1082.275106,-3849.070898,-2528.115143,8512.368333
1082.275435,-4071.132681,-5286.058936,2664.741391
1082.275765,-1110.308913,-10878.556072,592.164754
1082.276095,1628.453072,-8427.050478,2664.741391
1082.276425,3404.947333,-2145.067394,6217.729913
1082.276754,3627.009116,3907.087040,10214.842000
1082.277084,1628.453072,6358.592633,12287.418637
1082.277414,-1480.411884,8886.707777,11325.150913
1082.277743,-4959.379811,8044.002729,13397.727550
1082.278073,-5625.565159,5132.839837,16580.613101
1082.278403,-4737.318029,4060.306139,16136.489536
1082.278733,-3849.070898,-842.705048,12879.583391
1082.279062,-3701.029710,-7048.078582,8438.347739
1082.279392,-3478.967927,-8350.440928,4441.235652
1082.279722,-888.247130,-8197.221829,5033.400406
1082.280051,4145.153275,-5669.106685,7550.100608
1082.280381,6143.709319,1225.752797,10140.821405
1082.280711,4071.132681,6971.469032,11917.315666
1082.281040,2442.679609,7737.564530,12287.418637
1082.281370,666.185348,5439.278036,14804.118840
1082.281700,-2368.659014,7814.174080,16802.674883
1082.282030,-5329.482782,5898.935335,14656.077652
1082.282359,-3997.112087,1532.190996,12065.356855
1082.282689,-1702.473667,-2298.286494,9326.594869
1082.283019,-1258.350101,-8273.831378,3775.050304
1082.283348,-370.102971,-9269.755526,222.061783
1082.283678,2442.679609,-5898.935335,1480.411884
1082.284008,5329.482782,0.000000,4885.359217
1082.284338,4885.359217,5898.935335,9030.512492
1082.284667,2294.638420,7967.393179,10362.883188
1082.284997,0.000000,8580.269578,9770.718434
1082.285327,-2812.782580,7890.783629,12879.583391
1082.285656,-4145.153275,6205.373534,15470.304188
1082.285986,-3627.009116,3907.087040,14656.077652
1082.286316,-3627.009116,-995.924147,10288.862594
1082.286645,-4293.194464,-5898.935335,6069.688724
1082.286975,-3923.091493,-8886.707777,3034.844362
1082.287305,-962.267725,-7967.393179,2146.597232
1082.287635,4219.173869,-3830.477490,3256.906145
1082.287964,6735.874072,0.000000,7328.038826
1082.288294,4811.338623,5975.544884,10732.986159
1082.288624,1036.288319,7890.783629,11251.130318
1082.288953,-2590.720797,6894.859482,13027.624579
1082.289283,-6439.791695,9422.974625,15988.448347
1082.289612,-8882.471304,8120.612279,16802.674883
1082.289942,-7254.018232,612.876398,14952.160028
1082.290272,-5995.668130,-6128.763984,10288.862594
1082.290601,-6291.750507,-8733.488677,4885.359217
1082.290931,-4589.276840,-9806.022374,3701.029710
1082.291260,-1406.391290,-8656.879127,6735.874072
1082.291590,1332.370696,-1608.800546,9992.780217
1082.291919,1332.370696,5286.058936,11621.233289
1082.292249,1184.329507,7048.078582,10955.047942
1082.292579,1406.391290,9193.145976,10658.965565
1082.292908,-962.267725,9269.755526,12361.439231
1082.293238,-4071.132681,7660.954980,13471.748144
1082.293567,-6217.729913,3907.087040,14285.974681
1082.293897,-7254.018232,-229.828649,13397.727550
1082.294226,-9326.594869,-4366.744339,9548.656652
1082.294556,-9696.697840,-8350.440928,5181.441594
1082.294886,-5699.585753,-9652.803275,4145.153275
1082.295215,-1036.288319,-7048.078582,4737.318029
1082.295545,2516.700203,-1072.533697,5995.668130
1082.295874,3997.112087,5209.449386,7772.162391
1082.296204,2812.782580,8350.440928,8956.491898
1082.296534,518.144159,10725.336972,9400.615463
1082.296863,-2812.782580,9729.412825,13323.706956
1082.297193,-5921.647536,7354.516781,15396.283594
1082.297522,-8882.471304,7277.907231,13175.665768
1082.297852,-9770.718434,766.095498,8956.491898
1082.298181,-7920.203579,-7354.516781,4737.318029
1082.298511,-6291.750507,-11568.042020,3034.844362
1082.298841,-3775.050304,-10648.727422,3330.926739
1082.299170,-1628.453072,-5898.935335,4737.318029
1082.299500,-296.082377,1838.629195,7105.977043
1082.299829,1480.411884,8350.440928,8882.471304
1082.300159,2368.659014,8120.612279,9844.739029
1082.300488,666.185348,9193.145976,12065.356855
1082.300818,-4293.194464,11108.384721,12139.377449
1082.301148,-7105.977043,6052.154434,14211.954086
1082.301477,-8808.450710,1302.362347,15544.324782
1082.301807,-10807.006753,-1685.410096,13693.809927
1082.302136,-10732.986159,-7431.126331,8956.491898
1082.302466,-6587.832884,-12334.137518,4737.318029
1082.302796,-2072.576638,-12104.308868,4737.318029
1082.303125,222.061783,-7124.688131,6957.935855
1082.303455,740.205942,612.876398,9622.677246
1082.303784,1850.514855,7124.688131,12435.459826
1082.304114,2886.803174,12947.013916,14211.954086
1082.304443,814.226536,13942.938064,14804.118840
1082.304773,-1184.329507,10495.508323,13249.686362
1082.305103,-3923.091493,3064.381992,13323.706956
1082.305432,-7624.121203,-689.485948,13397.727550
1082.305762,-11547.212695,-612.876398,11991.336260
1082.306091,-12657.521608,-5669.106685,7772.162391
1082.306421,-10214.842000,-11568.042020,4145.153275
1082.306750,-6439.791695,-12487.356617,3108.864956
1082.307080,-1258.350101,-7737.564530,3627.009116
1082.307410,1998.556043,-1532.190996,4663.297435
1082.307739,1628.453072,5975.544884,7624.121203
1082.308069,-370.102971,13253.452115,11029.068536
1082.308398,-1332.370696,14862.252661,13841.851115
1082.308728,-2516.700203,12793.794817,14285.974681
1082.309057,-3108.864956,10112.460574,12435.459826
1082.309387,-4293.194464,3907.087040,9030.512492
1082.309717,-5329.482782,-2911.162892,7031.956449
1082.310046,-6365.771101,-8120.612279,6439.791695
1082.310376,-8586.388927,-10648.727422,6513.812290
1082.310705,-9918.759623,-7967.393179,6069.688724
1082.311035,-9326.594869,-3370.820191,6069.688724
1082.311365,-5773.606348,-766.095498,7624.121203
1082.311694,-2368.659014,1915.238745,9252.574275
1082.312024,0.000000,5362.668486,9326.594869
1082.312353,3034.844362,9269.755526,10066.800811
1082.312683,2220.617826,8886.707777,11325.150913
1082.313012,-1554.432478,7584.345430,12731.542202
1082.313342,-6217.729913,5669.106685,11843.295072
1082.313672,-9104.533087,459.657299,10881.027347
1082.314001,-9696.697840,-2757.943793,10362.883188
1082.314331,-8512.368333,-5209.449386,10214.842000
1082.314660,-7105.977043,-6818.249932,8956.491898
1082.314990,-4589.276840,-6894.859482,7254.018232
1082.315319,-2738.761985,-4979.620737,6661.853478
1082.315649,-1406.391290,383.047749,8290.306550
1082.315979,-962.267725,4903.011187,11843.295072
1082.316308,-2664.741391,9346.365076,13693.809927
1082.316638,-4663.297435,9652.803275,13693.809927
1082.316967,-5551.544565,6511.811733,12953.603985
1082.317297,-4589.276840,2757.943793,11769.274478
1082.317627,-3552.988522,-1225.752797,9548.656652
1082.317956,-4737.318029,-4749.792088,6513.812290
1082.318286,-4737.318029,-6588.421283,4811.338623
1082.318615,-3330.926739,-5898.935335,5921.647536
1082.318945,-1776.494261,-3140.991542,7698.141797
1082.319274,-2368.659014,306.438199,8882.471304
1082.319604,-3775.050304,3753.867940,9622.677246
1082.319934,-4145.153275,6435.202183,10658.965565
1082.320263,-3478.967927,7354.516781,11769.274478
1082.320593,-3034.844362,6281.983084,12435.459826
1082.320922,-3330.926739,3600.648841,10584.944971
1082.321252,-2738.761985,0.000000,8068.244768
1082.321581,-2294.638420,-2145.067394,7105.977043
1082.321911,-2220.617826,-3370.820191,7402.059420
1082.322241,-2294.638420,-3217.601092,7772.162391
1082.322570,-2960.823768,-1685.410096,8142.265362
1082.322900,-4367.215058,-536.266849,8734.430116
1082.323229,-5699.585753,2145.067394,10732.986159
1082.323559,-6735.874072,3753.867940,11843.295072
1082.323888,-6439.791695,4366.744339,11917.315666
1082.324218,-5699.585753,3677.258390,11029.068536
1082.324548,-4737.318029,2528.115143,9548.656652
1082.324877,-2368.659014,229.828649,7994.224174
1082.325207,-888.247130,-1838.629195,6957.935855
1082.325536,-444.123565,-1455.581446,6439.791695
1082.325866,-518.144159,-229.828649,7105.977043
1082.326196,-222.061783,1149.143247,8660.409521
1082.326525,-1480.411884,3064.381992,9622.677246
1082.326855,-3997.112087,3677.258390,10955.047942
1082.327184,-6661.853478,3830.477490,12731.542202
1082.327514,-8512.368333,3983.696590,13989.892304
1082.327843,-9992.780217,3217.601092,14211.954086
1082.328173,-10288.862594,1225.752797,12435.459826
1082.328503,-8882.471304,-995.924147,9622.677246
1082.328832,-5625.565159,-3294.210641,7254.018232
1082.329162,-1628.453072,-4673.182538,5699.585753
1082.329491,740.205942,-2834.553343,5255.462188
1082.329821,2294.638420,536.266849,6291.750507
1082.330150,1406.391290,2451.505594,7105.977043
1082.330480,-296.082377,4443.353888,9622.677246
1082.330810,-2738.761985,6435.202183,11251.130318
1082.331139,-4219.173869,5822.325785,12731.542202
1082.331469,-5921.647536,3064.381992,13323.706956
1082.331798,-8142.265362,1685.410096,12731.542202
1082.332128,-9474.636058,-306.438199,11251.130318
1082.332457,-8438.347739,-2604.724693,8734.430116
1082.332787,-5847.626942,-4060.306139,7105.977043
1082.333117,-2886.803174,-4213.525239,5773.606348
1082.333446,-592.164754,-2451.505594,5625.565159
1082.333776,148.041188,1225.752797,5921.647536
1082.334105,-370.102971,3983.696590,7254.018232
1082.334435,-1702.473667,5822.325785,9252.574275
1082.334765,-3330.926739,6894.859482,10807.006753
1082.335094,-5847.626942,5515.887586,11769.274478
1082.335424,-8142.265362,2451.505594,12657.521608
1082.335753,-10362.883188,-612.876398,12213.398043
1082.336083,-11251.130318,-2757.943793,11103.089130
1082.336412,-9770.718434,-5592.497135,10066.800811
1082.336742,-7031.956449,-6435.202183,8956.491898
1082.337072,-3775.050304,-3983.696590,7402.059420
1082.337401,0.000000,-2068.457845,6217.729913
1082.337731,2886.803174,-306.438199,6957.935855
1082.338060,4145.153275,3140.991542,9104.533087
1082.338390,3552.988522,7354.516781,10807.006753
1082.338719,1702.473667,8350.440928,11621.233289
1082.339049,-1554.432478,5822.325785,13471.748144
1082.339379,-5033.400406,3370.820191,14952.160028
1082.339708,-8290.306550,1378.971896,14508.036463
1082.340038,-9918.759623,-1225.752797,12435.459826
1082.340367,-9622.677246,-3983.696590,8882.471304
1082.340697,-6957.935855,-5898.935335,5773.606348
1082.341027,-3849.070898,-5209.449386,4811.338623
1082.341356,-1258.350101,-3140.991542,4737.318029
1082.341686,-148.041188,383.047749,5403.503377
1082.342015,-666.185348,5209.449386,6735.874072
1082.342345,-2368.659014,9269.755526,8438.347739
1082.342674,-3256.906145,9193.145976,10807.006753
1082.343004,-4959.379811,6894.859482,12509.480420
1082.343334,-6809.894666,4366.744339,13175.665768
1082.343663,-7920.203579,1302.362347,12657.521608
1082.343993,-9104.533087,-919.314598,10955.047942
1082.344322,-8808.450710,-2604.724693,9992.780217
1082.344652,-6809.894666,-3600.648841,8290.306550
1082.344981,-3552.988522,-2145.067394,7179.997637
1082.345311,-444.123565,612.876398,6217.729913
1082.345641,2368.659014,2528.115143,6143.709319
1082.345970,2664.741391,5209.449386,7031.956449
1082.346300,1554.432478,7431.126331,9104.533087
1082.346629,148.041188,8427.050478,10732.986159
1082.346959,-2220.617826,7277.907231,12213.398043
1082.347288,-3923.091493,5362.668486,11917.315666
1082.347618,-4737.318029,2987.772442,10955.047942
1082.347948,-4959.379811,-306.438199,9844.739029
1082.348277,-4737.318029,-2451.505594,8660.409521
1082.348607,-3849.070898,-2145.067394,8068.244768
1082.348936,-3182.885551,0.000000,7994.224174
1082.349266,-2442.679609,2221.676944,7994.224174
1082.349596,-2368.659014,2987.772442,9030.512492
1082.349925,-2294.638420,5056.230287,10214.842000
1082.350255,-2146.597232,7201.297681,11177.109724
1082.350584,-2146.597232,6665.030833,11399.171507
1082.350914,-2442.679609,4903.011187,11695.253884
1082.351243,-1850.514855,3600.648841,11251.130318
1082.351573,-1258.350101,2221.676944,9992.780217
1082.351903,-740.205942,995.924147,8586.388927
1082.352232,-148.041188,1149.143247,8216.285956
1082.352562,444.123565,2451.505594,8956.491898
1082.352891,888.247130,4213.525239,9696.697840
1082.353221,0.000000,6435.202183,10436.903782
1082.353550,-1184.329507,7737.564530,10436.903782
1082.353880,-1702.473667,7660.954980,10066.800811
1082.354210,-2072.576638,7201.297681,9474.636058
1082.354539,-2368.659014,5056.230287,8734.430116
1082.354869,-2590.720797,2987.772442,7476.080014
1082.355198,-1998.556043,1378.971896,5995.668130
1082.355528,-1480.411884,306.438199,5921.647536
1082.355858,-1702.473667,0.000000,7031.956449
1082.356187,-2442.679609,1225.752797,7772.162391
1082.356517,-2960.823768,3600.648841,8734.430116
1082.356846,-3108.864956,5822.325785,10214.842000
1082.357176,-2886.803174,7124.688131,11325.150913
1082.357505,-2368.659014,7354.516781,11251.130318
1082.357835,-962.267725,6281.983084,10436.903782
1082.358165,-370.102971,4596.572988,10066.800811
1082.358494,0.000000,3830.477490,10066.800811
1082.358824,-444.123565,3064.381992,9474.636058
1082.359153,-592.164754,2145.067394,8882.471304
1082.359483,0.000000,1991.848295,8882.471304
1082.359812,74.020594,2604.724693,9474.636058
1082.360142,740.205942,2374.896044,9770.718434
1082.360472,444.123565,3064.381992,10214.842000
1082.360801,-962.267725,4596.572988,10881.027347
1082.361131,-1480.411884,5975.544884,11547.212695
1082.361460,-1184.329507,5745.716235,12213.398043
1082.361790,-444.123565,5362.668486,11547.212695
1082.362119,-1110.308913,4903.011187,10510.924376
1082.362449,-1258.350101,4290.134789,9622.677246
1082.362779,-814.226536,4366.744339,9622.677246
1082.363108,-370.102971,4136.915689,9622.677246
1082.363438,-740.205942,4749.792088,8438.347739
1082.363767,-1036.288319,3830.477490,7402.059420
1082.364097,-1184.329507,2604.724693,6587.832884
1082.364427,-814.226536,2145.067394,6957.935855
1082.364756,-1406.391290,2068.457845,7846.182985
1082.365086,-2442.679609,2604.724693,8142.265362
1082.365415,-3182.885551,3524.039291,9326.594869
1082.365745,-3108.864956,4136.915689,9844.739029
1082.366074,-1924.535449,3983.696590,10362.883188
1082.366404,-888.247130,4366.744339,10362.883188
1082.366734,-666.185348,5286.058936,9696.697840
1082.367063,-296.082377,5975.544884,9474.636058
1082.367393,518.144159,6205.373534,9104.533087
1082.367722,1332.370696,5745.716235,9252.574275
1082.368052,1036.288319,5669.106685,8956.491898
1082.368381,-222.061783,4979.620737,7920.203579
1082.368711,-1110.308913,4060.306139,7179.997637
1082.369041,-2072.576638,1915.238745,7105.977043
1082.369370,-2220.617826,995.924147,7698.141797
1082.369700,-2220.617826,-229.828649,8808.450710
1082.370029,-2738.761985,-229.828649,9548.656652
1082.370359,-2738.761985,1762.019645,9992.780217
1082.370688,-2146.597232,2757.943793,11547.212695
1082.371018,-1184.329507,4136.915689,12213.398043
1082.371348,-592.164754,5286.058936,13175.665768
1082.371677,-888.247130,6511.811733,13027.624579
1082.372007,-370.102971,7277.907231,11177.109724
1082.372336,-148.041188,5669.106685,10436.903782
1082.372666,74.020594,4673.182538,10214.842000
1082.372996,0.000000,3677.258390,9548.656652
1082.373325,-1332.370696,2834.553343,8734.430116
1082.373655,-1776.494261,2298.286494,8364.327145
1082.373984,-1036.288319,1915.238745,7772.162391
1082.374314,-814.226536,1685.410096,7846.182985
1082.374643,-296.082377,1915.238745,7846.182985
1082.374973,74.020594,2451.505594,8660.409521
1082.375303,0.000000,3600.648841,9474.636058
1082.375632,-518.144159,6128.763984,10732.986159
1082.375962,-1110.308913,7277.907231,10955.047942
1082.376291,-1332.370696,6358.592633,11547.212695
1082.376621,-2294.638420,6665.030833,11399.171507
1082.376950,-2812.782580,7048.078582,10066.800811
1082.377280,-2960.823768,6511.811733,7254.018232
1082.377610,-888.247130,3447.429741,4737.318029
1082.377939,1184.329507,766.095498,4219.173869
1082.378269,2442.679609,612.876398,4663.297435
1082.378598,1554.432478,1991.848295,5699.585753
1082.378928,-74.020594,3140.991542,7920.203579
1082.379258,-2294.638420,4903.011187,10066.800811
1082.379587,-4145.153275,6281.983084,12361.439231
1082.379917,-4219.173869,6511.811733,14730.098246
1082.380246,-3552.988522,5898.935335,14582.057057
1082.380576,-3997.112087,5362.668486,13249.686362
1082.380905,-3775.050304,3753.867940,10955.047942
1082.381235,-2960.823768,3140.991542,9400.615463
1082.381565,-740.205942,2451.505594,7920.203579
1082.381894,2442.679609,2298.286494,6143.709319
1082.382224,4663.297435,2145.067394,4737.318029
1082.382553,5403.503377,2451.505594,5403.503377
1082.382883,3330.926739,3677.258390,7550.100608
1082.383212,-370.102971,5898.935335,10288.862594
1082.383542,-3552.988522,9116.536426,13323.706956
1082.383872,-4737.318029,9193.145976,14878.139434
1082.384201,-4515.256246,6511.811733,14063.912898
1082.384531,-2442.679609,1991.848295,11473.192101
1082.384860,-888.247130,-459.657299,9474.636058
1082.385190,0.000000,153.219100,7179.997637
1082.385519,-814.226536,2068.457845,6883.915261
1082.385849,-740.205942,4060.306139,8068.244768
1082.386179,-1406.391290,5669.106685,9104.533087
1082.386508,-1628.453072,5209.449386,8512.368333
1082.386838,-1258.350101,3830.477490,6587.832884
1082.387167,-1184.329507,1838.629195,6587.832884
1082.387497,-1332.370696,1455.581446,9252.574275
1082.387827,-2368.659014,3294.210641,11473.192101
1082.388156,-2738.761985,4136.915689,11991.336260
1082.388486,-2516.700203,4749.792088,12583.501014
1082.388815,-1850.514855,5286.058936,11547.212695
1082.389145,-1184.329507,4826.401637,9104.533087
1082.389474,592.164754,2451.505594,6957.935855
1082.389804,2664.741391,842.705048,6143.709319
1082.390134,3108.864956,2451.505594,6291.750507
1082.390463,2442.679609,3677.258390,7179.997637
1082.390793,2146.597232,3753.867940,9104.533087
1082.391122,370.102971,3524.039291,11399.171507
1082.391452,-2664.741391,4979.620737,12287.418637
1082.391781,-3775.050304,6281.983084,12953.603985
1082.392111,-2368.659014,4290.134789,12953.603985
1082.392441,-1776.494261,2068.457845,12213.398043
1082.392770,-2146.597232,2068.457845,10658.965565
1082.393100,-2146.597232,2681.334243,8734.430116
1082.393429,-1702.473667,3447.429741,8068.244768
1082.393759,-1258.350101,5286.058936,7846.182985
1082.394089,-1184.329507,5822.325785,7179.997637
1082.394418,592.164754,3524.039291,6069.688724
1082.394748,2146.597232,919.314598,5921.647536
1082.395077,1406.391290,1838.629195,6883.915261
1082.395407,-222.061783,3600.648841,9992.780217
1082.395736,-2072.576638,5592.497135,13397.727550
1082.396066,-4071.132681,8580.269578,14952.160028
1082.396396,-4145.153275,9729.412825,14359.995275
1082.396725,-2220.617826,7201.297681,13249.686362
1082.397055,-222.061783,4673.182538,11177.109724
1082.397384,-148.041188,4060.306139,8438.347739
1082.397714,-1332.370696,3524.039291,5773.606348
1082.398043,-1332.370696,3600.648841,3849.070898
1082.398373,148.041188,3524.039291,3404.947333
1082.398703,1036.288319,2451.505594,4589.276840
1082.399032,1184.329507,3140.991542,5329.482782
1082.399362,74.020594,4290.134789,5403.503377
1082.399691,518.144159,3600.648841,6957.935855
1082.400021,222.061783,3753.867940,10436.903782
1082.400351,-1850.514855,4903.011187,14211.954086
1082.400680,-4071.132681,5975.544884,15766.386565
1082.401010,-4219.173869,5056.230287,15396.283594
1082.401339,-3997.112087,4060.306139,13249.686362
1082.401669,-3108.864956,4213.525239,11325.150913
1082.401998,-1998.556043,2221.676944,9030.512492
1082.402328,-444.123565,153.219100,6661.853478
1082.402658,222.061783,229.828649,4367.215058
1082.402987,1406.391290,-383.047749,3627.009116
1082.403317,2812.782580,153.219100,4663.297435
1082.403646,2368.659014,919.314598,6883.915261
1082.403976,1776.494261,1991.848295,9252.574275
1082.404305,1184.329507,1455.581446,12213.398043
1082.404635,-296.082377,1378.971896,14878.139434
1082.404965,-2072.576638,2987.772442,16580.613101
1082.405294,-3552.988522,2911.162892,16580.613101
1082.405624,-3923.091493,1608.800546,15766.386565
1082.405953,-4293.194464,459.657299,12879.583391
1082.406283,-3552.988522,76.609550,9770.718434
1082.406613,-1184.329507,-1072.533697,6513.812290
1082.406942,2368.659014,-1532.190996,5255.462188
1082.407272,4515.256246,-612.876398,4219.173869
1082.407601,4293.194464,306.438199,2516.700203
1082.407931,3404.947333,153.219100,3034.844362
1082.408260,2590.720797,842.705048,6957.935855
1082.408590,888.247130,2757.943793,12065.356855
1082.408920,-1554.432478,4979.620737,16136.489536
1082.409249,-4441.235652,5362.668486,16432.571912
1082.409579,-6809.894666,2451.505594,14508.036463
1082.409908,-7846.182985,459.657299,13027.624579
1082.410238,-7698.141797,-1378.971896,10955.047942
1082.410567,-5477.523971,-2374.896044,7994.224174
1082.410897,-2812.782580,-4443.353888,4219.173869
1082.411227,814.226536,-3600.648841,2812.782580
1082.411556,2590.720797,-1915.238745,2146.597232
1082.411886,3997.112087,459.657299,3404.947333
1082.412215,3552.988522,2528.115143,5033.400406
1082.412545,3256.906145,4366.744339,9252.574275
1082.412875,1258.350101,5592.497135,14582.057057
1082.413204,-2442.679609,6818.249932,17838.963202
1082.413534,-5921.647536,4903.011187,18135.045579
1082.413863,-7254.018232,1991.848295,16580.613101
1082.414193,-5329.482782,229.828649,12139.377449
1082.414522,-2146.597232,-2374.896044,8882.471304
1082.414852,444.123565,-5056.230287,6587.832884
1082.415182,296.082377,-4290.134789,3404.947333
1082.415511,888.247130,-842.705048,1702.473667
1082.415841,4293.194464,229.828649,2368.659014
1082.416170,6883.915261,1532.190996,5625.565159
1082.416500,5403.503377,2834.553343,10140.821405
1082.416829,888.247130,3983.696590,13619.789333
1082.417159,-4071.132681,4443.353888,15914.427753
1082.417489,-6365.771101,5286.058936,17912.983796
1082.417818,-7105.977043,3907.087040,17764.942608
1082.418148,-5773.606348,306.438199,15692.365970
1082.418477,-3478.967927,-2757.943793,9992.780217
1082.418807,-222.061783,-4903.011187,4145.153275
1082.419136,2738.761985,-4366.744339,1332.370696
1082.419466,4959.379811,-1302.362347,2146.597232
1082.419796,5181.441594,1762.019645,4811.338623
1082.420125,4145.153275,4826.401637,8290.306550
1082.420455,1702.473667,6052.154434,11325.150913
1082.420784,-1406.391290,7048.078582,13323.706956
1082.421114,-3627.009116,5898.935335,14211.954086
1082.421444,-4515.256246,2451.505594,14952.160028
1082.421773,-4959.379811,-306.438199,14211.954086
1082.422103,-4367.215058,-1915.238745,11695.253884
1082.422432,-3478.967927,-2451.505594,7772.162391
1082.422762,-2368.659014,-2221.676944,3182.885551
1082.423091,518.144159,-689.485948,962.267725
1082.423421,4663.297435,-919.314598,1036.288319
1082.423751,6957.935855,-689.485948,2886.803174
1082.424080,4441.235652,2221.676944,6661.853478
1082.424410,-1184.329507,6052.154434,10807.006753
1082.424739,-5329.482782,7201.297681,13989.892304
1082.425069,-7179.997637,5362.668486,15692.365970
1082.425398,-7179.997637,1378.971896,15766.386565
1082.425728,-6069.688724,-2145.067394,13767.830521
1082.426058,-4515.256246,-4366.744339,10066.800811
1082.426387,-2368.659014,-6511.811733,5551.544565
1082.426717,-962.267725,-6128.763984,4367.215058
1082.427046,1036.288319,-2911.162892,5255.462188
1082.427376,2738.761985,229.828649,6809.894666
1082.427706,3552.988522,1915.238745,8956.491898
1082.428035,2886.803174,3217.601092,11103.089130
1082.428365,1184.329507,4213.525239,12435.459826
1082.428694,-740.205942,3217.601092,14508.036463
1082.429024,-2072.576638,3140.991542,16136.489536
1082.429353,-2886.803174,1915.238745,16284.530724
1082.429683,-2294.638420,383.047749,14137.933492
1082.430013,-296.082377,-1378.971896,10140.821405
1082.430342,592.164754,-3907.087040,6291.750507
1082.430672,1702.473667,-4443.353888,4515.256246
1082.431001,2368.659014,-1991.848295,5329.482782
1082.431331,3256.906145,1378.971896,7254.018232
1082.431660,1850.514855,4213.525239,9474.636058
1082.431990,-1702.473667,4903.011187,10584.944971
1082.432320,-4145.153275,4673.182538,11769.274478
1082.432649,-4737.318029,3524.039291,12657.521608
1082.432979,-4885.359217,2604.724693,13027.624579
1082.433308,-4219.173869,1762.019645,11473.192101
1082.433638,-3404.947333,0.000000,8438.347739
1082.433968,-1850.514855,-2221.676944,4441.235652
1082.434297,-148.041188,-2757.943793,2368.659014
1082.434627,1258.350101,-1532.190996,3849.070898
1082.434956,1924.535449,1302.362347,6291.750507
1082.435286,1702.473667,3830.477490,8586.388927
1082.435615,-222.061783,4979.620737,10584.944971
1082.435945,-1850.514855,4673.182538,10881.027347
1082.436275,-2812.782580,3524.039291,11547.212695
1082.436604,-2886.803174,2757.943793,11991.336260
1082.436934,-2294.638420,1225.752797,11325.150913
1082.437263,-666.185348,76.609550,10214.842000
1082.437593,296.082377,-2298.286494,7920.203579
1082.437922,148.041188,-3140.991542,5699.585753
1082.438252,74.020594,-1915.238745,6069.688724
1082.438582,444.123565,306.438199,6883.915261
1082.438911,2072.576638,1378.971896,8882.471304
1082.439241,1924.535449,1378.971896,11399.171507
1082.439570,-666.185348,2528.115143,12435.459826
1082.439900,-3923.091493,3294.210641,12731.542202
1082.440230,-4885.359217,2451.505594,13101.645173
1082.440559,-3701.029710,1532.190996,13175.665768
1082.440889,-2072.576638,383.047749,12361.439231
1082.441218,-740.205942,-1838.629195,10066.800811
1082.441548,0.000000,-3983.696590,6883.915261
1082.441877,370.102971,-3677.258390,5625.565159
1082.442207,962.267725,-1608.800546,6661.853478
1082.442537,2368.659014,-153.219100,9918.759623
1082.442866,1480.411884,2145.067394,13175.665768
1082.443196,-1406.391290,4366.744339,13989.892304
1082.443525,-3627.009116,4366.744339,12509.480420
1082.443855,-3923.091493,2298.286494,11843.295072
1082.444184,-3108.864956,76.609550,11177.109724
1082.444514,-2368.659014,459.657299,10288.862594
1082.444844,-518.144159,0.000000,9030.512492
1082.445173,222.061783,-1532.190996,6291.750507
1082.445503,-444.123565,-995.924147,3997.112087
1082.445832,-370.102971,-383.047749,4663.297435
1082.446162,222.061783,0.000000,6069.688724
1082.446492,1258.350101,1072.533697,8956.491898
1082.446821,-592.164754,2757.943793,10955.047942
1082.447151,-3552.988522,3753.867940,10584.944971
1082.447480,-5403.503377,2451.505594,10362.883188
1082.447810,-5403.503377,1378.971896,11029.068536
1082.448139,-4219.173869,1838.629195,10436.903782
1082.448469,-1850.514855,0.000000,8734.430116
1082.448799,0.000000,-2757.943793,7105.977043
1082.449128,-148.041188,-3370.820191,4959.379811
1082.449458,-962.267725,-1455.581446,4885.359217
1082.449787,740.205942,153.219100,6735.874072
1082.450117,3034.844362,1149.143247,9474.636058
1082.450446,3182.885551,2451.505594,12657.521608
1082.450776,444.123565,2451.505594,14063.912898
1082.451106,-2960.823768,1532.190996,14285.974681
1082.451435,-4515.256246,1838.629195,14211.954086
1082.451765,-4367.215058,2068.457845,14211.954086
1082.452094,-2146.597232,689.485948,12953.603985
1082.452424,518.144159,-1991.848295,10881.027347
1082.452754,1776.494261,-3524.039291,7550.100608
1082.453083,1480.411884,-2451.505594,5033.400406
1082.453413,1924.535449,-229.828649,5699.585753
1082.453742,3330.926739,995.924147,8660.409521
1082.454072,3478.967927,2604.724693,12213.398043
1082.454401,518.144159,4596.572988,12731.542202
1082.454731,-2294.638420,3983.696590,11843.295072
1082.455061,-3256.906145,1915.238745,12139.377449
1082.455390,-4145.153275,1378.971896,12805.562797
1082.455720,-5107.421000,1532.190996,12583.501014
1082.456049,-4219.173869,1072.533697,10955.047942
1082.456379,-2886.803174,229.828649,6217.729913
1082.456708,-1776.494261,-1915.238745,2368.659014
1082.457038,222.061783,-2834.553343,1924.535449
1082.457368,1998.556043,-1685.410096,4589.276840
1082.457697,2072.576638,1532.190996,7105.977043
1082.458027,-222.061783,4596.572988,10066.800811
1082.458356,-2960.823768,6128.763984,11621.233289
1082.458686,-4515.256246,4060.306139,12139.377449
1082.459016,-4441.235652,2451.505594,12879.583391
1082.459345,-4219.173869,2221.676944,11621.233289
1082.459675,-2590.720797,383.047749,9548.656652
1082.460004,-814.226536,-2451.505594,7772.162391
1082.460334,-370.102971,-2681.334243,5773.606348
1082.460663,-592.164754,-2451.505594,4885.359217
1082.460993,444.123565,-1149.143247,6217.729913
1082.461323,2368.659014,1225.752797,7328.038826
1082.461652,3108.864956,1838.629195,9622.677246
1082.461982,1406.391290,1915.238745,12361.439231
1082.462311,-1110.308913,2298.286494,13027.624579
1082.462641,-3034.844362,2221.676944,13545.768739
1082.462970,-3627.009116,2298.286494,14359.995275
1082.463300,-3182.885551,2681.334243,13693.809927
1082.463630,-1998.556043,766.095498,11843.295072
1082.463959,-518.144159,-3217.601092,8438.347739
1082.464289,222.061783,-4213.525239,5477.523971
1082.464618,1258.350101,-2374.896044,5847.626942
1082.464948,2072.576638,-919.314598,7624.121203
1082.465277,1924.535449,995.924147,10066.800811
1082.465607,-518.144159,2911.162892,13175.665768
1082.465937,-3330.926739,4749.792088,14359.995275
1082.466266,-4367.215058,5439.278036,14211.954086
1082.466596,-4145.153275,2987.772442,13619.789333
1082.466925,-3478.967927,1838.629195,12213.398043
1082.467255,-2442.679609,-689.485948,9918.759623
1082.467585,-1184.329507,-1762.019645,7402.059420
1082.467914,-370.102971,-1608.800546,4219.173869
1082.468244,148.041188,-612.876398,3330.926739
1082.468573,1924.535449,536.266849,4589.276840
1082.468903,2664.741391,995.924147,7031.956449
1082.469232,1702.473667,2451.505594,9474.636058
1082.469562,-740.205942,5515.887586,10732.986159
1082.469892,-2516.700203,5822.325785,10214.842000
1082.470221,-2590.720797,3370.820191,10955.047942
1082.470551,-2738.761985,1838.629195,11251.130318
1082.470880,-2960.823768,1225.752797,10140.821405
1082.471210,-2590.720797,153.219100,8216.285956
1082.471539,-1776.494261,-766.095498,5699.585753
1082.471869,-740.205942,-612.876398,4293.194464
1082.472199,0.000000,-1532.190996,3330.926739
1082.472528,1480.411884,-2681.334243,5329.482782
1082.472858,2072.576638,-1608.800546,8734.430116
1082.473187,-740.205942,2221.676944,12509.480420
1082.473517,-3997.112087,5439.278036,14137.933492
1082.473847,-4959.379811,4979.620737,15026.180623
1082.474176,-4219.173869,1302.362347,15100.201217
1082.474506,-3701.029710,689.485948,14211.954086
1082.474835,-2146.597232,306.438199,12509.480420
1082.475165,-592.164754,-2374.896044,9400.615463
1082.475494,296.082377,-3370.820191,6587.832884
1082.475824,1850.514855,-1762.019645,6217.729913
1082.476154,2664.741391,-1225.752797,7920.203579
1082.476483,3330.926739,76.609550,10362.883188
1082.476813,1776.494261,3600.648841,12583.501014
1082.477142,-814.226536,5515.887586,12731.542202
1082.477472,-2146.597232,3524.039291,13027.624579
1082.477801,-1998.556043,2298.286494,13249.686362
1082.478131,-2368.659014,2068.457845,12879.583391
1082.478461,-2590.720797,1455.581446,11177.109724
1082.478790,-2664.741391,536.266849,8882.471304
1082.479120,-1998.556043,383.047749,5699.585753
1082.479449,-1184.329507,-919.314598,4071.132681
1082.479779,0.000000,0.000000,4589.276840
1082.480109,814.226536,919.314598,5403.503377
1082.480438,444.123565,1838.629195,7402.059420
1082.480768,-2590.720797,3907.087040,8290.306550
1082.481097,-5033.400406,4673.182538,9992.780217
1082.481427,-5477.523971,4826.401637,12065.356855
1082.481756,-5329.482782,3447.429741,12657.521608
1082.482086,-4737.318029,2987.772442,10732.986159
1082.482416,-2738.761985,459.657299,8068.244768
1082.482745,-518.144159,-2528.115143,6143.709319
1082.483075,222.061783,-2068.457845,4515.256246
1082.483404,444.123565,0.000000,4589.276840
1082.483734,1850.514855,1225.752797,5847.626942
1082.484063,3330.926739,2221.676944,8364.327145
1082.484393,3108.864956,2604.724693,11177.109724
1082.484723,518.144159,3447.429741,12139.377449
1082.485052,-2072.576638,3600.648841,12879.583391
1082.485382,-2590.720797,3140.991542,13619.789333
1082.485711,-2146.597232,1838.629195,13101.645173
1082.486041,-814.226536,0.000000,12287.418637
1082.486371,148.041188,-2374.896044,9622.677246
1082.486700,0.000000,-2681.334243,7105.977043
1082.487030,-592.164754,-1455.581446,6291.750507
1082.487359,74.020594,383.047749,7920.203579
1082.487689,1480.411884,459.657299,9696.697840
1082.488018,370.102971,919.314598,11251.130318
1082.488348,-1998.556043,1762.019645,12287.418637
1082.488678,-4145.153275,2298.286494,12731.542202
1082.489007,-4737.318029,2451.505594,13767.830521
1082.489337,-5403.503377,2145.067394,13323.706956
1082.489666,-5033.400406,995.924147,12065.356855
1082.489996,-2442.679609,-306.438199,11251.130318
1082.490326,-1110.308913,-1302.362347,8142.265362
1082.490655,-518.144159,-1762.019645,4737.318029
1082.490985,518.144159,-1762.019645,4145.153275
1082.491315,2072.576638,-536.266849,5625.565159
1082.491644,2590.720797,1149.143247,8586.388927
1082.491974,518.144159,3294.210641,11399.171507
1082.492304,-1998.556043,5592.497135,11399.171507
1082.492633,-3330.926739,4903.011187,11769.274478
1082.492963,-2960.823768,2911.162892,11473.192101
1082.493292,-2220.617826,1915.238745,10066.800811
1082.493622,-296.082377,76.609550,8734.430116
1082.493952,592.164754,-1225.752797,6883.915261
1082.494281,-296.082377,-919.314598,4071.132681
1082.494611,-1184.329507,-153.219100,4219.173869
1082.494941,-888.247130,1225.752797,5477.523971
1082.495270,370.102971,2221.676944,7846.182985
1082.495600,74.020594,2757.943793,9918.759623
1082.495930,-1998.556043,2068.457845,11325.150913
1082.496259,-4145.153275,1991.848295,11103.089130
1082.496589,-5033.400406,2145.067394,11843.295072
1082.496919,-4219.173869,1991.848295,12435.459826
1082.497248,-2590.720797,2145.067394,12805.562797
1082.497578,-1036.288319,1608.800546,11991.336260
1082.497908,222.061783,-153.219100,8808.450710
1082.498237,370.102971,-1762.019645,6291.750507
1082.498567,1480.411884,-1149.143247,6217.729913
1082.498897,2960.823768,766.095498,9252.574275
1082.499226,3256.906145,1685.410096,12065.356855
1082.499556,814.226536,3677.258390,13397.727550
1082.499886,-2220.617826,4213.525239,12805.562797
1082.500215,-2590.720797,2987.772442,13101.645173
1082.500545,-2146.597232,2911.162892,13397.727550
1082.500875,-1702.473667,2834.553343,12435.459826
1082.501204,-222.061783,2145.067394,9992.780217
1082.501534,814.226536,-459.657299,6809.894666
1082.501863,962.267725,-1455.581446,4441.235652
1082.502193,666.185348,459.657299,4515.256246
1082.502523,0.000000,1225.752797,6661.853478
1082.502852,-888.247130,1915.238745,8068.244768
1082.503182,-2368.659014,2911.162892,10214.842000
1082.503512,-3849.070898,3524.039291,10807.006753
1082.503841,-4589.276840,2451.505594,10066.800811
1082.504171,-4219.173869,459.657299,10288.862594
1082.504501,-3923.091493,612.876398,9696.697840
1082.504830,-3478.967927,842.705048,9474.636058
1082.505160,-2516.700203,842.705048,9104.533087
1082.505490,-1036.288319,1455.581446,6513.812290
1082.505819,222.061783,-612.876398,4293.194464
1082.506149,1628.453072,-1991.848295,4071.132681
1082.506479,2516.700203,-1072.533697,6513.812290
1082.506808,1702.473667,-383.047749,9844.739029
1082.507138,-518.144159,1685.410096,12361.439231
1082.507468,-3701.029710,3294.210641,12805.562797
1082.507797,-3997.112087,2068.457845,13545.768739
1082.508127,-3108.864956,459.657299,13175.665768
1082.508457,-1480.411884,306.438199,11843.295072
1082.508786,814.226536,-536.266849,9844.739029
1082.509116,2146.597232,-2451.505594,7920.203579
1082.509446,1850.514855,-1608.800546,6735.874072
1082.509775,1332.370696,76.609550,7328.038826
1082.510105,1110.308913,-383.047749,8586.388927
1082.510434,592.164754,459.657299,10881.027347
1082.510764,-1110.308913,2451.505594,12657.521608
1082.511094,-3330.926739,2221.676944,13619.789333
1082.511423,-4145.153275,1608.800546,13323.706956
1082.511753,-4145.153275,1072.533697,13545.768739
1082.512083,-3627.009116,1225.752797,11917.315666
1082.512412,-2886.803174,766.095498,10288.862594
1082.512742,-1110.308913,-689.485948,8290.306550
1082.513072,-518.144159,383.047749,6661.853478
1082.513401,370.102971,1225.752797,5477.523971
1082.513731,1036.288319,1072.533697,5477.523971
1082.514061,1628.453072,536.266849,7105.977043
1082.514390,0.000000,1532.190996,9548.656652
1082.514720,-2368.659014,4060.306139,11547.212695
1082.515050,-3775.050304,4290.134789,11843.295072
1082.515379,-3330.926739,3447.429741,11843.295072
1082.515709,-3330.926739,1915.238745,11029.068536
1082.516039,-2664.741391,1991.848295,9548.656652
1082.516368,-444.123565,1302.362347,8068.244768
1082.516698,888.247130,1302.362347,6587.832884
1082.517028,1554.432478,2145.067394,3923.091493
1082.517357,1702.473667,1072.533697,3182.885551
1082.517687,2368.659014,-995.924147,4515.256246
1082.518017,1776.494261,1072.533697,8586.388927
1082.518346,-1258.350101,3983.696590,11547.212695
1082.518676,-4589.276840,4903.011187,11843.295072
1082.519005,-5847.626942,2374.896044,11843.295072
1082.519335,-4885.359217,76.609550,11843.295072
1082.519665,-3627.009116,-1072.533697,11103.089130
1082.519994,-1554.432478,-2451.505594,10140.821405
1082.520324,0.000000,-2374.896044,8438.347739
1082.520654,-296.082377,-1072.533697,6883.915261
1082.520983,-222.061783,0.000000,6957.935855
1082.521313,1406.391290,-229.828649,8068.244768
1082.521643,3552.988522,-229.828649,10955.047942
1082.521972,2146.597232,1685.410096,13101.645173
1082.522302,-1036.288319,2451.505594,13545.768739
1082.522632,-2812.782580,1455.581446,13323.706956
1082.522961,-2442.679609,306.438199,14359.995275
1082.523291,-2368.659014,-229.828649,13915.871710
1082.523621,-1850.514855,612.876398,11769.274478
1082.523950,-222.061783,-1072.533697,9770.718434
1082.524280,1406.391290,-2681.334243,7624.121203
1082.524610,1110.308913,-2068.457845,5551.544565
1082.524939,1036.288319,-76.609550,5847.626942
1082.525269,1998.556043,536.266849,7550.100608
1082.525599,814.226536,766.095498,9844.739029
1082.525928,-2368.659014,2757.943793,11251.130318
1082.526258,-4885.359217,3677.258390,11843.295072
1082.526588,-5403.503377,2145.067394,11843.295072
1082.526917,-4959.379811,1991.848295,11843.295072
1082.527247,-4885.359217,1072.533697,10140.821405
1082.527576,-2886.803174,-612.876398,7994.224174
1082.527906,-1036.288319,-1378.971896,5847.626942
1082.528236,0.000000,-689.485948,3701.029710
1082.528565,0.000000,919.314598,2738.761985
1082.528895,1332.370696,76.609550,5107.421000
1082.529225,2368.659014,1225.752797,8438.347739
1082.529554,740.205942,3140.991542,11547.212695
1082.529884,-2368.659014,3983.696590,11695.253884
1082.530214,-4441.235652,2911.162892,11473.192101
1082.530543,-3404.947333,1149.143247,12213.398043
1082.530873,-2442.679609,1455.581446,11917.315666
1082.531203,-222.061783,919.314598,10732.986159
1082.531532,1776.494261,-1685.410096,9326.594869
1082.531862,2146.597232,-995.924147,6291.750507
1082.532192,814.226536,76.609550,5403.503377
1082.532521,1554.432478,766.095498,5921.647536
1082.532851,3701.029710,1149.143247,8882.471304
1082.533181,3478.967927,1685.410096,11473.192101
1082.533510,148.041188,2604.724693,12509.480420
1082.533840,-3330.926739,2068.457845,12953.603985
1082.534170,-5033.400406,1915.238745,13989.892304
1082.534499,-5329.482782,2451.505594,14656.077652
1082.534829,-4441.235652,1915.238745,12805.562797
1082.535159,-1924.535449,0.000000,9844.739029
1082.535488,148.041188,-2451.505594,7179.997637
1082.535818,0.000000,-2757.943793,4737.318029
1082.536147,1036.288319,-612.876398,5107.421000
1082.536477,1702.473667,689.485948,7624.121203
1082.536807,1406.391290,2528.115143,9770.718434
1082.537136,-666.185348,4213.525239,11917.315666
1082.537466,-2812.782580,3830.477490,12583.501014
1082.537796,-3108.864956,2757.943793,13175.665768
1082.538125,-2738.761985,1991.848295,13175.665768
1082.538455,-3701.029710,2068.457845,11621.233289
1082.538785,-3330.926739,536.266849,9548.656652
1082.539114,-1702.473667,-1072.533697,7476.080014
1082.539444,-296.082377,-229.828649,5107.421000
1082.539774,962.267725,-306.438199,1998.556043
1082.540103,2590.720797,-1072.533697,2368.659014
1082.540433,4293.194464,-536.266849,5551.544565
1082.540763,2886.803174,1608.800546,9474.636058
1082.541092,-1554.432478,4673.182538,11547.212695
1082.541422,-4811.338623,4366.744339,11251.130318
1082.541752,-5255.462188,2221.676944,12361.439231
1082.542081,-4737.318029,1838.629195,13027.624579
1082.542411,-3330.926739,1762.019645,11251.130318
1082.542741,-1184.329507,-1685.410096,8586.388927
1082.543070,-222.061783,-4826.401637,5625.565159
1082.543400,-370.102971,-3140.991542,4737.318029
1082.543729,0.000000,-1991.848295,6217.729913
1082.544059,2072.576638,-1838.629195,7698.141797
1082.544389,2442.679609,153.219100,9770.718434
1082.544718,814.226536,1762.019645,12657.521608
1082.545048,-962.267725,2145.067394,14804.118840
1082.545378,-3034.844362,1532.190996,16506.592507
1082.545707,-3849.070898,2145.067394,16358.551318
1082.546037,-3627.009116,1455.581446,13619.789333
1082.546367,-1184.329507,-2221.676944,11251.130318
1082.546696,1184.329507,-4749.792088,9548.656652
1082.547026,1480.411884,-3447.429741,7624.121203
1082.547356,1480.411884,-229.828649,5551.544565
1082.547685,2368.659014,-229.828649,6735.874072
1082.548015,3256.906145,689.485948,8512.368333
1082.548345,1702.473667,2604.724693,11325.150913
1082.548674,-1258.350101,3983.696590,12879.583391
1082.549004,-2738.761985,4519.963438,11621.233289
1082.549334,-3256.906145,3064.381992,11621.233289
1082.549663,-3552.988522,842.705048,11769.274478
1082.549993,-3997.112087,689.485948,11695.253884
1082.550323,-4145.153275,689.485948,9178.553681
1082.550652,-2960.823768,919.314598,4811.338623
1082.550982,-888.247130,995.924147,2368.659014
1082.551312,1036.288319,-1302.362347,1702.473667
1082.551641,2368.659014,-1685.410096,3701.029710
1082.551971,1628.453072,229.828649,7994.224174
1082.552300,-1776.494261,5132.839837,10510.924376
1082.552630,-4737.318029,7507.735880,11103.089130
1082.552960,-5255.462188,4749.792088,11473.192101
1082.553289,-4219.173869,1991.848295,12509.480420
1082.553619,-2960.823768,995.924147,12139.377449
1082.553949,-814.226536,919.314598,10436.903782
1082.554278,296.082377,-1225.752797,7105.977043
1082.554608,370.102971,-1685.410096,4737.318029
1082.554938,666.185348,-1072.533697,5033.400406
1082.555267,2294.638420,-383.047749,7105.977043
1082.555597,3849.070898,1838.629195,9474.636058
1082.555927,2516.700203,3217.601092,11325.150913
1082.556256,-148.041188,3600.648841,12731.542202
1082.556586,-2368.659014,2451.505594,13989.892304
1082.556916,-3108.864956,1072.533697,14656.077652
1082.557245,-2812.782580,1608.800546,13545.768739
1082.557575,-2220.617826,1302.362347,11843.295072
1082.557905,-592.164754,-306.438199,10288.862594
1082.558234,-222.061783,-2145.067394,7920.203579
1082.558564,0.000000,-1838.629195,5181.441594
1082.558894,1110.308913,-995.924147,6439.791695
1082.559223,2072.576638,612.876398,8290.306550
1082.559553,814.226536,1915.238745,10510.924376
1082.559883,-2294.638420,2451.505594,11473.192101
1082.560212,-3775.050304,2298.286494,11029.068536
1082.560542,-3923.091493,2221.676944,12361.439231
1082.560871,-3256.906145,2298.286494,13693.809927
1082.561201,-3478.967927,2374.896044,12879.583391
1082.561531,-2442.679609,842.705048,9844.739029
1082.561860,-666.185348,-1838.629195,6143.709319
1082.562190,666.185348,-2757.943793,3182.885551
1082.562520,1480.411884,-1072.533697,3404.947333
1082.562849,2590.720797,459.657299,5921.647536
1082.563179,2220.617826,1838.629195,8068.244768
1082.563509,148.041188,2834.553343,9992.780217
1082.563838,-2220.617826,3830.477490,11251.130318
1082.564168,-3775.050304,3447.429741,11695.253884
1082.564498,-3552.988522,1149.143247,12139.377449
1082.564827,-3330.926739,995.924147,11029.068536
1082.565157,-1258.350101,-306.438199,9548.656652
1082.565487,0.000000,-1608.800546,8512.368333
1082.565816,-1036.288319,-1225.752797,6365.771101
1082.566146,-1110.308913,-383.047749,4737.318029
1082.566476,296.082377,0.000000,5995.668130
1082.566805,1998.556043,919.314598,7698.141797
1082.567135,1776.494261,1762.019645,9474.636058
1082.567465,-296.082377,1072.533697,11325.150913
1082.567794,-2664.741391,153.219100,11917.315666
1082.568124,-3849.070898,1455.581446,14211.954086
1082.568454,-3997.112087,2145.067394,15618.345376
1082.568783,-2886.803174,3217.601092,13915.871710
1082.569113,-1258.350101,0.000000,11399.171507
1082.569442,370.102971,-2681.334243,8364.327145
1082.569772,1258.350101,-2451.505594,6291.750507
1082.570102,1924.535449,-766.095498,6957.935855
1082.570431,2960.823768,153.219100,7772.162391
1082.570761,2368.659014,1838.629195,10066.800811
1082.571091,0.000000,3217.601092,12287.418637
1082.571420,-2294.638420,4903.011187,12657.521608
1082.571750,-2960.823768,3600.648841,12805.562797
1082.572080,-2516.700203,2757.943793,12435.459826
1082.572409,-2442.679609,2604.724693,11029.068536
1082.572739,-1480.411884,306.438199,9696.697840
1082.573069,-1110.308913,-766.095498,7772.162391
1082.573398,-1184.329507,0.000000,5329.482782
1082.573728,-888.247130,2221.676944,3849.070898
1082.574058,0.000000,1225.752797,4441.235652
1082.574387,1258.350101,1225.752797,6735.874072
1082.574717,-296.082377,2681.334243,9178.553681
1082.575047,-2886.803174,4060.306139,9622.677246
1082.575376,-4737.318029,3983.696590,9474.636058
1082.575706,-4071.132681,3217.601092,10658.965565
1082.576036,-3627.009116,1991.848295,10436.903782
1082.576365,-2294.638420,995.924147,10066.800811
1082.576695,-518.144159,-766.095498,9178.553681
1082.577025,-1110.308913,-612.876398,7624.121203
1082.577354,-1776.494261,919.314598,6217.729913
1082.577684,-888.247130,76.609550,6809.894666
1082.578013,1480.411884,0.000000,7846.182985
1082.578343,3108.864956,459.657299,10214.842000
1082.578673,2368.659014,1915.238745,11843.295072
1082.579002,-148.041188,2451.505594,11621.233289
1082.579332,-2146.597232,1608.800546,12509.480420
1082.579662,-2368.659014,2145.067394,13841.851115
1082.579991,-1776.494261,2451.505594,13693.809927
1082.580321,0.000000,766.095498,12435.459826
1082.580651,148.041188,-2451.505594,9400.615463
1082.580980,-592.164754,-3447.429741,6439.791695
1082.581310,0.000000,-2681.334243,6365.771101
1082.581640,1258.350101,-842.705048,7698.141797
1082.581969,2516.700203,1072.533697,9844.739029
1082.582299,1110.308913,2374.896044,11917.315666
1082.582629,-1776.494261,3447.429741,11695.253884
1082.582958,-3997.112087,4366.744339,10732.986159
1082.583288,-3775.050304,2604.724693,11769.274478
1082.583618,-2664.741391,1608.800546,11399.171507
1082.583947,-2220.617826,1149.143247,11029.068536
1082.584277,-1554.432478,0.000000,8956.491898
1082.584607,-1776.494261,-1302.362347,6587.832884
1082.584936,-2146.597232,-1532.190996,4293.194464
1082.585266,-888.247130,-1302.362347,5477.523971
1082.585595,296.082377,229.828649,8882.471304
1082.585925,-222.061783,2221.676944,11473.192101
1082.586255,-2368.659014,5056.230287,11029.068536
1082.586584,-2738.761985,3830.477490,9400.615463
1082.586914,-2146.597232,2068.457845,9844.739029
1082.587244,-1110.308913,2528.115143,11177.109724
1082.587573,-814.226536,3447.429741,10955.047942
1082.587903,518.144159,1991.848295,9104.533087
1082.588233,592.164754,-689.485948,5921.647536
1082.588562,0.000000,-1762.019645,3775.050304
1082.588892,444.123565,-2374.896044,6217.729913
1082.589222,740.205942,-306.438199,7994.224174
1082.589551,740.205942,1225.752797,9178.553681
1082.589881,0.000000,1685.410096,10955.047942
1082.590211,-1998.556043,1378.971896,12065.356855
1082.590540,-4219.173869,1838.629195,12731.542202
1082.590870,-3997.112087,2068.457845,12361.439231
1082.591199,-2812.782580,2298.286494,11473.192101
1082.591529,-370.102971,1455.581446,10214.842000
1082.591859,444.123565,-1608.800546,8882.471304
1082.592188,74.020594,-3140.991542,7254.018232
1082.592518,-518.144159,-2451.505594,6365.771101
1082.592848,148.041188,-766.095498,8068.244768
1082.593177,1332.370696,995.924147,10584.944971
1082.593507,0.000000,1532.190996,13915.871710
1082.593837,-2146.597232,1302.362347,13767.830521
1082.594166,-3034.844362,1762.019645,12879.583391
1082.594496,-2072.576638,2068.457845,12879.583391
1082.594825,-1702.473667,1991.848295,12139.377449
1082.595155,-1110.308913,2757.943793,11029.068536
1082.595485,0.000000,1608.800546,10066.800811
1082.595814,444.123565,689.485948,7105.977043
1082.596144,74.020594,1072.533697,5033.400406
1082.596474,814.226536,0.000000,4589.276840
1082.596803,1258.350101,-1378.971896,5921.647536
1082.597133,-296.082377,-153.219100,8882.471304
1082.597463,-2368.659014,2834.553343,11399.171507
1082.597792,-4071.132681,4826.401637,11251.130318
1082.598122,-4737.318029,4290.134789,10658.965565
1082.598451,-4589.276840,3524.039291,10140.821405
1082.598781,-3256.906145,2451.505594,9252.574275
1082.599111,-1184.329507,1762.019645,8068.244768
1082.599440,0.000000,766.095498,6069.688724
1082.599770,0.000000,0.000000,3256.906145
1082.600100,0.000000,0.000000,4219.173869
1082.600429,148.041188,-689.485948,5847.626942
1082.600759,740.205942,459.657299,8290.306550
1082.601089,-222.061783,1838.629195,11103.089130
1082.601418,-2516.700203,2221.676944,12657.521608
1082.601748,-3997.112087,2911.162892,13619.789333
1082.602077,-3552.988522,2145.067394,13249.686362
1082.602407,-2368.659014,612.876398,11695.253884
1082.602737,0.000000,0.000000,10732.986159
1082.603066,1332.370696,-536.266849,10214.842000
1082.603396,1184.329507,383.047749,8660.409521
1082.603726,518.144159,76.609550,6365.771101
1082.604055,1406.391290,-1302.362347,6809.894666
1082.604385,2590.720797,-689.485948,8290.306550
1082.604715,1406.391290,-306.438199,12435.459826
1082.605044,-1036.288319,1225.752797,14063.912898
1082.605374,-3849.070898,1838.629195,13471.748144
1082.605703,-4589.276840,1685.410096,13175.665768
1082.606033,-3849.070898,1762.019645,14137.933492
1082.606363,-2960.823768,1608.800546,12879.583391
1082.606692,-1258.350101,1225.752797,10955.047942
1082.607022,-74.020594,306.438199,6809.894666
1082.607352,592.164754,0.000000,3330.926739
1082.607681,962.267725,-383.047749,4737.318029
1082.608011,1406.391290,0.000000,6587.832884
1082.608340,-222.061783,1762.019645,8734.430116
1082.608670,-2442.679609,2757.943793,10881.027347
1082.609000,-4441.235652,3064.381992,11621.233289
1082.609329,-5403.503377,2681.334243,11251.130318
1082.609659,-5033.400406,1532.190996,11769.274478
1082.609989,-3849.070898,1149.143247,10214.842000
1082.610318,-1924.535449,919.314598,8290.306550
1082.610648,-296.082377,0.000000,7105.977043
1082.610978,370.102971,1149.143247,4219.173869
1082.611307,0.000000,689.485948,3478.967927
1082.611637,1110.308913,153.219100,4515.256246
1082.611966,2368.659014,842.705048,6513.812290
1082.612296,1480.411884,1455.581446,10288.862594
1082.612626,-1110.308913,459.657299,11843.295072
1082.612955,-4589.276840,995.924147,11843.295072
1082.613285,-4663.297435,1302.362347,13101.645173
1082.613615,-3701.029710,1302.362347,13471.748144
1082.613944,-1554.432478,995.924147,12139.377449
1082.614274,222.061783,-766.095498,10362.883188
1082.614604,222.061783,-2528.115143,9178.553681
1082.614933,-444.123565,-1302.362347,7105.977043
1082.615263,0.000000,383.047749,7105.977043
1082.615592,2146.597232,76.609550,7846.182985
1082.615922,3256.906145,-153.219100,10362.883188
1082.616252,1184.329507,153.219100,12879.583391
1082.616581,-2072.576638,1072.533697,13841.851115
1082.616911,-4737.318029,2528.115143,13989.892304
1082.617241,-5033.400406,2298.286494,14137.933492
1082.617570,-3849.070898,1915.238745,13175.665768
1082.617900,-1184.329507,306.438199,11103.089130
1082.618230,592.164754,-2374.896044,8364.327145
1082.618559,1332.370696,-1302.362347,4885.359217
1082.618889,1036.288319,0.000000,3849.070898
1082.619218,2146.597232,766.095498,6217.729913
1082.619548,1702.473667,2451.505594,8734.430116
1082.619878,-444.123565,3447.429741,10658.965565
1082.620207,-2442.679609,4060.306139,10807.006753
1082.620537,-4145.153275,2528.115143,10066.800811
1082.620867,-4071.132681,1072.533697,10807.006753
1082.621196,-4367.215058,1378.971896,11177.109724
1082.621526,-4145.153275,1455.581446,10066.800811
1082.621856,-2738.761985,1532.190996,8808.450710
1082.622185,-2146.597232,689.485948,5847.626942
1082.622515,-1628.453072,459.657299,4219.173869
1082.622844,-518.144159,229.828649,3849.070898
1082.623174,1332.370696,-229.828649,5329.482782
1082.623504,2220.617826,1302.362347,9104.533087
1082.623833,-370.102971,2604.724693,11917.315666
1082.624163,-3923.091493,3677.258390,12361.439231
1082.624493,-5403.503377,2451.505594,11991.336260
1082.624822,-4219.173869,842.705048,12435.459826
1082.625152,-1554.432478,153.219100,12065.356855
1082.625482,592.164754,-612.876398,11103.089130
1082.625811,1776.494261,-1608.800546,9474.636058
1082.626141,962.267725,-153.219100,6217.729913
1082.626470,1554.432478,1072.533697,5181.441594
1082.626800,3997.112087,1225.752797,6069.688724
1082.627130,4737.318029,1991.848295,8734.430116
1082.627459,3478.967927,3217.601092,11917.315666
1082.627789,-370.102971,3140.991542,12509.480420
1082.628119,-4071.132681,1149.143247,11917.315666
1082.628448,-5921.647536,-766.095498,12731.542202
1082.628778,-6143.709319,0.000000,13841.851115
1082.629108,-5107.421000,0.000000,13249.686362
1082.629437,-3256.906145,-995.924147,10510.924376
1082.629767,-1776.494261,-1991.848295,6365.771101
1082.630096,0.000000,-2145.067394,4293.194464
1082.630426,1480.411884,-536.266849,6513.812290
1082.630756,2146.597232,1838.629195,8956.491898
1082.631085,1406.391290,4673.182538,10140.821405
1082.631415,-370.102971,4136.915689,10807.006753
1082.631745,-1702.473667,2911.162892,11621.233289
1082.632074,-2294.638420,2451.505594,12805.562797
1082.632404,-3256.906145,1608.800546,13471.748144
1082.632734,-3182.885551,1685.410096,11621.233289
1082.633063,-2738.761985,383.047749,9252.574275
1082.633393,-2072.576638,-1225.752797,6809.894666
1082.633722,-740.205942,-1302.362347,4589.276840
1082.634052,592.164754,-1915.238745,3108.864956
1082.634382,1480.411884,0.000000,4219.173869
1082.634711,1480.411884,1072.533697,6809.894666
1082.635041,-444.123565,2681.334243,10584.944971
1082.635371,-3701.029710,3600.648841,11473.192101
1082.635700,-5625.565159,2528.115143,10881.027347
1082.636030,-5625.565159,536.266849,11029.068536
1082.636359,-3997.112087,-1608.800546,11399.171507
1082.636689,-2072.576638,-1685.410096,11103.089130
1082.637019,-1036.288319,-2451.505594,9844.739029
1082.637348,-1480.411884,-2068.457845,7402.059420
1082.637678,-1110.308913,-842.705048,6883.915261
1082.638008,444.123565,612.876398,7994.224174
1082.638337,2960.823768,1608.800546,9400.615463
1082.638667,3923.091493,1072.533697,11473.192101
1082.638997,2516.700203,766.095498,12509.480420
1082.639326,-518.144159,1838.629195,12805.562797
1082.639656,-3034.844362,1762.019645,14137.933492
1082.639985,-3849.070898,1915.238745,15026.180623
1082.640315,-2812.782580,1991.848295,13175.665768
1082.640645,-1036.288319,-612.876398,9844.739029
1082.640974,148.041188,-2834.553343,7105.977043
1082.641304,740.205942,-2528.115143,5625.565159
1082.641634,1332.370696,536.266849,5699.585753
1082.641963,2220.617826,2145.067394,6069.688724
1082.642293,2146.597232,1685.410096,7772.162391
1082.642623,888.247130,4060.306139,10214.842000
1082.642952,-1702.473667,4979.620737,12287.418637
1082.643282,-3256.906145,5592.497135,12213.398043
1082.643611,-4219.173869,3830.477490,12509.480420
1082.643941,-4589.276840,1685.410096,11695.253884
1082.644271,-4663.297435,1302.362347,10732.986159
1082.644600,-4219.173869,383.047749,8438.347739
1082.644930,-3478.967927,-383.047749,4885.359217
1082.645260,-1480.411884,-459.657299,2664.741391
1082.645589,666.185348,-919.314598,3701.029710
1082.645919,2072.576638,919.314598,6809.894666
1082.646249,740.205942,2604.724693,9770.718434
1082.646578,-1924.535449,5286.058936,11029.068536
1082.646908,-3627.009116,5898.935335,11029.068536
1082.647237,-3701.029710,3600.648841,11695.253884
1082.647567,-2368.659014,1838.629195,12435.459826
1082.647897,-1628.453072,383.047749,11695.253884
1082.648226,0.000000,0.000000,9918.759623
1082.648556,0.000000,-229.828649,7476.080014
1082.648886,-444.123565,-1072.533697,5403.503377
1082.649215,0.000000,-995.924147,5477.523971
1082.649545,1776.494261,-919.314598,7105.977043
1082.649875,3330.926739,-459.657299,9548.656652
1082.650204,2146.597232,995.924147,11325.150913
1082.650534,-1332.370696,1991.848295,12287.418637
1082.650863,-3552.988522,2145.067394,13989.892304
1082.651193,-4145.153275,2145.067394,15174.221811
1082.651523,-3849.070898,2145.067394,13693.809927
1082.651852,-2072.576638,0.000000,11843.295072
1082.652182,-888.247130,-2757.943793,9770.718434
1082.652512,-1332.370696,-3370.820191,6439.791695
1082.652841,-888.247130,-3294.210641,5477.523971
1082.653171,1036.288319,-1991.848295,7179.997637
1082.653501,1480.411884,1072.533697,9992.780217
1082.653830,296.082377,2987.772442,12435.459826
1082.654160,-1480.411884,2911.162892,12287.418637
1082.654489,-2220.617826,2298.286494,10584.944971
1082.654819,-1258.350101,1302.362347,12287.418637
1082.655149,-1184.329507,2451.505594,12509.480420
1082.655478,-1998.556043,2911.162892,11473.192101
1082.655808,-1554.432478,306.438199,9252.574275
1082.656138,-1184.329507,-536.266849,6365.771101
1082.656467,-1332.370696,-766.095498,4071.132681
1082.656797,-222.061783,-842.705048,4737.318029
1082.657127,1628.453072,536.266849,6883.915261
1082.657456,1406.391290,2451.505594,7698.141797
1082.657786,0.000000,2757.943793,8438.347739
1082.658115,-1850.514855,3524.039291,9770.718434
1082.658445,-3404.947333,4290.134789,10362.883188
1082.658775,-3997.112087,4213.525239,11177.109724
1082.659104,-3256.906145,2681.334243,10362.883188
1082.659434,-2072.576638,459.657299,9030.512492
1082.659764,-1554.432478,-1915.238745,7550.100608
1082.660093,-2294.638420,-2604.724693,5625.565159
1082.660423,-2368.659014,-1455.581446,5181.441594
1082.660752,-666.185348,-1302.362347,6291.750507
1082.661082,1702.473667,-153.219100,9178.553681
1082.661412,1998.556043,1455.581446,12287.418637
1082.661741,296.082377,2451.505594,13767.830521
1082.662071,-1924.535449,3447.429741,13397.727550
1082.662401,-2368.659014,3447.429741,13397.727550
1082.662730,-1554.432478,2145.067394,13841.851115
1082.663060,-148.041188,1991.848295,13693.809927
1082.663390,740.205942,229.828649,11991.336260
1082.663719,814.226536,-1532.190996,8438.347739
1082.664049,0.000000,-1915.238745,6069.688724
1082.664378,814.226536,-383.047749,7031.956449
1082.664708,2516.700203,-229.828649,9104.533087
1082.665038,2072.576638,1378.971896,10881.027347
1082.665367,0.000000,2987.772442,11177.109724
1082.665697,-2368.659014,3064.381992,10658.965565
1082.666027,-3923.091493,2987.772442,11029.068536
1082.666356,-3923.091493,3447.429741,12657.521608
1082.666686,-3034.844362,3294.210641,11917.315666
1082.667016,-3034.844362,1608.800546,9474.636058
1082.667345,-2368.659014,-383.047749,6513.812290
1082.667675,-2368.659014,-766.095498,4145.153275
1082.668004,-1850.514855,-1302.362347,3330.926739
1082.668334,0.000000,-536.266849,4885.359217
1082.668664,814.226536,1455.581446,8068.244768
1082.668993,-444.123565,2911.162892,11103.089130
1082.669323,-3404.947333,5745.716235,11177.109724
1082.669653,-3775.050304,4443.353888,10807.006753
1082.669982,-2442.679609,1991.848295,10288.862594
1082.670312,-592.164754,1378.971896,9770.718434
1082.670642,888.247130,842.705048,9844.739029
1082.670971,1258.350101,-689.485948,9030.512492
1082.671301,-740.205942,-459.657299,6291.750507
1082.671630,-1480.411884,-153.219100,4737.318029
1082.671960,74.020594,-1072.533697,5995.668130
1082.672290,2442.679609,-1225.752797,9252.574275
1082.672619,3034.844362,1378.971896,11991.336260
1082.672949,1258.350101,2145.067394,12287.418637
1082.673279,-1702.473667,995.924147,10955.047942
1082.673608,-3330.926739,1149.143247,11769.274478
1082.673938,-3182.885551,1991.848295,14434.015869
1082.674268,-1924.535449,4060.306139,14656.077652
1082.674597,-1184.329507,1915.238745,12287.418637
1082.674927,-666.185348,-2451.505594,7698.141797
1082.675256,-1406.391290,-4749.792088,5033.400406
1082.675586,-740.205942,-4213.525239,6735.874072
1082.675916,1184.329507,-766.095498,9844.739029
1082.676245,1036.288319,1302.362347,11399.171507
1082.676575,-814.226536,1991.848295,12065.356855
1082.676905,-2812.782580,3294.210641,12361.439231
1082.677234,-3034.844362,2757.943793,13323.706956
1082.677564,-1628.453072,3447.429741,13027.624579
1082.677894,-1332.370696,4290.134789,11547.212695
1082.678223,-666.185348,3064.381992,9252.574275
1082.678553,0.000000,0.000000,7402.059420
1082.678882,-222.061783,-1991.848295,5181.441594
1082.679212,-148.041188,-383.047749,3182.885551
1082.679542,370.102971,0.000000,4219.173869
1082.679871,1036.288319,383.047749,7179.997637
1082.680201,-74.020594,2374.896044,10066.800811
1082.680531,-2368.659014,2987.772442,10732.986159
1082.680860,-3256.906145,3524.039291,9770.718434
1082.681190,-3256.906145,3830.477490,9474.636058
1082.681520,-2146.597232,3064.381992,10288.862594
1082.681849,-888.247130,2451.505594,10584.944971
1082.682179,-814.226536,1532.190996,9474.636058
1082.682508,-1258.350101,842.705048,6217.729913
1082.682838,-1702.473667,-536.266849,4663.297435
1082.683168,-962.267725,-1378.971896,5625.565159
1082.683497,222.061783,-153.219100,7994.224174
1082.683827,740.205942,0.000000,10140.821405
1082.684157,222.061783,536.266849,11621.233289
1082.684486,-1702.473667,2145.067394,12657.521608
1082.684816,-3256.906145,3447.429741,14063.912898
1082.685146,-3182.885551,4136.915689,14582.057057
1082.685475,-1332.370696,2834.553343,13249.686362
1082.685805,814.226536,1072.533697,10807.006753
1082.686134,1110.308913,-2145.067394,8956.491898
1082.686464,518.144159,-3064.381992,7328.038826
1082.686794,-444.123565,-842.705048,7031.956449
1082.687123,666.185348,0.000000,8216.285956
1082.687453,1628.453072,0.000000,9474.636058
1082.687783,1184.329507,-383.047749,12287.418637
1082.688112,-962.267725,1225.752797,13619.789333
1082.688442,-3404.947333,3983.696590,11843.295072
1082.688771,-3701.029710,2987.772442,10807.006753
1082.689101,-962.267725,1685.410096,10955.047942
1082.689431,370.102971,2374.896044,10732.986159
1082.689760,148.041188,2145.067394,8882.471304
1082.690090,0.000000,-153.219100,5477.523971
1082.690420,-296.082377,-306.438199,3478.967927
1082.690749,74.020594,-383.047749,4589.276840
1082.691079,0.000000,-689.485948,7550.100608
1082.691408,-814.226536,0.000000,11177.109724
1082.691738,-2442.679609,2681.334243,11843.295072
1082.692068,-4663.297435,4060.306139,10881.027347
1082.692397,-5033.400406,3677.258390,10436.903782
1082.692727,-3256.906145,1302.362347,11177.109724
1082.693056,-1258.350101,1608.800546,11029.068536
1082.693386,-222.061783,2757.943793,8956.491898
1082.693716,0.000000,612.876398,6217.729913
1082.694045,-592.164754,-1302.362347,3923.091493
1082.694375,-814.226536,-1532.190996,4145.153275
1082.694704,740.205942,-1838.629195,7031.956449
1082.695034,1628.453072,0.000000,9400.615463
1082.695363,1110.308913,919.314598,11621.233289
1082.695693,-1480.411884,689.485948,11473.192101
1082.696023,-3404.947333,-153.219100,11695.253884
1082.696352,-2960.823768,-459.657299,12805.562797
1082.696682,-1110.308913,612.876398,12953.603985
1082.697011,-518.144159,766.095498,11103.089130
1082.697341,-296.082377,-536.266849,9474.636058
1082.697671,-370.102971,-2757.943793,7550.100608
1082.698000,-370.102971,-2757.943793,6809.894666
1082.698330,1036.288319,-1608.800546,7031.956449
1082.698659,2516.700203,-383.047749,9918.759623
1082.698989,1554.432478,-306.438199,11843.295072
1082.699318,-1776.494261,-383.047749,12065.356855
1082.699648,-4219.173869,-1072.533697,11917.315666
1082.699978,-4219.173869,-995.924147,13619.789333
1082.700307,-3997.112087,1149.143247,14211.954086
1082.700637,-3404.947333,1225.752797,12213.398043
1082.700966,-2220.617826,-2451.505594,9178.553681
1082.701296,0.000000,-6665.030833,7031.956449
1082.701626,148.041188,-4443.353888,6069.688724
1082.701955,296.082377,76.609550,6587.832884
1082.702285,1480.411884,766.095498,8142.265362
1082.702614,2294.638420,689.485948,9400.615463
1082.702944,1628.453072,1378.971896,10436.903782
1082.703273,0.000000,1149.143247,10807.006753
1082.703603,-1776.494261,766.095498,11029.068536
1082.703933,-3108.864956,1532.190996,10288.862594
1082.704262,-3404.947333,-612.876398,8660.409521
1082.704592,-1998.556043,-4673.182538,7031.956449
1082.704921,-962.267725,-6665.030833,6143.709319
1082.705251,-888.247130,-5515.887586,4885.359217
1082.705581,-2294.638420,-3217.601092,4441.235652
1082.705910,-1110.308913,-2757.943793,5773.606348
1082.706240,370.102971,-2221.676944,7550.100608
1082.706569,814.226536,-1225.752797,10510.924376
1082.706899,74.020594,-229.828649,12731.542202
1082.707228,-1110.308913,536.266849,13323.706956
1082.707558,-2220.617826,1072.533697,13767.830521
1082.707888,-4515.256246,0.000000,13767.830521
1082.708217,-5181.441594,-2221.676944,12657.521608
1082.708547,-3849.070898,-3677.258390,11325.150913
1082.708876,-1258.350101,-6281.983084,9104.533087
1082.709206,0.000000,-8044.002729,6513.812290
1082.709535,148.041188,-6971.469032,4737.318029
1082.709865,1480.411884,-5975.544884,6217.729913
1082.710195,2812.782580,-3983.696590,9918.759623
1082.710524,2220.617826,536.266849,13249.686362
1082.710854,962.267725,3064.381992,14508.036463
1082.711183,222.061783,459.657299,14137.933492
1082.711513,-1036.288319,-2145.067394,13915.871710
1082.711843,-1850.514855,-1762.019645,14359.995275
1082.712172,-3034.844362,-1991.848295,13989.892304
1082.712502,-3923.091493,-1762.019645,11325.150913
1082.712831,-4441.235652,-2451.505594,7402.059420
1082.713161,-2738.761985,-4443.353888,5107.421000
1082.713490,222.061783,-5975.544884,3627.009116
1082.713820,2516.700203,-5286.058936,3182.885551
1082.714150,3182.885551,-3140.991542,3330.926739
1082.714479,2368.659014,-229.828649,5699.585753
1082.714809,518.144159,1608.800546,10140.821405
1082.715138,-1628.453072,2911.162892,14434.015869
1082.715468,-4663.297435,3677.258390,15914.427753
1082.715798,-5921.647536,2681.334243,14952.160028
1082.716127,-5403.503377,-229.828649,13027.624579
1082.716457,-4441.235652,-5056.230287,10066.800811
1082.716786,-3108.864956,-6128.763984,7476.080014
1082.717116,-1850.514855,-4290.134789,5699.585753
1082.717445,-444.123565,-2528.115143,5107.421000
1082.717775,592.164754,-766.095498,4737.318029
1082.718105,1332.370696,0.000000,5255.462188
1082.718434,2590.720797,76.609550,5551.544565
1082.718764,3997.112087,-383.047749,6513.812290
1082.719093,4367.215058,-1149.143247,9030.512492
1082.719423,2812.782580,-689.485948,11991.336260
1082.719753,-592.164754,-383.047749,15470.304188
1082.720082,-3849.070898,229.828649,17468.860231
1082.720412,-5625.565159,0.000000,17320.819043
1082.720741,-6291.750507,-1072.533697,14878.139434
1082.721071,-4811.338623,-2987.772442,10955.047942
1082.721400,-1998.556043,-5515.887586,6439.791695
1082.721730,666.185348,-7354.516781,3849.070898
1082.722060,2516.700203,-6511.811733,3182.885551
