#time,accel_x,accel_y,accel_z
1023.673037,-1036.288319,689.485948,9400.615463
1023.673367,-888.247130,689.485948,9400.615463
1023.673697,-888.247130,842.705048,9548.656652
1023.674026,-1184.329507,995.924147,9400.615463
1023.674356,-1036.288319,766.095498,9400.615463
1023.674685,-1110.308913,1149.143247,9474.636058
1023.675015,-1036.288319,1149.143247,9104.533087
1023.675345,-1258.350101,1455.581446,9252.574275
1023.675674,-1036.288319,995.924147,9474.636058
1023.676004,-1036.288319,1302.362347,9474.636058
1023.676334,-1110.308913,919.314598,9400.615463
1023.676663,-1184.329507,995.924147,9400.615463
1023.676993,-1184.329507,919.314598,9252.574275
1023.677322,-1110.308913,995.924147,9400.615463
1023.677652,-1110.308913,766.095498,9474.636058
1023.677982,-1184.329507,919.314598,9622.677246
1023.678311,-1110.308913,766.095498,9474.636058
1023.678641,-1184.329507,995.924147,9474.636058
1023.678971,-1036.288319,842.705048,9622.677246
1023.679300,-962.267725,919.314598,9696.697840
1023.679630,-1184.329507,766.095498,9622.677246
1023.679959,-1184.329507,842.705048,9696.697840
1023.680289,-962.267725,1838.629195,9992.780217
1023.680619,-740.205942,842.705048,9474.636058
1023.680948,-1036.288319,612.876398,9844.739029
1023.681278,-1110.308913,842.705048,9696.697840
1023.681607,-1258.350101,842.705048,9548.656652
1023.681937,-666.185348,995.924147,9696.697840
1023.682267,-1258.350101,766.095498,9400.615463
1023.682596,-962.267725,919.314598,9696.697840
1023.682926,-1036.288319,766.095498,9474.636058
1023.683256,-1036.288319,995.924147,9696.697840
1023.683585,-1036.288319,842.705048,9622.677246
1023.683915,-740.205942,1225.752797,9548.656652
1023.684244,-1036.288319,995.924147,9622.677246
1023.684574,-1184.329507,1072.533697,9400.615463
1023.684904,-888.247130,1072.533697,9770.718434
1023.685233,-1110.308913,1149.143247,9474.636058
1023.685563,-962.267725,766.095498,9400.615463
1023.685893,-740.205942,842.705048,9770.718434
1023.686222,-962.267725,919.314598,9252.574275
1023.686552,-962.267725,1225.752797,9400.615463
1023.686881,-1036.288319,842.705048,9400.615463
1023.687211,-962.267725,1225.752797,9548.656652
1023.687541,-1036.288319,689.485948,9326.594869
1023.687870,-888.247130,1225.752797,9474.636058
1023.688200,-1036.288319,995.924147,9474.636058
1023.688530,-1184.329507,995.924147,9474.636058
1023.688859,-1036.288319,766.095498,9252.574275
1023.689189,-962.267725,1072.533697,9104.533087
1023.689518,-1184.329507,1072.533697,9400.615463
1023.689848,-1110.308913,919.314598,9548.656652
1023.690178,-1110.308913,995.924147,9622.677246
1023.690507,-1036.288319,689.485948,9696.697840
1023.690837,-814.226536,1455.581446,9992.780217
1023.691166,-1332.370696,689.485948,9474.636058
1023.691496,-962.267725,919.314598,9548.656652
1023.691826,-962.267725,1072.533697,9770.718434
1023.692155,-1036.288319,842.705048,9696.697840
1023.692485,-1036.288319,612.876398,9696.697840
1023.692815,-740.205942,1149.143247,9622.677246
1023.693144,-1184.329507,689.485948,9622.677246
1023.693474,-1184.329507,919.314598,9622.677246
1023.693803,-1110.308913,995.924147,9770.718434
1023.694133,-888.247130,1149.143247,9622.677246
1023.694463,-1036.288319,766.095498,9770.718434
1023.694792,-1036.288319,919.314598,9474.636058
1023.695122,-888.247130,1072.533697,9104.533087
1023.695452,0.000000,766.095498,9104.533087
1023.695781,666.185348,766.095498,9178.553681
1023.696111,1258.350101,612.876398,9252.574275
1023.696440,1110.308913,842.705048,9400.615463
1023.696770,444.123565,919.314598,9770.718434
1023.697100,-148.041188,1378.971896,10140.821405
1023.697429,-740.205942,1225.752797,10214.842000
1023.697759,-740.205942,766.095498,10214.842000
1023.698088,-148.041188,0.000000,9474.636058
1023.698418,222.061783,0.000000,9400.615463
1023.698748,1110.308913,153.219100,9326.594869
1023.699077,1998.556043,536.266849,9030.512492
1023.699407,2664.741391,995.924147,8882.471304
1023.699737,3404.947333,1149.143247,8586.388927
1023.700066,3404.947333,1915.238745,9030.512492
1023.700396,3478.967927,2145.067394,9548.656652
1023.700725,3404.947333,1225.752797,9918.759623
1023.701055,2516.700203,766.095498,10288.862594
1023.701385,1628.453072,1378.971896,10510.924376
1023.701714,1480.411884,689.485948,10658.965565
1023.702044,1480.411884,0.000000,10732.986159
1023.702374,1776.494261,0.000000,9992.780217
1023.702703,2368.659014,0.000000,9474.636058
1023.703033,3330.926739,-306.438199,9104.533087
1023.703362,4367.215058,-306.438199,9178.553681
1023.703692,4367.215058,1838.629195,9252.574275
1023.704022,3923.091493,2451.505594,9770.718434
1023.704351,3034.844362,2834.553343,10288.862594
1023.704681,1554.432478,3140.991542,10732.986159
1023.705011,-592.164754,2451.505594,10140.821405
1023.705340,-2220.617826,1762.019645,9992.780217
1023.705670,-1776.494261,229.828649,8734.430116
1023.705999,-444.123565,-1072.533697,7772.162391
1023.706329,1110.308913,-1378.971896,6809.894666
1023.706659,2664.741391,-689.485948,5847.626942
1023.706988,4071.132681,153.219100,6513.812290
1023.707318,4441.235652,1455.581446,7698.141797
1023.707647,2960.823768,3830.477490,9696.697840
1023.707977,1924.535449,5209.449386,11325.150913
1023.708307,666.185348,4903.011187,12139.377449
1023.708636,0.000000,3140.991542,12583.501014
1023.708966,-1036.288319,919.314598,12287.418637
1023.709296,-1628.453072,-1378.971896,11399.171507
1023.709625,-1628.453072,-2987.772442,10658.965565
1023.709955,-740.205942,-2757.943793,9622.677246
1023.710284,518.144159,-1685.410096,8438.347739
1023.710614,2220.617826,-1378.971896,8068.244768
1023.710944,4071.132681,-306.438199,7254.018232
1023.711273,5033.400406,1302.362347,7105.977043
1023.711603,4959.379811,2834.553343,7920.203579
1023.711933,4737.318029,3907.087040,8882.471304
1023.712262,3923.091493,4366.744339,10288.862594
1023.712592,2960.823768,3677.258390,11103.089130
1023.712921,1924.535449,2298.286494,11399.171507
1023.713251,888.247130,1225.752797,11325.150913
1023.713581,148.041188,-229.828649,10510.924376
1023.713910,-592.164754,-1149.143247,10362.883188
1023.714240,-518.144159,-1225.752797,10658.965565
1023.714569,-296.082377,-1149.143247,10214.842000
1023.714899,148.041188,-459.657299,9844.739029
1023.715229,666.185348,612.876398,9178.553681
1023.715558,1776.494261,459.657299,8142.265362
1023.715888,2960.823768,306.438199,8734.430116
1023.716218,3923.091493,842.705048,8364.327145
1023.716547,4293.194464,612.876398,8512.368333
1023.716877,4293.194464,229.828649,8882.471304
1023.717206,3627.009116,459.657299,9252.574275
1023.717536,2516.700203,1302.362347,9918.759623
1023.717866,1998.556043,1762.019645,10436.903782
1023.718195,1998.556043,2145.067394,10732.986159
1023.718525,2146.597232,2145.067394,10436.903782
1023.718855,2220.617826,2068.457845,9474.636058
1023.719184,2368.659014,1532.190996,8438.347739
1023.719514,3256.906145,995.924147,7920.203579
1023.719843,3404.947333,536.266849,8142.265362
1023.720173,2516.700203,1302.362347,8586.388927
1023.720503,1480.411884,1915.238745,9178.553681
1023.720832,-148.041188,689.485948,9400.615463
1023.721162,-592.164754,536.266849,10066.800811
1023.721492,-1110.308913,383.047749,10732.986159
1023.721821,-1258.350101,-306.438199,11399.171507
1023.722151,-1480.411884,-306.438199,10955.047942
1023.722480,-1480.411884,-536.266849,10214.842000
1023.722810,-1110.308913,0.000000,10140.821405
1023.723140,370.102971,306.438199,9548.656652
1023.723469,2590.720797,766.095498,8660.409521
1023.723799,5255.462188,1455.581446,7624.121203
1023.724128,7698.141797,2911.162892,7624.121203
1023.724458,9326.594869,3524.039291,7846.182985
1023.724788,8734.430116,3753.867940,8956.491898
1023.725117,6883.915261,4903.011187,10658.965565
1023.725447,3552.988522,4749.792088,11843.295072
1023.725777,888.247130,4060.306139,14359.995275
1023.726106,-2072.576638,1302.362347,15692.365970
1023.726436,-5921.647536,306.438199,13767.830521
1023.726765,-7179.997637,-1838.629195,11473.192101
1023.727095,-5847.626942,-3600.648841,9252.574275
1023.727425,-2960.823768,-3294.210641,5255.462188
1023.727754,1406.391290,-4366.744339,962.267725
1023.728084,6513.812290,-3907.087040,296.082377
1023.728414,10066.800811,-766.095498,2590.720797
1023.728743,9622.677246,4749.792088,5921.647536
1023.729073,7846.182985,7507.735880,8808.450710
1023.729402,6439.791695,9116.536426,11325.150913
1023.729732,3552.988522,10112.460574,13619.789333
1023.730062,0.000000,6511.811733,14878.139434
1023.730391,-3108.864956,0.000000,16728.654289
1023.730721,-5847.626942,-2757.943793,16728.654289
1023.731050,-7772.162391,-3064.381992,13101.645173
1023.731380,-4885.359217,-4903.011187,9474.636058
1023.731710,666.185348,-7814.174080,7624.121203
1023.732039,5477.523971,-6128.763984,3923.091493
1023.732369,9622.677246,-4136.915689,1554.432478
1023.732699,12731.542202,-1915.238745,3701.029710
1023.733028,12953.603985,4826.401637,8216.285956
1023.733358,7254.018232,9269.755526,11399.171507
1023.733687,1998.556043,9576.193725,13767.830521
1023.734017,-518.144159,7201.297681,14508.036463
1023.734347,-666.185348,3907.087040,14359.995275
1023.734676,-1036.288319,-842.705048,11843.295072
1023.735006,-2516.700203,-4749.792088,8586.388927
1023.735336,-1998.556043,-7048.078582,5625.565159
1023.735665,148.041188,-7201.297681,5921.647536
1023.735995,962.267725,-4366.744339,8364.327145
1023.736324,666.185348,229.828649,9326.594869
1023.736654,0.000000,2374.896044,9622.677246
1023.736984,888.247130,3064.381992,10436.903782
1023.737313,1850.514855,3447.429741,12287.418637
1023.737643,1480.411884,3294.210641,13619.789333
1023.737973,148.041188,2834.553343,12879.583391
1023.738302,-1850.514855,689.485948,11399.171507
1023.738632,-2664.741391,-995.924147,10436.903782
1023.738961,-2146.597232,-2374.896044,8438.347739
1023.739291,444.123565,-3983.696590,5625.565159
1023.739621,3034.844362,-4903.011187,4441.235652
1023.739950,5033.400406,-2068.457845,6217.729913
1023.740280,6217.729913,1608.800546,7772.162391
1023.740609,6143.709319,4596.572988,8142.265362
1023.740939,5033.400406,5669.106685,8290.306550
1023.741269,3182.885551,6358.592633,10881.027347
1023.741598,148.041188,6511.811733,14952.160028
1023.741928,-3923.091493,5669.106685,15618.345376
1023.742258,-7105.977043,3983.696590,13619.789333
1023.742587,-8216.285956,-383.047749,11695.253884
1023.742917,-7772.162391,-3983.696590,10732.986159
1023.743247,-6661.853478,-6281.983084,9030.512492
1023.743576,-4885.359217,-6281.983084,6809.894666
1023.743906,-3404.947333,-3753.867940,5699.585753
1023.744236,-1924.535449,-459.657299,5995.668130
1023.744566,592.164754,2451.505594,6661.853478
1023.744895,3404.947333,3294.210641,7179.997637
1023.745225,5255.462188,4290.134789,7328.038826
1023.745555,5181.441594,6894.859482,8438.347739
1023.745885,5107.421000,7584.345430,9918.759623
1023.746215,5403.503377,5132.839837,12065.356855
1023.746544,2516.700203,2911.162892,13397.727550
1023.746874,-1850.514855,3294.210641,12805.562797
1023.747204,-4219.173869,3217.601092,11621.233289
1023.747534,-3775.050304,1072.533697,11473.192101
1023.747864,-2368.659014,-229.828649,9770.718434
1023.748193,-1924.535449,-1149.143247,7402.059420
1023.748523,-148.041188,-1608.800546,6365.771101
1023.748853,222.061783,-536.266849,6957.935855
1023.749183,-1776.494261,1455.581446,7402.059420
1023.749512,-3108.864956,3524.039291,8216.285956
1023.749842,-2590.720797,2528.115143,8734.430116
1023.750172,-740.205942,766.095498,8660.409521
1023.750502,74.020594,1072.533697,7624.121203
1023.750832,1480.411884,-459.657299,7254.018232
1023.751161,3478.967927,-1608.800546,8512.368333
1023.751491,2664.741391,-1149.143247,10584.944971
1023.751821,-518.144159,2145.067394,11325.150913
1023.752151,-2516.700203,4213.525239,11251.130318
1023.752480,-1702.473667,2604.724693,12361.439231
1023.752810,-1036.288319,1378.971896,13027.624579
1023.753140,-1850.514855,1302.362347,11917.315666
1023.753470,-1554.432478,-306.438199,10362.883188
1023.753800,-1110.308913,-2451.505594,9474.636058
1023.754129,-3034.844362,-2834.553343,9474.636058
1023.754459,-5921.647536,-1378.971896,10066.800811
1023.754789,-5329.482782,-1072.533697,9696.697840
1023.755119,-2442.679609,-919.314598,7550.100608
1023.755449,148.041188,-842.705048,5995.668130
1023.755778,2886.803174,-1225.752797,5477.523971
1023.756108,4737.318029,-1225.752797,7698.141797
1023.756438,3775.050304,229.828649,11029.068536
1023.756768,-1480.411884,4673.182538,13175.665768
1023.757097,-6143.709319,8273.831378,14063.912898
1023.757427,-6291.750507,5362.668486,15470.304188
1023.757757,-4959.379811,536.266849,14582.057057
1023.758087,-4663.297435,-1532.190996,11843.295072
1023.758417,-3330.926739,-2757.943793,8068.244768
1023.758746,-1036.288319,-4903.011187,6217.729913
1023.759076,-1628.453072,-4826.401637,6587.832884
1023.759406,-3627.009116,-1225.752797,6883.915261
1023.759736,-2812.782580,1685.410096,7698.141797
1023.760065,1480.411884,2374.896044,7624.121203
1023.760395,3923.091493,4136.915689,6291.750507
1023.760725,5181.441594,3677.258390,6069.688724
1023.761055,6143.709319,2298.286494,7254.018232
1023.761385,5403.503377,2528.115143,10807.006753
1023.761714,666.185348,5439.278036,13545.768739
1023.762044,-4367.215058,8810.098227,13619.789333
1023.762374,-5477.523971,5898.935335,11917.315666
1023.762704,-3627.009116,919.314598,9696.697840
1023.763033,-1998.556043,-3217.601092,7846.182985
1023.763363,0.000000,-2145.067394,7031.956449
1023.763693,1332.370696,-2145.067394,7476.080014
1023.764023,-370.102971,-1149.143247,8142.265362
1023.764353,-4737.318029,2987.772442,7105.977043
1023.764682,-4959.379811,4366.744339,6883.915261
1023.765012,-370.102971,1225.752797,7624.121203
1023.765342,3256.906145,383.047749,8734.430116
1023.765672,3923.091493,2068.457845,8364.327145
1023.766002,4145.153275,1455.581446,8438.347739
1023.766331,4071.132681,153.219100,10510.924376
1023.766661,2442.679609,1532.190996,12139.377449
1023.766991,-1036.288319,3600.648841,12731.542202
1023.767321,-2368.659014,4366.744339,13323.706956
1023.767650,-814.226536,2145.067394,13619.789333
1023.767980,222.061783,0.000000,12731.542202
1023.768310,-296.082377,-689.485948,10288.862594
1023.768640,-444.123565,-1302.362347,8734.430116
1023.768970,-1406.391290,-2374.896044,8512.368333
1023.769299,-3552.988522,-612.876398,8734.430116
1023.769629,-5107.421000,383.047749,8068.244768
1023.769959,-3478.967927,-2145.067394,8882.471304
1023.770289,-2294.638420,-2681.334243,8586.388927
1023.770618,-2220.617826,919.314598,7328.038826
1023.770948,-296.082377,1532.190996,7105.977043
1023.771278,1776.494261,153.219100,8142.265362
1023.771608,370.102971,1225.752797,9252.574275
1023.771938,-2960.823768,3370.820191,10881.027347
1023.772267,-3923.091493,3447.429741,13101.645173
1023.772597,-3627.009116,2604.724693,13619.789333
1023.772927,-4589.276840,1225.752797,12509.480420
1023.773257,-4515.256246,-1149.143247,10881.027347
1023.773587,-2294.638420,-2987.772442,9918.759623
1023.773916,-1258.350101,-2681.334243,9104.533087
1023.774246,-3034.844362,-1608.800546,7772.162391
1023.774576,-3701.029710,-536.266849,6809.894666
1023.774906,-1332.370696,-306.438199,7254.018232
1023.775235,1702.473667,306.438199,7179.997637
1023.775565,2590.720797,1532.190996,7179.997637
1023.775895,3330.926739,2604.724693,6587.832884
1023.776225,4145.153275,2451.505594,7772.162391
1023.776555,2590.720797,2068.457845,10584.944971
1023.776884,-296.082377,4366.744339,12879.583391
1023.777214,-2516.700203,6128.763984,12805.562797
1023.777544,-2442.679609,3447.429741,12361.439231
1023.777874,-2886.803174,153.219100,10510.924376
1023.778203,-2960.823768,-612.876398,8660.409521
1023.778533,-1332.370696,-1072.533697,8438.347739
1023.778863,-148.041188,-1991.848295,9326.594869
1023.779193,-2664.741391,76.609550,9104.533087
1023.779523,-4589.276840,2145.067394,7328.038826
1023.779852,-2146.597232,842.705048,6957.935855
1023.780182,1702.473667,-1225.752797,7994.224174
1023.780512,2738.761985,1302.362347,8364.327145
1023.780842,3256.906145,3294.210641,8142.265362
1023.781171,4367.215058,2451.505594,8438.347739
1023.781501,3404.947333,2145.067394,10066.800811
1023.781831,1036.288319,3140.991542,11991.336260
1023.782161,-740.205942,5439.278036,13027.624579
1023.782491,-518.144159,3907.087040,12361.439231
1023.782820,-962.267725,1149.143247,10732.986159
1023.783150,-1998.556043,-536.266849,9992.780217
1023.783480,-1554.432478,-1608.800546,9696.697840
1023.783810,-1110.308913,-1608.800546,9474.636058
1023.784140,-3034.844362,-229.828649,8956.491898
1023.784469,-4293.194464,1378.971896,7550.100608
1023.784799,-3108.864956,-383.047749,7105.977043
1023.785129,-962.267725,-2374.896044,7994.224174
1023.785459,-1110.308913,383.047749,7624.121203
1023.785788,-370.102971,3524.039291,7031.956449
1023.786118,1332.370696,2604.724693,8142.265362
1023.786448,1036.288319,536.266849,10362.883188
1023.786778,-2886.803174,1378.971896,12509.480420
1023.787108,-5921.647536,3370.820191,13841.851115
1023.787437,-4959.379811,2987.772442,13619.789333
1023.787767,-4367.215058,1302.362347,12953.603985
1023.788097,-4145.153275,-1455.581446,11177.109724
1023.788427,-2886.803174,-3677.258390,8364.327145
1023.788756,-888.247130,-4673.182538,7846.182985
1023.789086,-1036.288319,-1762.019645,8882.471304
1023.789416,-2516.700203,1838.629195,8882.471304
1023.789746,-2220.617826,3447.429741,6957.935855
1023.790076,740.205942,76.609550,5921.647536
1023.790405,3478.967927,-536.266849,6291.750507
1023.790735,4441.235652,2374.896044,7328.038826
1023.791065,4589.276840,2374.896044,9252.574275
1023.791395,2072.576638,1378.971896,12583.501014
1023.791725,-3849.070898,3907.087040,14063.912898
1023.792054,-6365.771101,6052.154434,13101.645173
1023.792384,-4145.153275,2987.772442,11843.295072
1023.792714,-1184.329507,-459.657299,9770.718434
1023.793044,-888.247130,-1378.971896,7402.059420
1023.793373,-2294.638420,-2528.115143,5107.421000
1023.793703,-2442.679609,-1915.238745,5921.647536
1023.794033,-3775.050304,-612.876398,8290.306550
1023.794363,-5477.523971,1455.581446,9696.697840
1023.794693,-4663.297435,2451.505594,9696.697840
1023.795022,-666.185348,0.000000,8734.430116
1023.795352,2664.741391,-1378.971896,7328.038826
1023.795682,4219.173869,-842.705048,6513.812290
1023.796012,5551.544565,689.485948,8142.265362
1023.796341,5107.421000,2911.162892,11547.212695
1023.796671,2072.576638,5439.278036,14285.974681
1023.797001,-1258.350101,8733.488677,13841.851115
1023.797331,-1258.350101,5898.935335,11843.295072
1023.797661,-518.144159,459.657299,10510.924376
1023.797990,74.020594,-1302.362347,9844.739029
1023.798320,74.020594,-1532.190996,10288.862594
1023.798650,-1702.473667,-2757.943793,8882.471304
1023.798980,-4219.173869,-2298.286494,8142.265362
1023.799309,-6587.832884,-1072.533697,7994.224174
1023.799639,-5995.668130,306.438199,8142.265362
1023.799969,-2368.659014,-1455.581446,8068.244768
1023.800299,444.123565,-1455.581446,7772.162391
1023.800629,444.123565,229.828649,7624.121203
1023.800958,296.082377,2145.067394,8290.306550
1023.801288,518.144159,2987.772442,9992.780217
1023.801618,-888.247130,3370.820191,11621.233289
1023.801948,-3034.844362,4673.182538,11843.295072
1023.802278,-3404.947333,4749.792088,11843.295072
1023.802607,-1998.556043,76.609550,12435.459826
1023.802937,-1776.494261,-1915.238745,12287.418637
1023.803267,-2812.782580,-612.876398,11029.068536
1023.803597,-2590.720797,-1378.971896,8882.471304
1023.803926,-2664.741391,-1991.848295,8808.450710
1023.804256,-3478.967927,-612.876398,8808.450710
1023.804586,-3182.885551,1378.971896,8364.327145
1023.804916,-296.082377,76.609550,6957.935855
1023.805246,2294.638420,0.000000,5329.482782
1023.805575,3330.926739,536.266849,5329.482782
1023.805905,4071.132681,383.047749,7105.977043
1023.806235,3701.029710,842.705048,9622.677246
1023.806565,148.041188,2834.553343,11917.315666
1023.806894,-3034.844362,6052.154434,13323.706956
1023.807224,-4071.132681,5975.544884,13101.645173
1023.807554,-2886.803174,2528.115143,12731.542202
1023.807884,-2072.576638,153.219100,11103.089130
1023.808214,-2368.659014,-842.705048,8808.450710
1023.808543,-1924.535449,-306.438199,7031.956449
1023.808873,-2072.576638,-1149.143247,7328.038826
1023.809203,-3701.029710,-306.438199,7698.141797
1023.809533,-4367.215058,1455.581446,8142.265362
1023.809862,-1850.514855,1149.143247,8438.347739
1023.810192,1702.473667,1072.533697,7772.162391
1023.810522,2368.659014,1302.362347,6735.874072
1023.810852,2442.679609,1608.800546,7031.956449
1023.811182,3552.988522,1991.848295,9326.594869
1023.811511,2442.679609,2298.286494,12065.356855
1023.811841,-740.205942,5132.839837,13323.706956
1023.812171,-2368.659014,6818.249932,12287.418637
1023.812501,-1924.535449,3140.991542,11399.171507
1023.812831,-962.267725,-229.828649,10510.924376
1023.813160,-1036.288319,-1072.533697,9918.759623
1023.813490,-888.247130,-766.095498,9326.594869
1023.813820,-1776.494261,-1149.143247,9252.574275
1023.814150,-3923.091493,-689.485948,9104.533087
1023.814479,-6069.688724,459.657299,8882.471304
1023.814809,-4367.215058,-229.828649,8438.347739
1023.815139,-1850.514855,-766.095498,8364.327145
1023.815469,-518.144159,0.000000,8142.265362
1023.815799,-444.123565,383.047749,8068.244768
1023.816128,962.267725,229.828649,9030.512492
1023.816458,296.082377,536.266849,10881.027347
1023.816788,-2146.597232,2604.724693,12213.398043
1023.817118,-3552.988522,5286.058936,12287.418637
1023.817447,-2368.659014,3140.991542,11695.253884
1023.817777,-518.144159,-459.657299,10584.944971
1023.818107,-592.164754,-1302.362347,9548.656652
1023.818437,-222.061783,-995.924147,9030.512492
1023.818767,-222.061783,-1302.362347,8956.491898
1023.819096,-1850.514855,-76.609550,9178.553681
1023.819426,-4737.318029,2145.067394,9030.512492
1023.819756,-3552.988522,1378.971896,8290.306550
1023.820086,-740.205942,-1225.752797,7698.141797
1023.820416,740.205942,-1378.971896,8438.347739
1023.820745,444.123565,1072.533697,8364.327145
1023.821075,1554.432478,1225.752797,8586.388927
1023.821405,1332.370696,0.000000,10436.903782
1023.821735,-1036.288319,2451.505594,11547.212695
1023.822064,-3923.091493,4903.011187,11325.150913
1023.822394,-4441.235652,3677.258390,10807.006753
1023.822724,-3256.906145,1302.362347,10066.800811
1023.823054,-3034.844362,0.000000,9178.553681
1023.823384,-2664.741391,-995.924147,8660.409521
1023.823713,-1480.411884,-2374.896044,8956.491898
1023.824043,-2294.638420,-1302.362347,9252.574275
1023.824373,-3552.988522,612.876398,7624.121203
1023.824703,-1998.556043,1302.362347,7328.038826
1023.825032,1998.556043,842.705048,7920.203579
1023.825362,4145.153275,1072.533697,8734.430116
1023.825692,3923.091493,3524.039291,8438.347739
1023.826022,4367.215058,4673.182538,8364.327145
1023.826352,4293.194464,3907.087040,9474.636058
1023.826681,1332.370696,3753.867940,10881.027347
1023.827011,-1554.432478,4903.011187,11917.315666
1023.827341,-2368.659014,3524.039291,11843.295072
1023.827671,-2368.659014,1072.533697,11547.212695
1023.828000,-3552.988522,76.609550,9622.677246
1023.828330,-4737.318029,-919.314598,8882.471304
1023.828660,-3849.070898,-2528.115143,8956.491898
1023.828990,-3552.988522,-2298.286494,9622.677246
1023.829320,-5403.503377,459.657299,9104.533087
1023.829649,-5625.565159,2298.286494,7624.121203
1023.829979,-2368.659014,0.000000,7328.038826
1023.830309,0.000000,-1072.533697,7772.162391
1023.830639,1036.288319,459.657299,8290.306550
1023.830969,1850.514855,1532.190996,8586.388927
1023.831298,2220.617826,2068.457845,10510.924376
1023.831628,888.247130,2604.724693,11843.295072
1023.831958,-1998.556043,3753.867940,11843.295072
1023.832288,-1924.535449,2681.334243,11325.150913
1023.832617,-740.205942,689.485948,11177.109724
1023.832947,-740.205942,-842.705048,10881.027347
1023.833277,-1258.350101,-383.047749,10362.883188
1023.833607,-1924.535449,-995.924147,9918.759623
1023.833937,-1998.556043,-1991.848295,9400.615463
1023.834266,-3552.988522,-919.314598,8808.450710
1023.834596,-3849.070898,383.047749,8216.285956
1023.834926,-1406.391290,0.000000,7920.203579
1023.835256,518.144159,-1838.629195,7624.121203
1023.835585,1036.288319,-1149.143247,7476.080014
1023.835915,1406.391290,153.219100,7994.224174
1023.836245,1850.514855,766.095498,10584.944971
1023.836575,222.061783,1608.800546,12361.439231
1023.836905,-2442.679609,4290.134789,12657.521608
1023.837234,-3108.864956,4060.306139,11843.295072
1023.837564,-1332.370696,1225.752797,10510.924376
1023.837894,-518.144159,-1378.971896,9992.780217
1023.838224,-962.267725,-766.095498,8956.491898
1023.838554,-962.267725,-995.924147,8882.471304
1023.838883,-814.226536,-842.705048,9030.512492
1023.839213,-2294.638420,766.095498,8660.409521
1023.839543,-3034.844362,1685.410096,8068.244768
1023.839873,-592.164754,1302.362347,7994.224174
1023.840202,2220.617826,536.266849,7846.182985
1023.840532,2886.803174,995.924147,7254.018232
1023.840862,2812.782580,2068.457845,6883.915261
1023.841192,2960.823768,2374.896044,8364.327145
1023.841522,1628.453072,2528.115143,11399.171507
1023.841851,-1998.556043,4903.011187,12213.398043
1023.842181,-3478.967927,6052.154434,11695.253884
1023.842511,-2664.741391,3140.991542,10955.047942
1023.842841,-1998.556043,0.000000,10807.006753
1023.843170,-2812.782580,76.609550,9326.594869
1023.843500,-3478.967927,612.876398,7994.224174
1023.843830,-3256.906145,-536.266849,7994.224174
1023.844160,-4515.256246,229.828649,9252.574275
1023.844489,-5847.626942,2221.676944,9696.697840
1023.844819,-4737.318029,995.924147,9622.677246
1023.845149,-2368.659014,229.828649,8956.491898
1023.845479,-740.205942,842.705048,7698.141797
1023.845808,222.061783,536.266849,7402.059420
1023.846138,2072.576638,383.047749,8512.368333
1023.846468,2072.576638,995.924147,10955.047942
1023.846798,-370.102971,2987.772442,11991.336260
1023.847127,-2590.720797,5286.058936,11621.233289
1023.847457,-1924.535449,4290.134789,11325.150913
1023.847787,-592.164754,153.219100,11029.068536
1023.848117,-444.123565,-919.314598,10214.842000
1023.848446,-518.144159,-689.485948,9178.553681
1023.848776,-444.123565,-1378.971896,8660.409521
1023.849106,-2738.761985,-1532.190996,9030.512492
1023.849436,-4811.338623,76.609550,9474.636058
1023.849765,-4145.153275,842.705048,9474.636058
1023.850095,-1184.329507,-842.705048,9400.615463
1023.850425,1258.350101,-1149.143247,8734.430116
1023.850755,1480.411884,-306.438199,6883.915261
1023.851085,2146.597232,689.485948,7624.121203
1023.851414,1036.288319,536.266849,8808.450710
1023.851744,-1702.473667,2528.115143,10658.965565
1023.852074,-3330.926739,4060.306139,11843.295072
1023.852404,-2664.741391,2451.505594,11991.336260
1023.852733,-1850.514855,0.000000,11695.253884
1023.853063,-1998.556043,-2221.676944,9474.636058
1023.853393,-1036.288319,-3064.381992,8438.347739
1023.853723,1110.308913,-3294.210641,9548.656652
1023.854052,888.247130,-1455.581446,11029.068536
1023.854382,-2220.617826,2145.067394,9992.780217
1023.854712,-1776.494261,3830.477490,8734.430116
1023.855042,2146.597232,1991.848295,8068.244768
1023.855371,5181.441594,536.266849,8142.265362
1023.855701,4589.276840,2145.067394,7476.080014
1023.856031,4145.153275,2834.553343,8142.265362
1023.856361,3478.967927,1915.238745,10140.821405
1023.856690,444.123565,2681.334243,11473.192101
1023.857020,-3404.947333,3830.477490,11547.212695
1023.857350,-4071.132681,2451.505594,10881.027347
1023.857680,-2442.679609,-459.657299,10955.047942
1023.858009,-2072.576638,229.828649,10214.842000
1023.858339,-2442.679609,153.219100,8364.327145
1023.858669,-2368.659014,-1302.362347,7624.121203
1023.858999,-3034.844362,-612.876398,8734.430116
1023.859328,-4663.297435,1991.848295,9474.636058
1023.859658,-4663.297435,4060.306139,9474.636058
1023.859988,-2738.761985,2145.067394,8438.347739
1023.860318,-1258.350101,-383.047749,7772.162391
1023.860647,-222.061783,0.000000,8068.244768
1023.860977,518.144159,612.876398,8734.430116
1023.861307,1554.432478,1302.362347,10066.800811
1023.861637,-814.226536,2374.896044,11325.150913
1023.861966,-3775.050304,4366.744339,11029.068536
1023.862296,-3552.988522,4060.306139,10658.965565
1023.862626,-1110.308913,1302.362347,11473.192101
1023.862956,-740.205942,306.438199,10288.862594
1023.863285,-1406.391290,995.924147,9326.594869
1023.863615,-1776.494261,-383.047749,8142.265362
1023.863945,-1776.494261,-1608.800546,8438.347739
1023.864275,-3552.988522,-1685.410096,8734.430116
1023.864605,-4145.153275,842.705048,9474.636058
1023.864934,-2294.638420,1225.752797,9104.533087
1023.865264,-666.185348,-536.266849,8512.368333
1023.865594,74.020594,-459.657299,7179.997637
1023.865924,1628.453072,76.609550,7772.162391
1023.866253,2886.803174,919.314598,9992.780217
1023.866583,444.123565,1378.971896,11843.295072
1023.866913,-2886.803174,4366.744339,12657.521608
1023.867243,-3701.029710,4979.620737,11769.274478
1023.867572,-1924.535449,1072.533697,10881.027347
1023.867902,-740.205942,-1608.800546,9844.739029
1023.868232,-592.164754,-1455.581446,8586.388927
1023.868562,-592.164754,-2145.067394,7698.141797
1023.868891,-666.185348,-2987.772442,8216.285956
1023.869221,-2590.720797,-1149.143247,9178.553681
1023.869551,-3627.009116,1608.800546,9326.594869
1023.869881,-1110.308913,1838.629195,8734.430116
1023.870210,2220.617826,0.000000,8216.285956
1023.870540,3997.112087,612.876398,7105.977043
1023.870870,4441.235652,1149.143247,6883.915261
1023.871200,5107.421000,766.095498,8734.430116
1023.871529,3627.009116,2374.896044,11103.089130
1023.871859,222.061783,5898.935335,12065.356855
1023.872189,-1998.556043,5745.716235,11251.130318
1023.872519,-1332.370696,2221.676944,10288.862594
1023.872848,-518.144159,-689.485948,9918.759623
1023.873178,-1110.308913,-383.047749,9918.759623
1023.873508,-1776.494261,0.000000,8734.430116
1023.873838,-1480.411884,-153.219100,9030.512492
1023.874167,-3849.070898,-842.705048,9252.574275
1023.874497,-5699.585753,1149.143247,9770.718434
1023.874827,-4663.297435,2451.505594,9326.594869
1023.875157,-1406.391290,689.485948,8290.306550
1023.875486,0.000000,0.000000,7846.182985
1023.875816,814.226536,995.924147,7476.080014
1023.876146,1702.473667,383.047749,8660.409521
1023.876476,1850.514855,459.657299,10881.027347
1023.876806,-740.205942,3830.477490,11917.315666
1023.877135,-3404.947333,6588.421283,10732.986159
1023.877465,-2368.659014,2834.553343,10732.986159
1023.877795,-814.226536,-383.047749,10732.986159
1023.878125,-370.102971,-306.438199,10584.944971
1023.878454,-1036.288319,-689.485948,9992.780217
1023.878784,-1998.556043,0.000000,9622.677246
1023.879114,-3997.112087,-536.266849,9548.656652
1023.879444,-5033.400406,306.438199,9252.574275
1023.879773,-2960.823768,536.266849,8734.430116
1023.880103,0.000000,-383.047749,8364.327145
1023.880433,296.082377,-766.095498,7550.100608
1023.880763,-592.164754,229.828649,6809.894666
1023.881092,-296.082377,919.314598,7994.224174
1023.881422,222.061783,919.314598,10807.006753
1023.881752,-1628.453072,2145.067394,12435.459826
1023.882082,-3330.926739,4903.011187,12213.398043
1023.882411,-2368.659014,2451.505594,10732.986159
1023.882741,-1258.350101,-1072.533697,9844.739029
1023.883071,-592.164754,-1532.190996,8956.491898
1023.883401,-518.144159,-153.219100,9326.594869
1023.883730,0.000000,0.000000,10140.821405
1023.884060,-1184.329507,1532.190996,10214.842000
1023.884390,-3108.864956,1225.752797,9030.512492
1023.884720,-2368.659014,1225.752797,7920.203579
1023.885049,518.144159,0.000000,8290.306550
1023.885379,2516.700203,-153.219100,8956.491898
1023.885709,2664.741391,1378.971896,8364.327145
1023.886039,2294.638420,1378.971896,7105.977043
1023.886368,2442.679609,689.485948,8808.450710
1023.886698,962.267725,1072.533697,11399.171507
1023.887028,-962.267725,4903.011187,11917.315666
1023.887358,-1554.432478,5898.935335,10732.986159
1023.887687,-222.061783,2757.943793,9400.615463
1023.888017,0.000000,383.047749,8882.471304
1023.888347,-222.061783,383.047749,8956.491898
1023.888677,-592.164754,689.485948,9252.574275
1023.889007,-1924.535449,919.314598,9696.697840
1023.889336,-4293.194464,3064.381992,9474.636058
1023.889666,-4589.276840,2757.943793,8142.265362
1023.889996,-1406.391290,-995.924147,7846.182985
1023.890326,1258.350101,-1608.800546,8734.430116
1023.890655,1036.288319,1225.752797,8808.450710
1023.890985,666.185348,2298.286494,8290.306550
1023.891315,1036.288319,1532.190996,9474.636058
1023.891645,-222.061783,1302.362347,12139.377449
1023.891974,-2294.638420,3830.477490,12805.562797
1023.892304,-2368.659014,4443.353888,11843.295072
1023.892634,-1332.370696,1455.581446,10510.924376
1023.892964,-814.226536,-842.705048,9326.594869
1023.893293,-1850.514855,-1762.019645,8438.347739
1023.893623,-1850.514855,-1838.629195,8882.471304
1023.893953,-1776.494261,-995.924147,9918.759623
1023.894283,-3701.029710,842.705048,9548.656652
1023.894612,-4515.256246,2451.505594,8142.265362
1023.894942,-2294.638420,-995.924147,7772.162391
1023.895272,148.041188,-2451.505594,8734.430116
1023.895602,518.144159,-306.438199,9548.656652
1023.895931,518.144159,2221.676944,9992.780217
1023.896261,518.144159,2221.676944,10288.862594
1023.896591,0.000000,689.485948,11251.130318
1023.896921,-2664.741391,2145.067394,11029.068536
1023.897250,-2960.823768,2298.286494,11103.089130
1023.897580,-1480.411884,919.314598,11399.171507
1023.897910,-1628.453072,-229.828649,10362.883188
1023.898240,-1702.473667,153.219100,8660.409521
1023.898569,-1776.494261,-1915.238745,7624.121203
1023.898899,-814.226536,-2987.772442,8290.306550
1023.899229,-2220.617826,-919.314598,9400.615463
1023.899559,-4071.132681,1685.410096,9326.594869
1023.899888,-2886.803174,2068.457845,7994.224174
1023.900218,370.102971,-995.924147,7846.182985
1023.900548,2220.617826,-1149.143247,8734.430116
1023.900878,2442.679609,1225.752797,9252.574275
1023.901207,2368.659014,2834.553343,9474.636058
1023.901537,1776.494261,2451.505594,10510.924376
1023.901867,-888.247130,3217.601092,11547.212695
1023.902197,-2072.576638,4673.182538,11991.336260
1023.902527,-740.205942,2298.286494,11547.212695
1023.902856,518.144159,536.266849,10658.965565
1023.903186,74.020594,689.485948,8364.327145
1023.903516,148.041188,0.000000,7846.182985
1023.903846,444.123565,-1991.848295,8364.327145
1023.904175,-1480.411884,-153.219100,9400.615463
1023.904505,-3404.947333,3524.039291,9104.533087
1023.904835,-1702.473667,3294.210641,7994.224174
1023.905165,1110.308913,536.266849,7254.018232
1023.905494,2294.638420,766.095498,7105.977043
1023.905824,2294.638420,995.924147,7772.162391
1023.906154,2960.823768,2451.505594,9844.739029
1023.906484,1554.432478,3370.820191,11843.295072
1023.906813,-1776.494261,4519.963438,12805.562797
1023.907143,-4367.215058,3677.258390,11621.233289
1023.907473,-3552.988522,1915.238745,11399.171507
1023.907803,-1702.473667,-459.657299,11103.089130
1023.908132,-1332.370696,-1302.362347,10807.006753
1023.908462,-2072.576638,-536.266849,8956.491898
1023.908792,-2220.617826,-689.485948,6957.935855
1023.909122,-3775.050304,-1838.629195,7179.997637
1023.909451,-4515.256246,919.314598,7846.182985
1023.909781,-3627.009116,1762.019645,7846.182985
1023.910111,-1850.514855,-689.485948,8438.347739
1023.910441,-1184.329507,-1532.190996,8734.430116
1023.910770,-1110.308913,612.876398,9622.677246
1023.911100,814.226536,1072.533697,10288.862594
1023.911430,1554.432478,536.266849,11473.192101
1023.911760,-444.123565,1915.238745,11843.295072
1023.912089,-2146.597232,3140.991542,11029.068536
1023.912419,-1036.288319,2834.553343,11843.295072
1023.912749,-148.041188,689.485948,12361.439231
1023.913079,-888.247130,1225.752797,11177.109724
1023.913408,-2220.617826,-153.219100,8808.450710
1023.913738,-1406.391290,-2298.286494,7624.121203
1023.914068,-2220.617826,-3524.039291,8438.347739
1023.914398,-3775.050304,-1378.971896,9400.615463
1023.914728,-4293.194464,383.047749,8660.409521
1023.915057,-2812.782580,-766.095498,8290.306550
1023.915387,-444.123565,-1838.629195,8068.244768
1023.915717,1184.329507,0.000000,7772.162391
1023.916047,2368.659014,536.266849,7994.224174
1023.916376,2442.679609,612.876398,9474.636058
1023.916706,592.164754,2451.505594,11621.233289
1023.917036,-1850.514855,5745.716235,11991.336260
1023.917366,-2072.576638,5132.839837,11103.089130
1023.917695,-888.247130,1532.190996,10362.883188
1023.918025,-444.123565,229.828649,9844.739029
1023.918355,-296.082377,76.609550,8956.491898
1023.918685,888.247130,-995.924147,8364.327145
1023.919014,-592.164754,-919.314598,8290.306550
1023.919344,-2886.803174,1225.752797,8586.388927
1023.919674,-3182.885551,2987.772442,8438.347739
1023.920004,-296.082377,1608.800546,8586.388927
1023.920333,2294.638420,1225.752797,8068.244768
1023.920663,2220.617826,1838.629195,7698.141797
1023.920993,2738.761985,2145.067394,7920.203579
1023.921323,2590.720797,1608.800546,9326.594869
1023.921652,814.226536,2068.457845,11843.295072
1023.921982,-2072.576638,4596.572988,12657.521608
1023.922312,-3552.988522,4826.401637,11547.212695
1023.922642,-2812.782580,1378.971896,10658.965565
1023.922971,-2220.617826,-383.047749,10362.883188
1023.923301,-1924.535449,-306.438199,9992.780217
1023.923631,-1554.432478,-1149.143247,9252.574275
1023.923961,-2738.761985,-766.095498,8512.368333
1023.924290,-4737.318029,306.438199,8142.265362
1023.924620,-4811.338623,1302.362347,7550.100608
1023.924950,-2368.659014,-229.828649,7698.141797
1023.925280,0.000000,-689.485948,8216.285956
1023.925609,666.185348,536.266849,8660.409521
1023.925939,1036.288319,612.876398,9104.533087
1023.926269,1258.350101,1608.800546,9474.636058
1023.926599,74.020594,1072.533697,11103.089130
1023.926929,-1924.535449,2528.115143,12509.480420
1023.927258,-2220.617826,4060.306139,12435.459826
1023.927588,-1184.329507,919.314598,11843.295072
1023.927918,-1258.350101,-1685.410096,11251.130318
1023.928248,-1998.556043,-1915.238745,11769.274478
1023.928577,-2072.576638,-1072.533697,10510.924376
1023.928907,-1850.514855,-1915.238745,9400.615463
1023.929237,-3330.926739,-1915.238745,8660.409521
1023.929567,-3849.070898,612.876398,6957.935855
1023.929896,-1628.453072,-766.095498,6439.791695
1023.930226,1258.350101,-2298.286494,6883.915261
1023.930556,1628.453072,0.000000,8438.347739
1023.930886,1258.350101,2451.505594,8734.430116
1023.931215,1480.411884,1991.848295,9030.512492
1023.931545,444.123565,1915.238745,10288.862594
1023.931875,-1776.494261,3677.258390,11473.192101
1023.932205,-2516.700203,4673.182538,11917.315666
1023.932534,-2072.576638,1991.848295,10807.006753
1023.932864,-1628.453072,0.000000,10807.006753
1023.933194,-2072.576638,-995.924147,10807.006753
1023.933524,-2738.761985,-689.485948,10658.965565
1023.933853,-2368.659014,-689.485948,9992.780217
1023.934183,-2442.679609,383.047749,9548.656652
1023.934513,-2294.638420,2298.286494,7550.100608
1023.934843,74.020594,2374.896044,5625.565159
1023.935172,3404.947333,153.219100,4515.256246
1023.935502,5107.421000,919.314598,5921.647536
1023.935832,4737.318029,3677.258390,7402.059420
1023.936162,3478.967927,4903.011187,8956.491898
1023.936491,740.205942,3983.696590,10807.006753
1023.936821,-2442.679609,3983.696590,13027.624579
1023.937151,-2886.803174,4060.306139,14508.036463
1023.937481,-3034.844362,3370.820191,13693.809927
1023.937810,-3627.009116,1532.190996,11251.130318
1023.938140,-4663.297435,0.000000,8438.347739
1023.938470,-4663.297435,-1149.143247,7550.100608
1023.938800,-3256.906145,-2221.676944,8586.388927
1023.939129,-4737.318029,-153.219100,8808.450710
1023.939459,-6217.729913,2451.505594,7920.203579
1023.939789,-4515.256246,1991.848295,6587.832884
1023.940119,-1036.288319,-1685.410096,6587.832884
1023.940449,962.267725,-1455.581446,7624.121203
1023.940778,962.267725,842.705048,7994.224174
1023.941108,1554.432478,2221.676944,9474.636058
1023.941438,1258.350101,3064.381992,11621.233289
1023.941768,-444.123565,3217.601092,12879.583391
1023.942097,-1776.494261,3064.381992,11843.295072
1023.942427,-1184.329507,1608.800546,11547.212695
1023.942757,0.000000,-229.828649,12583.501014
1023.943087,-370.102971,229.828649,12509.480420
1023.943416,-1406.391290,-383.047749,11029.068536
1023.943746,-2072.576638,-1762.019645,9252.574275
1023.944076,-2368.659014,-2451.505594,8956.491898
1023.944405,-2886.803174,-766.095498,8660.409521
1023.944735,-2368.659014,919.314598,7254.018232
1023.945065,-296.082377,-1455.581446,6069.688724
1023.945394,1110.308913,-1685.410096,6291.750507
1023.945724,1332.370696,0.000000,7550.100608
1023.946053,1480.411884,1072.533697,9326.594869
1023.946383,1036.288319,2374.896044,10510.924376
1023.946713,-1776.494261,3140.991542,11547.212695
1023.947042,-4293.194464,4060.306139,11991.336260
1023.947372,-2960.823768,2145.067394,12435.459826
1023.947701,-2294.638420,0.000000,12361.439231
1023.948031,-2516.700203,-536.266849,11325.150913
1023.948360,-3182.885551,-766.095498,9918.759623
1023.948690,-1924.535449,-1455.581446,8290.306550
1023.949020,-740.205942,-1838.629195,7994.224174
1023.949349,-814.226536,-383.047749,7476.080014
1023.949679,-370.102971,2681.334243,6365.771101
1023.950008,1776.494261,2681.334243,5551.544565
1023.950338,3849.070898,1072.533697,6587.832884
1023.950667,3997.112087,2298.286494,7772.162391
1023.950997,3256.906145,4519.963438,8290.306550
1023.951327,2590.720797,3830.477490,9844.739029
1023.951656,222.061783,3064.381992,12435.459826
1023.951986,-2886.803174,4903.011187,13915.871710
1023.952315,-4737.318029,3907.087040,12953.603985
1023.952645,-4589.276840,383.047749,11843.295072
1023.952975,-4367.215058,-766.095498,10732.986159
1023.953304,-4811.338623,229.828649,9696.697840
1023.953634,-4293.194464,-766.095498,8438.347739
1023.953963,-4367.215058,-1149.143247,7476.080014
1023.954293,-5181.441594,689.485948,6291.750507
1023.954622,-4737.318029,2068.457845,6291.750507
1023.954952,-2294.638420,383.047749,7698.141797
1023.955282,-888.247130,229.828649,8808.450710
1023.955611,-1406.391290,1532.190996,8586.388927
1023.955941,-962.267725,2068.457845,8512.368333
1023.956270,1332.370696,1915.238745,10140.821405
1023.956600,1332.370696,1608.800546,11991.336260
1023.956930,-740.205942,2987.772442,11991.336260
1023.957259,-1850.514855,3447.429741,11251.130318
1023.957589,-1036.288319,1685.410096,10955.047942
1023.957918,-740.205942,842.705048,11251.130318
1023.958248,-666.185348,306.438199,10584.944971
1023.958577,-1110.308913,-919.314598,10510.924376
1023.958907,-1480.411884,-2681.334243,10955.047942
1023.959237,-4293.194464,-1532.190996,10955.047942
1023.959566,-5181.441594,919.314598,8956.491898
1023.959896,-3108.864956,-383.047749,7550.100608
1023.960225,444.123565,-2604.724693,6809.894666
1023.960555,2368.659014,-2451.505594,6365.771101
1023.960885,3256.906145,-536.266849,6291.750507
1023.961214,4293.194464,0.000000,6735.874072
1023.961544,2664.741391,1455.581446,9992.780217
1023.961873,-296.082377,4060.306139,12953.603985
1023.962203,-2294.638420,5669.106685,13323.706956
1023.962532,-2220.617826,3140.991542,12953.603985
1023.962862,-2072.576638,0.000000,12139.377449
1023.963192,-2220.617826,-1072.533697,12065.356855
1023.963521,-1036.288319,-1455.581446,11103.089130
1023.963851,-296.082377,-2911.162892,9326.594869
1023.964180,-1184.329507,-2451.505594,8290.306550
1023.964510,-2368.659014,995.924147,6513.812290
1023.964840,-370.102971,1991.848295,5181.441594
1023.965169,3256.906145,0.000000,5477.523971
1023.965499,4219.173869,842.705048,6587.832884
1023.965828,3330.926739,4060.306139,7254.018232
1023.966158,2960.823768,3447.429741,8512.368333
1023.966487,2294.638420,919.314598,10955.047942
1023.966817,-1184.329507,2298.286494,13841.851115
1023.967147,-4219.173869,4596.572988,15100.201217
1023.967476,-3701.029710,2528.115143,13397.727550
1023.967806,-2960.823768,306.438199,10732.986159
1023.968135,-3330.926739,229.828649,8660.409521
1023.968465,-2368.659014,-612.876398,8290.306550
1023.968795,-1702.473667,-995.924147,8438.347739
1023.969124,-2812.782580,1378.971896,8512.368333
1023.969454,-5107.421000,3753.867940,7550.100608
1023.969783,-5033.400406,3370.820191,7772.162391
1023.970113,-2368.659014,919.314598,8142.265362
1023.970442,-1702.473667,229.828649,8068.244768
1023.970772,-592.164754,1225.752797,7624.121203
1023.971102,222.061783,1225.752797,7328.038826
1023.971431,740.205942,766.095498,9474.636058
1023.971761,-1332.370696,1455.581446,11473.192101
1023.972090,-3108.864956,4060.306139,11399.171507
1023.972420,-2960.823768,3983.696590,10140.821405
1023.972750,-888.247130,1149.143247,11177.109724
1023.973079,-1110.308913,383.047749,11991.336260
1023.973409,-2590.720797,153.219100,11769.274478
1023.973738,-3034.844362,-1149.143247,10288.862594
1023.974068,-2886.803174,-1685.410096,9918.759623
1023.974397,-3627.009116,229.828649,9400.615463
1023.974727,-3330.926739,1149.143247,7550.100608
1023.975057,-740.205942,-1915.238745,5995.668130
1023.975386,1850.514855,-2681.334243,6439.791695
1023.975716,2812.782580,76.609550,7772.162391
1023.976045,3034.844362,2451.505594,9104.533087
1023.976375,1924.535449,2911.162892,10288.862594
1023.976704,-740.205942,3447.429741,11473.192101
1023.977034,-2738.761985,3983.696590,11695.253884
1023.977364,-2072.576638,2068.457845,12435.459826
1023.977693,-1258.350101,-1149.143247,13323.706956
1023.978023,-2590.720797,-1762.019645,12583.501014
1023.978352,-3997.112087,-1532.190996,10584.944971
1023.978682,-2072.576638,-3524.039291,9696.697840
1023.979012,-222.061783,-3753.867940,9178.553681
1023.979341,-1036.288319,-459.657299,8512.368333
1023.979671,-592.164754,2451.505594,6957.935855
1023.980000,2220.617826,2451.505594,5477.523971
1023.980330,4737.318029,1149.143247,5255.462188
1023.980659,5477.523971,2298.286494,7031.956449
1023.980989,4885.359217,3217.601092,8216.285956
1023.981319,3034.844362,3753.867940,9622.677246
1023.981648,148.041188,2757.943793,11843.295072
1023.981978,-2516.700203,3983.696590,12879.583391
1023.982307,-3627.009116,2987.772442,12583.501014
1023.982637,-2664.741391,229.828649,12213.398043
1023.982967,-2664.741391,-1608.800546,11399.171507
1023.983296,-3330.926739,306.438199,9992.780217
1023.983626,-2886.803174,229.828649,8882.471304
1023.983955,-2368.659014,-612.876398,8364.327145
1023.984285,-3849.070898,2451.505594,7994.224174
1023.984614,-3552.988522,3294.210641,6809.894666
1023.984944,-1258.350101,1378.971896,5995.668130
1023.985274,370.102971,-229.828649,6439.791695
1023.985603,-518.144159,306.438199,7698.141797
1023.985933,-1110.308913,919.314598,8216.285956
1023.986262,-296.082377,2068.457845,10140.821405
1023.986592,-888.247130,2451.505594,11695.253884
1023.986922,-3256.906145,3294.210641,11695.253884
1023.987251,-3775.050304,2987.772442,11177.109724
1023.987581,-2072.576638,536.266849,11621.233289
1023.987910,-1480.411884,0.000000,12953.603985
1023.988240,-2960.823768,919.314598,11991.336260
1023.988569,-3849.070898,459.657299,9474.636058
1023.988899,-3404.947333,-1762.019645,8216.285956
1023.989229,-3108.864956,-1532.190996,8586.388927
1023.989558,-2812.782580,842.705048,7624.121203
1023.989888,-962.267725,153.219100,6661.853478
1023.990217,74.020594,-1455.581446,6735.874072
1023.990547,148.041188,-229.828649,7698.141797
1023.990877,1110.308913,1685.410096,8734.430116
1023.991206,3478.967927,1991.848295,9844.739029
1023.991536,2590.720797,2681.334243,11325.150913
1023.991865,-1036.288319,4290.134789,11843.295072
1023.992195,-2886.803174,3907.087040,12139.377449
1023.992524,-2664.741391,459.657299,13545.768739
1023.992854,-2738.761985,-1455.581446,14434.015869
1023.993184,-4219.173869,-919.314598,12879.583391
1023.993513,-3552.988522,-2528.115143,10140.821405
1023.993843,-1702.473667,-3677.258390,8142.265362
1023.994172,-888.247130,-3447.429741,7105.977043
1023.994502,74.020594,-842.705048,5699.585753
1023.994832,1850.514855,2451.505594,4071.132681
1023.995161,4737.318029,2221.676944,4515.256246
1023.995491,5699.585753,2528.115143,7105.977043
1023.995820,4663.297435,3524.039291,8364.327145
1023.996150,3775.050304,4903.011187,8808.450710
1023.996479,2664.741391,2987.772442,11029.068536
1023.996809,0.000000,1608.800546,14508.036463
1023.997139,-2664.741391,4443.353888,15470.304188
1023.997468,-4071.132681,1991.848295,13545.768739
1023.997798,-3849.070898,-1762.019645,10658.965565
1023.998127,-4293.194464,459.657299,8290.306550
1023.998457,-2368.659014,229.828649,6513.812290
1023.998787,-222.061783,-3064.381992,6587.832884
1023.999116,-1924.535449,-1685.410096,7772.162391
1023.999446,-4293.194464,4290.134789,8216.285956
1023.999775,-3701.029710,4366.744339,8364.327145
1024.000105,-740.205942,1685.410096,8364.327145
1024.000434,444.123565,1838.629195,7994.224174
1024.000764,444.123565,766.095498,7476.080014
1024.001094,1554.432478,-153.219100,8586.388927
1024.001423,1924.535449,1838.629195,11547.212695
1024.001753,-1110.308913,3140.991542,13545.768739
1024.002082,-3701.029710,3524.039291,13471.748144
1024.002412,-4145.153275,3447.429741,11769.274478
1024.002741,-2294.638420,1225.752797,11251.130318
1024.003071,-1258.350101,-1149.143247,11325.150913
1024.003401,-1776.494261,0.000000,9696.697840
1024.003730,-2220.617826,383.047749,7994.224174
1024.004060,-2738.761985,-1915.238745,7994.224174
1024.004389,-4145.153275,0.000000,7624.121203
1024.004719,-3775.050304,2298.286494,7105.977043
1024.005049,-1554.432478,-1149.143247,7105.977043
1024.005378,592.164754,-612.876398,7994.224174
1024.005708,222.061783,1991.848295,8142.265362
1024.006037,1554.432478,1378.971896,8734.430116
1024.006367,1850.514855,1302.362347,10140.821405
1024.006696,-1110.308913,3370.820191,11917.315666
1024.007026,-3108.864956,4979.620737,12361.439231
1024.007356,-3108.864956,2757.943793,11103.089130
1024.007685,-1850.514855,-459.657299,11843.295072
1024.008015,-2368.659014,-2374.896044,12287.418637
1024.008344,-3330.926739,-2451.505594,11917.315666
1024.008674,-2368.659014,-2451.505594,9918.759623
1024.009004,-1554.432478,-2528.115143,9622.677246
1024.009333,-962.267725,-919.314598,7920.203579
1024.009663,74.020594,1762.019645,5033.400406
1024.009992,3552.988522,306.438199,4515.256246
1024.010322,6513.812290,-536.266849,5699.585753
1024.010651,5847.626942,2604.724693,7105.977043
1024.010981,4515.256246,4596.572988,8808.450710
1024.011311,3256.906145,3907.087040,10288.862594
1024.011640,370.102971,2681.334243,12509.480420
1024.011970,-2072.576638,3907.087040,13989.892304
1024.012299,-3330.926739,2451.505594,12805.562797
1024.012629,-2812.782580,-306.438199,11917.315666
1024.012959,-3108.864956,-1225.752797,10362.883188
1024.013288,-3330.926739,-766.095498,9400.615463
1024.013618,-1924.535449,-1455.581446,7994.224174
1024.013947,-1036.288319,-2221.676944,7550.100608
1024.014277,-2886.803174,536.266849,7624.121203
1024.014606,-3923.091493,3983.696590,7179.997637
1024.014936,-2516.700203,2757.943793,7698.141797
1024.015266,-370.102971,689.485948,7846.182985
1024.015595,0.000000,1225.752797,7994.224174
1024.015925,592.164754,1455.581446,7994.224174
1024.016254,1406.391290,842.705048,9548.656652
1024.016584,0.000000,1302.362347,11991.336260
1024.016914,-2812.782580,2757.943793,13101.645173
1024.017243,-3997.112087,4443.353888,11991.336260
1024.017573,-2368.659014,2145.067394,11843.295072
1024.017902,-1776.494261,689.485948,11695.253884
1024.018232,-1776.494261,766.095498,10658.965565
1024.018561,-1406.391290,459.657299,8512.368333
1024.018891,-962.267725,-1455.581446,7772.162391
1024.019221,-2368.659014,-842.705048,8290.306550
1024.019550,-4367.215058,2068.457845,7476.080014
1024.019880,-2886.803174,1455.581446,7105.977043
1024.020209,148.041188,-1685.410096,7402.059420
1024.020539,814.226536,0.000000,8216.285956
1024.020869,740.205942,1762.019645,8216.285956
1024.021198,1554.432478,1149.143247,9400.615463
1024.021528,740.205942,1608.800546,11621.233289
1024.021857,-2146.597232,2528.115143,13693.809927
1024.022187,-3923.091493,3677.258390,13767.830521
1024.022516,-3478.967927,1225.752797,12879.583391
1024.022846,-2516.700203,-995.924147,11695.253884
1024.023176,-2072.576638,-1532.190996,9992.780217
1024.023505,-740.205942,-1991.848295,8142.265362
1024.023835,1258.350101,-2528.115143,7105.977043
1024.024164,666.185348,-2451.505594,6957.935855
1024.024494,-370.102971,1608.800546,6365.771101
1024.024824,148.041188,3140.991542,6587.832884
1024.025153,2590.720797,995.924147,7105.977043
1024.025483,2960.823768,1762.019645,8216.285956
1024.025812,2664.741391,2145.067394,9104.533087
1024.026142,3849.070898,1685.410096,10732.986159
1024.026471,3478.967927,919.314598,12065.356855
1024.026801,-666.185348,2145.067394,13323.706956
1024.027131,-4515.256246,3907.087040,11473.192101
1024.027460,-3997.112087,1991.848295,9918.759623
1024.027790,-1702.473667,-1072.533697,10214.842000
1024.028119,-1036.288319,-1685.410096,10362.883188
1024.028449,-2072.576638,0.000000,9252.574275
1024.028778,-1628.453072,-766.095498,8290.306550
1024.029108,-1554.432478,-1149.143247,8512.368333
1024.029438,-2812.782580,1915.238745,8364.327145
1024.029767,-2294.638420,3370.820191,6365.771101
1024.030097,0.000000,0.000000,6735.874072
1024.030426,1850.514855,306.438199,8364.327145
1024.030756,1332.370696,2834.553343,9548.656652
1024.031086,1628.453072,2068.457845,10140.821405
1024.031415,1258.350101,919.314598,11399.171507
1024.031745,-1924.535449,2528.115143,12879.583391
1024.032074,-3849.070898,3830.477490,13545.768739
1024.032404,-3552.988522,2451.505594,12657.521608
1024.032733,-2368.659014,383.047749,11843.295072
1024.033063,-2664.741391,76.609550,9992.780217
1024.033393,-2960.823768,-919.314598,7772.162391
1024.033722,-888.247130,-1762.019645,7179.997637
1024.034052,-1036.288319,-1225.752797,7254.018232
1024.034381,-2738.761985,689.485948,7105.977043
1024.034711,-3552.988522,2604.724693,5847.626942
1024.035041,-1628.453072,0.000000,6513.812290
1024.035370,222.061783,-306.438199,8660.409521
1024.035700,-444.123565,1685.410096,9548.656652
1024.036029,-814.226536,2604.724693,10066.800811
1024.036359,-296.082377,1762.019645,10881.027347
1024.036688,-1406.391290,612.876398,11843.295072
1024.037018,-2664.741391,2221.676944,12509.480420
1024.037348,-2812.782580,1072.533697,12731.542202
1024.037677,-2146.597232,-995.924147,13249.686362
1024.038007,-2738.761985,0.000000,12435.459826
1024.038336,-2220.617826,383.047749,10362.883188
1024.038666,74.020594,-612.876398,8142.265362
1024.038996,1406.391290,-2451.505594,7624.121203
1024.039325,148.041188,-842.705048,7105.977043
1024.039655,-296.082377,2374.896044,6291.750507
1024.039984,1628.453072,1608.800546,5477.523971
1024.040314,2812.782580,229.828649,6513.812290
1024.040643,2590.720797,1532.190996,7994.224174
1024.040973,2368.659014,2221.676944,9326.594869
1024.041303,2812.782580,1608.800546,10807.006753
1024.041632,888.247130,2068.457845,12953.603985
1024.041962,-2960.823768,3983.696590,13619.789333
1024.042291,-4145.153275,3983.696590,11991.336260
1024.042621,-2442.679609,0.000000,11695.253884
1024.042951,-1554.432478,-1532.190996,11547.212695
1024.043280,-2220.617826,0.000000,9696.697840
1024.043610,-1480.411884,-1072.533697,7476.080014
1024.043939,-1258.350101,-2298.286494,6291.750507
1024.044269,-1924.535449,0.000000,7254.018232
1024.044598,-2072.576638,3370.820191,6883.915261
1024.044928,74.020594,2528.115143,5773.606348
1024.045258,1924.535449,612.876398,5921.647536
1024.045587,2072.576638,2374.896044,7254.018232
1024.045917,2368.659014,2911.162892,9030.512492
1024.046246,2072.576638,2374.896044,11473.192101
1024.046579,-370.102971,3064.381992,13471.748144
1024.046908,-4515.256246,4673.182538,14137.933492
1024.047238,-5625.565159,3600.648841,13397.727550
1024.047568,-3627.009116,1149.143247,12287.418637
1024.047897,-3256.906145,-1072.533697,11251.130318
1024.048227,-3775.050304,-995.924147,9474.636058
1024.048556,-2960.823768,-1149.143247,7328.038826
1024.048886,-1702.473667,-1532.190996,6883.915261
1024.049216,-2294.638420,-766.095498,7105.977043
1024.049545,-2960.823768,1762.019645,6587.832884
1024.049875,-1924.535449,2604.724693,6439.791695
1024.050204,148.041188,76.609550,7920.203579
1024.050534,370.102971,459.657299,9844.739029
1024.050864,-592.164754,2298.286494,10362.883188
1024.051193,148.041188,1455.581446,10584.944971
1024.051523,-592.164754,-459.657299,12583.501014
1024.051853,-3034.844362,612.876398,14582.057057
1024.052182,-4737.318029,2528.115143,13323.706956
1024.052512,-3404.947333,-383.047749,11621.233289
1024.052841,-1184.329507,-1455.581446,10658.965565
1024.053171,-518.144159,0.000000,10140.821405
1024.053501,518.144159,-689.485948,7920.203579
1024.053830,1184.329507,-2451.505594,6439.791695
1024.054160,74.020594,-1455.581446,7105.977043
1024.054490,-1332.370696,2451.505594,8438.347739
1024.054819,-592.164754,3677.258390,8882.471304
1024.055149,1332.370696,383.047749,8290.306550
1024.055478,1628.453072,536.266849,7031.956449
1024.055808,814.226536,612.876398,6809.894666
1024.056138,1998.556043,-766.095498,8364.327145
1024.056467,1332.370696,-153.219100,11769.274478
1024.056797,-2516.700203,2298.286494,13471.748144
1024.057127,-5625.565159,4673.182538,12435.459826
1024.057456,-4145.153275,2451.505594,11103.089130
1024.057786,-1036.288319,-306.438199,10288.862594
1024.058115,740.205942,-842.705048,9992.780217
1024.058445,1110.308913,-766.095498,8660.409521
1024.058775,1406.391290,459.657299,7550.100608
1024.059104,444.123565,612.876398,7920.203579
1024.059434,-1184.329507,2068.457845,7550.100608
1024.059763,-962.267725,4290.134789,6439.791695
1024.060093,1628.453072,1072.533697,7254.018232
1024.060423,2960.823768,842.705048,8142.265362
1024.060752,2294.638420,2298.286494,8512.368333
1024.061082,1332.370696,1608.800546,9030.512492
1024.061412,370.102971,612.876398,12361.439231
1024.061741,-3108.864956,2451.505594,14730.098246
1024.062071,-5625.565159,5439.278036,14211.954086
1024.062400,-4959.379811,3600.648841,12509.480420
1024.062730,-3108.864956,536.266849,10510.924376
1024.063060,-2516.700203,-1225.752797,9030.512492
1024.063389,-2220.617826,-1149.143247,7920.203579
1024.063719,-666.185348,-383.047749,7402.059420
1024.064049,-1628.453072,153.219100,7105.977043
1024.064378,-4145.153275,1838.629195,6587.832884
1024.064708,-4293.194464,2604.724693,6735.874072
1024.065037,-2220.617826,0.000000,7994.224174
1024.065367,148.041188,229.828649,9844.739029
1024.065697,-222.061783,2528.115143,9844.739029
1024.066026,-370.102971,2451.505594,8956.491898
1024.066356,370.102971,-383.047749,9400.615463
1024.066685,-1332.370696,-995.924147,11843.295072
1024.067015,-3034.844362,2451.505594,13693.809927
1024.067345,-3997.112087,3524.039291,13101.645173
1024.067674,-3256.906145,995.924147,11695.253884
1024.068004,-2590.720797,-306.438199,10732.986159
1024.068334,-1850.514855,-1225.752797,9326.594869
1024.068663,740.205942,-2681.334243,7698.141797
1024.068993,740.205942,-1915.238745,7328.038826
1024.069322,-1184.329507,306.438199,7550.100608
1024.069652,-2590.720797,2528.115143,7179.997637
1024.069982,-740.205942,1072.533697,7698.141797
1024.070311,1628.453072,0.000000,8808.450710
1024.070641,1480.411884,1302.362347,9474.636058
1024.070971,1554.432478,2451.505594,9696.697840
1024.071300,1776.494261,1149.143247,9844.739029
1024.071630,0.000000,-766.095498,11843.295072
1024.071959,-2960.823768,1762.019645,13027.624579
1024.072289,-3701.029710,3524.039291,12879.583391
1024.072619,-2294.638420,842.705048,12213.398043
1024.072948,-1184.329507,-766.095498,10584.944971
1024.073278,-962.267725,-536.266849,9178.553681
1024.073608,666.185348,-1455.581446,7772.162391
1024.073937,1628.453072,-2145.067394,7550.100608
1024.074267,592.164754,995.924147,7772.162391
1024.074596,-1036.288319,4903.011187,6217.729913
1024.074926,370.102971,2528.115143,5403.503377
1024.075256,2960.823768,-383.047749,6735.874072
1024.075585,3478.967927,2145.067394,8290.306550
1024.075915,2368.659014,3983.696590,9474.636058
1024.076244,1924.535449,2528.115143,10510.924376
1024.076574,-222.061783,2068.457845,12287.418637
1024.076904,-3478.967927,3600.648841,13619.789333
1024.077233,-4737.318029,2987.772442,12879.583391
1024.077563,-4219.173869,1378.971896,11547.212695
1024.077893,-3478.967927,536.266849,10288.862594
1024.078222,-2960.823768,-153.219100,9548.656652
1024.078552,-2294.638420,-1532.190996,8142.265362
1024.078881,-1258.350101,-995.924147,7772.162391
1024.079211,-2960.823768,612.876398,6883.915261
1024.079541,-3923.091493,2757.943793,5773.606348
1024.079870,-2368.659014,2298.286494,6069.688724
1024.080200,148.041188,-536.266849,8364.327145
1024.080530,148.041188,229.828649,10584.944971
1024.080859,-1332.370696,3983.696590,10584.944971
1024.081189,-888.247130,3370.820191,10510.924376
1024.081518,-1036.288319,612.876398,11991.336260
1024.081848,-2960.823768,0.000000,13619.789333
1024.082178,-4663.297435,1302.362347,12731.542202
1024.082507,-3552.988522,536.266849,11103.089130
1024.082837,-2146.597232,-459.657299,11177.109724
1024.083167,-2220.617826,306.438199,10214.842000
1024.083496,-1258.350101,-1532.190996,8734.430116
1024.083826,814.226536,-3140.991542,8216.285956
1024.084155,296.082377,-766.095498,8142.265362
1024.084485,-1480.411884,4443.353888,6883.915261
1024.084815,-1628.453072,3524.039291,4959.379811
1024.085144,222.061783,-1455.581446,5995.668130
1024.085474,592.164754,-1608.800546,8660.409521
1024.085803,-740.205942,2298.286494,10140.821405
1024.086133,-592.164754,2451.505594,10362.883188
1024.086463,-888.247130,1149.143247,10807.006753
1024.086792,-3034.844362,-766.095498,12213.398043
1024.087122,-3701.029710,-842.705048,12805.562797
1024.087452,-2960.823768,0.000000,12287.418637
1024.087781,-2220.617826,383.047749,11251.130318
1024.088111,-2220.617826,1685.410096,10955.047942
1024.088440,-592.164754,612.876398,9474.636058
1024.088770,1702.473667,-1608.800546,7328.038826
1024.089100,2294.638420,-2298.286494,6217.729913
1024.089429,1258.350101,2221.676944,5403.503377
1024.089759,1554.432478,4979.620737,5847.626942
1024.090089,3256.906145,1072.533697,7031.956449
1024.090418,3108.864956,612.876398,7698.141797
1024.090748,1924.535449,2298.286494,8364.327145
1024.091077,1924.535449,2068.457845,10584.944971
1024.091407,1406.391290,2757.943793,13767.830521
1024.091737,-2664.741391,3064.381992,14952.160028
1024.092066,-5403.503377,2987.772442,13323.706956
1024.092396,-4515.256246,842.705048,11399.171507
1024.092725,-2664.741391,-919.314598,10881.027347
1024.093055,-2516.700203,0.000000,10214.842000
1024.093385,-3034.844362,459.657299,8956.491898
1024.093714,-2146.597232,383.047749,6957.935855
1024.094044,-1628.453072,-612.876398,6513.812290
1024.094374,-2368.659014,1685.410096,7105.977043
1024.094703,-2294.638420,3600.648841,7105.977043
1024.095033,-1702.473667,1302.362347,7846.182985
1024.095362,-814.226536,612.876398,8660.409521
1024.095692,-1406.391290,2757.943793,9104.533087
1024.096022,-148.041188,2145.067394,9992.780217
1024.096351,592.164754,1072.533697,11103.089130
1024.096681,-1702.473667,1302.362347,12065.356855
1024.097011,-3701.029710,1532.190996,12213.398043
1024.097340,-3849.070898,842.705048,11473.192101
1024.097670,-2516.700203,229.828649,11399.171507
1024.097999,-2960.823768,766.095498,10955.047942
1024.098329,-2442.679609,689.485948,9326.594869
1024.098659,-814.226536,-459.657299,7994.224174
1024.098988,0.000000,-2221.676944,7624.121203
1024.099318,-1924.535449,-383.047749,7402.059420
1024.099648,-3108.864956,3600.648841,6809.894666
1024.099977,-1702.473667,383.047749,7846.182985
1024.100307,0.000000,-2221.676944,9474.636058
1024.100636,-222.061783,1838.629195,9474.636058
1024.100966,148.041188,1762.019645,8734.430116
1024.101296,1406.391290,0.000000,9474.636058
1024.101625,-222.061783,1762.019645,11029.068536
1024.101955,-2590.720797,3064.381992,11991.336260
1024.102284,-3256.906145,842.705048,11843.295072
1024.102614,-2590.720797,-459.657299,12435.459826
1024.102944,-3330.926739,766.095498,12139.377449
1024.103273,-3182.885551,-612.876398,11103.089130
1024.103603,-888.247130,-2145.067394,10066.800811
1024.103933,518.144159,-2145.067394,8734.430116
1024.104262,0.000000,-1532.190996,8068.244768
1024.104592,-296.082377,1532.190996,6587.832884
1024.104921,1480.411884,2987.772442,6143.709319
1024.105251,3923.091493,1225.752797,6809.894666
1024.105581,4071.132681,1455.581446,7698.141797
1024.105910,4071.132681,3600.648841,8290.306550
1024.106240,4367.215058,2911.162892,9696.697840
1024.106570,2072.576638,1455.581446,12361.439231
1024.106899,-2072.576638,3753.867940,13767.830521
1024.107229,-4515.256246,4443.353888,12879.583391
1024.107558,-3627.009116,76.609550,11695.253884
1024.107888,-2516.700203,-1225.752797,10807.006753
1024.108218,-2368.659014,-229.828649,9770.718434
1024.108547,-1554.432478,-1302.362347,8438.347739
1024.108877,-1036.288319,-1608.800546,7254.018232
1024.109206,-2960.823768,1455.581446,7402.059420
1024.109536,-3552.988522,3600.648841,7328.038826
1024.109866,-2442.679609,2528.115143,7328.038826
1024.110195,-592.164754,1608.800546,7920.203579
1024.110525,-370.102971,1608.800546,8216.285956
1024.110855,148.041188,1608.800546,8586.388927
1024.111184,1036.288319,1225.752797,9326.594869
1024.111514,296.082377,459.657299,11843.295072
1024.111843,-2664.741391,1532.190996,13027.624579
1024.112173,-5033.400406,2911.162892,11547.212695
1024.112503,-3775.050304,1915.238745,11325.150913
1024.112832,-1628.453072,-766.095498,11325.150913
1024.113162,-1184.329507,-612.876398,11251.130318
1024.113492,-814.226536,76.609550,9770.718434
1024.113821,-444.123565,-306.438199,8290.306550
1024.114151,-2072.576638,-229.828649,6513.812290
1024.114480,-3552.988522,2681.334243,5921.647536
1024.114810,-2442.679609,612.876398,6661.853478
1024.115140,0.000000,-1991.848295,9252.574275
1024.115469,-814.226536,842.705048,10140.821405
1024.115799,-1184.329507,2528.115143,9400.615463
1024.116129,0.000000,1378.971896,9178.553681
1024.116458,1036.288319,306.438199,10066.800811
1024.116788,-814.226536,919.314598,11251.130318
1024.117117,-2442.679609,1762.019645,12213.398043
1024.117447,-3256.906145,1838.629195,12657.521608
1024.117777,-3923.091493,1149.143247,12435.459826
1024.118106,-3923.091493,-612.876398,11991.336260
1024.118436,-2516.700203,-1608.800546,9992.780217
1024.118765,0.000000,-2451.505594,7772.162391
1024.119095,1036.288319,-2987.772442,6143.709319
1024.119425,296.082377,-995.924147,5477.523971
1024.119754,222.061783,2604.724693,5477.523971
1024.120084,2146.597232,2374.896044,6587.832884
1024.120414,3775.050304,1838.629195,8216.285956
1024.120743,3775.050304,4213.525239,8956.491898
1024.121073,3182.885551,4903.011187,9326.594869
1024.121402,2812.782580,1455.581446,10658.965565
1024.121732,-370.102971,1762.019645,13249.686362
1024.122062,-3775.050304,3830.477490,13545.768739
1024.122391,-4219.173869,1915.238745,12065.356855
1024.122721,-3034.844362,-536.266849,10214.842000
1024.123051,-2664.741391,-1838.629195,8956.491898
1024.123380,-1924.535449,-1608.800546,7994.224174
1024.123710,0.000000,-2068.457845,7402.059420
1024.124039,0.000000,0.000000,8364.327145
1024.124369,-2220.617826,2681.334243,8438.347739
1024.124699,-3552.988522,5056.230287,7846.182985
1024.125028,-1998.556043,2834.553343,7994.224174
1024.125358,296.082377,383.047749,8882.471304
1024.125688,666.185348,1455.581446,9918.759623
1024.126017,296.082377,2145.067394,9918.759623
1024.126347,296.082377,0.000000,10732.986159
1024.126676,-1184.329507,-383.047749,11843.295072
1024.127006,-3701.029710,1838.629195,12065.356855
1024.127336,-3182.885551,2451.505594,10955.047942
1024.127665,-1332.370696,229.828649,10732.986159
1024.127995,-1258.350101,1072.533697,9992.780217
1024.128324,-1554.432478,1532.190996,9104.533087
1024.128654,-666.185348,0.000000,8586.388927
1024.128984,-518.144159,-306.438199,8882.471304
1024.129313,-3182.885551,995.924147,8882.471304
1024.129643,-4293.194464,2528.115143,7920.203579
1024.129973,-2516.700203,459.657299,6587.832884
1024.130302,148.041188,-2068.457845,7476.080014
1024.130632,518.144159,-842.705048,8660.409521
1024.130961,222.061783,1378.971896,9252.574275
1024.131291,592.164754,1991.848295,9770.718434
1024.131621,-814.226536,919.314598,10881.027347
1024.131950,-3034.844362,2528.115143,11843.295072
1024.132280,-4145.153275,2451.505594,11917.315666
1024.132610,-3182.885551,459.657299,12287.418637
1024.132939,-2886.803174,-612.876398,11843.295072
1024.133269,-2886.803174,-306.438199,10807.006753
1024.133598,-888.247130,-1915.238745,8660.409521
1024.133928,296.082377,-2911.162892,7328.038826
1024.134258,-148.041188,-1685.410096,7105.977043
1024.134587,-592.164754,1991.848295,6957.935855
1024.134917,1036.288319,3217.601092,6365.771101
1024.135246,2664.741391,1915.238745,7254.018232
1024.135576,3256.906145,1915.238745,8068.244768
1024.135906,3034.844362,2757.943793,9178.553681
1024.136235,2886.803174,2451.505594,10807.006753
1024.136565,888.247130,1149.143247,12805.562797
1024.136895,-2960.823768,2911.162892,13249.686362
1024.137224,-4885.359217,2604.724693,11843.295072
1024.137554,-2664.741391,-153.219100,11399.171507
1024.137883,-296.082377,-2298.286494,10732.986159
1024.138213,0.000000,-536.266849,9770.718434
1024.138543,-370.102971,0.000000,8512.368333
1024.138872,-148.041188,-536.266849,7624.121203
1024.139202,-1776.494261,1302.362347,8660.409521
1024.139532,-2960.823768,4903.011187,9030.512492
1024.139861,-1332.370696,3983.696590,7994.224174
1024.140191,962.267725,536.266849,7476.080014
1024.140520,1850.514855,-459.657299,7994.224174
1024.140850,1332.370696,919.314598,8956.491898
1024.141180,1480.411884,919.314598,10584.944971
1024.141509,148.041188,1149.143247,11843.295072
1024.141839,-2886.803174,3447.429741,12657.521608
1024.142169,-3775.050304,3677.258390,11473.192101
1024.142498,-2072.576638,1149.143247,11103.089130
1024.142828,-888.247130,-689.485948,10881.027347
1024.143157,-1406.391290,919.314598,10214.842000
1024.143487,-1850.514855,153.219100,8882.471304
1024.143817,-592.164754,-842.705048,8216.285956
1024.144146,-1258.350101,-306.438199,7328.038826
1024.144476,-2960.823768,1225.752797,5773.606348
1024.144805,-2294.638420,1455.581446,4441.235652
1024.145135,0.000000,-1685.410096,6735.874072
1024.145465,74.020594,-1225.752797,8512.368333
1024.145794,-1850.514855,2145.067394,10140.821405
1024.146124,-1480.411884,2834.553343,11251.130318
1024.146453,-888.247130,2374.896044,11843.295072
1024.146783,-1998.556043,1378.971896,12509.480420
1024.147113,-3108.864956,229.828649,11695.253884
1024.147442,-2442.679609,-766.095498,11547.212695
1024.147772,-2664.741391,-1378.971896,12065.356855
1024.148101,-2886.803174,76.609550,12435.459826
1024.148431,-2220.617826,76.609550,10510.924376
1024.148760,-370.102971,-1838.629195,7624.121203
1024.149090,592.164754,-2987.772442,7105.977043
1024.149420,74.020594,-383.047749,7105.977043
1024.149749,-148.041188,3677.258390,7179.997637
1024.150079,1184.329507,2298.286494,8142.265362
1024.150408,1850.514855,459.657299,9326.594869
1024.150738,962.267725,2987.772442,9474.636058
1024.151067,1258.350101,2528.115143,9992.780217
1024.151397,1406.391290,536.266849,11399.171507
1024.151727,-1036.288319,1838.629195,12435.459826
1024.152056,-3775.050304,3447.429741,11695.253884
1024.152386,-3330.926739,1915.238745,10510.924376
1024.152715,-2146.597232,-1072.533697,9918.759623
1024.153045,-1850.514855,0.000000,9622.677246
1024.153374,-1628.453072,766.095498,8438.347739
1024.153704,148.041188,383.047749,7179.997637
1024.154034,888.247130,-229.828649,7105.977043
1024.154363,-296.082377,919.314598,7698.141797
1024.154693,-740.205942,3677.258390,7105.977043
1024.155022,444.123565,1838.629195,7402.059420
1024.155352,1332.370696,766.095498,8808.450710
1024.155681,666.185348,2757.943793,9474.636058
1024.156011,592.164754,2451.505594,9770.718434
1024.156341,1184.329507,1072.533697,10584.944971
1024.156670,-1258.350101,1302.362347,12657.521608
1024.157000,-3256.906145,3600.648841,12657.521608
1024.157329,-3552.988522,2757.943793,10955.047942
1024.157659,-1850.514855,383.047749,9252.574275
1024.157988,-962.267725,76.609550,9474.636058
1024.158318,-1628.453072,0.000000,9474.636058
1024.158648,-1184.329507,0.000000,8956.491898
1024.158977,-1332.370696,229.828649,8734.430116
1024.159307,-2812.782580,459.657299,8216.285956
1024.159636,-3552.988522,2221.676944,6661.853478
1024.159966,-2072.576638,-306.438199,6883.915261
1024.160295,222.061783,-2298.286494,9030.512492
1024.160625,-148.041188,383.047749,10066.800811
1024.160955,-518.144159,2451.505594,9696.697840
1024.161284,962.267725,1302.362347,10436.903782
1024.161614,-222.061783,-459.657299,12583.501014
1024.161943,-3034.844362,1915.238745,14063.912898
1024.162273,-4737.318029,3524.039291,12953.603985
1024.162602,-3997.112087,842.705048,11177.109724
1024.162932,-2960.823768,-153.219100,10510.924376
1024.163262,-2664.741391,-995.924147,9252.574275
1024.163591,-1406.391290,-2451.505594,8660.409521
1024.163921,-814.226536,-2604.724693,7772.162391
1024.164250,-2516.700203,0.000000,6809.894666
1024.164580,-3849.070898,2451.505594,6143.709319
1024.164910,-2516.700203,536.266849,6883.915261
1024.165239,-666.185348,-306.438199,8882.471304
1024.165569,-962.267725,1378.971896,9548.656652
1024.165898,-1480.411884,3370.820191,9030.512492
1024.166228,-740.205942,3294.210641,8734.430116
1024.166557,-222.061783,1608.800546,9918.759623
1024.166887,-1924.535449,1685.410096,10881.027347
1024.167217,-3997.112087,2451.505594,10732.986159
1024.167546,-4515.256246,1455.581446,10881.027347
1024.167876,-4589.276840,459.657299,12213.398043
1024.168205,-5995.668130,306.438199,12287.418637
1024.168535,-6143.709319,766.095498,10955.047942
1024.168864,-4367.215058,-766.095498,9030.512492
1024.169194,-2590.720797,-1072.533697,7772.162391
1024.169524,-2072.576638,536.266849,7328.038826
1024.169853,-1776.494261,1302.362347,6809.894666
1024.170183,-888.247130,1072.533697,5847.626942
1024.170512,-518.144159,1455.581446,7105.977043
1024.170842,-666.185348,3140.991542,9474.636058
1024.171171,-370.102971,4596.572988,10955.047942
1024.171501,-814.226536,3370.820191,10436.903782
1024.171831,-1332.370696,2911.162892,10140.821405
1024.172160,-2664.741391,3370.820191,11325.150913
1024.172490,-4367.215058,2604.724693,12139.377449
1024.172819,-6883.915261,1072.533697,11621.233289
1024.173149,-9030.512492,-536.266849,11769.274478
1024.173478,-9548.656652,-306.438199,12435.459826
1024.173808,-8586.388927,306.438199,11029.068536
1024.174138,-7105.977043,0.000000,8068.244768
1024.174467,-4885.359217,-459.657299,4515.256246
1024.174797,-2368.659014,-1838.629195,3997.112087
1024.175126,-1110.308913,-1915.238745,6217.729913
1024.175456,-2516.700203,919.314598,8586.388927
1024.175785,-6291.750507,3600.648841,9696.697840
1024.176115,-7476.080014,4290.134789,10955.047942
1024.176445,-6069.688724,2298.286494,11991.336260
1024.176774,-3330.926739,612.876398,11473.192101
1024.177104,-1702.473667,-919.314598,9548.656652
1024.177433,-370.102971,-1991.848295,7550.100608
1024.177763,0.000000,383.047749,8660.409521
1024.178092,-222.061783,1685.410096,10807.006753
1024.178422,-1628.453072,2068.457845,11621.233289
1024.178752,-4367.215058,2987.772442,11177.109724
1024.179081,-5921.647536,3064.381992,10436.903782
1024.179411,-6735.874072,2298.286494,11103.089130
1024.179740,-6883.915261,612.876398,10584.944971
1024.180070,-5847.626942,-1608.800546,8438.347739
1024.180399,-5181.441594,-4290.134789,6661.853478
1024.180729,-4293.194464,-4060.306139,6365.771101
1024.181059,-3404.947333,-1762.019645,7105.977043
1024.181388,-1998.556043,-612.876398,7994.224174
1024.181718,-1184.329507,919.314598,9104.533087
1024.182047,-1998.556043,2834.553343,10214.842000
1024.182377,-3256.906145,3983.696590,11177.109724
1024.182706,-4589.276840,2911.162892,12435.459826
1024.183036,-6809.894666,2987.772442,13249.686362
1024.183366,-8216.285956,2604.724693,12361.439231
1024.183695,-7105.977043,689.485948,10658.965565
1024.184025,-3997.112087,-2145.067394,8364.327145
1024.184354,-1110.308913,-2221.676944,6957.935855
1024.184684,814.226536,-1915.238745,5403.503377
1024.185014,2294.638420,-459.657299,5107.421000
1024.185343,2516.700203,1915.238745,6365.771101
1024.185673,1332.370696,4903.011187,8808.450710
1024.186002,-1110.308913,6511.811733,11399.171507
1024.186332,-4737.318029,6435.202183,12287.418637
1024.186661,-8438.347739,4903.011187,12879.583391
1024.186991,-10066.800811,2068.457845,13841.851115
1024.187321,-10436.903782,-1302.362347,13397.727550
1024.187650,-10214.842000,-2298.286494,10436.903782
1024.187980,-8882.471304,-3677.258390,7105.977043
1024.188309,-4515.256246,-4060.306139,5255.462188
1024.188639,148.041188,-2681.334243,5329.482782
1024.188968,3404.947333,766.095498,5847.626942
1024.189298,3923.091493,4826.401637,6735.874072
1024.189628,2442.679609,6818.249932,8216.285956
1024.189957,0.000000,9269.755526,11399.171507
1024.190287,-2960.823768,8810.098227,12953.603985
1024.190616,-5255.462188,4826.401637,14211.954086
1024.190946,-7846.182985,689.485948,14211.954086
1024.191275,-10362.883188,-1149.143247,13323.706956
1024.191605,-11695.253884,-3753.867940,11029.068536
1024.191935,-9992.780217,-5515.887586,7920.203579
1024.192264,-6883.915261,-5745.716235,5033.400406
1024.192594,-2442.679609,-4826.401637,3775.050304
1024.192923,888.247130,-2221.676944,3701.029710
1024.193253,2664.741391,2145.067394,6069.688724
1024.193582,1776.494261,6435.202183,8364.327145
1024.193912,-296.082377,8580.269578,9548.656652
1024.194242,-2146.597232,9039.926876,11621.233289
1024.194571,-4071.132681,6128.763984,12805.562797
1024.194901,-6365.771101,1762.019645,12435.459826
1024.195230,-8660.409521,-1608.800546,11325.150913
1024.195560,-10288.862594,-4366.744339,10510.924376
1024.195889,-10066.800811,-6435.202183,10214.842000
1024.196219,-8364.327145,-5898.935335,9622.677246
1024.196549,-5847.626942,-4366.744339,8142.265362
1024.196878,-3182.885551,-2145.067394,6883.915261
1024.197208,-148.041188,-306.438199,7624.121203
1024.197537,1184.329507,2911.162892,8808.450710
1024.197867,1258.350101,5745.716235,10140.821405
1024.198196,74.020594,6205.373534,10881.027347
1024.198526,-2516.700203,4826.401637,12287.418637
1024.198856,-4737.318029,2604.724693,13249.686362
1024.199185,-6439.791695,229.828649,12731.542202
1024.199515,-7105.977043,-2068.457845,10584.944971
1024.199844,-6291.750507,-4596.572988,8142.265362
1024.200174,-4515.256246,-4903.011187,6883.915261
1024.200503,-2812.782580,-3447.429741,7105.977043
1024.200833,-1850.514855,-689.485948,7254.018232
1024.201163,-1480.411884,2068.457845,7698.141797
1024.201492,-1924.535449,5209.449386,9030.512492
1024.201822,-2368.659014,7584.345430,10288.862594
1024.202151,-3108.864956,7048.078582,11843.295072
1024.202481,-4663.297435,4519.963438,12065.356855
1024.202810,-5255.462188,2757.943793,11991.336260
1024.203140,-6069.688724,1225.752797,11103.089130
1024.203470,-6513.812290,-383.047749,9474.636058
1024.203799,-6143.709319,-1762.019645,8586.388927
1024.204129,-4959.379811,-1455.581446,7698.141797
1024.204458,-3182.885551,612.876398,7476.080014
1024.204788,-1406.391290,2604.724693,7254.018232
1024.205118,0.000000,4443.353888,7698.141797
1024.205447,0.000000,4979.620737,7846.182985
1024.205777,-740.205942,6205.373534,8882.471304
1024.206106,-1554.432478,6281.983084,10362.883188
1024.206436,-2368.659014,5132.839837,10955.047942
1024.206765,-3330.926739,4060.306139,10436.903782
1024.207095,-3478.967927,2068.457845,9326.594869
1024.207425,-3034.844362,306.438199,8660.409521
1024.207754,-2368.659014,-306.438199,8290.306550
1024.208084,-1998.556043,1225.752797,8290.306550
1024.208413,-1776.494261,2987.772442,8438.347739
1024.208743,-2072.576638,5056.230287,9548.656652
1024.209072,-2664.741391,5209.449386,10214.842000
1024.209402,-2442.679609,5439.278036,10881.027347
1024.209732,-2590.720797,5209.449386,10732.986159
1024.210061,-2590.720797,4596.572988,10214.842000
1024.210391,-2442.679609,3447.429741,10362.883188
1024.210720,-1628.453072,1762.019645,9696.697840
1024.211050,-1776.494261,1685.410096,9326.594869
1024.211379,-1480.411884,1838.629195,9400.615463
1024.211709,-1184.329507,2834.553343,9770.718434
1024.212039,-666.185348,3677.258390,10436.903782
1024.212368,-1110.308913,5439.278036,11029.068536
1024.212698,-2368.659014,7124.688131,11177.109724
1024.213027,-2960.823768,6894.859482,10362.883188
1024.213357,-3034.844362,5822.325785,9400.615463
1024.213686,-2812.782580,4519.963438,8216.285956
1024.214016,-1776.494261,2145.067394,7105.977043
1024.214346,-1184.329507,1225.752797,5773.606348
1024.214675,-444.123565,536.266849,5551.544565
1024.215005,-444.123565,919.314598,6439.791695
1024.215334,-1184.329507,2145.067394,7698.141797
1024.215664,-1776.494261,4443.353888,8808.450710
1024.215993,-2442.679609,5592.497135,10584.944971
1024.216323,-2664.741391,5898.935335,11177.109724
1024.216653,-2368.659014,6128.763984,11103.089130
1024.216982,-1776.494261,5439.278036,11029.068536
1024.217312,-888.247130,4443.353888,10214.842000
1024.217641,-1184.329507,3524.039291,9770.718434
1024.217971,-1110.308913,3064.381992,9474.636058
1024.218300,-1036.288319,2451.505594,8956.491898
1024.218630,-592.164754,2757.943793,8512.368333
1024.218960,222.061783,2604.724693,8586.388927
1024.219289,740.205942,2757.943793,8956.491898
1024.219619,370.102971,2757.943793,9918.759623
1024.219948,-888.247130,4136.915689,10732.986159
1024.220278,-2368.659014,5132.839837,11473.192101
1024.220607,-2516.700203,4903.011187,12065.356855
1024.220937,-1998.556043,4443.353888,11843.295072
1024.221267,-1554.432478,4060.306139,11177.109724
1024.221596,-1110.308913,3983.696590,10066.800811
1024.221926,-518.144159,4060.306139,9548.656652
1024.222255,0.000000,5132.839837,9474.636058
1024.222585,740.205942,5898.935335,9178.553681
1024.222914,888.247130,5362.668486,7550.100608
1024.223244,592.164754,4443.353888,6069.688724
1024.223574,444.123565,2834.553343,6069.688724
1024.223903,0.000000,1915.238745,7105.977043
1024.224233,-1628.453072,2298.286494,8290.306550
1024.224562,-3256.906145,3064.381992,9992.780217
1024.224892,-4219.173869,3140.991542,10362.883188
1024.225221,-3923.091493,3447.429741,11103.089130
1024.225551,-2738.761985,4290.134789,11177.109724
1024.225881,-1776.494261,5286.058936,10510.924376
1024.226210,-962.267725,6128.763984,9548.656652
1024.226540,74.020594,7201.297681,9252.574275
1024.226869,592.164754,6665.030833,9326.594869
1024.227199,0.000000,6281.983084,8438.347739
1024.227529,-888.247130,5209.449386,7254.018232
1024.227858,-1480.411884,4060.306139,6365.771101
1024.228188,-1480.411884,1149.143247,6735.874072
1024.228517,-1480.411884,76.609550,6513.812290
1024.228847,-1850.514855,-1225.752797,7550.100608
1024.229176,-2146.597232,-995.924147,9252.574275
1024.229506,-2220.617826,1072.533697,11251.130318
1024.229836,-1850.514855,3524.039291,12139.377449
1024.230165,-1036.288319,5056.230287,12731.542202
1024.230495,0.000000,5515.887586,13397.727550
1024.230824,222.061783,6818.249932,13175.665768
1024.231154,370.102971,7048.078582,12435.459826
1024.231483,296.082377,5669.106685,11029.068536
1024.231813,222.061783,4060.306139,9548.656652
1024.232143,-518.144159,2834.553343,8882.471304
1024.232472,-1628.453072,1838.629195,8808.450710
1024.232802,-2220.617826,1838.629195,8364.327145
1024.233131,-2442.679609,1685.410096,7624.121203
1024.233461,-1776.494261,1072.533697,7105.977043
1024.233790,-592.164754,1378.971896,8142.265362
1024.234120,74.020594,1838.629195,9622.677246
1024.234450,0.000000,3907.087040,10807.006753
1024.234779,-1036.288319,5515.887586,11103.089130
1024.235109,-2146.597232,6588.421283,10955.047942
1024.235438,-1850.514855,6818.249932,12139.377449
1024.235768,-1332.370696,6665.030833,12435.459826
1024.236097,-1998.556043,6818.249932,11103.089130
1024.236427,-2516.700203,5975.544884,8734.430116
1024.236757,-2294.638420,5056.230287,5477.523971
1024.237086,-222.061783,3294.210641,3923.091493
1024.237416,2220.617826,1762.019645,3997.112087
1024.237745,3182.885551,1991.848295,4737.318029
1024.238075,2072.576638,3064.381992,5477.523971
1024.238404,-592.164754,4366.744339,7031.956449
1024.238734,-2886.803174,5132.839837,9844.739029
1024.239064,-4811.338623,5822.325785,12953.603985
1024.239393,-5107.421000,6358.592633,15026.180623
1024.239723,-5255.462188,5745.716235,14582.057057
1024.240052,-5329.482782,4749.792088,12657.521608
1024.240382,-4219.173869,2987.772442,10362.883188
1024.240711,-1850.514855,2145.067394,8586.388927
1024.241041,1258.350101,2145.067394,6883.915261
1024.241371,3849.070898,2911.162892,5847.626942
1024.241700,4737.318029,3753.867940,5329.482782
1024.242030,4515.256246,4443.353888,6883.915261
1024.242359,2368.659014,4519.963438,9474.636058
1024.242689,-1702.473667,7431.126331,12361.439231
1024.243018,-4589.276840,9346.365076,13989.892304
1024.243348,-4811.338623,7048.078582,13767.830521
1024.243678,-3997.112087,3370.820191,12065.356855
1024.244007,-2368.659014,-229.828649,9844.739029
1024.244337,-1184.329507,-689.485948,7550.100608
1024.244666,-592.164754,-459.657299,5403.503377
1024.244996,0.000000,383.047749,5995.668130
1024.245325,296.082377,2528.115143,8734.430116
1024.245655,-888.247130,4826.401637,9400.615463
1024.245985,-1702.473667,5132.839837,7328.038826
1024.246314,-740.205942,2604.724693,6587.832884
1024.246644,296.082377,0.000000,9178.553681
1024.246973,-814.226536,1225.752797,12139.377449
1024.247303,-2886.803174,3677.258390,13693.809927
1024.247632,-3849.070898,3677.258390,13545.768739
1024.247962,-3330.926739,2451.505594,11769.274478
1024.248292,-2590.720797,2221.676944,10510.924376
1024.248621,-1036.288319,1532.190996,8512.368333
1024.248951,1184.329507,-766.095498,5773.606348
1024.249280,2886.803174,-1455.581446,3775.050304
1024.249610,3330.926739,-1378.971896,4441.235652
1024.249939,2294.638420,-689.485948,7402.059420
1024.250269,0.000000,1149.143247,11325.150913
1024.250598,-2516.700203,3217.601092,14285.974681
1024.250928,-4219.173869,5056.230287,15174.221811
1024.251257,-4515.256246,4443.353888,14211.954086
1024.251587,-2664.741391,919.314598,12509.480420
1024.251916,-888.247130,-2451.505594,11547.212695
1024.252246,-592.164754,-2068.457845,9992.780217
1024.252575,-444.123565,919.314598,7994.224174
1024.252905,74.020594,1072.533697,7402.059420
1024.253234,-666.185348,2145.067394,8586.388927
1024.253564,-1036.288319,2681.334243,9548.656652
1024.253893,-1110.308913,3064.381992,8512.368333
1024.254223,-518.144159,2068.457845,5995.668130
1024.254552,0.000000,-536.266849,6513.812290
1024.254882,-370.102971,-766.095498,9992.780217
1024.255212,-1924.535449,1072.533697,12879.583391
1024.255541,-3701.029710,2681.334243,14137.933492
1024.255871,-4441.235652,5592.497135,13693.809927
1024.256200,-3775.050304,6358.592633,11843.295072
1024.256530,-1776.494261,3753.867940,9770.718434
1024.256859,814.226536,612.876398,7254.018232
1024.257189,2294.638420,0.000000,5107.421000
1024.257518,1702.473667,1532.190996,4145.153275
1024.257848,1110.308913,2604.724693,4885.359217
1024.258177,-666.185348,3370.820191,7402.059420
1024.258507,-2072.576638,4903.011187,9252.574275
1024.258836,-2664.741391,5056.230287,9178.553681
1024.259166,-1036.288319,3370.820191,7920.203579
1024.259495,814.226536,153.219100,8512.368333
1024.259825,444.123565,-536.266849,9474.636058
1024.260154,-1258.350101,306.438199,9770.718434
1024.260484,-1554.432478,766.095498,10807.006753
1024.260813,-1924.535449,2757.943793,11769.274478
1024.261143,-2812.782580,5745.716235,11177.109724
1024.261473,-2886.803174,4213.525239,8882.471304
1024.261802,-740.205942,-306.438199,7105.977043
1024.262132,1554.432478,-2987.772442,6513.812290
1024.262461,1406.391290,-1838.629195,7105.977043
1024.262791,-592.164754,0.000000,8290.306550
1024.263120,-1776.494261,-153.219100,10732.986159
1024.263450,-2590.720797,1302.362347,12879.583391
1024.263779,-3256.906145,2298.286494,12953.603985
1024.264109,-2072.576638,1225.752797,11843.295072
1024.264438,148.041188,-1915.238745,11473.192101
1024.264768,814.226536,-3983.696590,9622.677246
1024.265097,592.164754,-3140.991542,9030.512492
1024.265427,444.123565,-2451.505594,10807.006753
1024.265756,296.082377,-995.924147,12509.480420
1024.266086,-1332.370696,2451.505594,13397.727550
1024.266415,-2516.700203,3370.820191,12657.521608
1024.266745,-1110.308913,842.705048,11103.089130
1024.267074,592.164754,-1532.190996,9548.656652
1024.267404,888.247130,-1532.190996,8438.347739
1024.267734,-148.041188,-1532.190996,8142.265362
1024.268063,-814.226536,-1378.971896,9104.533087
1024.268393,-2294.638420,-536.266849,9770.718434
1024.268722,-3552.988522,1072.533697,8882.471304
1024.269052,-2664.741391,1149.143247,7698.141797
1024.269381,-518.144159,-1149.143247,7698.141797
1024.269711,1036.288319,-2528.115143,7254.018232
1024.270040,370.102971,-1149.143247,7105.977043
1024.270370,74.020594,-383.047749,7920.203579
1024.270699,-296.082377,1455.581446,11325.150913
1024.271029,-2294.638420,4903.011187,13101.645173
1024.271358,-3330.926739,6588.421283,12361.439231
1024.271688,-2368.659014,3753.867940,9992.780217
1024.272017,0.000000,919.314598,9548.656652
1024.272347,74.020594,153.219100,7994.224174
1024.272676,-296.082377,536.266849,7031.956449
1024.273006,-148.041188,919.314598,7179.997637
1024.273335,-814.226536,1915.238745,8290.306550
1024.273665,-2220.617826,3753.867940,8512.368333
1024.273994,-2516.700203,4290.134789,8512.368333
1024.274324,-1406.391290,1915.238745,8364.327145
1024.274654,-370.102971,153.219100,8142.265362
1024.274983,-592.164754,1225.752797,8290.306550
1024.275313,-814.226536,766.095498,8142.265362
1024.275642,-370.102971,0.000000,10807.006753
1024.275972,-1406.391290,2757.943793,13175.665768
1024.276301,-2664.741391,5822.325785,13027.624579
1024.276631,-2294.638420,5209.449386,11103.089130
1024.276960,-296.082377,1838.629195,9548.656652
1024.277290,962.267725,1225.752797,9326.594869
1024.277619,888.247130,1762.019645,8438.347739
1024.277949,1258.350101,1149.143247,8290.306550
1024.278278,518.144159,1378.971896,8364.327145
1024.278608,-1554.432478,2451.505594,9030.512492
1024.278937,-2442.679609,2451.505594,9178.553681
1024.279267,-2072.576638,229.828649,8660.409521
1024.279596,-666.185348,-1915.238745,8734.430116
1024.279926,0.000000,-1302.362347,8882.471304
1024.280255,-444.123565,-459.657299,9548.656652
1024.280585,-370.102971,-459.657299,10584.944971
1024.280915,-1850.514855,-229.828649,11843.295072
1024.281244,-3108.864956,2528.115143,12139.377449
1024.281574,-2738.761985,3983.696590,11177.109724
1024.281903,-1258.350101,1378.971896,9992.780217
1024.282233,0.000000,-919.314598,8364.327145
1024.282562,518.144159,-2757.943793,6809.894666
1024.282892,814.226536,-3447.429741,7179.997637
1024.283221,518.144159,-1685.410096,8808.450710
1024.283551,-888.247130,459.657299,10214.842000
1024.283880,-1776.494261,1455.581446,9844.739029
1024.284210,-370.102971,76.609550,9696.697840
1024.284539,1332.370696,-2298.286494,10066.800811
1024.284869,592.164754,-1762.019645,10288.862594
1024.285198,-592.164754,-1072.533697,10807.006753
1024.285528,-1036.288319,-1072.533697,11769.274478
1024.285857,-2072.576638,-229.828649,12361.439231
1024.286187,-3552.988522,1072.533697,12435.459826
1024.286516,-2590.720797,1149.143247,10955.047942
1024.286846,-1036.288319,-1225.752797,9326.594869
1024.287176,222.061783,-2298.286494,8586.388927
1024.287505,-148.041188,-612.876398,7846.182985
1024.287835,-666.185348,919.314598,7920.203579
1024.288164,0.000000,1225.752797,9252.574275
1024.288494,-1332.370696,2911.162892,9770.718434
1024.288823,-1924.535449,3830.477490,9104.533087
1024.289153,-1110.308913,1455.581446,7550.100608
1024.289482,148.041188,-1072.533697,7772.162391
1024.289812,0.000000,-1455.581446,8660.409521
1024.290141,-1554.432478,459.657299,9844.739029
1024.290471,-2072.576638,1149.143247,10436.903782
1024.290800,-1998.556043,1532.190996,11029.068536
1024.291130,-2590.720797,3217.601092,11103.089130
1024.291459,-2220.617826,5362.668486,9548.656652
1024.291789,-888.247130,2757.943793,7402.059420
1024.292118,814.226536,383.047749,6809.894666
1024.292448,888.247130,1149.143247,6957.935855
1024.292777,148.041188,2145.067394,7772.162391
1024.293107,-296.082377,1838.629195,8142.265362
1024.293436,-1480.411884,2068.457845,9104.533087
1024.293766,-2516.700203,2374.896044,9474.636058
1024.294096,-2146.597232,2374.896044,9400.615463
1024.294425,-740.205942,0.000000,9400.615463
1024.294755,74.020594,-1302.362347,8734.430116
1024.295084,-370.102971,-919.314598,9992.780217
1024.295414,-888.247130,76.609550,10807.006753
1024.295743,-1332.370696,919.314598,12509.480420
1024.296073,-2442.679609,2757.943793,13027.624579
1024.296402,-2960.823768,3983.696590,11177.109724
1024.296732,-1332.370696,1608.800546,9992.780217
1024.297061,888.247130,-1762.019645,9104.533087
1024.297391,1036.288319,-1149.143247,9030.512492
1024.297720,148.041188,229.828649,8290.306550
1024.298050,0.000000,-383.047749,7920.203579
1024.298379,0.000000,383.047749,9474.636058
1024.298709,-370.102971,1838.629195,10658.965565
1024.299038,-370.102971,1991.848295,9474.636058
1024.299368,1110.308913,-1532.190996,8512.368333
1024.299697,1702.473667,-2604.724693,8808.450710
1024.300027,296.082377,-766.095498,10288.862594
1024.300357,-1406.391290,0.000000,11547.212695
1024.300686,-2220.617826,612.876398,12805.562797
1024.301016,-3330.926739,2604.724693,13249.686362
1024.301345,-3552.988522,4290.134789,11251.130318
1024.301675,-2442.679609,1991.848295,8216.285956
1024.302004,74.020594,-2145.067394,6365.771101
1024.302334,740.205942,-2681.334243,6217.729913
1024.302663,-666.185348,76.609550,6513.812290
1024.302993,-1924.535449,1838.629195,7105.977043
1024.303322,-2220.617826,1608.800546,7846.182985
1024.303652,-2146.597232,1302.362347,8364.327145
1024.303981,-1776.494261,1455.581446,8364.327145
1024.304311,-444.123565,-153.219100,8438.347739
1024.304640,370.102971,-2451.505594,8882.471304
1024.304970,-444.123565,-1455.581446,9844.739029
1024.305299,-1628.453072,842.705048,11473.192101
1024.305629,-1998.556043,1608.800546,13175.665768
1024.305958,-2294.638420,2911.162892,13767.830521
1024.306288,-2368.659014,4749.792088,12213.398043
1024.306617,-1554.432478,2757.943793,9252.574275
1024.306947,888.247130,-536.266849,7772.162391
1024.307277,1776.494261,-1762.019645,7846.182985
1024.307606,740.205942,0.000000,8216.285956
1024.307936,-370.102971,1455.581446,8882.471304
1024.308265,-1554.432478,1915.238745,9918.759623
1024.308595,-2442.679609,2068.457845,10584.944971
1024.308924,-3849.070898,2298.286494,9696.697840
1024.309254,-2294.638420,-153.219100,8808.450710
1024.309583,148.041188,-2451.505594,8660.409521
1024.309913,-148.041188,-2145.067394,8734.430116
1024.310242,-1258.350101,-1762.019645,9104.533087
1024.310572,-1480.411884,-1225.752797,10362.883188
1024.310901,-1406.391290,1072.533697,12435.459826
1024.311231,-2294.638420,4366.744339,12731.542202
1024.311560,-1702.473667,4290.134789,11251.130318
1024.311890,0.000000,689.485948,9474.636058
1024.312219,1258.350101,-459.657299,8068.244768
1024.312549,1480.411884,-153.219100,7846.182985
1024.312878,814.226536,612.876398,8068.244768
1024.313208,296.082377,1302.362347,8956.491898
1024.313538,-1110.308913,1608.800546,9326.594869
1024.313867,-1184.329507,2451.505594,9326.594869
1024.314197,-296.082377,-229.828649,7328.038826
1024.314526,1258.350101,-2451.505594,7994.224174
1024.314856,592.164754,-1838.629195,9252.574275
1024.315185,-1110.308913,0.000000,10214.842000
1024.315515,-1924.535449,459.657299,11769.274478
1024.315844,-2294.638420,1302.362347,12509.480420
1024.316174,-3478.967927,3600.648841,12879.583391
1024.316503,-3552.988522,4366.744339,11399.171507
1024.316833,-1850.514855,1762.019645,9252.574275
1024.317162,0.000000,-1149.143247,7624.121203
1024.317492,296.082377,-306.438199,7105.977043
1024.317821,-740.205942,612.876398,7476.080014
1024.318151,-1036.288319,2145.067394,8586.388927
1024.318480,-1776.494261,2834.553343,9400.615463
1024.318810,-1998.556043,3600.648841,9252.574275
1024.319139,-814.226536,2987.772442,7846.182985
1024.319469,1258.350101,-919.314598,7550.100608
1024.319799,888.247130,-1915.238745,8586.388927
1024.320128,-518.144159,689.485948,9770.718434
1024.320458,-1184.329507,1838.629195,11103.089130
1024.320787,-1332.370696,2451.505594,12361.439231
1024.321117,-2368.659014,4366.744339,12287.418637
1024.321446,-2664.741391,4903.011187,11103.089130
1024.321776,-1258.350101,2987.772442,9622.677246
1024.322105,666.185348,689.485948,7772.162391
1024.322435,666.185348,76.609550,6217.729913
1024.322764,592.164754,383.047749,6217.729913
1024.323094,148.041188,1225.752797,7920.203579
1024.323423,-1406.391290,2911.162892,9400.615463
1024.323753,-3108.864956,4136.915689,9252.574275
1024.324082,-3330.926739,2451.505594,7994.224174
1024.324412,-1924.535449,-919.314598,8216.285956
1024.324741,-888.247130,-2145.067394,9622.677246
1024.325071,-1554.432478,-995.924147,9770.718434
1024.325400,-1628.453072,-1149.143247,9992.780217
1024.325730,-1258.350101,-1072.533697,11621.233289
1024.326059,-2294.638420,1608.800546,13693.809927
1024.326389,-3330.926739,3907.087040,13397.727550
1024.326719,-2294.638420,2681.334243,11547.212695
1024.327048,222.061783,0.000000,9770.718434
1024.327378,1480.411884,-842.705048,8586.388927
1024.327707,1776.494261,-1072.533697,8364.327145
1024.328037,1850.514855,-612.876398,8808.450710
1024.328366,740.205942,459.657299,9400.615463
1024.328696,-962.267725,2451.505594,10140.821405
1024.329025,-962.267725,2221.676944,10066.800811
1024.329355,222.061783,-1225.752797,9474.636058
1024.329684,1036.288319,-2298.286494,8882.471304
1024.330014,444.123565,-2451.505594,8882.471304
1024.330343,-888.247130,-919.314598,10066.800811
1024.330673,-1702.473667,153.219100,12065.356855
1024.331002,-3701.029710,2221.676944,12805.562797
1024.331332,-5033.400406,3677.258390,11325.150913
1024.331661,-3108.864956,2145.067394,9474.636058
1024.331991,-1258.350101,-306.438199,8068.244768
1024.332320,0.000000,-1225.752797,6661.853478
1024.332650,-740.205942,-842.705048,5995.668130
1024.332980,-888.247130,612.876398,7179.997637
1024.333309,-1110.308913,2757.943793,8290.306550
1024.333639,-1924.535449,4519.963438,8882.471304
1024.333968,-1850.514855,3830.477490,8290.306550
1024.334298,0.000000,1072.533697,8068.244768
1024.334627,888.247130,-766.095498,8734.430116
1024.334957,-296.082377,459.657299,9104.533087
1024.335286,-1110.308913,919.314598,9622.677246
1024.335616,-1480.411884,1455.581446,11547.212695
1024.335945,-2368.659014,3447.429741,13027.624579
1024.336275,-3330.926739,5439.278036,12065.356855
1024.336604,-2146.597232,4519.963438,10066.800811
1024.336934,148.041188,2068.457845,8660.409521
1024.337263,148.041188,842.705048,7550.100608
1024.337593,-666.185348,1762.019645,7402.059420
1024.337922,-370.102971,1762.019645,7994.224174
1024.338252,-814.226536,2298.286494,9030.512492
1024.338581,-2664.741391,4290.134789,9844.739029
1024.338911,-3330.926739,4443.353888,9030.512492
1024.339241,-1702.473667,995.924147,8586.388927
1024.339570,148.041188,-1455.581446,8956.491898
1024.339900,0.000000,-612.876398,9622.677246
1024.340229,-1110.308913,306.438199,9844.739029
1024.340559,-1110.308913,689.485948,10955.047942
1024.340888,-1628.453072,2145.067394,12583.501014
1024.341218,-2220.617826,4366.744339,12805.562797
1024.341547,-1628.453072,3907.087040,10955.047942
1024.341877,148.041188,1302.362347,9400.615463
1024.342206,1480.411884,306.438199,8586.388927
1024.342536,740.205942,76.609550,7550.100608
1024.342865,0.000000,0.000000,7254.018232
1024.343195,-296.082377,76.609550,8438.347739
1024.343524,-1776.494261,919.314598,9474.636058
1024.343854,-2664.741391,3447.429741,9548.656652
1024.344183,-1332.370696,842.705048,8586.388927
1024.344513,0.000000,-2528.115143,7772.162391
1024.344842,0.000000,-2911.162892,8068.244768
1024.345172,-1850.514855,-1532.190996,9474.636058
1024.345501,-1776.494261,-459.657299,11991.336260
1024.345831,-2516.700203,1608.800546,13915.871710
1024.346161,-4145.153275,3907.087040,12953.603985
1024.346490,-3404.947333,2604.724693,10436.903782
1024.346820,-962.267725,-612.876398,9104.533087
1024.347149,1036.288319,-1838.629195,9178.553681
1024.347479,0.000000,0.000000,8438.347739
1024.347808,-1184.329507,919.314598,8068.244768
1024.348138,-1406.391290,766.095498,8956.491898
1024.348468,-1850.514855,1455.581446,10066.800811
1024.348797,-2146.597232,2834.553343,9844.739029
1024.349127,-740.205942,1991.848295,8364.327145
1024.349456,518.144159,-1608.800546,7846.182985
1024.349786,370.102971,-1915.238745,8290.306550
1024.350115,-1036.288319,0.000000,9696.697840
1024.350445,-1628.453072,689.485948,11399.171507
1024.350775,-1776.494261,2068.457845,12065.356855
1024.351104,-2886.803174,4673.182538,11547.212695
1024.351434,-2812.782580,4443.353888,9696.697840
1024.351763,-740.205942,1302.362347,8290.306550
1024.352093,962.267725,-153.219100,7624.121203
1024.352422,666.185348,306.438199,7105.977043
1024.352752,-370.102971,2528.115143,7698.141797
1024.353081,-1036.288319,2451.505594,8142.265362
1024.353411,-1850.514855,2298.286494,8808.450710
1024.353741,-2442.679609,3294.210641,9252.574275
1024.354070,-1850.514855,3370.820191,8882.471304
1024.354400,222.061783,1225.752797,8586.388927
1024.354729,296.082377,-689.485948,8364.327145
1024.355059,-962.267725,-383.047749,8734.430116
1024.355388,-1406.391290,383.047749,10436.903782
1024.355718,-1702.473667,1608.800546,12065.356855
1024.356048,-2368.659014,4060.306139,12213.398043
1024.356377,-2590.720797,4136.915689,10807.006753
1024.356707,-1110.308913,1685.410096,9400.615463
1024.357036,1110.308913,-612.876398,9178.553681
1024.357366,740.205942,-459.657299,8438.347739
1024.357695,-370.102971,1225.752797,7846.182985
1024.358025,-1036.288319,919.314598,9178.553681
1024.358355,-1554.432478,1455.581446,10732.986159
1024.358684,-2516.700203,2681.334243,11103.089130
1024.359014,-1850.514855,1838.629195,10140.821405
1024.359343,0.000000,-1072.533697,9178.553681
1024.359673,0.000000,-2604.724693,8586.388927
1024.360002,-1110.308913,-1225.752797,9770.718434
1024.360332,-1850.514855,-612.876398,11325.150913
1024.360662,-2072.576638,306.438199,12435.459826
1024.360991,-2886.803174,3217.601092,12657.521608
1024.361321,-2664.741391,4519.963438,10955.047942
1024.361650,-1184.329507,1685.410096,8734.430116
1024.361980,888.247130,-1225.752797,7698.141797
1024.362309,1036.288319,-1608.800546,7476.080014
1024.362639,-370.102971,612.876398,8142.265362
1024.362969,-1850.514855,1532.190996,8808.450710
1024.363298,-2146.597232,1532.190996,9104.533087
1024.363628,-2368.659014,1838.629195,9030.512492
1024.363957,-1776.494261,1149.143247,8512.368333
1024.364287,148.041188,-383.047749,8586.388927
1024.364616,592.164754,-1378.971896,8216.285956
1024.364946,-296.082377,-995.924147,8364.327145
1024.365276,-1480.411884,306.438199,9326.594869
1024.365605,-1850.514855,1532.190996,10955.047942
1024.365935,-2368.659014,3983.696590,12139.377449
1024.366264,-3404.947333,4979.620737,11029.068536
1024.366594,-2294.638420,3447.429741,8660.409521
1024.366923,-370.102971,-766.095498,7105.977043
1024.367253,444.123565,-2145.067394,7105.977043
1024.367583,0.000000,0.000000,7920.203579
1024.367912,-888.247130,1991.848295,8660.409521
1024.368242,-1776.494261,2145.067394,9474.636058
1024.368571,-2072.576638,3217.601092,10510.924376
1024.368901,-2368.659014,3983.696590,10140.821405
1024.369230,-740.205942,1072.533697,9474.636058
1024.369560,518.144159,-1378.971896,9030.512492
1024.369890,-148.041188,-1225.752797,8956.491898
1024.370219,-962.267725,153.219100,10140.821405
1024.370549,-1554.432478,383.047749,11769.274478
1024.370878,-2590.720797,2451.505594,13027.624579
1024.371208,-3627.009116,4443.353888,12583.501014
1024.371537,-2590.720797,3677.258390,10955.047942
1024.371867,-518.144159,1072.533697,9104.533087
1024.372196,888.247130,-995.924147,7402.059420
1024.372526,666.185348,-1685.410096,6661.853478
1024.372856,148.041188,-536.266849,7698.141797
1024.373185,-888.247130,612.876398,9474.636058
1024.373515,-2220.617826,2221.676944,10362.883188
1024.373844,-2738.761985,2681.334243,10362.883188
1024.374174,-1406.391290,-306.438199,8956.491898
1024.374503,148.041188,-3140.991542,8660.409521
1024.374833,0.000000,-3294.210641,9178.553681
1024.375163,-740.205942,-1915.238745,10436.903782
1024.375492,-1406.391290,-459.657299,11399.171507
1024.375822,-2368.659014,2145.067394,12213.398043
1024.376151,-3108.864956,3294.210641,11991.336260
1024.376481,-2220.617826,2451.505594,10658.965565
1024.376810,-148.041188,766.095498,9030.512492
1024.377140,814.226536,-919.314598,7031.956449
1024.377470,444.123565,-1838.629195,6143.709319
1024.377799,0.000000,-1608.800546,7105.977043
1024.378129,-888.247130,-229.828649,9696.697840
1024.378458,-2442.679609,1915.238745,11029.068536
1024.378788,-3627.009116,3217.601092,9696.697840
1024.379117,-2146.597232,689.485948,8290.306550
1024.379447,148.041188,-2834.553343,8660.409521
1024.379777,148.041188,-2528.115143,9030.512492
1024.380106,-740.205942,-306.438199,10288.862594
1024.380436,-962.267725,1302.362347,10881.027347
1024.380765,-2072.576638,3064.381992,11547.212695
1024.381095,-3256.906145,3983.696590,11695.253884
1024.381424,-2368.659014,4136.915689,11103.089130
1024.381754,-962.267725,2451.505594,9400.615463
1024.382084,222.061783,995.924147,7624.121203
1024.382413,592.164754,612.876398,6883.915261
1024.382743,0.000000,-306.438199,6809.894666
1024.383072,-888.247130,229.828649,7994.224174
1024.383402,-1776.494261,2298.286494,10066.800811
1024.383731,-2664.741391,4596.572988,10288.862594
1024.384061,-2294.638420,4213.525239,8882.471304
1024.384391,0.000000,0.000000,8068.244768
1024.384720,370.102971,-2451.505594,8290.306550
1024.385050,0.000000,-612.876398,9548.656652
1024.385379,-1110.308913,2068.457845,10288.862594
1024.385709,-1332.370696,2987.772442,10955.047942
1024.386038,-2146.597232,3370.820191,11547.212695
1024.386368,-2442.679609,4749.792088,11103.089130
1024.386698,-962.267725,2604.724693,9400.615463
1024.387027,740.205942,76.609550,8142.265362
1024.387357,1036.288319,-612.876398,7254.018232
1024.387686,222.061783,-306.438199,7698.141797
1024.388016,-592.164754,-766.095498,9622.677246
1024.388345,-1850.514855,459.657299,11251.130318
1024.388675,-3182.885551,2911.162892,11473.192101
1024.389004,-2812.782580,2911.162892,10436.903782
1024.389334,-1036.288319,-1072.533697,9622.677246
1024.389664,518.144159,-3217.601092,9548.656652
1024.389993,0.000000,-2221.676944,9252.574275
1024.390323,-1036.288319,-1302.362347,9696.697840
1024.390652,-1332.370696,-383.047749,11177.109724
1024.390982,-2368.659014,1991.848295,12731.542202
1024.391311,-3034.844362,3294.210641,12213.398043
1024.391641,-1702.473667,1838.629195,10436.903782
1024.391971,148.041188,-536.266849,8290.306550
1024.392300,1036.288319,-1532.190996,7476.080014
1024.392630,518.144159,-2374.896044,7772.162391
1024.392959,-444.123565,-1762.019645,8882.471304
1024.393289,-1628.453072,612.876398,10362.883188
1024.393618,-2516.700203,2528.115143,10436.903782
1024.393948,-2368.659014,1838.629195,9252.574275
1024.394278,-518.144159,-1455.581446,8512.368333
1024.394607,666.185348,-2681.334243,8956.491898
1024.394937,0.000000,-1302.362347,8586.388927
1024.395266,-1184.329507,383.047749,9252.574275
1024.395596,-1406.391290,919.314598,10288.862594
1024.395925,-2146.597232,2221.676944,11695.253884
1024.396255,-2812.782580,3830.477490,11547.212695
1024.396585,-1554.432478,3370.820191,9474.636058
1024.396914,-296.082377,995.924147,7772.162391
1024.397244,740.205942,-919.314598,7105.977043
1024.397573,0.000000,-153.219100,7624.121203
1024.397903,-1110.308913,995.924147,8290.306550
1024.398232,-1406.391290,2221.676944,9326.594869
1024.398562,-1850.514855,3370.820191,9400.615463
1024.398892,-1850.514855,3600.648841,9104.533087
1024.399221,-444.123565,1072.533697,9104.533087
1024.399551,592.164754,-1072.533697,9178.553681
1024.399880,0.000000,-383.047749,8882.471304
1024.400210,-888.247130,842.705048,9622.677246
1024.400539,-1332.370696,1072.533697,11251.130318
1024.400869,-2072.576638,2604.724693,13101.645173
1024.401199,-2960.823768,4903.011187,13027.624579
1024.401528,-2368.659014,4749.792088,10288.862594
1024.401858,-370.102971,2374.896044,8586.388927
1024.402187,1332.370696,-1225.752797,7846.182985
1024.402517,518.144159,-536.266849,8068.244768
1024.402846,-888.247130,919.314598,8142.265362
1024.403176,-1110.308913,1378.971896,8956.491898
1024.403506,-1554.432478,2374.896044,9770.718434
1024.403835,-1998.556043,2681.334243,9770.718434
1024.404165,-1110.308913,-229.828649,9252.574275
1024.404494,0.000000,-2681.334243,8734.430116
1024.404824,222.061783,-1915.238745,9326.594869
1024.405153,-1184.329507,229.828649,10214.842000
1024.405483,-1776.494261,0.000000,11399.171507
1024.405813,-2072.576638,919.314598,12805.562797
1024.406142,-2738.761985,2911.162892,11991.336260
1024.406472,-2146.597232,3140.991542,9548.656652
1024.406801,-296.082377,459.657299,7920.203579
1024.407131,1258.350101,-2374.896044,8142.265362
1024.407460,222.061783,-1532.190996,7920.203579
1024.407790,-1184.329507,-306.438199,8142.265362
1024.408119,-1110.308913,153.219100,8734.430116
1024.408449,-1258.350101,995.924147,10362.883188
1024.408779,-2146.597232,2145.067394,10436.903782
1024.409108,-962.267725,689.485948,9400.615463
1024.409438,592.164754,-2374.896044,9104.533087
1024.409767,814.226536,-1838.629195,9326.594869
1024.410097,-370.102971,229.828649,10140.821405
1024.410426,-1628.453072,459.657299,10732.986159
1024.410756,-1406.391290,842.705048,11991.336260
1024.411086,-2516.700203,3753.867940,12213.398043
1024.411415,-2368.659014,4903.011187,11029.068536
1024.411745,-1110.308913,2451.505594,8808.450710
1024.412074,0.000000,-536.266849,7105.977043
1024.412404,1184.329507,-1072.533697,6291.750507
1024.412733,-148.041188,153.219100,7254.018232
1024.413063,-962.267725,2987.772442,8586.388927
1024.413393,-1776.494261,4366.744339,9400.615463
1024.413722,-2590.720797,3907.087040,9104.533087
1024.414052,-1998.556043,2298.286494,7994.224174
1024.414381,0.000000,-766.095498,8512.368333
1024.414711,666.185348,-1302.362347,8956.491898
1024.415040,-962.267725,76.609550,9474.636058
1024.415370,-1924.535449,1225.752797,10140.821405
1024.415700,-2294.638420,2681.334243,11547.212695
1024.416029,-2590.720797,3983.696590,12805.562797
1024.416359,-2368.659014,5362.668486,11917.315666
1024.416688,-1406.391290,3524.039291,9548.656652
1024.417018,740.205942,536.266849,7994.224174
1024.417347,1628.453072,-995.924147,6957.935855
1024.417677,444.123565,-229.828649,7698.141797
1024.418007,74.020594,1378.971896,9178.553681
1024.418336,-962.267725,2834.553343,10362.883188
1024.418666,-2442.679609,3677.258390,9992.780217
1024.418995,-1628.453072,2068.457845,9104.533087
1024.419325,148.041188,-2374.896044,8734.430116
1024.419654,1110.308913,-3064.381992,8808.450710
1024.419984,-592.164754,-1455.581446,9104.533087
1024.420314,-1184.329507,-919.314598,10140.821405
1024.420643,-1776.494261,-153.219100,11843.295072
1024.420973,-3034.844362,2451.505594,13101.645173
1024.421302,-2886.803174,3447.429741,12361.439231
1024.421632,-1480.411884,1991.848295,9770.718434
1024.421961,592.164754,-842.705048,8068.244768
1024.422291,1554.432478,-1991.848295,7476.080014
1024.422621,1258.350101,-1762.019645,7772.162391
1024.422950,-296.082377,76.609550,8882.471304
1024.423280,-1332.370696,1532.190996,10214.842000
1024.423609,-2516.700203,2528.115143,10881.027347
1024.423939,-2072.576638,1915.238745,10140.821405
1024.424268,-666.185348,-1838.629195,9030.512492
1024.424598,592.164754,-3753.867940,7105.977043
1024.424927,518.144159,-3294.210641,8734.430116
1024.425257,-814.226536,-1072.533697,10881.027347
1024.425587,-1998.556043,2221.676944,12287.418637
1024.425916,-3330.926739,4213.525239,12065.356855
1024.426246,-2960.823768,3447.429741,10807.006753
1024.426575,-740.205942,2451.505594,9918.759623
1024.426905,962.267725,766.095498,8808.450710
1024.427234,1184.329507,0.000000,7179.997637
1024.427564,-296.082377,-383.047749,6587.832884
1024.427894,-1184.329507,1225.752797,7179.997637
1024.428223,-1406.391290,2681.334243,9770.718434
1024.428553,-2368.659014,4290.134789,11177.109724
1024.428882,-2294.638420,4060.306139,9696.697840
1024.429212,-740.205942,1149.143247,7920.203579
1024.429541,740.205942,-1072.533697,7624.121203
1024.429871,444.123565,-153.219100,8586.388927
1024.430201,-444.123565,536.266849,9992.780217
1024.430530,-1406.391290,2451.505594,11399.171507
1024.430860,-2664.741391,4519.963438,11991.336260
1024.431189,-3404.947333,6052.154434,11769.274478
1024.431519,-2368.659014,5209.449386,10066.800811
1024.431848,370.102971,2298.286494,8660.409521
1024.432178,1332.370696,76.609550,6661.853478
1024.432508,1332.370696,689.485948,5995.668130
1024.432837,592.164754,1225.752797,6661.853478
1024.433167,-370.102971,2068.457845,8290.306550
1024.433496,-2220.617826,4213.525239,9548.656652
1024.433826,-2812.782580,5056.230287,9696.697840
1024.434155,-1332.370696,1838.629195,8734.430116
1024.434485,666.185348,-2298.286494,8438.347739
1024.434815,740.205942,-3447.429741,8734.430116
1024.435144,-296.082377,-2604.724693,9548.656652
1024.435474,-1406.391290,-536.266849,11843.295072
1024.435803,-2516.700203,2451.505594,13693.809927
1024.436133,-3775.050304,5056.230287,14137.933492
1024.436462,-2516.700203,4136.915689,12583.501014
1024.436792,0.000000,766.095498,10362.883188
1024.437122,1480.411884,-1378.971896,7920.203579
1024.437451,1480.411884,-2451.505594,6735.874072
1024.437781,518.144159,-2221.676944,7624.121203
1024.438110,-592.164754,-306.438199,10362.883188
1024.438440,-2146.597232,1608.800546,11621.233289
1024.438769,-2294.638420,3294.210641,10955.047942
1024.439099,-1110.308913,0.000000,9474.636058
1024.439429,592.164754,-2834.553343,8808.450710
1024.439758,814.226536,-2987.772442,9030.512492
1024.440088,0.000000,-1608.800546,9696.697840
1024.440417,-1184.329507,-229.828649,10658.965565
1024.440747,-2664.741391,1685.410096,11769.274478
1024.441076,-3775.050304,3600.648841,11843.295072
1024.441406,-3404.947333,2528.115143,10584.944971
1024.441736,-1702.473667,153.219100,8882.471304
1024.442065,0.000000,-766.095498,7105.977043
1024.442395,296.082377,-1302.362347,5847.626942
1024.442724,-222.061783,-612.876398,6661.853478
1024.443054,-666.185348,766.095498,8290.306550
1024.443383,-1628.453072,3370.820191,9770.718434
1024.443713,-2072.576638,5362.668486,9918.759623
1024.444042,-1332.370696,3677.258390,8364.327145
1024.444372,518.144159,0.000000,7846.182985
1024.444702,1406.391290,-1762.019645,8364.327145
1024.445031,148.041188,-689.485948,8734.430116
1024.445361,-888.247130,919.314598,9622.677246
1024.445690,-1628.453072,1608.800546,11177.109724
1024.446020,-1998.556043,3677.258390,12805.562797
1024.446349,-2368.659014,5745.716235,12287.418637
1024.446679,-1184.329507,3907.087040,9992.780217
1024.447009,518.144159,1149.143247,8216.285956
1024.447338,1184.329507,766.095498,7105.977043
1024.447668,296.082377,1532.190996,7624.121203
1024.447997,-592.164754,1149.143247,8512.368333
1024.448327,-1628.453072,2068.457845,9918.759623
1024.448657,-3034.844362,3753.867940,10881.027347
1024.448986,-2516.700203,3677.258390,10436.903782
1024.449316,-1258.350101,766.095498,9622.677246
1024.449646,518.144159,-1915.238745,9400.615463
1024.449975,148.041188,-1302.362347,8808.450710
1024.450305,-444.123565,0.000000,9622.677246
1024.450634,-814.226536,1149.143247,11769.274478
1024.450964,-1850.514855,3983.696590,12879.583391
1024.451294,-3034.844362,5056.230287,11621.233289
1024.451623,-1480.411884,2681.334243,9400.615463
1024.451953,666.185348,-766.095498,8290.306550
1024.452283,1036.288319,-1378.971896,7772.162391
1024.452612,-222.061783,-383.047749,7476.080014
1024.452942,-1036.288319,0.000000,8290.306550
1024.453272,-1184.329507,689.485948,9326.594869
1024.453601,-1702.473667,2451.505594,10140.821405
1024.453931,-1554.432478,1838.629195,9178.553681
1024.454261,-370.102971,-919.314598,7846.182985
1024.454590,1184.329507,-2528.115143,7994.224174
1024.454920,296.082377,-2221.676944,8364.327145
1024.455250,-1184.329507,-1532.190996,9992.780217
1024.455579,-1850.514855,-766.095498,11843.295072
1024.455909,-2664.741391,1608.800546,13027.624579
1024.456239,-3034.844362,2604.724693,12361.439231
1024.456568,-2442.679609,1455.581446,10214.842000
1024.456898,-222.061783,-1225.752797,9326.594869
1024.457228,518.144159,-1149.143247,8734.430116
1024.457557,-666.185348,76.609550,8586.388927
1024.457887,-1184.329507,536.266849,8512.368333
1024.458217,-888.247130,1225.752797,9548.656652
1024.458546,-1850.514855,1762.019645,9400.615463
1024.458876,-1702.473667,2374.896044,9104.533087
1024.459206,-370.102971,459.657299,8882.471304
1024.459535,222.061783,-1302.362347,7846.182985
1024.459865,370.102971,-1302.362347,8734.430116
1024.460195,-1036.288319,0.000000,10807.006753
1024.460524,-1998.556043,1378.971896,11843.295072
1024.460854,-2812.782580,3294.210641,12805.562797
1024.461184,-2960.823768,4903.011187,11917.315666
1024.461513,-1776.494261,4443.353888,9992.780217
1024.461843,-444.123565,1685.410096,8290.306550
1024.462173,666.185348,0.000000,7402.059420
1024.462502,222.061783,995.924147,6439.791695
1024.462832,-962.267725,1455.581446,6439.791695
1024.463162,-814.226536,1915.238745,8216.285956
1024.463491,-1924.535449,2145.067394,9548.656652
1024.463821,-2516.700203,2987.772442,9622.677246
1024.464150,-1702.473667,2528.115143,8734.430116
1024.464480,0.000000,0.000000,8142.265362
1024.464810,222.061783,-1149.143247,8438.347739
1024.465139,74.020594,0.000000,9992.780217
1024.465469,-888.247130,766.095498,11695.253884
1024.465799,-1554.432478,2221.676944,12583.501014
1024.466128,-2368.659014,4060.306139,12287.418637
1024.466458,-2072.576638,4443.353888,10807.006753
1024.466788,-148.041188,1225.752797,9548.656652
1024.467117,592.164754,-536.266849,8734.430116
1024.467447,296.082377,-229.828649,7772.162391
1024.467777,0.000000,-459.657299,7994.224174
1024.468106,-592.164754,153.219100,9474.636058
1024.468436,-1554.432478,1072.533697,10436.903782
1024.468766,-2516.700203,1838.629195,10214.842000
1024.469095,-1554.432478,689.485948,9178.553681
1024.469425,0.000000,-1915.238745,8660.409521
1024.469755,0.000000,-2451.505594,8882.471304
1024.470084,-740.205942,-1991.848295,10214.842000
1024.470414,-1480.411884,-689.485948,11843.295072
1024.470744,-2442.679609,1762.019645,12361.439231
1024.471073,-3182.885551,3753.867940,11843.295072
1024.471403,-2812.782580,3370.820191,10214.842000
1024.471733,-740.205942,229.828649,8956.491898
1024.472062,1184.329507,-842.705048,8364.327145
1024.472392,518.144159,-995.924147,7328.038826
1024.472722,-888.247130,76.609550,7550.100608
1024.473051,-1480.411884,842.705048,8512.368333
1024.473381,-2294.638420,1838.629195,9622.677246
1024.473711,-2368.659014,2681.334243,9178.553681
1024.474040,-1480.411884,1685.410096,7994.224174
1024.474370,-222.061783,-1608.800546,7254.018232
1024.474700,222.061783,-2451.505594,7920.203579
1024.475029,-814.226536,-1302.362347,9178.553681
1024.475359,-1776.494261,-229.828649,10214.842000
1024.475689,-1702.473667,1608.800546,11695.253884
1024.476018,-2738.761985,3677.258390,12583.501014
1024.476348,-2590.720797,4903.011187,11399.171507
1024.476678,-1258.350101,2145.067394,8882.471304
1024.477007,1406.391290,-919.314598,7698.141797
1024.477337,1628.453072,-842.705048,7550.100608
1024.477666,74.020594,1532.190996,8068.244768
1024.477996,-1036.288319,2374.896044,8956.491898
1024.478326,-2294.638420,2068.457845,9252.574275
1024.478655,-2812.782580,2068.457845,9622.677246
1024.478985,-1998.556043,1072.533697,9326.594869
1024.479315,-1184.329507,-766.095498,9696.697840
1024.479644,-592.164754,-2451.505594,9030.512492
1024.479974,-1480.411884,-2068.457845,8808.450710
1024.480304,-1850.514855,-1149.143247,10807.006753
1024.480633,-2220.617826,536.266849,13397.727550
1024.480963,-3256.906145,3600.648841,13915.871710
1024.481293,-3627.009116,4903.011187,12361.439231
1024.481622,-1554.432478,1915.238745,9992.780217
1024.481952,888.247130,-1378.971896,9030.512492
1024.482282,2072.576638,-1302.362347,8586.388927
1024.482611,962.267725,-383.047749,7846.182985
1024.482941,-148.041188,306.438199,8586.388927
1024.483271,-1036.288319,1685.410096,10362.883188
1024.483600,-2368.659014,2911.162892,10732.986159
1024.483930,-2294.638420,1149.143247,9252.574275
1024.484260,-222.061783,-1685.410096,8364.327145
1024.484589,962.267725,-2757.943793,8068.244768
1024.484919,0.000000,-1608.800546,7846.182985
1024.485249,-1258.350101,-1072.533697,9104.533087
1024.485578,-2146.597232,-306.438199,10510.924376
1024.485908,-2738.761985,2221.676944,12065.356855
1024.486238,-3256.906145,4903.011187,11769.274478
1024.486567,-2072.576638,3217.601092,9622.677246
1024.486897,0.000000,-459.657299,7476.080014
1024.487227,888.247130,-2374.896044,6957.935855
