#time,accel_x,accel_y,accel_z
1026.657130,-962.267725,919.314598,9770.718434
1026.657460,-1036.288319,689.485948,9622.677246
1026.657789,-1036.288319,689.485948,9770.718434
1026.658119,-962.267725,919.314598,9548.656652
1026.658448,-962.267725,842.705048,9474.636058
1026.658778,-888.247130,766.095498,9548.656652
1026.659107,-1110.308913,919.314598,9548.656652
1026.659437,-1110.308913,995.924147,9548.656652
1026.659767,-1036.288319,842.705048,9622.677246
1026.660096,-888.247130,1225.752797,9326.594869
1026.660426,-1036.288319,766.095498,9474.636058
1026.660755,-1036.288319,766.095498,9622.677246
1026.661085,-888.247130,842.705048,9622.677246
1026.661414,-1258.350101,842.705048,9474.636058
1026.661744,-1332.370696,1072.533697,9030.512492
1026.662073,-666.185348,1378.971896,9474.636058
1026.662403,-1110.308913,1225.752797,9474.636058
1026.662732,-1184.329507,919.314598,9326.594869
1026.663062,-1184.329507,1149.143247,9400.615463
1026.663392,-1110.308913,1378.971896,8956.491898
1026.663721,-962.267725,1072.533697,9474.636058
1026.664051,-1184.329507,612.876398,9400.615463
1026.664380,-1036.288319,919.314598,9622.677246
1026.664710,-1184.329507,1072.533697,9548.656652
1026.665039,-1036.288319,995.924147,9474.636058
1026.665369,-666.185348,1455.581446,9326.594869
1026.665698,-1110.308913,612.876398,9696.697840
1026.666028,-1036.288319,1072.533697,9696.697840
1026.666357,-1110.308913,842.705048,9474.636058
1026.666687,-1036.288319,919.314598,9474.636058
1026.667017,-1036.288319,919.314598,9030.512492
1026.667346,-814.226536,689.485948,9474.636058
1026.667676,-1184.329507,842.705048,9696.697840
1026.668005,-888.247130,612.876398,9844.739029
1026.668335,-1110.308913,919.314598,9770.718434
1026.668664,-1110.308913,689.485948,9474.636058
1026.668994,-1036.288319,842.705048,9252.574275
1026.669323,-1036.288319,919.314598,9696.697840
1026.669653,-1110.308913,842.705048,9770.718434
1026.669982,-1036.288319,919.314598,9622.677246
1026.670312,-1036.288319,1072.533697,9696.697840
1026.670642,-962.267725,1149.143247,9770.718434
1026.670971,-1184.329507,919.314598,9770.718434
1026.671301,-1184.329507,842.705048,9474.636058
1026.671630,-1110.308913,612.876398,9474.636058
1026.671960,-1036.288319,766.095498,9474.636058
1026.672289,-1036.288319,612.876398,9474.636058
1026.672619,-814.226536,1302.362347,9252.574275
1026.672948,-1110.308913,842.705048,9474.636058
1026.673278,-1036.288319,919.314598,9474.636058
1026.673607,-888.247130,842.705048,9400.615463
1026.673937,-814.226536,1455.581446,9178.553681
1026.674267,-888.247130,995.924147,9400.615463
1026.674596,-1036.288319,766.095498,9326.594869
1026.674926,-962.267725,919.314598,9474.636058
1026.675255,-1110.308913,995.924147,9474.636058
1026.675585,-1036.288319,766.095498,9474.636058
1026.675914,-888.247130,1072.533697,9622.677246
1026.676244,-1110.308913,842.705048,9548.656652
1026.676573,-1110.308913,995.924147,9400.615463
1026.676903,-1110.308913,842.705048,9474.636058
1026.677232,-962.267725,689.485948,9548.656652
1026.677562,-888.247130,919.314598,9622.677246
1026.677892,-740.205942,536.266849,9474.636058
1026.678221,-962.267725,842.705048,9474.636058
1026.678551,-1184.329507,842.705048,9548.656652
1026.678880,-962.267725,1072.533697,9844.739029
1026.679210,-888.247130,919.314598,9474.636058
1026.679539,-370.102971,536.266849,9030.512492
1026.679869,148.041188,689.485948,9326.594869
1026.680198,814.226536,536.266849,9474.636058
1026.680528,888.247130,459.657299,9400.615463
1026.680857,518.144159,383.047749,9474.636058
1026.681187,222.061783,536.266849,10066.800811
1026.681517,-296.082377,1225.752797,10510.924376
1026.681846,-740.205942,919.314598,10584.944971
1026.682176,-592.164754,0.000000,10510.924376
1026.682505,0.000000,76.609550,9770.718434
1026.682835,444.123565,76.609550,9548.656652
1026.683164,1480.411884,689.485948,9104.533087
1026.683494,2516.700203,153.219100,8808.450710
1026.683823,3108.864956,766.095498,8660.409521
1026.684153,3404.947333,1455.581446,9030.512492
1026.684482,3552.988522,2145.067394,9030.512492
1026.684812,3701.029710,2374.896044,9548.656652
1026.685142,2960.823768,1072.533697,9918.759623
1026.685471,2146.597232,1149.143247,10214.842000
1026.685801,1554.432478,766.095498,10510.924376
1026.686130,1184.329507,153.219100,10807.006753
1026.686460,1258.350101,459.657299,10140.821405
1026.686789,1850.514855,-612.876398,9622.677246
1026.687119,2368.659014,-459.657299,9474.636058
1026.687448,3552.988522,0.000000,9030.512492
1026.687778,4293.194464,842.705048,9178.553681
1026.688107,4145.153275,2528.115143,9326.594869
1026.688437,3849.070898,2528.115143,9474.636058
1026.688767,2442.679609,2987.772442,10214.842000
1026.689096,740.205942,2681.334243,10362.883188
1026.689426,-1036.288319,2374.896044,9992.780217
1026.689755,-1850.514855,2145.067394,9696.697840
1026.690085,-1480.411884,383.047749,8216.285956
1026.690414,370.102971,-1072.533697,7550.100608
1026.690744,2146.597232,-1302.362347,6735.874072
1026.691073,3701.029710,-919.314598,6587.832884
1026.691403,4219.173869,0.000000,7476.080014
1026.691732,3108.864956,2451.505594,8882.471304
1026.692062,2294.638420,4596.572988,11251.130318
1026.692392,1184.329507,4519.963438,12361.439231
1026.692721,296.082377,3447.429741,12731.542202
1026.693051,-592.164754,1915.238745,12361.439231
1026.693380,-962.267725,-383.047749,11251.130318
1026.693710,-1110.308913,-1608.800546,10584.944971
1026.694039,-888.247130,-2451.505594,9622.677246
1026.694369,0.000000,-2145.067394,8882.471304
1026.694698,1406.391290,-1302.362347,8290.306550
1026.695028,3404.947333,-229.828649,7698.141797
1026.695357,4071.132681,459.657299,7179.997637
1026.695687,4515.256246,2221.676944,7698.141797
1026.696017,4515.256246,2834.553343,8438.347739
1026.696346,3849.070898,3677.258390,9770.718434
1026.696676,3182.885551,3753.867940,10658.965565
1026.697005,2072.576638,2757.943793,10881.027347
1026.697335,1332.370696,1455.581446,11177.109724
1026.697664,740.205942,-153.219100,10807.006753
1026.697994,-222.061783,-1302.362347,10732.986159
1026.698323,-518.144159,-919.314598,10584.944971
1026.698653,-222.061783,-1072.533697,10362.883188
1026.698982,0.000000,-842.705048,9844.739029
1026.699312,444.123565,153.219100,9400.615463
1026.699642,1702.473667,612.876398,8438.347739
1026.699971,2664.741391,229.828649,8142.265362
1026.700301,4293.194464,766.095498,8586.388927
1026.700630,4589.276840,1149.143247,8068.244768
1026.700960,4293.194464,459.657299,8512.368333
1026.701289,3849.070898,919.314598,9178.553681
1026.701619,2886.803174,1225.752797,9918.759623
1026.701948,2146.597232,1991.848295,10362.883188
1026.702278,1258.350101,1991.848295,10584.944971
1026.702607,1702.473667,1915.238745,10510.924376
1026.702937,1776.494261,1378.971896,10214.842000
1026.703267,2072.576638,1302.362347,9548.656652
1026.703596,2294.638420,842.705048,8586.388927
1026.703926,2886.803174,766.095498,7846.182985
1026.704255,2368.659014,612.876398,7846.182985
1026.704585,2368.659014,1149.143247,8512.368333
1026.704914,1998.556043,1072.533697,9178.553681
1026.705244,1036.288319,536.266849,9474.636058
1026.705573,-444.123565,536.266849,9918.759623
1026.705903,-1110.308913,229.828649,11103.089130
1026.706232,-1628.453072,383.047749,12065.356855
1026.706562,-2072.576638,306.438199,11843.295072
1026.706892,-1850.514855,459.657299,10658.965565
1026.707221,-370.102971,76.609550,9400.615463
1026.707551,2590.720797,-306.438199,8808.450710
1026.707880,4293.194464,229.828649,8068.244768
1026.708210,6439.791695,1915.238745,7402.059420
1026.708539,7994.224174,2757.943793,7772.162391
1026.708869,8364.327145,3907.087040,8586.388927
1026.709198,7624.121203,4443.353888,9548.656652
1026.709528,5773.606348,4596.572988,10881.027347
1026.709857,2886.803174,3983.696590,12139.377449
1026.710187,0.000000,2528.115143,13545.768739
1026.710517,-3552.988522,383.047749,13767.830521
1026.710846,-6365.771101,-612.876398,12805.562797
1026.711176,-7772.162391,-2221.676944,11029.068536
1026.711505,-6365.771101,-2604.724693,8216.285956
1026.711835,-2442.679609,-3370.820191,4589.276840
1026.712164,3404.947333,-4443.353888,2072.576638
1026.712494,8142.265362,-3064.381992,2146.597232
1026.712823,10140.821405,1149.143247,3701.029710
1026.713153,9474.636058,5056.230287,6069.688724
1026.713482,8068.244768,7201.297681,9844.739029
1026.713812,5107.421000,9422.974625,13175.665768
1026.714142,1036.288319,9269.755526,14730.098246
1026.714471,-2368.659014,4136.915689,16432.571912
1026.714801,-4959.379811,536.266849,16136.489536
1026.715130,-6217.729913,-2221.676944,14285.974681
1026.715460,-5033.400406,-5592.497135,11251.130318
1026.715789,-1924.535449,-7354.516781,9030.512492
1026.716119,2590.720797,-6052.154434,5699.585753
1026.716448,6735.874072,-4213.525239,2886.803174
1026.716778,11103.089130,-2757.943793,3108.864956
1026.717107,12805.562797,1762.019645,5921.647536
1026.717437,10510.924376,6281.983084,9696.697840
1026.717767,5403.503377,8350.440928,12583.501014
1026.718096,444.123565,9729.412825,13989.892304
1026.718426,-2220.617826,6971.469032,14211.954086
1026.718755,-1998.556043,689.485948,13619.789333
1026.719085,-2072.576638,-3524.039291,10732.986159
1026.719414,-1258.350101,-5822.325785,6735.874072
1026.719744,1850.514855,-7124.688131,5107.421000
1026.720073,3849.070898,-7124.688131,6217.729913
1026.720403,2960.823768,-1915.238745,7624.121203
1026.720732,1184.329507,1991.848295,8438.347739
1026.721062,296.082377,3524.039291,10140.821405
1026.721392,888.247130,6358.592633,12435.459826
1026.721721,1110.308913,5592.497135,13397.727550
1026.722051,296.082377,2221.676944,12879.583391
1026.722380,-1110.308913,-919.314598,10955.047942
1026.722710,-2072.576638,-2528.115143,10955.047942
1026.723039,-2590.720797,-2834.553343,9770.718434
1026.723369,-2220.617826,-3140.991542,7031.956449
1026.723698,-592.164754,-4060.306139,3849.070898
1026.724028,2738.761985,-3983.696590,4219.173869
1026.724357,5921.647536,-1072.533697,7105.977043
1026.724687,6883.915261,3907.087040,7846.182985
1026.725017,5477.523971,5975.544884,7624.121203
1026.725346,3552.988522,5822.325785,9992.780217
1026.725676,740.205942,6052.154434,14878.139434
1026.726005,-2072.576638,5745.716235,16950.716072
1026.726335,-5255.462188,3983.696590,14952.160028
1026.726664,-7402.059420,306.438199,11843.295072
1026.726994,-7254.018232,-3830.477490,11399.171507
1026.727323,-5551.544565,-6665.030833,11325.150913
1026.727653,-3182.885551,-6435.202183,9474.636058
1026.727982,-2516.700203,-3140.991542,7031.956449
1026.728312,-2294.638420,-766.095498,5329.482782
1026.728642,-592.164754,1685.410096,5255.462188
1026.728972,2960.823768,2604.724693,6735.874072
1026.729302,5477.523971,2911.162892,8216.285956
1026.729632,5995.668130,7277.907231,8290.306550
1026.729961,5107.421000,9422.974625,7772.162391
1026.730291,5329.482782,5822.325785,9400.615463
1026.730621,2960.823768,1378.971896,11917.315666
1026.730951,-1184.329507,2604.724693,13323.706956
1026.731281,-4589.276840,4366.744339,13471.748144
1026.731610,-5551.544565,3600.648841,12953.603985
1026.731940,-4737.318029,1762.019645,9992.780217
1026.732270,-3404.947333,-1608.800546,7105.977043
1026.732600,-1110.308913,-4290.134789,6069.688724
1026.732930,-148.041188,-1685.410096,7105.977043
1026.733260,-1554.432478,2145.067394,8068.244768
1026.733589,-3701.029710,3983.696590,7920.203579
1026.733919,-3552.988522,1991.848295,7105.977043
1026.734249,-518.144159,612.876398,7698.141797
1026.734579,2590.720797,229.828649,8068.244768
1026.734909,4219.173869,995.924147,7698.141797
1026.735238,4515.256246,1302.362347,7402.059420
1026.735568,3849.070898,-229.828649,8734.430116
1026.735898,888.247130,689.485948,11399.171507
1026.736228,-962.267725,3753.867940,12805.562797
1026.736558,-1184.329507,4519.963438,13323.706956
1026.736887,-1332.370696,1685.410096,12287.418637
1026.737217,-2368.659014,229.828649,11029.068536
1026.737547,-2590.720797,-1991.848295,11251.130318
1026.737877,-2516.700203,-2528.115143,11547.212695
1026.738207,-4737.318029,-1532.190996,11177.109724
1026.738537,-6661.853478,-153.219100,9474.636058
1026.738866,-5329.482782,-2068.457845,8734.430116
1026.739196,-2516.700203,-3677.258390,8142.265362
1026.739526,148.041188,-2068.457845,6513.812290
1026.739856,2294.638420,76.609550,5329.482782
1026.740186,4589.276840,459.657299,7402.059420
1026.740515,3478.967927,1225.752797,10658.965565
1026.740845,-666.185348,3217.601092,12805.562797
1026.741175,-4737.318029,5745.716235,13841.851115
1026.741505,-5181.441594,5286.058936,14508.036463
1026.741835,-4219.173869,1608.800546,14211.954086
1026.742164,-3701.029710,-1915.238745,11991.336260
1026.742494,-3034.844362,-3370.820191,9326.594869
1026.742824,-2368.659014,-3983.696590,6883.915261
1026.743154,-3034.844362,-3907.087040,7328.038826
1026.743484,-3849.070898,229.828649,7624.121203
1026.743814,-2590.720797,2987.772442,6143.709319
1026.744143,1554.432478,1072.533697,4367.215058
1026.744473,5181.441594,1225.752797,4515.256246
1026.744803,6291.750507,2911.162892,6365.771101
1026.745133,5625.565159,3983.696590,9252.574275
1026.745463,1554.432478,4213.525239,12657.521608
1026.745792,-4145.153275,6588.421283,14878.139434
1026.746122,-6661.853478,8044.002729,14952.160028
1026.746452,-5699.585753,4136.915689,12731.542202
1026.746782,-2812.782580,-2068.457845,8882.471304
1026.747112,-666.185348,-4826.401637,6957.935855
1026.747442,370.102971,-5056.230287,6735.874072
1026.747771,370.102971,-1915.238745,8290.306550
1026.748101,-2294.638420,1072.533697,8438.347739
1026.748431,-3849.070898,5132.839837,7105.977043
1026.748761,-518.144159,4519.963438,6143.709319
1026.749091,4737.318029,229.828649,6883.915261
1026.749420,7772.162391,689.485948,7254.018232
1026.749750,6513.812290,3064.381992,7994.224174
1026.750080,4515.256246,4213.525239,10288.862594
1026.750410,1628.453072,4060.306139,12435.459826
1026.750740,-1850.514855,4136.915689,13915.871710
1026.751069,-3256.906145,3524.039291,13989.892304
1026.751399,-2664.741391,1838.629195,13471.748144
1026.751729,-1554.432478,-995.924147,11325.150913
1026.752059,-962.267725,-2221.676944,9474.636058
1026.752389,-1924.535449,-2757.943793,8068.244768
1026.752719,-3478.967927,-1608.800546,7476.080014
1026.753048,-5699.585753,-229.828649,7698.141797
1026.753378,-6143.709319,766.095498,8216.285956
1026.753708,-3775.050304,76.609550,8142.265362
1026.754038,-1258.350101,-2528.115143,8142.265362
1026.754368,-148.041188,-1685.410096,7624.121203
1026.754697,814.226536,1225.752797,7476.080014
1026.755027,2368.659014,383.047749,8438.347739
1026.755357,2368.659014,1225.752797,11473.192101
1026.755687,-666.185348,3524.039291,12657.521608
1026.756017,-2812.782580,5362.668486,13175.665768
1026.756347,-1850.514855,4213.525239,13619.789333
1026.756676,-888.247130,842.705048,12139.377449
1026.757006,-888.247130,-1532.190996,10658.965565
1026.757336,-2146.597232,-3370.820191,9474.636058
1026.757666,-3330.926739,-2604.724693,8882.471304
1026.757996,-4885.359217,-1991.848295,8734.430116
1026.758325,-5033.400406,-1072.533697,7994.224174
1026.758655,-3182.885551,0.000000,6957.935855
1026.758985,-666.185348,-459.657299,5773.606348
1026.759315,1924.535449,-766.095498,5181.441594
1026.759645,3108.864956,153.219100,6291.750507
1026.759974,2516.700203,1838.629195,8882.471304
1026.760304,-222.061783,4903.011187,11991.336260
1026.760634,-4145.153275,5439.278036,13323.706956
1026.760964,-4589.276840,5132.839837,13101.645173
1026.761294,-2664.741391,2451.505594,12731.542202
1026.761624,-740.205942,-1072.533697,10807.006753
1026.761953,-222.061783,-1378.971896,8364.327145
1026.762283,0.000000,-1991.848295,7328.038826
1026.762613,-148.041188,-1762.019645,8068.244768
1026.762943,-1554.432478,0.000000,9548.656652
1026.763273,-2590.720797,2681.334243,9474.636058
1026.763602,-518.144159,3370.820191,8660.409521
1026.763932,2886.803174,1072.533697,7994.224174
1026.764262,4441.235652,1685.410096,7031.956449
1026.764592,4959.379811,1991.848295,6513.812290
1026.764922,4737.318029,766.095498,8068.244768
1026.765251,2146.597232,2298.286494,11251.130318
1026.765581,-1628.453072,4903.011187,13323.706956
1026.765911,-3330.926739,5898.935335,12879.583391
1026.766241,-2368.659014,1991.848295,11029.068536
1026.766571,-1554.432478,-1685.410096,9770.718434
1026.766901,-1480.411884,-1608.800546,9918.759623
1026.767230,-1776.494261,-1149.143247,10214.842000
1026.767560,-3108.864956,0.000000,9178.553681
1026.767890,-5403.503377,612.876398,7920.203579
1026.768220,-5181.441594,306.438199,7624.121203
1026.768550,-2368.659014,-919.314598,8808.450710
1026.768879,148.041188,-1302.362347,9104.533087
1026.769209,888.247130,1455.581446,7105.977043
1026.769539,1332.370696,2298.286494,6069.688724
1026.769869,2738.761985,919.314598,8586.388927
1026.770199,1628.453072,1685.410096,11843.295072
1026.770529,-1850.514855,4213.525239,12213.398043
1026.770858,-4071.132681,5439.278036,12435.459826
1026.771188,-3627.009116,3370.820191,12583.501014
1026.771518,-3108.864956,-306.438199,12287.418637
1026.771848,-2738.761985,-2987.772442,11103.089130
1026.772178,-2960.823768,-2834.553343,9918.759623
1026.772507,-3256.906145,-1455.581446,8956.491898
1026.772837,-4589.276840,-919.314598,8142.265362
1026.773167,-4515.256246,229.828649,7476.080014
1026.773497,-1924.535449,919.314598,6439.791695
1026.773827,1110.308913,-383.047749,5995.668130
1026.774156,3330.926739,459.657299,7105.977043
1026.774486,3256.906145,2528.115143,8364.327145
1026.774816,1776.494261,2604.724693,11029.068536
1026.775146,-1480.411884,2911.162892,13249.686362
1026.775476,-4885.359217,4290.134789,14211.954086
1026.775806,-5107.421000,4826.401637,13027.624579
1026.776135,-2812.782580,2528.115143,10288.862594
1026.776465,-666.185348,-2604.724693,7179.997637
1026.776795,888.247130,-4596.572988,6365.771101
1026.777125,518.144159,-3064.381992,7105.977043
1026.777455,-1036.288319,-306.438199,7846.182985
1026.777784,-3182.885551,842.705048,8512.368333
1026.778114,-3330.926739,3370.820191,8956.491898
1026.778444,-296.082377,2834.553343,9474.636058
1026.778774,2960.823768,0.000000,9178.553681
1026.779104,4071.132681,766.095498,7476.080014
1026.779433,3849.070898,2374.896044,7624.121203
1026.779763,2960.823768,1915.238745,10214.842000
1026.780093,148.041188,2451.505594,12361.439231
1026.780423,-2812.782580,4366.744339,13175.665768
1026.780753,-3997.112087,3830.477490,11917.315666
1026.781083,-4071.132681,1378.971896,10436.903782
1026.781412,-3627.009116,-1072.533697,8882.471304
1026.781742,-3034.844362,-2911.162892,8734.430116
1026.782072,-3108.864956,-3600.648841,9622.677246
1026.782402,-3997.112087,-1838.629195,9992.780217
1026.782732,-5699.585753,306.438199,9252.574275
1026.783061,-5107.421000,536.266849,7550.100608
1026.783391,-740.205942,-1532.190996,7920.203579
1026.783721,2886.803174,-3064.381992,7920.203579
1026.784051,4441.235652,-306.438199,8216.285956
1026.784381,4663.297435,2528.115143,9844.739029
1026.784711,3404.947333,3524.039291,11325.150913
1026.785040,888.247130,4136.915689,12879.583391
1026.785370,-1998.556043,4596.572988,13175.665768
1026.785700,-2146.597232,4826.401637,13249.686362
1026.786030,-1554.432478,2528.115143,11843.295072
1026.786360,-1554.432478,-383.047749,9474.636058
1026.786689,-2220.617826,-2374.896044,7624.121203
1026.787019,-2072.576638,-3524.039291,7550.100608
1026.787349,-3256.906145,-1991.848295,8956.491898
1026.787679,-5551.544565,995.924147,8438.347739
1026.788009,-5921.647536,2834.553343,7105.977043
1026.788338,-3552.988522,612.876398,6513.812290
1026.788668,296.082377,-1532.190996,6735.874072
1026.788998,2072.576638,-689.485948,7772.162391
1026.789328,2072.576638,1149.143247,8808.450710
1026.789658,0.000000,2298.286494,10510.924376
1026.789988,-2960.823768,3907.087040,11547.212695
1026.790317,-4441.235652,5056.230287,12879.583391
1026.790647,-2442.679609,3600.648841,12657.521608
1026.790977,0.000000,1608.800546,10881.027347
1026.791307,1184.329507,-229.828649,7846.182985
1026.791637,1406.391290,-1685.410096,6957.935855
1026.791966,666.185348,-689.485948,7994.224174
1026.792296,-1332.370696,1149.143247,9252.574275
1026.792626,-3108.864956,2604.724693,9400.615463
1026.792956,-3034.844362,3983.696590,8808.450710
1026.793286,-296.082377,1991.848295,8290.306550
1026.793615,2072.576638,-536.266849,7254.018232
1026.793945,2738.761985,-919.314598,6661.853478
1026.794275,2664.741391,689.485948,7920.203579
1026.794605,1110.308913,2528.115143,10881.027347
1026.794935,-2516.700203,4903.011187,12805.562797
1026.795265,-5033.400406,5592.497135,12657.521608
1026.795594,-4737.318029,3140.991542,12361.439231
1026.795924,-2442.679609,612.876398,11621.233289
1026.796254,-1702.473667,0.000000,9844.739029
1026.796584,-1554.432478,-1838.629195,8142.265362
1026.796914,-1924.535449,-3140.991542,7846.182985
1026.797243,-4071.132681,-1838.629195,9104.533087
1026.797573,-5699.585753,689.485948,10288.862594
1026.797903,-4515.256246,1685.410096,9918.759623
1026.798233,-1628.453072,153.219100,8660.409521
1026.798563,1702.473667,-1532.190996,7031.956449
1026.798893,3478.967927,-1915.238745,6883.915261
1026.799222,4515.256246,76.609550,8216.285956
1026.799552,3182.885551,2145.067394,10362.883188
1026.799882,-666.185348,4136.915689,12139.377449
1026.800212,-3478.967927,5669.106685,13027.624579
1026.800542,-3404.947333,4749.792088,12139.377449
1026.800871,-1628.453072,766.095498,11695.253884
1026.801201,-888.247130,-1225.752797,9918.759623
1026.801531,-1702.473667,-1685.410096,7920.203579
1026.801861,-2072.576638,-2681.334243,7994.224174
1026.802191,-4293.194464,-2451.505594,8660.409521
1026.802520,-7105.977043,229.828649,9326.594869
1026.802850,-6513.812290,2528.115143,9326.594869
1026.803180,-3034.844362,383.047749,9252.574275
1026.803510,-148.041188,-1149.143247,7920.203579
1026.803840,962.267725,-766.095498,7254.018232
1026.804170,2072.576638,-229.828649,8586.388927
1026.804499,1332.370696,842.705048,10955.047942
1026.804829,-1924.535449,4136.915689,11621.233289
1026.805159,-3182.885551,5209.449386,11473.192101
1026.805489,-962.267725,3140.991542,11695.253884
1026.805819,666.185348,1072.533697,10955.047942
1026.806148,666.185348,383.047749,8882.471304
1026.806478,740.205942,0.000000,7994.224174
1026.806808,666.185348,153.219100,8512.368333
1026.807138,-1184.329507,842.705048,8956.491898
1026.807468,-3627.009116,1762.019645,9178.553681
1026.807797,-2960.823768,2911.162892,8438.347739
1026.808127,-370.102971,1762.019645,7994.224174
1026.808457,2072.576638,459.657299,7624.121203
1026.808787,2664.741391,1149.143247,7105.977043
1026.809117,2368.659014,1685.410096,7624.121203
1026.809447,296.082377,2451.505594,9252.574275
1026.809776,-3478.967927,4136.915689,10584.944971
1026.810106,-5699.585753,6358.592633,11473.192101
1026.810436,-4589.276840,3907.087040,11621.233289
1026.810766,-3108.864956,0.000000,11103.089130
1026.811096,-2516.700203,-1378.971896,9474.636058
1026.811425,-2960.823768,-1991.848295,8142.265362
1026.811755,-2516.700203,-2757.943793,8216.285956
1026.812085,-3404.947333,-2145.067394,9030.512492
1026.812415,-4293.194464,229.828649,9474.636058
1026.812745,-2590.720797,2068.457845,9696.697840
1026.813075,814.226536,689.485948,9400.615463
1026.813404,3256.906145,229.828649,8882.471304
1026.813734,4071.132681,1225.752797,8068.244768
1026.814064,3923.091493,1455.581446,8734.430116
1026.814394,3182.885551,1915.238745,11325.150913
1026.814724,-148.041188,3524.039291,12879.583391
1026.815053,-3627.009116,4979.620737,12805.562797
1026.815383,-3997.112087,2681.334243,11325.150913
1026.815713,-1998.556043,-1149.143247,10066.800811
1026.816043,-888.247130,-2604.724693,9178.553681
1026.816373,-1406.391290,-1915.238745,8364.327145
1026.816702,-2664.741391,-1455.581446,8808.450710
1026.817032,-5477.523971,-1149.143247,9178.553681
1026.817362,-6587.832884,995.924147,9178.553681
1026.817692,-4515.256246,1455.581446,9030.512492
1026.818022,-1110.308913,-536.266849,8438.347739
1026.818352,962.267725,-2145.067394,7402.059420
1026.818681,1332.370696,-1455.581446,7550.100608
1026.819011,1776.494261,0.000000,9474.636058
1026.819341,1110.308913,1149.143247,11695.253884
1026.819671,-1184.329507,2681.334243,12361.439231
1026.820001,-2664.741391,4903.011187,11769.274478
1026.820330,-962.267725,2451.505594,10955.047942
1026.820660,1480.411884,0.000000,9992.780217
1026.820990,1998.556043,-766.095498,8808.450710
1026.821320,1480.411884,0.000000,8216.285956
1026.821650,370.102971,306.438199,8660.409521
1026.821979,-1554.432478,229.828649,9252.574275
1026.822309,-2812.782580,1608.800546,8882.471304
1026.822639,-1776.494261,1762.019645,7772.162391
1026.822969,962.267725,153.219100,7328.038826
1026.823299,2664.741391,-153.219100,7105.977043
1026.823629,2442.679609,689.485948,7550.100608
1026.823958,2220.617826,2451.505594,8882.471304
1026.824288,0.000000,2987.772442,10658.965565
1026.824618,-3034.844362,4749.792088,11547.212695
1026.824948,-5033.400406,5822.325785,11547.212695
1026.825278,-3256.906145,3447.429741,11473.192101
1026.825607,-1776.494261,383.047749,11251.130318
1026.825937,-2368.659014,-383.047749,9474.636058
1026.826267,-3627.009116,-536.266849,7920.203579
1026.826597,-3849.070898,-1762.019645,8290.306550
1026.826927,-4441.235652,-919.314598,9474.636058
1026.827256,-4737.318029,1915.238745,9696.697840
1026.827586,-3627.009116,2145.067394,8660.409521
1026.827915,0.000000,-689.485948,7328.038826
1026.828245,2590.720797,-536.266849,6809.894666
1026.828575,3256.906145,1225.752797,7402.059420
1026.828904,3775.050304,2145.067394,9696.697840
1026.829234,1332.370696,3140.991542,12139.377449
1026.829563,-2368.659014,6128.763984,12583.501014
1026.829893,-3997.112087,6052.154434,11325.150913
1026.830222,-2146.597232,1991.848295,10584.944971
1026.830552,-740.205942,-1455.581446,11399.171507
1026.830882,-1924.535449,-1762.019645,10436.903782
1026.831211,-4219.173869,-689.485948,9696.697840
1026.831541,-5107.421000,-1991.848295,10066.800811
1026.831870,-5921.647536,-766.095498,10510.924376
1026.832200,-5847.626942,1532.190996,9770.718434
1026.832529,-3775.050304,-1072.533697,8512.368333
1026.832859,518.144159,-2604.724693,7254.018232
1026.833189,2812.782580,-1225.752797,6365.771101
1026.833518,3330.926739,0.000000,6365.771101
1026.833848,3478.967927,919.314598,9104.533087
1026.834177,1480.411884,2757.943793,11695.253884
1026.834507,-1110.308913,4903.011187,12805.562797
1026.834836,-1924.535449,4673.182538,12065.356855
1026.835166,-592.164754,2298.286494,11103.089130
1026.835495,888.247130,-536.266849,10214.842000
1026.835825,814.226536,-2298.286494,8956.491898
1026.836155,-296.082377,-1608.800546,9030.512492
1026.836484,-962.267725,-842.705048,9400.615463
1026.836814,-2442.679609,-612.876398,9326.594869
1026.837143,-3701.029710,1378.971896,9030.512492
1026.837473,-1554.432478,1991.848295,8068.244768
1026.837802,2960.823768,0.000000,7328.038826
1026.838132,4737.318029,0.000000,6217.729913
1026.838462,3923.091493,1762.019645,6143.709319
1026.838791,1998.556043,2221.676944,8512.368333
1026.839121,-592.164754,2604.724693,11251.130318
1026.839450,-3701.029710,5132.839837,12361.439231
1026.839780,-4663.297435,5209.449386,12065.356855
1026.840109,-3330.926739,1608.800546,11103.089130
1026.840439,-1924.535449,-2145.067394,10214.842000
1026.840769,-814.226536,-2681.334243,9400.615463
1026.841098,-222.061783,-2451.505594,9030.512492
1026.841428,-1480.411884,-1149.143247,9548.656652
1026.841757,-3627.009116,1762.019645,10362.883188
1026.842087,-4515.256246,4826.401637,10066.800811
1026.842416,-1332.370696,3140.991542,8956.491898
1026.842746,2442.679609,0.000000,8068.244768
1026.843076,3404.947333,0.000000,7031.956449
1026.843405,2294.638420,1915.238745,7031.956449
1026.843735,888.247130,1072.533697,9326.594869
1026.844064,-1184.329507,1685.410096,11843.295072
1026.844394,-4589.276840,5056.230287,12065.356855
1026.844723,-5477.523971,4596.572988,11177.109724
1026.845053,-3330.926739,919.314598,10807.006753
1026.845383,-2294.638420,-842.705048,10362.883188
1026.845712,-2664.741391,-842.705048,9104.533087
1026.846042,-3997.112087,-766.095498,8438.347739
1026.846371,-4219.173869,-1378.971896,8734.430116
1026.846701,-5403.503377,-229.828649,9474.636058
1026.847030,-5403.503377,1225.752797,9918.759623
1026.847360,-3701.029710,1378.971896,8734.430116
1026.847690,0.000000,0.000000,6957.935855
1026.848019,3034.844362,-2298.286494,6365.771101
1026.848349,4367.215058,-689.485948,8290.306550
1026.848678,3775.050304,919.314598,10881.027347
1026.849008,666.185348,1991.848295,13175.665768
1026.849337,-3108.864956,5439.278036,13101.645173
1026.849667,-3775.050304,6052.154434,12435.459826
1026.849997,-740.205942,2145.067394,11473.192101
1026.850326,1850.514855,-1915.238745,9992.780217
1026.850656,1332.370696,-2145.067394,8068.244768
1026.850985,74.020594,-2604.724693,8142.265362
1026.851315,-1480.411884,-2834.553343,9770.718434
1026.851644,-4441.235652,229.828649,9474.636058
1026.851974,-4959.379811,2681.334243,8734.430116
1026.852303,-1258.350101,383.047749,7994.224174
1026.852633,3034.844362,-229.828649,7402.059420
1026.852963,5329.482782,1149.143247,6883.915261
1026.853292,5255.462188,1072.533697,6143.709319
1026.853622,4145.153275,1838.629195,7994.224174
1026.853951,666.185348,3447.429741,11177.109724
1026.854281,-2590.720797,5898.935335,13619.789333
1026.854610,-3478.967927,5822.325785,13249.686362
1026.854940,-1480.411884,2834.553343,11473.192101
1026.855270,0.000000,-995.924147,9030.512492
1026.855599,0.000000,-2528.115143,8142.265362
1026.855929,-444.123565,-1991.848295,8882.471304
1026.856258,-2072.576638,-1378.971896,10436.903782
1026.856588,-4737.318029,1762.019645,9696.697840
1026.856917,-5033.400406,4060.306139,7846.182985
1026.857247,-1554.432478,919.314598,7328.038826
1026.857577,2738.761985,-2221.676944,7698.141797
1026.857906,3701.029710,-383.047749,7994.224174
1026.858236,2738.761985,2068.457845,7920.203579
1026.858565,1480.411884,2834.553343,9030.512492
1026.858895,-962.267725,2451.505594,11399.171507
1026.859224,-3775.050304,4290.134789,12731.542202
1026.859554,-4737.318029,3600.648841,12509.480420
1026.859884,-3478.967927,1302.362347,11843.295072
1026.860213,-2368.659014,229.828649,10436.903782
1026.860543,-2960.823768,-1072.533697,10288.862594
1026.860872,-3552.988522,-2068.457845,9992.780217
1026.861202,-4737.318029,-2298.286494,9474.636058
1026.861531,-5921.647536,-689.485948,9326.594869
1026.861861,-5329.482782,1302.362347,8512.368333
1026.862191,-2072.576638,383.047749,7772.162391
1026.862520,1480.411884,-2221.676944,7698.141797
1026.862850,2812.782580,-1991.848295,7402.059420
1026.863179,3034.844362,1455.581446,8068.244768
1026.863509,2664.741391,2987.772442,10066.800811
1026.863838,814.226536,3600.648841,11843.295072
1026.864168,-2368.659014,4673.182538,12361.439231
1026.864498,-2738.761985,4596.572988,12509.480420
1026.864827,-888.247130,1915.238745,12213.398043
1026.865157,-518.144159,76.609550,10584.944971
1026.865486,-1702.473667,-536.266849,7994.224174
1026.865816,-1480.411884,-2451.505594,8068.244768
1026.866145,-2146.597232,-2834.553343,9252.574275
1026.866475,-3034.844362,383.047749,9918.759623
1026.866805,-3478.967927,3217.601092,7550.100608
1026.867134,-1332.370696,1838.629195,5107.421000
1026.867464,1554.432478,-1532.190996,4885.359217
1026.867793,2368.659014,-306.438199,6069.688724
1026.868123,2664.741391,1991.848295,7994.224174
1026.868452,1776.494261,2681.334243,10436.903782
1026.868782,-1184.329507,3830.477490,11917.315666
1026.869111,-3923.091493,4826.401637,12287.418637
1026.869441,-2368.659014,2145.067394,11621.233289
1026.869771,1110.308913,-1762.019645,10658.965565
1026.870100,2220.617826,-1149.143247,10066.800811
1026.870430,962.267725,919.314598,9844.739029
1026.870759,888.247130,1225.752797,9844.739029
1026.871089,-444.123565,842.705048,9992.780217
1026.871418,-1776.494261,2451.505594,8956.491898
1026.871748,-1406.391290,3677.258390,8216.285956
1026.872078,1406.391290,1762.019645,7698.141797
1026.872407,3330.926739,0.000000,7105.977043
1026.872737,2738.761985,-229.828649,6809.894666
1026.873066,1554.432478,689.485948,8512.368333
1026.873396,74.020594,1991.848295,11325.150913
1026.873725,-3330.926739,3983.696590,13323.706956
1026.874055,-5847.626942,5056.230287,12509.480420
1026.874385,-5181.441594,2451.505594,11103.089130
1026.874714,-3034.844362,-1225.752797,10732.986159
1026.875044,-2442.679609,-2757.943793,10436.903782
1026.875373,-3701.029710,-2298.286494,9474.636058
1026.875703,-4737.318029,-842.705048,9400.615463
1026.876032,-4737.318029,-383.047749,9104.533087
1026.876362,-4737.318029,-306.438199,8660.409521
1026.876692,-2886.803174,76.609550,7402.059420
1026.877021,592.164754,-1532.190996,7254.018232
1026.877351,3108.864956,-1608.800546,7772.162391
1026.877680,2590.720797,766.095498,8586.388927
1026.878010,2294.638420,3370.820191,9326.594869
1026.878339,2146.597232,3600.648841,11399.171507
1026.878669,592.164754,3370.820191,12213.398043
1026.878999,-962.267725,4290.134789,11621.233289
1026.879328,-1702.473667,2451.505594,10807.006753
1026.879658,-592.164754,-459.657299,10436.903782
1026.879987,-1332.370696,-1455.581446,9622.677246
1026.880317,-2738.761985,-995.924147,8586.388927
1026.880646,-3478.967927,-2068.457845,8068.244768
1026.880976,-4219.173869,-3217.601092,8438.347739
1026.881306,-4811.338623,-766.095498,8808.450710
1026.881635,-4145.153275,612.876398,9622.677246
1026.881965,-1332.370696,-229.828649,9252.574275
1026.882294,962.267725,229.828649,7476.080014
1026.882624,2146.597232,229.828649,6735.874072
1026.882953,3182.885551,306.438199,8068.244768
1026.883283,2738.761985,1225.752797,10955.047942
1026.883613,0.000000,3447.429741,13175.665768
1026.883942,-2368.659014,5822.325785,12731.542202
1026.884272,-1924.535449,4519.963438,11769.274478
1026.884601,74.020594,383.047749,10510.924376
1026.884931,2220.617826,-1302.362347,9474.636058
1026.885260,2146.597232,-1455.581446,8364.327145
1026.885590,1332.370696,-229.828649,7994.224174
1026.885920,-370.102971,536.266849,8290.306550
1026.886249,-2220.617826,2757.943793,8142.265362
1026.886579,-1258.350101,2987.772442,7624.121203
1026.886908,1776.494261,1685.410096,8142.265362
1026.887238,3404.947333,1762.019645,7328.038826
1026.887567,3034.844362,2528.115143,6957.935855
1026.887897,1998.556043,1302.362347,8068.244768
1026.888226,0.000000,1302.362347,10732.986159
1026.888556,-3849.070898,2987.772442,13545.768739
1026.888886,-5773.606348,4673.182538,13323.706956
1026.889215,-5625.565159,2757.943793,11843.295072
1026.889545,-4737.318029,-459.657299,10288.862594
1026.889874,-3478.967927,-2221.676944,9770.718434
1026.890204,-2442.679609,-2757.943793,9622.677246
1026.890533,-2738.761985,-1225.752797,8808.450710
1026.890863,-3627.009116,76.609550,7402.059420
1026.891193,-3997.112087,1455.581446,6217.729913
1026.891522,-1776.494261,1149.143247,6587.832884
1026.891852,1776.494261,-1225.752797,8512.368333
1026.892181,2812.782580,459.657299,9622.677246
1026.892511,2294.638420,3600.648841,9178.553681
1026.892840,2220.617826,2451.505594,9548.656652
1026.893170,1406.391290,1532.190996,11843.295072
1026.893500,-1036.288319,2221.676944,13249.686362
1026.893829,-2294.638420,3600.648841,13471.748144
1026.894159,-2072.576638,2987.772442,11991.336260
1026.894488,-1776.494261,1149.143247,10510.924376
1026.894818,-1998.556043,-1991.848295,9622.677246
1026.895147,-2146.597232,-4596.572988,10436.903782
1026.895477,-3997.112087,-2298.286494,9696.697840
1026.895807,-7105.977043,-612.876398,8290.306550
1026.896136,-7179.997637,-306.438199,7031.956449
1026.896466,-4441.235652,-689.485948,6735.874072
1026.896795,-592.164754,-2757.943793,6957.935855
1026.897125,2368.659014,-4213.525239,7105.977043
1026.897454,3034.844362,306.438199,7476.080014
1026.897784,3478.967927,3524.039291,8142.265362
1026.898114,2368.659014,2681.334243,9844.739029
1026.898443,0.000000,3524.039291,12065.356855
1026.898773,-740.205942,6205.373534,13027.624579
1026.899102,888.247130,4136.915689,13545.768739
1026.899432,962.267725,1532.190996,11695.253884
1026.899761,0.000000,0.000000,9548.656652
1026.900091,-740.205942,-2221.676944,8586.388927
1026.900421,-370.102971,-3677.258390,9030.512492
1026.900750,-1480.411884,-1685.410096,9178.553681
1026.901080,-3034.844362,2068.457845,7698.141797
1026.901409,-1702.473667,2374.896044,5921.647536
1026.901739,1110.308913,-383.047749,5773.606348
1026.902068,3034.844362,-459.657299,6439.791695
1026.902398,3775.050304,2298.286494,7994.224174
1026.902728,2738.761985,3524.039291,9252.574275
1026.903057,-296.082377,4213.525239,11843.295072
1026.903387,-3997.112087,4519.963438,13175.665768
1026.903716,-5181.441594,4596.572988,13471.748144
1026.904046,-3775.050304,2145.067394,12435.459826
1026.904375,-2664.741391,153.219100,11177.109724
1026.904705,-2738.761985,-1455.581446,10288.862594
1026.905034,-2516.700203,-2834.553343,8956.491898
1026.905364,-3330.926739,-2145.067394,8290.306550
1026.905694,-4219.173869,-306.438199,8586.388927
1026.906023,-3701.029710,2298.286494,8364.327145
1026.906353,-1998.556043,2757.943793,7105.977043
1026.906682,888.247130,0.000000,6661.853478
1026.907012,2590.720797,-459.657299,7105.977043
1026.907341,3108.864956,1455.581446,8068.244768
1026.907671,2886.803174,2528.115143,9548.656652
1026.908001,518.144159,2374.896044,11991.336260
1026.908330,-2738.761985,4136.915689,12583.501014
1026.908660,-3627.009116,3753.867940,12065.356855
1026.908989,-1628.453072,306.438199,11843.295072
1026.909319,-518.144159,-1378.971896,11917.315666
1026.909648,-1702.473667,-766.095498,11399.171507
1026.909978,-2812.782580,-1532.190996,10288.862594
1026.910308,-3478.967927,-1991.848295,8808.450710
1026.910637,-4219.173869,-1225.752797,7920.203579
1026.910967,-3552.988522,229.828649,7105.977043
1026.911296,-666.185348,0.000000,6957.935855
1026.911626,1628.453072,-1685.410096,6957.935855
1026.911955,2146.597232,-689.485948,7846.182985
1026.912285,1406.391290,1455.581446,8438.347739
1026.912615,888.247130,2757.943793,9474.636058
1026.912944,0.000000,2681.334243,11399.171507
1026.913274,-2368.659014,3677.258390,11843.295072
1026.913603,-2886.803174,2911.162892,11991.336260
1026.913933,-2072.576638,76.609550,11843.295072
1026.914262,-1924.535449,-1532.190996,11325.150913
1026.914592,-1628.453072,-1072.533697,10436.903782
1026.914922,-1776.494261,-842.705048,9696.697840
1026.915251,-1110.308913,-842.705048,8808.450710
1026.915581,-1480.411884,306.438199,7624.121203
1026.915910,-296.082377,2451.505594,6587.832884
1026.916240,1998.556043,2298.286494,5921.647536
1026.916569,3849.070898,1455.581446,6217.729913
1026.916899,4441.235652,2068.457845,7328.038826
1026.917229,2590.720797,3753.867940,7920.203579
1026.917558,1628.453072,4290.134789,9400.615463
1026.917888,-444.123565,2374.896044,11177.109724
1026.918217,-3256.906145,3370.820191,12583.501014
1026.918547,-5107.421000,3753.867940,13101.645173
1026.918876,-5551.544565,842.705048,12361.439231
1026.919206,-5255.462188,-995.924147,11399.171507
1026.919536,-4811.338623,-383.047749,11029.068536
1026.919865,-4441.235652,-842.705048,9918.759623
1026.920195,-4959.379811,-1302.362347,8364.327145
1026.920524,-5625.565159,766.095498,6661.853478
1026.920854,-3849.070898,2221.676944,4959.379811
1026.921183,0.000000,306.438199,5921.647536
1026.921513,2442.679609,-1072.533697,7550.100608
1026.921842,2368.659014,2451.505594,7624.121203
1026.922172,1628.453072,2068.457845,7698.141797
1026.922502,1480.411884,2374.896044,10807.006753
1026.922831,222.061783,4673.182538,13767.830521
1026.923161,-1480.411884,5132.839837,13545.768739
1026.923490,-1332.370696,2834.553343,11399.171507
1026.923820,-518.144159,0.000000,11695.253884
1026.924149,-1776.494261,-306.438199,11547.212695
1026.924479,-3849.070898,-1532.190996,11399.171507
1026.924809,-4959.379811,-2374.896044,10510.924376
1026.925138,-5551.544565,-1608.800546,9474.636058
1026.925468,-4959.379811,-1838.629195,8364.327145
1026.925797,-2738.761985,-1149.143247,6735.874072
1026.926127,444.123565,-1762.019645,5551.544565
1026.926456,3034.844362,-2374.896044,5847.626942
1026.926786,3701.029710,-459.657299,7105.977043
1026.927115,2812.782580,2757.943793,8956.491898
1026.927445,2220.617826,3983.696590,11325.150913
1026.927774,-518.144159,3600.648841,13545.768739
1026.928104,-2738.761985,4673.182538,14137.933492
1026.928433,-2664.741391,3983.696590,12953.603985
1026.928763,-1036.288319,-306.438199,11843.295072
1026.929092,-1184.329507,-1838.629195,10436.903782
1026.929422,-2294.638420,-2068.457845,9474.636058
1026.929752,-2220.617826,-2757.943793,9104.533087
1026.930081,-2368.659014,-1532.190996,7994.224174
1026.930411,-2220.617826,459.657299,6883.915261
1026.930740,-962.267725,2145.067394,5403.503377
1026.931070,1406.391290,995.924147,5773.606348
1026.931399,3775.050304,612.876398,6883.915261
1026.931729,3849.070898,2374.896044,7402.059420
1026.932058,2664.741391,3524.039291,7624.121203
1026.932388,1702.473667,4366.744339,9918.759623
1026.932717,-1406.391290,3294.210641,12435.459826
1026.933047,-4219.173869,3677.258390,13471.748144
1026.933376,-4737.318029,3140.991542,12879.583391
1026.933706,-4367.215058,229.828649,12583.501014
1026.934035,-4515.256246,-229.828649,10807.006753
1026.934365,-4811.338623,-612.876398,9992.780217
1026.934694,-4663.297435,-1762.019645,9326.594869
1026.935024,-4589.276840,-1225.752797,8882.471304
1026.935353,-5773.606348,1072.533697,7402.059420
1026.935683,-4589.276840,2451.505594,5773.606348
1026.936012,-1702.473667,536.266849,7031.956449
1026.936342,74.020594,-766.095498,7328.038826
1026.936671,814.226536,689.485948,7550.100608
1026.937001,1406.391290,1302.362347,8364.327145
1026.937330,1628.453072,2451.505594,10140.821405
1026.937660,-666.185348,4213.525239,12879.583391
1026.937989,-2516.700203,4366.744339,12953.603985
1026.938319,-1998.556043,3370.820191,12213.398043
1026.938648,-666.185348,1838.629195,11325.150913
1026.938978,-814.226536,612.876398,10214.842000
1026.939307,-1628.453072,-1072.533697,9622.677246
1026.939637,-2294.638420,-3447.429741,10288.862594
1026.939967,-3701.029710,-2298.286494,11325.150913
1026.940296,-5847.626942,459.657299,10955.047942
1026.940626,-4441.235652,1991.848295,8660.409521
1026.940955,-370.102971,0.000000,6661.853478
1026.941285,3108.864956,-3370.820191,5625.565159
1026.941614,4367.215058,-1991.848295,5995.668130
1026.941944,4663.297435,842.705048,7328.038826
1026.942273,3404.947333,2987.772442,10066.800811
1026.942603,222.061783,3753.867940,12287.418637
1026.942932,-2664.741391,5515.887586,12509.480420
1026.943262,-1998.556043,3907.087040,11843.295072
1026.943591,222.061783,-383.047749,11251.130318
1026.943921,1036.288319,-1991.848295,10732.986159
1026.944250,296.082377,-766.095498,9252.574275
1026.944580,-222.061783,-1378.971896,8364.327145
1026.944909,-814.226536,-2374.896044,9030.512492
1026.945239,-2442.679609,689.485948,9030.512492
1026.945568,-1406.391290,4290.134789,7550.100608
1026.945898,1036.288319,1915.238745,6439.791695
1026.946227,2960.823768,-689.485948,5773.606348
1026.946557,3034.844362,2451.505594,7031.956449
1026.946886,3701.029710,1455.581446,7994.224174
1026.947216,2442.679609,536.266849,10436.903782
1026.947545,-2368.659014,2681.334243,12657.521608
1026.947875,-5773.606348,4826.401637,13545.768739
1026.948204,-5699.585753,2987.772442,13249.686362
1026.948534,-3849.070898,229.828649,12657.521608
1026.948863,-2664.741391,-153.219100,10732.986159
1026.949193,-1554.432478,-1838.629195,9474.636058
1026.949523,-962.267725,-1685.410096,8586.388927
1026.949852,-1924.535449,459.657299,8142.265362
1026.950182,-3552.988522,2911.162892,7476.080014
1026.950511,-2960.823768,4366.744339,7402.059420
1026.950841,-518.144159,1455.581446,8438.347739
1026.951170,888.247130,919.314598,9252.574275
1026.951500,296.082377,1302.362347,8438.347739
1026.951829,-740.205942,2145.067394,8586.388927
1026.952159,-814.226536,1608.800546,9992.780217
1026.952488,-2886.803174,2604.724693,11251.130318
1026.952818,-4441.235652,3294.210641,10807.006753
1026.953147,-3182.885551,536.266849,10584.944971
1026.953477,-3182.885551,0.000000,11103.089130
1026.953806,-4737.318029,1149.143247,10881.027347
1026.954136,-5255.462188,-612.876398,9548.656652
1026.954465,-4219.173869,-2068.457845,8808.450710
1026.954795,-3849.070898,-1915.238745,9104.533087
1026.955124,-4293.194464,0.000000,8586.388927
1026.955454,-3034.844362,919.314598,7476.080014
1026.955783,888.247130,-459.657299,6809.894666
1026.956113,3552.988522,-1225.752797,6661.853478
1026.956442,4441.235652,612.876398,7624.121203
1026.956772,4441.235652,3294.210641,9326.594869
1026.957101,3701.029710,3600.648841,11769.274478
1026.957431,518.144159,3600.648841,13101.645173
1026.957760,-1924.535449,4519.963438,13101.645173
1026.958090,-2220.617826,2528.115143,13101.645173
1026.958419,-1702.473667,-842.705048,12213.398043
1026.958749,-1554.432478,-2451.505594,11399.171507
1026.959078,-1628.453072,-2451.505594,10140.821405
1026.959408,-962.267725,-2451.505594,8586.388927
1026.959738,-1998.556043,-2911.162892,7105.977043
1026.960067,-2220.617826,-229.828649,6513.812290
1026.960397,0.000000,2451.505594,6069.688724
1026.960726,2886.803174,1991.848295,6513.812290
1026.961056,4737.318029,1915.238745,6513.812290
1026.961385,3923.091493,2987.772442,7031.956449
1026.961715,3552.988522,3217.601092,8216.285956
1026.962044,1998.556043,2451.505594,11399.171507
1026.962374,-1702.473667,2451.505594,14063.912898
1026.962703,-4367.215058,4979.620737,14508.036463
1026.963033,-3849.070898,2451.505594,12879.583391
1026.963362,-2072.576638,-1685.410096,11177.109724
1026.963692,-1776.494261,-1915.238745,9696.697840
1026.964021,-1480.411884,-1532.190996,9178.553681
1026.964351,-1110.308913,-383.047749,8734.430116
1026.964680,-2368.659014,1302.362347,7920.203579
1026.965010,-3478.967927,3907.087040,6735.874072
1026.965339,-1924.535449,4136.915689,5847.626942
1026.965669,592.164754,0.000000,5625.565159
1026.965998,1850.514855,-229.828649,7105.977043
1026.966328,740.205942,1455.581446,7994.224174
1026.966657,-370.102971,2068.457845,9252.574275
1026.966987,-1406.391290,2298.286494,11917.315666
1026.967316,-4589.276840,3677.258390,13323.706956
1026.967646,-5847.626942,4826.401637,11917.315666
1026.967975,-4515.256246,1608.800546,10955.047942
1026.968305,-2590.720797,-1225.752797,11177.109724
1026.968634,-2664.741391,-689.485948,11547.212695
1026.968964,-4737.318029,-842.705048,10436.903782
1026.969294,-4663.297435,-1762.019645,8882.471304
1026.969623,-4885.359217,-1225.752797,8586.388927
1026.969953,-4293.194464,153.219100,7846.182985
1026.970282,-1628.453072,-229.828649,7476.080014
1026.970612,814.226536,-2068.457845,7402.059420
1026.970941,2368.659014,-306.438199,7698.141797
1026.971271,2516.700203,2221.676944,8438.347739
1026.971600,3034.844362,2221.676944,9548.656652
1026.971930,2072.576638,2911.162892,11473.192101
1026.972259,-666.185348,3677.258390,12953.603985
1026.972589,-1998.556043,4979.620737,12213.398043
1026.972918,-1184.329507,2987.772442,12139.377449
1026.973248,-1036.288319,-1149.143247,12213.398043
1026.973577,-2294.638420,-2374.896044,11547.212695
1026.973907,-3478.967927,-2298.286494,9622.677246
1026.974236,-2516.700203,-2528.115143,8660.409521
1026.974566,-2294.638420,-1915.238745,8068.244768
1026.974895,-2368.659014,383.047749,6883.915261
1026.975225,-296.082377,1532.190996,5107.421000
1026.975554,2812.782580,-459.657299,4959.379811
1026.975884,4959.379811,1455.581446,6217.729913
1026.976213,5107.421000,4136.915689,6957.935855
1026.976543,4737.318029,3370.820191,8882.471304
1026.976872,2442.679609,2757.943793,11547.212695
1026.977202,-1924.535449,3524.039291,14211.954086
1026.977531,-4071.132681,5209.449386,14508.036463
1026.977861,-3256.906145,2987.772442,12953.603985
1026.978190,-1406.391290,-919.314598,10881.027347
1026.978520,-296.082377,-2451.505594,9474.636058
1026.978849,-222.061783,-3140.991542,7920.203579
1026.979179,-444.123565,-1685.410096,7328.038826
1026.979509,-2220.617826,1072.533697,7105.977043
1026.979838,-3108.864956,4903.011187,7031.956449
1026.980168,-1554.432478,4903.011187,7179.997637
1026.980497,2146.597232,1302.362347,8142.265362
1026.980827,2368.659014,995.924147,8290.306550
1026.981156,592.164754,2068.457845,7994.224174
1026.981486,-592.164754,2221.676944,9844.739029
1026.981815,-1628.453072,459.657299,13841.851115
1026.982145,-4071.132681,2145.067394,15766.386565
1026.982474,-6217.729913,4366.744339,13101.645173
1026.982804,-5255.462188,2068.457845,9400.615463
1026.983133,-2590.720797,-1378.971896,6809.894666
1026.983463,-1184.329507,-2681.334243,8660.409521
1026.983792,-1702.473667,-1685.410096,9918.759623
1026.984122,-3478.967927,383.047749,9770.718434
1026.984451,-5773.606348,1532.190996,9400.615463
1026.984781,-5625.565159,3140.991542,8956.491898
1026.985110,-2072.576638,229.828649,8882.471304
1026.985440,1184.329507,-2451.505594,7402.059420
1026.985769,2442.679609,-1455.581446,7105.977043
1026.986099,2738.761985,1225.752797,8142.265362
1026.986428,2664.741391,3447.429741,9622.677246
1026.986758,1110.308913,2298.286494,10881.027347
1026.987087,-1554.432478,1915.238745,12435.459826
1026.987417,-3330.926739,4366.744339,12361.439231
1026.987746,-2294.638420,2451.505594,12213.398043
1026.988076,-1554.432478,-689.485948,11769.274478
1026.988405,-1998.556043,-1838.629195,10807.006753
1026.988735,-2738.761985,-2451.505594,8956.491898
1026.989065,-1628.453072,-3140.991542,8364.327145
1026.989394,-1406.391290,-2068.457845,7624.121203
1026.989724,-2072.576638,2068.457845,6365.771101
1026.990053,-592.164754,919.314598,5551.544565
1026.990383,2886.803174,0.000000,6291.750507
1026.990712,4589.276840,1685.410096,7624.121203
1026.991042,4589.276840,2911.162892,8660.409521
1026.991371,3108.864956,3140.991542,10436.903782
1026.991701,148.041188,3217.601092,12213.398043
1026.992030,-2960.823768,4060.306139,13693.809927
1026.992360,-3478.967927,2834.553343,13027.624579
1026.992689,-1850.514855,536.266849,12065.356855
1026.993019,-740.205942,-1762.019645,10955.047942
1026.993348,-1110.308913,-2298.286494,9918.759623
1026.993678,-740.205942,-1532.190996,8364.327145
1026.994007,74.020594,-689.485948,7105.977043
1026.994337,-592.164754,1455.581446,7179.997637
1026.994666,-1036.288319,4826.401637,7105.977043
1026.994996,148.041188,3983.696590,7254.018232
1026.995325,1776.494261,919.314598,6587.832884
1026.995655,1924.535449,1302.362347,7105.977043
1026.995984,962.267725,2681.334243,8882.471304
1026.996314,0.000000,2068.457845,11251.130318
1026.996643,-3034.844362,1072.533697,13471.748144
1026.996973,-6217.729913,2757.943793,14434.015869
1026.997302,-6883.915261,3140.991542,11843.295072
1026.997632,-4811.338623,536.266849,10658.965565
1026.997961,-2294.638420,-1378.971896,10066.800811
1026.998291,-1776.494261,-995.924147,9030.512492
1026.998620,-2072.576638,-1302.362347,7402.059420
1026.998950,-1776.494261,-1685.410096,7402.059420
1026.999280,-2516.700203,383.047749,8290.306550
1026.999609,-3034.844362,3294.210641,8660.409521
1026.999939,-1628.453072,1378.971896,8512.368333
1027.000268,1332.370696,-1302.362347,8142.265362
1027.000598,2516.700203,-306.438199,7846.182985
1027.000927,3034.844362,1302.362347,8956.491898
1027.001257,2738.761985,1378.971896,10881.027347
1027.001586,296.082377,2221.676944,12805.562797
1027.001916,-2738.761985,3677.258390,13619.789333
1027.002245,-3627.009116,3140.991542,12657.521608
1027.002575,-2294.638420,2145.067394,12065.356855
1027.002904,-1406.391290,-995.924147,11621.233289
1027.003234,-1850.514855,-1991.848295,9918.759623
1027.003563,-1998.556043,-2374.896044,8364.327145
1027.003893,-2294.638420,-3140.991542,7920.203579
1027.004222,-3552.988522,-1685.410096,7328.038826
1027.004552,-3404.947333,2374.896044,6735.874072
1027.004881,-296.082377,919.314598,6439.791695
1027.005211,2960.823768,-1455.581446,7254.018232
1027.005540,3552.988522,766.095498,7624.121203
1027.005870,2960.823768,2834.553343,8808.450710
1027.006199,2738.761985,1915.238745,11103.089130
1027.006529,444.123565,2911.162892,13619.789333
1027.006858,-1998.556043,5132.839837,14211.954086
1027.007188,-2220.617826,3830.477490,11695.253884
1027.007517,74.020594,-919.314598,10066.800811
1027.007847,888.247130,-1762.019645,9252.574275
1027.008176,1036.288319,-536.266849,8586.388927
1027.008506,666.185348,-842.705048,7179.997637
1027.008836,74.020594,-919.314598,7476.080014
1027.009165,-1924.535449,1378.971896,7920.203579
1027.009495,-2960.823768,3677.258390,7624.121203
1027.009824,-1554.432478,2374.896044,7698.141797
1027.010154,370.102971,306.438199,8142.265362
1027.010483,962.267725,1072.533697,8660.409521
1027.010813,666.185348,766.095498,9844.739029
1027.011142,370.102971,1532.190996,10881.027347
1027.011472,-2960.823768,2681.334243,11399.171507
1027.011801,-5699.585753,3907.087040,10732.986159
1027.012131,-4811.338623,2451.505594,10584.944971
1027.012460,-2738.761985,-229.828649,11177.109724
1027.012790,-2368.659014,-842.705048,11103.089130
1027.013119,-2886.803174,0.000000,9770.718434
1027.013449,-2812.782580,-229.828649,9252.574275
1027.013778,-2368.659014,-612.876398,9178.553681
1027.014108,-3108.864956,-842.705048,8586.388927
1027.014437,-2886.803174,2068.457845,7254.018232
1027.014767,-148.041188,1149.143247,6735.874072
1027.015096,3182.885551,-1149.143247,8142.265362
1027.015426,3478.967927,1072.533697,8586.388927
1027.015755,2442.679609,2374.896044,8956.491898
1027.016085,1850.514855,1378.971896,11029.068536
1027.016414,-888.247130,2145.067394,13397.727550
1027.016744,-3404.947333,4673.182538,14285.974681
1027.017073,-4367.215058,3217.601092,12879.583391
1027.017403,-3330.926739,-919.314598,11621.233289
1027.017732,-2368.659014,-2528.115143,10436.903782
1027.018062,-1924.535449,-2604.724693,9030.512492
1027.018392,-1480.411884,-2528.115143,7772.162391
1027.018721,-2294.638420,-1532.190996,7476.080014
1027.019051,-3404.947333,536.266849,7254.018232
1027.019380,-2590.720797,2834.553343,6809.894666
1027.019710,592.164754,1532.190996,7105.977043
1027.020039,2738.761985,536.266849,7624.121203
1027.020369,2812.782580,2145.067394,7846.182985
1027.020698,2220.617826,2604.724693,8068.244768
1027.021028,2220.617826,995.924147,10066.800811
1027.021357,370.102971,229.828649,13471.748144
1027.021687,-2664.741391,4673.182538,13841.851115
1027.022016,-3478.967927,3830.477490,11991.336260
1027.022346,-1332.370696,76.609550,10955.047942
1027.022675,592.164754,-1072.533697,9548.656652
1027.023005,1702.473667,-995.924147,8660.409521
1027.023334,1554.432478,-536.266849,8068.244768
1027.023664,222.061783,229.828649,7846.182985
1027.023993,-1702.473667,3677.258390,7402.059420
1027.024323,-1554.432478,4826.401637,6439.791695
1027.024652,1184.329507,1685.410096,6661.853478
1027.024982,2812.782580,306.438199,7328.038826
1027.025311,2072.576638,1608.800546,7994.224174
1027.025641,888.247130,2298.286494,9400.615463
1027.025970,-888.247130,2528.115143,11917.315666
1027.026300,-4293.194464,2528.115143,14137.933492
1027.026629,-6809.894666,3983.696590,13693.809927
1027.026959,-6069.688724,2374.896044,12213.398043
1027.027288,-3552.988522,-536.266849,10955.047942
1027.027618,-2442.679609,-1608.800546,9474.636058
1027.027947,-2516.700203,-1762.019645,8216.285956
1027.028279,-2146.597232,-2145.067394,7550.100608
1027.028608,-2442.679609,-1378.971896,8364.327145
1027.028938,-3627.009116,2604.724693,7994.224174
1027.029267,-3256.906145,3447.429741,6291.750507
1027.029597,666.185348,-766.095498,7031.956449
1027.029926,2812.782580,-995.924147,8512.368333
1027.030256,2738.761985,1532.190996,9252.574275
1027.030585,1776.494261,1838.629195,9548.656652
1027.030915,296.082377,2145.067394,11103.089130
1027.031245,-1924.535449,2451.505594,13323.706956
1027.031574,-3627.009116,2451.505594,14137.933492
1027.031904,-3404.947333,1532.190996,13471.748144
1027.032233,-3256.906145,153.219100,11843.295072
1027.032563,-2442.679609,-1608.800546,9844.739029
1027.032892,-2442.679609,-2604.724693,8512.368333
1027.033222,-1480.411884,-2834.553343,9030.512492
1027.033551,-2146.597232,-2451.505594,8438.347739
1027.033881,-3478.967927,612.876398,6513.812290
1027.034211,-2886.803174,2528.115143,6217.729913
1027.034540,296.082377,-153.219100,7179.997637
1027.034870,2738.761985,-919.314598,8660.409521
1027.035199,2960.823768,1378.971896,9178.553681
1027.035529,2738.761985,1455.581446,9400.615463
1027.035858,1628.453072,919.314598,11029.068536
1027.036188,-1184.329507,2145.067394,13323.706956
1027.036517,-2960.823768,4366.744339,13545.768739
1027.036847,-1702.473667,2987.772442,11843.295072
1027.037176,740.205942,612.876398,10066.800811
1027.037506,1332.370696,-842.705048,8068.244768
1027.037836,888.247130,-1838.629195,7624.121203
1027.038165,444.123565,-1838.629195,7994.224174
1027.038495,-814.226536,76.609550,8882.471304
1027.038824,-1258.350101,3677.258390,8512.368333
1027.039154,-1110.308913,5056.230287,6217.729913
1027.039483,1258.350101,1915.238745,5551.544565
1027.039813,2368.659014,-229.828649,5699.585753
1027.040142,2220.617826,1225.752797,7476.080014
1027.040472,1776.494261,2451.505594,10362.883188
1027.040802,-1406.391290,2528.115143,12879.583391
1027.041131,-5699.585753,3524.039291,13915.871710
1027.041461,-7772.162391,4213.525239,13101.645173
1027.041790,-4737.318029,995.924147,12583.501014
1027.042120,-1850.514855,-995.924147,11621.233289
1027.042449,-1332.370696,0.000000,9474.636058
1027.042779,-1702.473667,0.000000,7698.141797
1027.043108,-1554.432478,-1532.190996,7550.100608
1027.043438,-1850.514855,76.609550,8586.388927
1027.043768,-2960.823768,3370.820191,7846.182985
1027.044097,-1850.514855,4290.134789,6661.853478
1027.044427,962.267725,459.657299,6883.915261
1027.044756,1702.473667,-612.876398,7920.203579
1027.045086,962.267725,842.705048,9400.615463
1027.045415,0.000000,1762.019645,10362.883188
1027.045745,-1184.329507,1532.190996,12361.439231
1027.046074,-4145.153275,2298.286494,13693.809927
1027.046404,-5921.647536,3294.210641,12065.356855
1027.046734,-4737.318029,-306.438199,11399.171507
1027.047063,-2368.659014,-2221.676944,10807.006753
1027.047393,-1776.494261,153.219100,10066.800811
1027.047722,-1406.391290,-689.485948,8882.471304
1027.048052,-888.247130,-1838.629195,7846.182985
1027.048381,-2294.638420,-689.485948,7624.121203
1027.048711,-3182.885551,2374.896044,7476.080014
1027.049040,-1332.370696,1762.019645,7550.100608
1027.049370,1850.514855,-229.828649,8290.306550
1027.049700,2294.638420,153.219100,7994.224174
1027.050029,1628.453072,306.438199,7994.224174
1027.050359,2220.617826,-612.876398,9844.739029
1027.050688,1110.308913,766.095498,13619.789333
1027.051018,-2294.638420,2911.162892,14137.933492
1027.051347,-3849.070898,5056.230287,11769.274478
1027.051677,-1850.514855,1455.581446,9844.739029
1027.052006,1184.329507,-1838.629195,9622.677246
1027.052336,1998.556043,-1302.362347,9030.512492
1027.052666,1924.535449,-229.828649,7994.224174
1027.052995,814.226536,76.609550,7105.977043
1027.053325,-666.185348,689.485948,7772.162391
1027.053654,-2368.659014,3217.601092,7328.038826
1027.053984,-666.185348,2451.505594,7031.956449
1027.054313,2442.679609,76.609550,7476.080014
1027.054643,2960.823768,1532.190996,7402.059420
1027.054972,2220.617826,1915.238745,7476.080014
1027.055302,1554.432478,383.047749,10066.800811
1027.055632,-740.205942,1149.143247,13619.789333
1027.055961,-4367.215058,4290.134789,15322.262999
1027.056291,-5403.503377,5132.839837,13175.665768
1027.056620,-3256.906145,1608.800546,11325.150913
1027.056950,-1702.473667,-1608.800546,9844.739029
1027.057279,-1332.370696,-1991.848295,9252.574275
1027.057609,-1480.411884,-1532.190996,8734.430116
1027.057938,-2146.597232,306.438199,8142.265362
1027.058268,-3627.009116,1838.629195,7772.162391
1027.058598,-4071.132681,2911.162892,7105.977043
1027.058927,-1850.514855,1915.238745,7254.018232
1027.059257,1628.453072,0.000000,7994.224174
1027.059586,1776.494261,995.924147,8142.265362
1027.059916,666.185348,2757.943793,8290.306550
1027.060245,-518.144159,2834.553343,10658.965565
1027.060575,-2294.638420,2298.286494,12953.603985
1027.060904,-5403.503377,3064.381992,13027.624579
1027.061234,-5921.647536,2681.334243,11695.253884
1027.061564,-3849.070898,76.609550,11325.150913
1027.061893,-3034.844362,-2604.724693,10807.006753
1027.062223,-2960.823768,-2681.334243,10288.862594
1027.062552,-3182.885551,-1838.629195,8734.430116
1027.062882,-2368.659014,-1302.362347,7476.080014
1027.063211,-2368.659014,153.219100,7105.977043
1027.063541,-1702.473667,1455.581446,7179.997637
1027.063870,296.082377,1302.362347,7772.162391
1027.064200,2368.659014,153.219100,8068.244768
1027.064529,2812.782580,1225.752797,7698.141797
1027.064859,2368.659014,2911.162892,7476.080014
1027.065189,2146.597232,1685.410096,9770.718434
1027.065518,1480.411884,0.000000,13397.727550
1027.065848,-2368.659014,2068.457845,14434.015869
1027.066177,-5033.400406,4060.306139,12805.562797
1027.066507,-3701.029710,536.266849,11177.109724
1027.066836,-1702.473667,-2221.676944,10807.006753
1027.067166,-296.082377,-2451.505594,10510.924376
1027.067495,518.144159,-1838.629195,9104.533087
1027.067825,296.082377,-842.705048,6735.874072
1027.068155,-1406.391290,2068.457845,4737.318029
1027.068484,-1702.473667,3524.039291,4737.318029
1027.068814,888.247130,1608.800546,6809.894666
1027.069143,3404.947333,766.095498,8882.471304
1027.069473,2146.597232,2451.505594,8956.491898
1027.069802,1184.329507,3830.477490,8216.285956
1027.070132,888.247130,842.705048,10436.903782
1027.070461,296.082377,-1225.752797,14137.933492
1027.070791,-2590.720797,2528.115143,14804.118840
1027.071121,-3997.112087,3600.648841,12879.583391
1027.071450,-2664.741391,1838.629195,11325.150913
1027.071780,-1110.308913,0.000000,10510.924376
1027.072109,-592.164754,-1302.362347,9548.656652
1027.072439,-74.020594,-1378.971896,7846.182985
1027.072768,-1184.329507,0.000000,7105.977043
1027.073098,-2368.659014,3524.039291,6735.874072
1027.073427,-2442.679609,3294.210641,6291.750507
1027.073757,-962.267725,306.438199,7254.018232
1027.074087,222.061783,-229.828649,8290.306550
1027.074416,-518.144159,1991.848295,9326.594869
1027.074746,-1184.329507,3447.429741,9474.636058
1027.075075,-1702.473667,3140.991542,10214.842000
1027.075405,-3330.926739,919.314598,11177.109724
1027.075734,-5181.441594,919.314598,11843.295072
1027.076064,-5255.462188,1608.800546,11547.212695
1027.076393,-4145.153275,459.657299,11621.233289
1027.076723,-4589.276840,0.000000,10362.883188
1027.077053,-4737.318029,-689.485948,9400.615463
1027.077382,-2812.782580,-2374.896044,8808.450710
1027.077712,-962.267725,-2834.553343,9178.553681
1027.078041,-1480.411884,383.047749,8364.327145
1027.078371,-2590.720797,2911.162892,6957.935855
1027.078700,-1036.288319,1302.362347,7105.977043
1027.079030,1702.473667,-612.876398,9104.533087
1027.079359,3108.864956,1302.362347,10066.800811
1027.079689,2960.823768,3140.991542,9696.697840
1027.080019,2368.659014,3140.991542,9622.677246
1027.080348,222.061783,995.924147,10288.862594
1027.080678,-2072.576638,689.485948,12065.356855
1027.081007,-2812.782580,1225.752797,13101.645173
1027.081337,-3034.844362,1302.362347,13175.665768
1027.081666,-3478.967927,0.000000,11399.171507
1027.081996,-3478.967927,-1225.752797,9548.656652
1027.082325,-1776.494261,-2834.553343,9104.533087
1027.082655,-518.144159,-3600.648841,8438.347739
1027.082985,-1110.308913,459.657299,7105.977043
1027.083314,-1702.473667,4903.011187,5403.503377
1027.083644,1110.308913,3140.991542,5403.503377
1027.083973,4219.173869,-766.095498,6439.791695
1027.084303,4293.194464,1991.848295,7105.977043
1027.084632,3849.070898,3370.820191,7476.080014
1027.084962,3701.029710,2068.457845,10658.965565
1027.085291,592.164754,2604.724693,13767.830521
1027.085621,-3701.029710,3753.867940,14434.015869
1027.085951,-4811.338623,2374.896044,12583.501014
1027.086280,-2294.638420,-612.876398,11843.295072
1027.086610,0.000000,-612.876398,11103.089130
1027.086939,-222.061783,-612.876398,9326.594869
1027.087269,-370.102971,-2451.505594,7698.141797
1027.087598,-1184.329507,-919.314598,7328.038826
1027.087928,-2368.659014,2911.162892,7920.203579
1027.088257,-1702.473667,5669.106685,7328.038826
1027.088587,0.000000,3677.258390,7254.018232
1027.088916,1554.432478,-306.438199,7105.977043
1027.089246,518.144159,0.000000,7846.182985
1027.089576,-296.082377,1991.848295,9252.574275
1027.089905,-962.267725,2221.676944,11621.233289
1027.090235,-3478.967927,1838.629195,13323.706956
1027.090564,-6587.832884,2451.505594,13101.645173
1027.090894,-6069.688724,919.314598,11473.192101
1027.091223,-3552.988522,-1762.019645,11251.130318
1027.091553,-2442.679609,-1532.190996,10881.027347
1027.091882,-2886.803174,536.266849,9474.636058
1027.092212,-2886.803174,-383.047749,8808.450710
1027.092542,-2220.617826,-1608.800546,8956.491898
1027.092871,-2516.700203,1378.971896,8364.327145
1027.093201,-2368.659014,3370.820191,6957.935855
1027.093530,666.185348,995.924147,6587.832884
1027.093860,2886.803174,-919.314598,7772.162391
1027.094189,2738.761985,689.485948,8290.306550
1027.094519,2368.659014,1838.629195,9104.533087
1027.094848,1110.308913,2374.896044,10807.006753
1027.095178,-1776.494261,3447.429741,11103.089130
1027.095508,-3775.050304,3217.601092,11251.130318
1027.095837,-3849.070898,612.876398,12287.418637
1027.096167,-2368.659014,-919.314598,13471.748144
1027.096496,-3034.844362,-306.438199,12287.418637
1027.096826,-3701.029710,-536.266849,8956.491898
1027.097155,-2368.659014,-1685.410096,6661.853478
1027.097485,-1554.432478,-2528.115143,5847.626942
1027.097814,-1406.391290,-1149.143247,6217.729913
1027.098144,-962.267725,2374.896044,5921.647536
1027.098474,592.164754,3064.381992,6365.771101
1027.098803,2590.720797,1915.238745,7476.080014
1027.099133,3330.926739,2068.457845,8290.306550
1027.099462,4071.132681,2451.505594,9548.656652
1027.099792,3330.926739,1225.752797,11843.295072
1027.100121,518.144159,2145.067394,13989.892304
1027.100451,-2960.823768,5515.887586,13915.871710
1027.100780,-3108.864956,3217.601092,12879.583391
1027.101110,-888.247130,-1685.410096,11991.336260
1027.101440,-74.020594,-1455.581446,10288.862594
1027.101769,148.041188,0.000000,8068.244768
1027.102099,1332.370696,-2298.286494,7031.956449
1027.102428,0.000000,-1991.848295,7254.018232
1027.102758,-2738.761985,2451.505594,7920.203579
1027.103087,-3478.967927,4673.182538,7994.224174
1027.103417,-1258.350101,2757.943793,8364.327145
1027.103746,592.164754,1072.533697,8438.347739
1027.104076,518.144159,1149.143247,8364.327145
1027.104406,296.082377,-229.828649,9104.533087
1027.104735,0.000000,153.219100,11843.295072
1027.105065,-3330.926739,2145.067394,13767.830521
1027.105394,-6365.771101,4673.182538,12805.562797
1027.105724,-5847.626942,2068.457845,10807.006753
1027.106053,-3404.947333,-1991.848295,10140.821405
1027.106383,-2220.617826,-1685.410096,9622.677246
1027.106712,-2072.576638,-229.828649,9104.533087
1027.107042,-1110.308913,-1072.533697,8216.285956
1027.107372,-2294.638420,-536.266849,7550.100608
1027.107701,-3775.050304,1608.800546,7105.977043
1027.108031,-2590.720797,2221.676944,7772.162391
1027.108360,592.164754,766.095498,9030.512492
1027.108690,1924.535449,995.924147,8364.327145
1027.109019,2220.617826,2221.676944,7846.182985
1027.109349,2516.700203,842.705048,7994.224174
1027.109678,2294.638420,689.485948,10510.924376
1027.110008,-740.205942,1838.629195,13249.686362
1027.110338,-4367.215058,3907.087040,13619.789333
1027.110667,-5329.482782,3600.648841,11917.315666
1027.110997,-4219.173869,-306.438199,10881.027347
1027.111326,-2368.659014,-2145.067394,10584.944971
1027.111656,-1924.535449,-2604.724693,9696.697840
1027.111985,-1184.329507,-2528.115143,8808.450710
1027.112315,-1924.535449,-1302.362347,7402.059420
1027.112644,-3552.988522,1685.410096,6439.791695
1027.112974,-1998.556043,3830.477490,5699.585753
1027.113304,2072.576638,1225.752797,7105.977043
1027.113633,4293.194464,842.705048,7624.121203
1027.113963,4071.132681,3064.381992,7550.100608
1027.114292,3849.070898,2451.505594,8808.450710
1027.114622,2368.659014,0.000000,11695.253884
1027.114951,-1554.432478,1532.190996,14656.077652
1027.115281,-5181.441594,4749.792088,14211.954086
1027.115610,-4145.153275,2911.162892,12361.439231
1027.115940,-962.267725,-1532.190996,10881.027347
1027.116269,814.226536,-2145.067394,9326.594869
1027.116599,1036.288319,-2221.676944,7624.121203
1027.116929,1998.556043,-1915.238745,7994.224174
1027.117258,0.000000,1608.800546,7698.141797
1027.117588,-2146.597232,4903.011187,6587.832884
1027.117917,-888.247130,4290.134789,6365.771101
1027.118247,2442.679609,1302.362347,7031.956449
1027.118576,3034.844362,1072.533697,8290.306550
1027.118906,1924.535449,1991.848295,9030.512492
1027.119235,74.020594,612.876398,10214.842000
1027.119565,-2368.659014,1072.533697,12879.583391
1027.119895,-5551.544565,1685.410096,14656.077652
1027.120224,-6439.791695,2604.724693,13397.727550
1027.120554,-4441.235652,1302.362347,10732.986159
1027.120883,-2146.597232,-1685.410096,9400.615463
1027.121213,-1184.329507,-2374.896044,9252.574275
1027.121542,-1480.411884,-689.485948,8956.491898
1027.121872,-1924.535449,766.095498,8586.388927
1027.122201,-2294.638420,766.095498,7994.224174
1027.122531,-2738.761985,2451.505594,6587.832884
1027.122861,-1258.350101,1685.410096,6291.750507
1027.123190,1702.473667,-1991.848295,7402.059420
1027.123520,2368.659014,-612.876398,8882.471304
1027.123849,1184.329507,3140.991542,9400.615463
1027.124179,222.061783,2604.724693,9992.780217
1027.124508,-592.164754,1072.533697,11769.274478
1027.124838,-2516.700203,1149.143247,14063.912898
1027.125167,-3552.988522,2987.772442,13249.686362
1027.125497,-2812.782580,1762.019645,12139.377449
1027.125827,-1924.535449,-1378.971896,11325.150913
1027.126156,-1850.514855,-1608.800546,10214.842000
1027.126486,-1850.514855,-1302.362347,8660.409521
1027.126815,-1480.411884,-1838.629195,7105.977043
1027.127145,-2072.576638,-842.705048,5107.421000
1027.127475,-3034.844362,1608.800546,5033.400406
1027.127804,-1776.494261,1302.362347,6587.832884
1027.128134,148.041188,-536.266849,9104.533087
1027.128464,296.082377,1685.410096,10214.842000
1027.128793,74.020594,4290.134789,9770.718434
1027.129123,1850.514855,2528.115143,9696.697840
1027.129453,1924.535449,-153.219100,11769.274478
1027.129783,-1258.350101,612.876398,13323.706956
1027.130112,-3404.947333,4290.134789,12879.583391
1027.130442,-1850.514855,2911.162892,10955.047942
1027.130772,148.041188,0.000000,10140.821405
1027.131101,740.205942,-306.438199,8586.388927
1027.131431,814.226536,-1608.800546,7550.100608
1027.131761,1406.391290,-2911.162892,7328.038826
1027.132091,0.000000,1455.581446,7254.018232
1027.132420,-444.123565,5439.278036,7476.080014
1027.132750,444.123565,3524.039291,7105.977043
1027.133080,2442.679609,0.000000,7254.018232
1027.133409,2738.761985,459.657299,8142.265362
1027.133739,1554.432478,2451.505594,9178.553681
1027.134069,518.144159,2911.162892,11399.171507
1027.134399,-1924.535449,3217.601092,13989.892304
1027.134728,-5033.400406,2834.553343,14211.954086
1027.135058,-6217.729913,2298.286494,11991.336260
1027.135388,-4515.256246,536.266849,10214.842000
1027.135717,-2146.597232,-2145.067394,9696.697840
1027.136047,-1776.494261,-1225.752797,9104.533087
1027.136377,-2294.638420,-1225.752797,7476.080014
1027.136707,-1628.453072,-1762.019645,7624.121203
1027.137036,-2368.659014,-306.438199,8290.306550
1027.137366,-3627.009116,3600.648841,8216.285956
1027.137696,-2294.638420,2834.553343,7179.997637
1027.138025,1184.329507,-612.876398,7402.059420
1027.138355,3478.967927,0.000000,8512.368333
1027.138685,2960.823768,2068.457845,9474.636058
1027.139015,2072.576638,1762.019645,10881.027347
1027.139344,0.000000,1455.581446,12805.562797
1027.139674,-2738.761985,2145.067394,13397.727550
1027.140004,-4737.318029,3217.601092,12731.542202
1027.140333,-4145.153275,689.485948,11843.295072
1027.140663,-3552.988522,-1455.581446,11769.274478
1027.140993,-3849.070898,-1072.533697,10584.944971
1027.141323,-3701.029710,-1915.238745,7846.182985
1027.141652,-3034.844362,-2451.505594,6735.874072
1027.141982,-3701.029710,-1455.581446,6513.812290
1027.142312,-4367.215058,1149.143247,7328.038826
1027.142641,-3404.947333,1685.410096,7179.997637
1027.142971,-2146.597232,383.047749,7254.018232
1027.143301,-814.226536,766.095498,7550.100608
1027.143630,-296.082377,1532.190996,9030.512492
1027.143960,222.061783,2451.505594,10214.842000
1027.144290,-444.123565,2604.724693,11769.274478
1027.144620,-4071.132681,2834.553343,11399.171507
1027.144949,-5551.544565,3907.087040,10807.006753
1027.145279,-4959.379811,2068.457845,11325.150913
1027.145609,-3923.091493,383.047749,11621.233289
1027.145938,-3627.009116,-459.657299,10881.027347
1027.146268,-2812.782580,-1378.971896,9178.553681
1027.146598,-2072.576638,-1378.971896,8290.306550
1027.146928,-2590.720797,-1685.410096,8734.430116
1027.147257,-4663.297435,1302.362347,8734.430116
1027.147587,-5107.421000,3294.210641,8216.285956
1027.147917,-3775.050304,1685.410096,7476.080014
1027.148246,-2146.597232,1149.143247,7254.018232
1027.148576,-2072.576638,1378.971896,8586.388927
1027.148906,-2072.576638,1685.410096,8586.388927
1027.149236,-1628.453072,1762.019645,8660.409521
1027.149565,-1702.473667,2298.286494,10140.821405
1027.149895,-2886.803174,4596.572988,11695.253884
1027.150225,-5033.400406,3524.039291,11621.233289
1027.150554,-6661.853478,2451.505594,10732.986159
1027.150884,-7105.977043,2221.676944,11325.150913
1027.151214,-6587.832884,1685.410096,12139.377449
1027.151544,-5773.606348,1072.533697,10362.883188
1027.151873,-5033.400406,-919.314598,8216.285956
1027.152203,-5033.400406,-1915.238745,6957.935855
1027.152533,-4515.256246,-1378.971896,7698.141797
1027.152862,-4219.173869,-536.266849,9252.574275
1027.153192,-5107.421000,612.876398,9474.636058
1027.153522,-6809.894666,1149.143247,8660.409521
1027.153852,-5995.668130,1532.190996,8956.491898
1027.154181,-2960.823768,1149.143247,9696.697840
1027.154511,-888.247130,229.828649,9474.636058
1027.154841,74.020594,536.266849,7254.018232
1027.155170,592.164754,995.924147,7105.977043
1027.155500,1406.391290,1838.629195,9326.594869
1027.155830,518.144159,2068.457845,11621.233289
1027.156160,-2442.679609,2757.943793,12583.501014
1027.156489,-6291.750507,3677.258390,12065.356855
1027.156819,-8586.388927,2528.115143,11769.274478
1027.157149,-8290.306550,1225.752797,12509.480420
1027.157478,-7328.038826,-766.095498,10881.027347
1027.157808,-6143.709319,-2757.943793,7698.141797
1027.158138,-4663.297435,-4136.915689,5773.606348
1027.158467,-2960.823768,-2987.772442,5477.523971
1027.158797,-1184.329507,-1532.190996,6143.709319
1027.159127,-592.164754,0.000000,7772.162391
1027.159457,-1554.432478,2145.067394,9400.615463
1027.159786,-3478.967927,3140.991542,11029.068536
1027.160116,-4959.379811,2681.334243,13027.624579
1027.160446,-6809.894666,2757.943793,14137.933492
1027.160775,-8142.265362,2374.896044,12805.562797
1027.161105,-7476.080014,383.047749,10584.944971
1027.161435,-3849.070898,-1149.143247,7920.203579
1027.161765,148.041188,-2451.505594,6143.709319
1027.162094,2886.803174,-1991.848295,5625.565159
1027.162424,3552.988522,153.219100,5625.565159
1027.162754,2664.741391,3677.258390,6587.832884
1027.163083,1554.432478,5822.325785,8882.471304
1027.163413,-518.144159,6205.373534,11103.089130
1027.163743,-3849.070898,6205.373534,12583.501014
1027.164073,-7772.162391,4136.915689,12287.418637
1027.164402,-10658.965565,766.095498,12657.521608
1027.164732,-11843.295072,-2145.067394,13989.892304
1027.165062,-12509.480420,-3447.429741,13175.665768
1027.165391,-11843.295072,-4213.525239,9326.594869
1027.165721,-8142.265362,-3600.648841,5921.647536
1027.166051,-2590.720797,-3294.210641,4515.256246
1027.166381,2368.659014,-689.485948,4885.359217
1027.166710,4589.276840,2681.334243,5847.626942
1027.167040,3923.091493,6128.763984,7402.059420
1027.167370,2072.576638,9729.412825,10140.821405
1027.167699,-444.123565,10265.679673,13101.645173
1027.168029,-3182.885551,7890.783629,13915.871710
1027.168359,-5995.668130,2987.772442,13545.768739
1027.168689,-8364.327145,-1149.143247,12805.562797
1027.169018,-9326.594869,-3600.648841,11991.336260
1027.169348,-9844.739029,-3983.696590,9696.697840
1027.169678,-8068.244768,-4979.620737,6883.915261
1027.170007,-5477.523971,-5209.449386,4515.256246
1027.170337,-1850.514855,-3064.381992,3849.070898
1027.170667,962.267725,842.705048,4959.379811
1027.170997,1258.350101,3524.039291,6735.874072
1027.171326,0.000000,7277.907231,8290.306550
1027.171656,-2072.576638,8044.002729,10436.903782
1027.171986,-4145.153275,6052.154434,12879.583391
1027.172315,-6217.729913,3217.601092,13175.665768
1027.172645,-8438.347739,612.876398,11399.171507
1027.172975,-9918.759623,-2528.115143,10436.903782
1027.173304,-9326.594869,-5439.278036,9992.780217
1027.173634,-7105.977043,-6052.154434,10066.800811
1027.173964,-4885.359217,-4136.915689,8586.388927
1027.174294,-2738.761985,-2374.896044,6439.791695
1027.174623,0.000000,-306.438199,7105.977043
1027.174953,1702.473667,1915.238745,8808.450710
1027.175283,1776.494261,4826.401637,10510.924376
1027.175612,296.082377,5822.325785,11399.171507
1027.175942,-2072.576638,4443.353888,12065.356855
1027.176272,-4959.379811,2604.724693,13027.624579
1027.176602,-7105.977043,689.485948,14063.912898
1027.176931,-8216.285956,-1455.581446,11991.336260
1027.177261,-7994.224174,-3830.477490,8438.347739
1027.177591,-5255.462188,-5515.887586,6587.832884
1027.177920,-2442.679609,-4519.963438,6069.688724
1027.178250,-296.082377,-2221.676944,6439.791695
1027.178580,0.000000,383.047749,6957.935855
1027.178910,-1036.288319,4136.915689,8216.285956
1027.179239,-2886.803174,8120.612279,10288.862594
1027.179569,-4145.153275,8120.612279,12435.459826
1027.179899,-5181.441594,5439.278036,13471.748144
1027.180228,-6809.894666,2911.162892,13101.645173
1027.180558,-7105.977043,1225.752797,11843.295072
1027.180888,-6883.915261,-1225.752797,10510.924376
1027.181218,-6143.709319,-2528.115143,8438.347739
1027.181547,-5403.503377,-2374.896044,7105.977043
1027.181877,-3404.947333,0.000000,6809.894666
1027.182207,-814.226536,2374.896044,6809.894666
1027.182536,962.267725,4366.744339,7476.080014
1027.182866,1332.370696,5822.325785,7550.100608
1027.183196,740.205942,6128.763984,8438.347739
1027.183526,-888.247130,6052.154434,9918.759623
1027.183855,-2590.720797,5745.716235,11547.212695
1027.184185,-4293.194464,4136.915689,11843.295072
1027.184515,-4737.318029,3370.820191,10658.965565
1027.184844,-4293.194464,842.705048,9252.574275
1027.185174,-3034.844362,-1149.143247,7624.121203
1027.185504,-1702.473667,-612.876398,7624.121203
1027.185834,-888.247130,1762.019645,7698.141797
1027.186163,-1184.329507,4213.525239,8216.285956
1027.186493,-2072.576638,5056.230287,9252.574275
1027.186823,-2368.659014,6205.373534,10732.986159
1027.187152,-2886.803174,6741.640382,11473.192101
1027.187482,-2960.823768,5898.935335,11103.089130
1027.187812,-3034.844362,3753.867940,10584.944971
1027.188141,-2146.597232,1378.971896,9918.759623
1027.188471,-1554.432478,995.924147,9770.718434
1027.188801,-1480.411884,1225.752797,9104.533087
1027.189131,-1332.370696,2068.457845,9030.512492
1027.189460,-370.102971,3370.820191,9918.759623
1027.189790,-222.061783,5515.887586,10584.944971
1027.190120,-592.164754,7201.297681,11103.089130
1027.190449,-1702.473667,7507.735880,10584.944971
1027.190779,-2294.638420,7124.688131,10214.842000
1027.191109,-2812.782580,6281.983084,9548.656652
1027.191439,-3256.906145,4213.525239,8586.388927
1027.191768,-2590.720797,2298.286494,7476.080014
1027.192098,-2072.576638,383.047749,5699.585753
1027.192428,-1332.370696,-153.219100,5847.626942
1027.192757,-1480.411884,536.266849,6809.894666
1027.193087,-1628.453072,2145.067394,7624.121203
1027.193417,-1998.556043,4596.572988,8808.450710
1027.193747,-2368.659014,6281.983084,10140.821405
1027.194076,-2368.659014,6971.469032,10955.047942
1027.194406,-1998.556043,6894.859482,11177.109724
1027.194736,-962.267725,5439.278036,10807.006753
1027.195065,-666.185348,3753.867940,10658.965565
1027.195395,-592.164754,3217.601092,10362.883188
1027.195725,-888.247130,2451.505594,9696.697840
1027.196055,-1258.350101,2374.896044,9252.574275
1027.196384,-1110.308913,2374.896044,9030.512492
1027.196714,74.020594,2757.943793,9104.533087
1027.197044,1036.288319,2604.724693,9178.553681
1027.197373,148.041188,3140.991542,10288.862594
1027.197703,-1036.288319,4596.572988,10881.027347
1027.198033,-2146.597232,5362.668486,11325.150913
1027.198363,-2220.617826,5362.668486,11843.295072
1027.198692,-1850.514855,4979.620737,11621.233289
1027.199022,-1628.453072,4213.525239,10066.800811
1027.199352,-962.267725,3294.210641,9770.718434
1027.199681,-518.144159,3600.648841,9474.636058
1027.200011,-370.102971,4749.792088,9474.636058
1027.200341,0.000000,5132.839837,8660.409521
1027.200671,296.082377,5209.449386,7179.997637
1027.201000,444.123565,3524.039291,6661.853478
1027.201330,296.082377,2604.724693,7031.956449
1027.201660,-370.102971,2221.676944,7624.121203
1027.201989,-1850.514855,2374.896044,8438.347739
1027.202319,-3256.906145,2604.724693,9548.656652
1027.202649,-3627.009116,3370.820191,10510.924376
1027.202979,-2960.823768,4136.915689,11547.212695
1027.203308,-1998.556043,4903.011187,11103.089130
1027.203638,-1332.370696,5439.278036,9918.759623
1027.203968,0.000000,6128.763984,9326.594869
1027.204297,666.185348,6894.859482,9696.697840
1027.204627,518.144159,6818.249932,9622.677246
1027.204957,-518.144159,6588.421283,8290.306550
1027.205286,-1480.411884,5056.230287,7105.977043
1027.205616,-2146.597232,3217.601092,6439.791695
1027.205946,-2220.617826,1378.971896,6291.750507
1027.206276,-1998.556043,-229.828649,6809.894666
1027.206605,-1998.556043,-1455.581446,7920.203579
1027.206935,-2442.679609,-689.485948,9178.553681
1027.207265,-2368.659014,1762.019645,11177.109724
1027.207594,-1702.473667,4060.306139,12065.356855
1027.207924,-1628.453072,6665.030833,12731.542202
1027.208254,-222.061783,7048.078582,13249.686362
1027.208584,74.020594,7584.345430,12361.439231
1027.208913,592.164754,6435.202183,11177.109724
1027.209243,1258.350101,4673.182538,10510.924376
1027.209573,814.226536,3753.867940,9844.739029
1027.209902,-518.144159,2911.162892,8512.368333
1027.210232,-1776.494261,2374.896044,8142.265362
1027.210562,-2146.597232,1225.752797,7994.224174
1027.210892,-2072.576638,919.314598,8586.388927
1027.211221,-1702.473667,2221.676944,9326.594869
1027.211551,-888.247130,2681.334243,8956.491898
1027.211881,-444.123565,2374.896044,9474.636058
1027.212210,-444.123565,3294.210641,10510.924376
1027.212540,-1332.370696,5975.544884,11251.130318
1027.212870,-1628.453072,7431.126331,11843.295072
1027.213200,-1554.432478,6588.421283,11251.130318
1027.213529,-1776.494261,5975.544884,11473.192101
1027.213859,-2812.782580,6052.154434,9992.780217
1027.214189,-2886.803174,5515.887586,7550.100608
1027.214518,-1332.370696,3983.696590,4811.338623
1027.214848,814.226536,1915.238745,3849.070898
1027.215178,2664.741391,1685.410096,4145.153275
1027.215508,2590.720797,1915.238745,5551.544565
1027.215837,888.247130,2987.772442,7402.059420
1027.216167,-1702.473667,4903.011187,9252.574275
1027.216497,-3923.091493,6665.030833,11325.150913
1027.216826,-4219.173869,6665.030833,13471.748144
1027.217156,-4145.153275,5515.887586,14211.954086
1027.217486,-4293.194464,4443.353888,13619.789333
1027.217816,-4441.235652,3907.087040,11991.336260
1027.218145,-3182.885551,3753.867940,9696.697840
1027.218475,-814.226536,2451.505594,7476.080014
1027.218805,1998.556043,1915.238745,5551.544565
1027.219134,4589.276840,2374.896044,5181.441594
1027.219464,5255.462188,3064.381992,5551.544565
1027.219794,3552.988522,4903.011187,7105.977043
1027.220123,0.000000,5822.325785,9770.718434
1027.220453,-3701.029710,8427.050478,12657.521608
1027.220783,-5625.565159,8350.440928,14359.995275
1027.221113,-4959.379811,5975.544884,14508.036463
1027.221442,-3552.988522,2604.724693,12361.439231
1027.221772,-1554.432478,-766.095498,9326.594869
1027.222102,-1110.308913,-995.924147,6513.812290
1027.222431,-592.164754,0.000000,6439.791695
1027.222761,-592.164754,1991.848295,8438.347739
1027.223091,-1184.329507,4903.011187,9474.636058
1027.223421,-1998.556043,5745.716235,8216.285956
1027.223750,-1258.350101,3217.601092,6513.812290
1027.224080,148.041188,536.266849,6587.832884
1027.224410,74.020594,459.657299,8882.471304
1027.224739,-1110.308913,2221.676944,11473.192101
1027.225069,-2220.617826,3907.087040,12805.562797
1027.225399,-2368.659014,4136.915689,12139.377449
1027.225729,-1776.494261,3064.381992,11843.295072
1027.226058,-592.164754,1685.410096,10066.800811
1027.226388,518.144159,1072.533697,7772.162391
1027.226718,1850.514855,-229.828649,5773.606348
1027.227047,2664.741391,-612.876398,6069.688724
1027.227377,1924.535449,76.609550,7550.100608
1027.227707,296.082377,919.314598,9770.718434
1027.228037,-1776.494261,1838.629195,12065.356855
1027.228366,-3849.070898,2911.162892,13545.768739
1027.228696,-5033.400406,4290.134789,13397.727550
1027.229026,-3701.029710,2451.505594,11769.274478
1027.229355,-1776.494261,-612.876398,10881.027347
1027.229685,-444.123565,-1608.800546,10510.924376
1027.230015,-962.267725,383.047749,9770.718434
1027.230345,-888.247130,1991.848295,8068.244768
1027.230674,-1110.308913,2221.676944,7920.203579
1027.231004,-1110.308913,2221.676944,9178.553681
1027.231334,-814.226536,2374.896044,8956.491898
1027.231664,-592.164754,1072.533697,7179.997637
1027.231993,0.000000,-1302.362347,6217.729913
1027.232323,0.000000,-2068.457845,7772.162391
1027.232653,-1036.288319,0.000000,11177.109724
1027.232982,-2220.617826,2681.334243,13693.809927
1027.233312,-3108.864956,4826.401637,13989.892304
1027.233642,-3034.844362,6665.030833,12879.583391
1027.233972,-1480.411884,6052.154434,10807.006753
1027.234301,1258.350101,2681.334243,8882.471304
1027.234631,2368.659014,1532.190996,6365.771101
1027.234961,2146.597232,1378.971896,4811.338623
1027.235291,962.267725,1532.190996,5255.462188
1027.235620,-518.144159,2604.724693,6957.935855
1027.235950,-3108.864956,2911.162892,8216.285956
1027.236280,-4219.173869,2451.505594,8216.285956
1027.236609,-2590.720797,1532.190996,8290.306550
1027.236939,-444.123565,76.609550,8660.409521
1027.237269,-296.082377,-459.657299,9030.512492
1027.237599,-962.267725,0.000000,8956.491898
1027.237928,-1332.370696,1378.971896,10955.047942
1027.238258,-1628.453072,4673.182538,12953.603985
1027.238588,-2294.638420,7124.688131,12287.418637
1027.238918,-2072.576638,5745.716235,9252.574275
1027.239247,-370.102971,229.828649,6513.812290
1027.239577,1628.453072,-3447.429741,6587.832884
1027.239907,1406.391290,-2911.162892,7550.100608
1027.240237,-370.102971,-1149.143247,8438.347739
1027.240566,-1924.535449,0.000000,9696.697840
1027.240896,-3404.947333,383.047749,11843.295072
1027.241226,-3108.864956,2145.067394,13027.624579
1027.241555,-1776.494261,1915.238745,12287.418637
1027.241885,592.164754,-536.266849,10732.986159
1027.242215,1406.391290,-1991.848295,9326.594869
1027.242545,1184.329507,-2374.896044,9622.677246
1027.242874,1258.350101,-1378.971896,11029.068536
1027.243204,-222.061783,-153.219100,12805.562797
1027.243534,-2590.720797,2068.457845,12731.542202
1027.243864,-3404.947333,3294.210641,11991.336260
1027.244193,-2368.659014,0.000000,10362.883188
1027.244523,-444.123565,-2604.724693,9030.512492
1027.244853,-370.102971,-3753.867940,7402.059420
1027.245182,-666.185348,-2451.505594,7846.182985
1027.245512,-962.267725,-612.876398,9548.656652
1027.245842,-1924.535449,919.314598,10510.924376
1027.246172,-2590.720797,2911.162892,9622.677246
1027.246501,-1702.473667,1225.752797,7846.182985
1027.246831,740.205942,-1532.190996,8290.306550
1027.247161,1628.453072,-1838.629195,8364.327145
1027.247491,740.205942,-153.219100,8438.347739
1027.247820,0.000000,612.876398,9400.615463
1027.248150,-1184.329507,1532.190996,11029.068536
1027.248480,-2886.803174,3983.696590,12953.603985
1027.248810,-3330.926739,5592.497135,11991.336260
1027.249139,-2812.782580,3064.381992,9696.697840
1027.249469,-1110.308913,842.705048,7476.080014
1027.249799,-296.082377,-995.924147,5995.668130
1027.250128,-296.082377,-919.314598,6587.832884
1027.250458,-1110.308913,1915.238745,7994.224174
1027.250788,-2368.659014,4060.306139,8364.327145
1027.251118,-2886.803174,4749.792088,7772.162391
1027.251447,-1850.514855,3064.381992,7031.956449
1027.251777,-148.041188,0.000000,8068.244768
1027.252107,0.000000,76.609550,8586.388927
1027.252437,-814.226536,1532.190996,8586.388927
1027.252766,-666.185348,1532.190996,9696.697840
1027.253096,-518.144159,1762.019645,11917.315666
1027.253426,-1924.535449,3907.087040,13027.624579
1027.253755,-2294.638420,5439.278036,12287.418637
1027.254085,-740.205942,3600.648841,11325.150913
1027.254415,814.226536,2528.115143,9770.718434
1027.254745,962.267725,2145.067394,8512.368333
1027.255074,814.226536,1225.752797,7698.141797
1027.255404,666.185348,766.095498,8216.285956
1027.255734,-1036.288319,2451.505594,9252.574275
1027.256064,-3034.844362,3753.867940,8882.471304
1027.256393,-2442.679609,1762.019645,7994.224174
1027.256723,-888.247130,-1378.971896,8068.244768
1027.257053,148.041188,-2451.505594,8660.409521
1027.257382,-592.164754,-1225.752797,8438.347739
1027.257712,-888.247130,-1378.971896,9770.718434
1027.258042,-1480.411884,0.000000,12287.418637
1027.258372,-3182.885551,2757.943793,13175.665768
1027.258701,-3330.926739,4366.744339,11991.336260
1027.259031,-814.226536,995.924147,10510.924376
1027.259361,888.247130,-1762.019645,8660.409521
1027.259691,592.164754,-2068.457845,7698.141797
1027.260020,74.020594,-2451.505594,7994.224174
1027.260350,296.082377,-1915.238745,8808.450710
1027.260680,-370.102971,0.000000,9622.677246
1027.261010,-1036.288319,1608.800546,9770.718434
1027.261339,74.020594,153.219100,9474.636058
1027.261669,1702.473667,-2987.772442,10066.800811
1027.261999,1480.411884,-2298.286494,9770.718434
1027.262328,-592.164754,0.000000,10140.821405
1027.262658,-1332.370696,-536.266849,11917.315666
1027.262988,-2516.700203,383.047749,13249.686362
1027.263318,-3701.029710,1685.410096,12731.542202
1027.263647,-3552.988522,1455.581446,10658.965565
1027.263977,-1332.370696,-919.314598,8956.491898
1027.264307,74.020594,-2451.505594,8068.244768
1027.264637,-592.164754,-1302.362347,7402.059420
1027.264966,-1258.350101,76.609550,7328.038826
1027.265296,-814.226536,766.095498,8216.285956
1027.265626,-740.205942,2145.067394,8586.388927
1027.265955,-1184.329507,2911.162892,8808.450710
1027.266285,-518.144159,1608.800546,8808.450710
1027.266615,814.226536,-1225.752797,9178.553681
1027.266945,592.164754,-1225.752797,9030.512492
1027.267274,-814.226536,-229.828649,9918.759623
1027.267604,-1480.411884,689.485948,11103.089130
1027.267934,-1850.514855,2834.553343,12805.562797
1027.268264,-2812.782580,4749.792088,11991.336260
1027.268593,-2442.679609,4673.182538,9474.636058
1027.268923,-370.102971,1762.019645,8142.265362
1027.269253,1110.308913,306.438199,7254.018232
1027.269583,222.061783,1378.971896,6661.853478
1027.269912,-740.205942,1302.362347,6217.729913
1027.270242,-1184.329507,766.095498,7031.956449
1027.270572,-2590.720797,1838.629195,9252.574275
1027.270901,-3701.029710,3753.867940,9844.739029
1027.271231,-2960.823768,2834.553343,8512.368333
1027.271561,0.000000,-689.485948,8512.368333
1027.271891,1036.288319,-1838.629195,8660.409521
1027.272220,-148.041188,-306.438199,9474.636058
1027.272550,-666.185348,612.876398,11103.089130
1027.272880,-1406.391290,2451.505594,13175.665768
1027.273210,-2294.638420,4673.182538,13545.768739
1027.273539,-2294.638420,4979.620737,12287.418637
1027.273869,0.000000,919.314598,10362.883188
1027.274199,1850.514855,-1838.629195,8586.388927
1027.274528,1850.514855,-919.314598,7179.997637
1027.274858,888.247130,0.000000,7476.080014
1027.275188,296.082377,766.095498,8586.388927
1027.275518,-592.164754,1225.752797,9770.718434
1027.275847,-888.247130,1532.190996,9770.718434
1027.276177,-296.082377,995.924147,9474.636058
1027.276507,1258.350101,-1378.971896,8808.450710
1027.276837,444.123565,-1532.190996,9178.553681
1027.277166,-1184.329507,-766.095498,9844.739029
1027.277496,-2146.597232,-383.047749,11991.336260
1027.277826,-2812.782580,1608.800546,13397.727550
1027.278156,-3849.070898,3907.087040,12139.377449
1027.278485,-3701.029710,2681.334243,9178.553681
1027.278815,-1036.288319,-1072.533697,7476.080014
1027.279145,592.164754,-2757.943793,6883.915261
1027.279474,444.123565,-612.876398,6661.853478
1027.279804,-888.247130,842.705048,6883.915261
1027.280134,-1110.308913,1762.019645,7772.162391
1027.280464,-1628.453072,1991.848295,8660.409521
1027.280793,-1332.370696,1685.410096,8808.450710
1027.281123,-296.082377,76.609550,8364.327145
1027.281453,592.164754,-1762.019645,8660.409521
1027.281783,148.041188,-1915.238745,9696.697840
1027.282112,-1554.432478,153.219100,11399.171507
1027.282442,-2368.659014,306.438199,12657.521608
1027.282772,-2516.700203,1302.362347,13175.665768
1027.283101,-2886.803174,3447.429741,12361.439231
1027.283431,-1850.514855,3140.991542,10732.986159
1027.283761,-296.082377,459.657299,9104.533087
1027.284091,518.144159,-919.314598,7476.080014
1027.284420,518.144159,0.000000,7402.059420
1027.284750,-296.082377,919.314598,8364.327145
1027.285080,-888.247130,1838.629195,9030.512492
1027.285410,-2590.720797,1991.848295,9622.677246
1027.285739,-3034.844362,689.485948,8882.471304
1027.286069,-1850.514855,-229.828649,8734.430116
1027.286399,74.020594,-1991.848295,9030.512492
1027.286728,0.000000,-2145.067394,9400.615463
1027.287058,-962.267725,-689.485948,9770.718434
1027.287388,-1480.411884,-383.047749,11029.068536
1027.287718,-1480.411884,1149.143247,12657.521608
1027.288047,-1850.514855,3370.820191,12953.603985
1027.288377,-1406.391290,3907.087040,11473.192101
1027.288707,444.123565,919.314598,9696.697840
1027.289037,1480.411884,-536.266849,8216.285956
1027.289366,1406.391290,-459.657299,7846.182985
1027.289696,370.102971,919.314598,8586.388927
1027.290026,-370.102971,2604.724693,9104.533087
1027.290356,-1702.473667,2374.896044,8438.347739
1027.290685,-1184.329507,1532.190996,7994.224174
1027.291015,222.061783,-919.314598,7920.203579
1027.291345,814.226536,-2068.457845,8438.347739
1027.291674,-222.061783,-689.485948,9030.512492
1027.292004,-1924.535449,842.705048,10584.944971
1027.292334,-2146.597232,1302.362347,11843.295072
1027.292664,-3108.864956,2604.724693,13101.645173
1027.292993,-3627.009116,3753.867940,12065.356855
1027.293323,-2590.720797,2528.115143,9622.677246
1027.293653,-592.164754,0.000000,8216.285956
1027.293983,444.123565,-766.095498,7698.141797
1027.294312,-370.102971,689.485948,7994.224174
1027.294642,-1036.288319,2221.676944,8290.306550
1027.294972,-1184.329507,2528.115143,8808.450710
1027.295301,-1776.494261,3907.087040,8586.388927
1027.295631,-1184.329507,2528.115143,7698.141797
1027.295961,444.123565,306.438199,7179.997637
1027.296291,1258.350101,-1378.971896,7920.203579
1027.296620,444.123565,-153.219100,9178.553681
1027.296950,-962.267725,1455.581446,10584.944971
1027.297280,-1998.556043,1685.410096,11769.274478
1027.297610,-2516.700203,2681.334243,12435.459826
1027.297939,-2886.803174,3524.039291,11843.295072
1027.298269,-1850.514855,2681.334243,10140.821405
1027.298599,74.020594,612.876398,8216.285956
1027.298929,1406.391290,-612.876398,7624.121203
1027.299258,814.226536,689.485948,7179.997637
1027.299588,-444.123565,2374.896044,8216.285956
1027.299918,-1480.411884,2987.772442,8808.450710
1027.300247,-2590.720797,3370.820191,8660.409521
1027.300577,-2960.823768,1685.410096,8290.306550
1027.300907,-1184.329507,0.000000,8216.285956
1027.301237,-518.144159,-1991.848295,8956.491898
1027.301566,-740.205942,-1685.410096,9252.574275
1027.301896,-1258.350101,-1378.971896,10436.903782
1027.302226,-1554.432478,-536.266849,12509.480420
1027.302556,-2072.576638,1915.238745,13841.851115
1027.302885,-3330.926739,3753.867940,13915.871710
1027.303215,-2516.700203,2834.553343,12139.377449
1027.303545,-222.061783,229.828649,10140.821405
1027.303874,1036.288319,-1838.629195,8364.327145
1027.304204,1406.391290,-2145.067394,7402.059420
1027.304534,1184.329507,-306.438199,8142.265362
1027.304864,296.082377,1532.190996,8956.491898
1027.305193,-444.123565,2528.115143,9030.512492
1027.305523,-370.102971,2068.457845,8512.368333
1027.305853,1258.350101,-1072.533697,8364.327145
1027.306183,2220.617826,-2681.334243,8512.368333
1027.306512,1184.329507,-1149.143247,9474.636058
1027.306842,-1110.308913,0.000000,11325.150913
1027.307172,-3404.947333,612.876398,12583.501014
1027.307502,-4663.297435,1915.238745,13471.748144
1027.307831,-4663.297435,2757.943793,12805.562797
1027.308161,-3182.885551,2068.457845,10510.924376
1027.308491,-1554.432478,-459.657299,7328.038826
1027.308820,0.000000,-2298.286494,5773.606348
1027.309150,0.000000,-1685.410096,6217.729913
1027.309480,-296.082377,1455.581446,7550.100608
1027.309810,-888.247130,3830.477490,9252.574275
1027.310139,-1776.494261,4826.401637,8882.471304
1027.310469,-1554.432478,3677.258390,7920.203579
1027.310799,296.082377,229.828649,7846.182985
1027.311129,888.247130,-1608.800546,8364.327145
1027.311458,-222.061783,-383.047749,9474.636058
1027.311788,-2146.597232,995.924147,11399.171507
1027.312118,-3182.885551,2451.505594,12583.501014
1027.312447,-3627.009116,2911.162892,12879.583391
1027.312777,-2738.761985,3600.648841,11843.295072
1027.313107,-1332.370696,3064.381992,9548.656652
1027.313437,222.061783,1608.800546,7698.141797
1027.313766,1036.288319,1302.362347,6809.894666
1027.314096,1036.288319,2221.676944,7031.956449
1027.314426,444.123565,2298.286494,7698.141797
1027.314756,-1036.288319,2987.772442,8660.409521
1027.315085,-2738.761985,4290.134789,9030.512492
1027.315415,-2516.700203,4060.306139,8808.450710
1027.315745,-962.267725,76.609550,8882.471304
1027.316074,0.000000,-1991.848295,9400.615463
1027.316404,-592.164754,0.000000,10288.862594
1027.316734,-2220.617826,383.047749,10658.965565
1027.317064,-2442.679609,2145.067394,11843.295072
1027.317393,-2812.782580,3140.991542,12361.439231
1027.317723,-2294.638420,3830.477490,11473.192101
1027.318053,-962.267725,2068.457845,9992.780217
1027.318383,592.164754,0.000000,8364.327145
1027.318712,1184.329507,0.000000,7402.059420
1027.319042,740.205942,76.609550,7402.059420
1027.319372,0.000000,459.657299,8142.265362
1027.319702,-888.247130,1149.143247,9178.553681
1027.320031,-1332.370696,2221.676944,9770.718434
1027.320361,-814.226536,2374.896044,9474.636058
1027.320691,74.020594,-306.438199,9400.615463
1027.321020,518.144159,-2451.505594,9178.553681
1027.321350,-888.247130,-1378.971896,9622.677246
1027.321680,-2220.617826,0.000000,11029.068536
1027.322010,-2664.741391,919.314598,12805.562797
1027.322339,-3701.029710,2757.943793,12657.521608
1027.322669,-3923.091493,2757.943793,11103.089130
1027.322999,-2368.659014,153.219100,9400.615463
1027.323329,-222.061783,-1532.190996,9326.594869
1027.323658,148.041188,-689.485948,8438.347739
1027.323988,-1480.411884,-306.438199,7550.100608
1027.324318,-2146.597232,76.609550,8142.265362
1027.324647,-2072.576638,1762.019645,9400.615463
1027.324977,-1850.514855,2604.724693,9400.615463
1027.325307,-666.185348,1991.848295,8290.306550
1027.325637,888.247130,-842.705048,8290.306550
1027.325966,592.164754,-1991.848295,8142.265362
1027.326296,-592.164754,-459.657299,9622.677246
1027.326626,-1184.329507,919.314598,11843.295072
1027.326956,-1776.494261,2528.115143,11843.295072
1027.327285,-2442.679609,3677.258390,11177.109724
1027.327615,-1850.514855,2528.115143,10436.903782
1027.327945,-296.082377,1378.971896,9474.636058
1027.328275,1036.288319,612.876398,8734.430116
1027.328604,592.164754,1532.190996,7402.059420
1027.328934,-962.267725,1762.019645,6735.874072
1027.329264,-1184.329507,1455.581446,7994.224174
1027.329593,-1776.494261,2528.115143,9178.553681
1027.329923,-2368.659014,3217.601092,8364.327145
1027.330253,-1776.494261,2528.115143,7772.162391
1027.330583,-370.102971,459.657299,8364.327145
1027.330912,0.000000,-1149.143247,9030.512492
1027.331242,-1406.391290,306.438199,10362.883188
1027.331572,-2516.700203,995.924147,10881.027347
1027.331902,-2368.659014,2145.067394,11399.171507
1027.332231,-2368.659014,3370.820191,12139.377449
1027.332561,-1776.494261,4060.306139,11843.295072
1027.332891,-1036.288319,2834.553343,9992.780217
1027.333220,666.185348,383.047749,8364.327145
1027.333550,1184.329507,153.219100,7920.203579
1027.333880,370.102971,612.876398,8438.347739
1027.334210,-296.082377,1225.752797,9474.636058
1027.334539,-1406.391290,1838.629195,10066.800811
1027.334869,-1998.556043,2604.724693,9326.594869
1027.335199,-1184.329507,1608.800546,8734.430116
1027.335528,296.082377,-1991.848295,9474.636058
1027.335858,444.123565,-1532.190996,10362.883188
1027.336187,-1998.556043,306.438199,10436.903782
1027.336517,-2738.761985,612.876398,11695.253884
1027.336846,-2664.741391,1378.971896,11917.315666
1027.337176,-3330.926739,2068.457845,11917.315666
1027.337506,-2516.700203,2451.505594,10214.842000
1027.337835,-962.267725,766.095498,8586.388927
1027.338165,148.041188,-919.314598,7476.080014
1027.338494,-148.041188,-536.266849,7550.100608
1027.338824,-1554.432478,536.266849,8660.409521
1027.339154,-1850.514855,1685.410096,9474.636058
1027.339483,-1924.535449,3294.210641,9178.553681
1027.339813,-1332.370696,2374.896044,7328.038826
1027.340142,296.082377,76.609550,6957.935855
1027.340472,1332.370696,-2298.286494,8068.244768
1027.340801,592.164754,-459.657299,8882.471304
1027.341131,-1036.288319,1838.629195,9622.677246
1027.341461,-1924.535449,1225.752797,10140.821405
1027.341790,-2146.597232,1991.848295,11621.233289
1027.342120,-2960.823768,3140.991542,12065.356855
1027.342449,-2368.659014,2604.724693,10214.842000
1027.342779,-1110.308913,842.705048,8068.244768
1027.343108,0.000000,-1072.533697,7920.203579
1027.343438,-296.082377,612.876398,8808.450710
1027.343768,-1850.514855,1378.971896,9178.553681
1027.344097,-2146.597232,2298.286494,9770.718434
1027.344427,-2368.659014,2987.772442,9252.574275
1027.344756,-2294.638420,1991.848295,7772.162391
1027.345086,-518.144159,0.000000,8068.244768
1027.345416,962.267725,-2604.724693,9326.594869
1027.345745,518.144159,-1072.533697,9844.739029
1027.346075,-1628.453072,766.095498,10214.842000
1027.346404,-1924.535449,1149.143247,11843.295072
1027.346734,-2442.679609,2604.724693,13989.892304
1027.347063,-3330.926739,4826.401637,14137.933492
1027.347393,-2590.720797,3983.696590,10510.924376
1027.347723,0.000000,0.000000,7698.141797
1027.348052,1924.535449,-2681.334243,6957.935855
1027.348382,1184.329507,-1378.971896,7254.018232
1027.348711,-888.247130,689.485948,8734.430116
1027.349041,-1332.370696,1608.800546,9400.615463
1027.349370,-2146.597232,2451.505594,9474.636058
1027.349700,-2294.638420,2451.505594,9104.533087
1027.350030,-888.247130,-612.876398,8512.368333
1027.350359,814.226536,-3677.258390,9030.512492
1027.350689,148.041188,-2451.505594,9400.615463
1027.351018,-1998.556043,0.000000,10214.842000
1027.351348,-2960.823768,76.609550,12435.459826
1027.351678,-2886.803174,1838.629195,13397.727550
1027.352007,-3627.009116,2834.553343,12361.439231
1027.352337,-2442.679609,2987.772442,9474.636058
1027.352666,0.000000,0.000000,7254.018232
1027.352996,1998.556043,-2451.505594,6957.935855
1027.353325,962.267725,-1378.971896,7179.997637
1027.353655,-518.144159,153.219100,8808.450710
1027.353985,-1332.370696,1915.238745,9992.780217
1027.354314,-2072.576638,2987.772442,10436.903782
1027.354644,-2146.597232,2221.676944,9474.636058
1027.354973,-1258.350101,-306.438199,9400.615463
1027.355303,962.267725,-2451.505594,9030.512492
1027.355633,0.000000,-1225.752797,9252.574275
1027.355962,-1480.411884,383.047749,10288.862594
1027.356292,-2664.741391,1225.752797,11769.274478
1027.356621,-3404.947333,2987.772442,12657.521608
1027.356951,-3701.029710,4596.572988,11695.253884
1027.357280,-2368.659014,3217.601092,9326.594869
1027.357610,-592.164754,919.314598,7254.018232
1027.357940,814.226536,-995.924147,6661.853478
1027.358269,518.144159,-612.876398,6883.915261
1027.358599,-444.123565,1225.752797,7476.080014
1027.358928,-814.226536,3294.210641,8882.471304
1027.359258,-1924.535449,4136.915689,9474.636058
1027.359587,-2294.638420,3600.648841,9030.512492
1027.359917,-888.247130,1378.971896,8512.368333
1027.360247,1110.308913,-1608.800546,8808.450710
1027.360576,1184.329507,-612.876398,9326.594869
1027.360906,-888.247130,1072.533697,9474.636058
1027.361235,-1924.535449,1225.752797,10510.924376
1027.361565,-1702.473667,2145.067394,11843.295072
1027.361895,-2220.617826,4060.306139,12583.501014
1027.362224,-1924.535449,4673.182538,9992.780217
1027.362554,-518.144159,2374.896044,8290.306550
1027.362883,518.144159,-995.924147,7105.977043
1027.363213,296.082377,-995.924147,7254.018232
1027.363542,-518.144159,153.219100,8882.471304
1027.363872,-1406.391290,1762.019645,10362.883188
1027.364202,-2812.782580,2451.505594,10288.862594
1027.364531,-3404.947333,1838.629195,9992.780217
1027.364861,-1850.514855,-689.485948,9474.636058
1027.365190,148.041188,-3370.820191,9844.739029
1027.365520,0.000000,-1685.410096,9770.718434
1027.365849,-1184.329507,-459.657299,9770.718434
1027.366179,-1554.432478,-919.314598,11547.212695
1027.366509,-1776.494261,1072.533697,13249.686362
1027.366838,-2368.659014,3064.381992,12805.562797
1027.367168,-1776.494261,2451.505594,10732.986159
1027.367497,222.061783,459.657299,9030.512492
1027.367827,1110.308913,-1149.143247,7994.224174
1027.368157,814.226536,-1302.362347,7698.141797
1027.368486,-296.082377,-1608.800546,8142.265362
1027.368816,-1110.308913,536.266849,9400.615463
1027.369145,-1702.473667,2451.505594,9622.677246
1027.369475,-1554.432478,766.095498,8216.285956
1027.369804,-370.102971,-1072.533697,7994.224174
1027.370134,518.144159,-3447.429741,8364.327145
1027.370464,-148.041188,-1532.190996,9474.636058
1027.370793,-2072.576638,1302.362347,10214.842000
1027.371123,-2960.823768,995.924147,10658.965565
1027.371452,-2886.803174,1991.848295,11399.171507
1027.371782,-2886.803174,2834.553343,10881.027347
1027.372112,-1776.494261,2451.505594,9400.615463
1027.372441,-148.041188,766.095498,8216.285956
1027.372771,592.164754,-229.828649,6587.832884
1027.373100,0.000000,-306.438199,6809.894666
1027.373430,-518.144159,536.266849,8586.388927
1027.373759,-888.247130,2757.943793,9548.656652
1027.374089,-1776.494261,3753.867940,9178.553681
1027.374419,-1702.473667,2604.724693,8586.388927
1027.374748,74.020594,0.000000,8882.471304
1027.375078,962.267725,-1762.019645,9992.780217
1027.375407,74.020594,229.828649,10584.944971
1027.375737,-1554.432478,1378.971896,10955.047942
1027.376066,-2146.597232,1762.019645,11843.295072
1027.376396,-1554.432478,2911.162892,12879.583391
1027.376726,-2368.659014,3370.820191,11695.253884
1027.377055,-1184.329507,2911.162892,9696.697840
1027.377385,222.061783,1072.533697,8216.285956
1027.377714,888.247130,0.000000,8068.244768
1027.378044,-148.041188,689.485948,8068.244768
1027.378374,-1480.411884,1072.533697,9252.574275
1027.378703,-1850.514855,1991.848295,9622.677246
1027.379033,-2516.700203,2604.724693,9548.656652
1027.379362,-2368.659014,1915.238745,9178.553681
1027.379692,-1036.288319,-383.047749,8882.471304
1027.380021,0.000000,-2757.943793,9252.574275
1027.380351,-740.205942,-1225.752797,9474.636058
1027.380681,-1628.453072,306.438199,9918.759623
1027.381010,-1850.514855,229.828649,10881.027347
1027.381340,-1924.535449,1915.238745,11843.295072
1027.381669,-2220.617826,3217.601092,10658.965565
1027.381999,-666.185348,2451.505594,9326.594869
1027.382328,1406.391290,-153.219100,8586.388927
1027.382658,1480.411884,-459.657299,8364.327145
1027.382988,0.000000,306.438199,8142.265362
1027.383317,-1480.411884,1149.143247,8882.471304
1027.383647,-1406.391290,919.314598,10140.821405
1027.383976,-1924.535449,2145.067394,10510.924376
1027.384306,-1480.411884,1302.362347,9326.594869
1027.384636,-370.102971,-2068.457845,9030.512492
1027.384965,74.020594,-2528.115143,9030.512492
1027.385295,-518.144159,-842.705048,9252.574275
1027.385624,-1628.453072,0.000000,9918.759623
1027.385954,-1850.514855,1149.143247,11769.274478
1027.386283,-2368.659014,3447.429741,12509.480420
1027.386613,-2442.679609,3524.039291,10807.006753
1027.386943,-1184.329507,2834.553343,9326.594869
1027.387272,962.267725,76.609550,8290.306550
1027.387602,888.247130,-306.438199,7846.182985
1027.387931,-444.123565,153.219100,7698.141797
1027.388261,-1406.391290,1608.800546,8660.409521
1027.388591,-1406.391290,3677.258390,9474.636058
1027.388920,-2072.576638,4060.306139,8660.409521
1027.389250,-1406.391290,2068.457845,7254.018232
1027.389579,296.082377,-1455.581446,7105.977043
1027.389909,962.267725,-1991.848295,8142.265362
1027.390238,-444.123565,459.657299,9252.574275
1027.390568,-2072.576638,1072.533697,10436.903782
1027.390898,-2886.803174,2374.896044,12361.439231
1027.391227,-3701.029710,3983.696590,13175.665768
1027.391557,-3404.947333,4596.572988,12139.377449
1027.391886,-1628.453072,3064.381992,9992.780217
1027.392216,666.185348,459.657299,8142.265362
1027.392545,1036.288319,-306.438199,7179.997637
1027.392875,148.041188,76.609550,7698.141797
1027.393205,-592.164754,1532.190996,8512.368333
1027.393534,-1036.288319,2911.162892,9252.574275
1027.393864,-888.247130,3140.991542,9178.553681
1027.394193,-592.164754,1762.019645,8660.409521
1027.394523,1258.350101,-1838.629195,8956.491898
1027.394853,1924.535449,-2757.943793,8734.430116
1027.395182,370.102971,-2374.896044,9770.718434
1027.395512,-1776.494261,-383.047749,11843.295072
1027.395841,-2812.782580,2221.676944,13915.871710
1027.396171,-4145.153275,3524.039291,13545.768739
1027.396500,-3330.926739,3140.991542,11621.233289
1027.396830,-592.164754,459.657299,9844.739029
1027.397160,1480.411884,-1838.629195,8216.285956
1027.397489,1554.432478,-1302.362347,7105.977043
1027.397819,74.020594,-842.705048,6735.874072
1027.398148,-296.082377,612.876398,8660.409521
1027.398478,-1110.308913,2451.505594,10214.842000
1027.398807,-2220.617826,2911.162892,10066.800811
1027.399137,-1554.432478,0.000000,9178.553681
1027.399467,74.020594,-3294.210641,9474.636058
1027.399796,74.020594,-2451.505594,9474.636058
1027.400126,-1184.329507,-995.924147,9844.739029
1027.400455,-1776.494261,-459.657299,11029.068536
1027.400785,-2590.720797,1991.848295,11991.336260
1027.401115,-2812.782580,4290.134789,12213.398043
1027.401444,-2294.638420,4366.744339,10140.821405
1027.401774,0.000000,919.314598,8216.285956
1027.402103,1554.432478,-689.485948,7254.018232
1027.402433,1332.370696,459.657299,6661.853478
1027.402762,370.102971,919.314598,7179.997637
1027.403092,-370.102971,1991.848295,8364.327145
1027.403422,-1628.453072,3370.820191,9474.636058
1027.403751,-2368.659014,3983.696590,9992.780217
1027.404081,-1332.370696,2681.334243,9770.718434
1027.404410,370.102971,306.438199,9400.615463
1027.404740,444.123565,-536.266849,8734.430116
1027.405070,-1110.308913,612.876398,8882.471304
1027.405399,-1850.514855,1072.533697,10955.047942
1027.405729,-2368.659014,2757.943793,12139.377449
1027.406058,-3478.967927,5286.058936,11103.089130
1027.406388,-2738.761985,4979.620737,9918.759623
1027.406717,-592.164754,2145.067394,8586.388927
1027.407047,1554.432478,229.828649,7920.203579
1027.407377,1110.308913,995.924147,6513.812290
1027.407706,518.144159,1455.581446,5847.626942
1027.408036,0.000000,1608.800546,8068.244768
1027.408365,-1332.370696,3983.696590,10288.862594
1027.408695,-2516.700203,5132.839837,10066.800811
1027.409024,-1480.411884,2145.067394,8660.409521
1027.409354,740.205942,-1991.848295,8512.368333
1027.409684,592.164754,-2681.334243,8956.491898
1027.410013,-518.144159,-1225.752797,10066.800811
1027.410343,-1776.494261,-842.705048,11251.130318
1027.410672,-2590.720797,1149.143247,12361.439231
1027.411002,-3182.885551,4213.525239,13323.706956
1027.411332,-2442.679609,4290.134789,12509.480420
1027.411661,-518.144159,842.705048,10510.924376
1027.411991,962.267725,-1302.362347,8734.430116
1027.412320,888.247130,-383.047749,8068.244768
1027.412650,-148.041188,-612.876398,7920.203579
1027.412979,-666.185348,0.000000,8808.450710
1027.413309,-1480.411884,612.876398,10066.800811
1027.413639,-1776.494261,1072.533697,10510.924376
1027.413968,-962.267725,76.609550,9696.697840
1027.414298,814.226536,-2145.067394,9030.512492
1027.414627,888.247130,-2528.115143,8734.430116
1027.414957,-148.041188,-1302.362347,9844.739029
1027.415286,-1332.370696,536.266849,11473.192101
1027.415616,-2072.576638,2145.067394,12731.542202
1027.415946,-2886.803174,3524.039291,12361.439231
1027.416275,-2960.823768,3830.477490,10066.800811
1027.416605,-1258.350101,689.485948,8068.244768
1027.416934,0.000000,-2604.724693,7031.956449
1027.417264,0.000000,-1685.410096,6661.853478
1027.417594,-1184.329507,153.219100,7031.956449
1027.417923,-1702.473667,1685.410096,7772.162391
1027.418253,-1924.535449,2834.553343,8438.347739
1027.418582,-1480.411884,3370.820191,8364.327145
1027.418912,-518.144159,2145.067394,8142.265362
1027.419241,814.226536,0.000000,8512.368333
1027.419571,962.267725,-153.219100,9104.533087
1027.419901,0.000000,995.924147,10066.800811
1027.420230,-1480.411884,919.314598,10955.047942
1027.420560,-1924.535449,2374.896044,12139.377449
1027.420889,-2368.659014,3830.477490,12213.398043
1027.421219,-1924.535449,4749.792088,10807.006753
1027.421548,-222.061783,2221.676944,9400.615463
1027.421878,1184.329507,383.047749,8290.306550
1027.422208,814.226536,536.266849,7105.977043
1027.422537,-148.041188,919.314598,7476.080014
1027.422867,-814.226536,2145.067394,9030.512492
1027.423196,-2072.576638,3830.477490,10066.800811
1027.423526,-2442.679609,3907.087040,9474.636058
1027.423856,-1480.411884,1455.581446,9178.553681
1027.424185,-444.123565,-766.095498,9104.533087
1027.424515,0.000000,-766.095498,9474.636058
1027.424844,-740.205942,-459.657299,10362.883188
1027.425174,-1480.411884,459.657299,11399.171507
1027.425503,-2738.761985,2681.334243,12583.501014
1027.425833,-3108.864956,3753.867940,11991.336260
1027.426163,-1998.556043,2604.724693,10140.821405
1027.426492,148.041188,229.828649,9326.594869
1027.426822,1258.350101,-306.438199,8660.409521
1027.427151,962.267725,612.876398,7698.141797
1027.427481,-148.041188,459.657299,7624.121203
1027.427811,-444.123565,995.924147,8956.491898
1027.428140,-1110.308913,2451.505594,9770.718434
1027.428470,-1036.288319,2221.676944,9400.615463
1027.428799,0.000000,0.000000,8142.265362
1027.429129,962.267725,-2834.553343,7920.203579
1027.429458,74.020594,-2068.457845,8512.368333
1027.429788,-1258.350101,-842.705048,9770.718434
1027.430118,-2294.638420,76.609550,11695.253884
1027.430447,-3330.926739,2451.505594,12065.356855
1027.430777,-3627.009116,2298.286494,10881.027347
1027.431106,-2146.597232,1072.533697,9918.759623
1027.431436,-222.061783,-995.924147,9178.553681
1027.431765,444.123565,-1072.533697,8290.306550
1027.432095,-296.082377,0.000000,7994.224174
1027.432425,-962.267725,612.876398,8660.409521
1027.432754,-1332.370696,1685.410096,9992.780217
1027.433084,-2294.638420,2987.772442,10214.842000
1027.433413,-1702.473667,2221.676944,8734.430116
1027.433743,0.000000,-689.485948,8290.306550
1027.434073,1480.411884,-3064.381992,8734.430116
1027.434402,0.000000,-1455.581446,9252.574275
1027.434732,-1628.453072,0.000000,11029.068536
1027.435062,-2368.659014,1685.410096,12361.439231
1027.435391,-2960.823768,3830.477490,13027.624579
1027.435721,-3256.906145,4366.744339,11769.274478
1027.436051,-962.267725,2528.115143,9918.759623
1027.436380,74.020594,383.047749,8364.327145
1027.436710,666.185348,766.095498,7476.080014
1027.437040,-444.123565,1685.410096,6587.832884
1027.437369,-1332.370696,1225.752797,6735.874072
1027.437699,-1332.370696,1608.800546,8660.409521
1027.438029,-2072.576638,2834.553343,9770.718434
1027.438358,-2368.659014,3370.820191,8734.430116
1027.438688,-740.205942,459.657299,7920.203579
1027.439018,814.226536,-1762.019645,8142.265362
1027.439347,148.041188,-1225.752797,9030.512492
1027.439677,-1110.308913,689.485948,10658.965565
1027.440007,-1258.350101,1455.581446,12435.459826
1027.440336,-2368.659014,3524.039291,12731.542202
1027.440666,-3108.864956,4519.963438,11843.295072
1027.440996,-1702.473667,2298.286494,10288.862594
1027.441325,592.164754,-383.047749,9030.512492
1027.441655,1480.411884,-229.828649,7994.224174
1027.441985,592.164754,1225.752797,7402.059420
1027.442314,0.000000,766.095498,8142.265362
1027.442644,-962.267725,459.657299,9474.636058
1027.442974,-2294.638420,1838.629195,9918.759623
1027.443303,-1924.535449,1608.800546,9474.636058
1027.443633,-666.185348,-766.095498,9178.553681
1027.443963,0.000000,-2451.505594,9326.594869
1027.444292,-518.144159,-1685.410096,10066.800811
1027.444622,-1480.411884,-995.924147,11547.212695
1027.444952,-1998.556043,1149.143247,12361.439231
1027.445281,-3034.844362,3677.258390,12139.377449
1027.445611,-2738.761985,3677.258390,10881.027347
1027.445941,-1184.329507,1608.800546,9030.512492
1027.446270,592.164754,-383.047749,8290.306550
1027.446600,962.267725,-842.705048,7328.038826
1027.446930,-518.144159,0.000000,7105.977043
1027.447259,-1776.494261,306.438199,8068.244768
1027.447589,-2072.576638,1072.533697,9326.594869
1027.447919,-2442.679609,1991.848295,9474.636058
1027.448249,-2368.659014,1455.581446,8586.388927
1027.448578,-222.061783,-536.266849,8142.265362
1027.448908,592.164754,-1991.848295,8142.265362
1027.449238,-296.082377,-919.314598,9030.512492
1027.449567,-1406.391290,0.000000,10436.903782
1027.449897,-1850.514855,2068.457845,12509.480420
1027.450227,-3330.926739,4136.915689,12361.439231
1027.450556,-3330.926739,4519.963438,10807.006753
1027.450886,-1480.411884,1302.362347,8586.388927
1027.451216,888.247130,-2145.067394,7772.162391
1027.451545,1776.494261,-1302.362347,7402.059420
1027.451875,-296.082377,689.485948,7179.997637
1027.452205,-1110.308913,1685.410096,8290.306550
1027.452534,-1628.453072,1762.019645,9178.553681
1027.452864,-2220.617826,2221.676944,9696.697840
1027.453194,-1480.411884,995.924147,9400.615463
1027.453523,74.020594,-766.095498,8956.491898
1027.453853,518.144159,-1762.019645,9474.636058
1027.454183,-740.205942,-1302.362347,10066.800811
1027.454512,-2220.617826,-306.438199,11325.150913
1027.454842,-2516.700203,842.705048,13545.768739
1027.455172,-2664.741391,3753.867940,14211.954086
1027.455501,-3256.906145,3983.696590,11991.336260
1027.455831,-1776.494261,1149.143247,9474.636058
1027.456161,814.226536,-1915.238745,8586.388927
1027.456490,1480.411884,-2145.067394,8142.265362
1027.456820,-148.041188,229.828649,8438.347739
1027.457150,-888.247130,1991.848295,9104.533087
1027.457479,-1850.514855,2451.505594,9992.780217
1027.457809,-2294.638420,2068.457845,9474.636058
1027.458139,-1406.391290,459.657299,9252.574275
1027.458468,0.000000,-1378.971896,8216.285956
1027.458798,1036.288319,-2757.943793,7920.203579
1027.459128,-222.061783,-1455.581446,8586.388927
1027.459457,-1628.453072,-306.438199,10362.883188
1027.459787,-2590.720797,842.705048,12065.356855
1027.460117,-3330.926739,3447.429741,12065.356855
1027.460446,-2886.803174,4213.525239,10510.924376
1027.460776,-962.267725,1838.629195,8364.327145
1027.461106,740.205942,-1149.143247,7476.080014
1027.461435,740.205942,-1302.362347,6883.915261
1027.461765,0.000000,229.828649,7328.038826
1027.462095,-1110.308913,2068.457845,8882.471304
1027.462424,-2516.700203,3064.381992,9400.615463
1027.462754,-2442.679609,2834.553343,9696.697840
1027.463084,-1184.329507,995.924147,9030.512492
1027.463413,222.061783,-1149.143247,8882.471304
1027.463743,444.123565,-1762.019645,8512.368333
1027.464073,-222.061783,-995.924147,9622.677246
1027.464402,-1850.514855,306.438199,11399.171507
1027.464732,-2664.741391,2451.505594,12657.521608
1027.465062,-3034.844362,4673.182538,13249.686362
1027.465391,-2442.679609,5056.230287,11547.212695
1027.465721,-1480.411884,2911.162892,8734.430116
1027.466051,222.061783,-383.047749,7031.956449
1027.466380,666.185348,-1378.971896,6809.894666
1027.466710,0.000000,0.000000,7476.080014
1027.467040,-1628.453072,2145.067394,8808.450710
1027.467369,-2886.803174,3600.648841,9696.697840
1027.467699,-3182.885551,2681.334243,9474.636058
1027.468029,-1850.514855,1302.362347,8956.491898
1027.468358,-296.082377,-919.314598,8586.388927
1027.468688,740.205942,-1378.971896,8660.409521
1027.469018,0.000000,-153.219100,9400.615463
1027.469347,-666.185348,306.438199,11177.109724
1027.469677,-2146.597232,1762.019645,12213.398043
1027.470007,-2738.761985,3677.258390,12657.521608
1027.470336,-2442.679609,3830.477490,11251.130318
