#time,accel_x,accel_y,accel_z
914.611642,-1036.288319,766.095498,9548.656652
914.611971,-962.267725,842.705048,9548.656652
914.612301,-592.164754,1378.971896,9474.636058
914.612630,-1036.288319,919.314598,9696.697840
914.612959,-1110.308913,766.095498,9622.677246
914.613289,-888.247130,842.705048,9770.718434
914.613618,-1332.370696,919.314598,9474.636058
914.613947,-740.205942,1072.533697,9474.636058
914.614277,-592.164754,995.924147,9548.656652
914.614606,-1036.288319,842.705048,9400.615463
914.614935,-1036.288319,766.095498,9548.656652
914.615265,-1036.288319,919.314598,9474.636058
914.615594,-888.247130,1149.143247,9548.656652
914.615923,-1406.391290,766.095498,9178.553681
914.616253,-1110.308913,919.314598,9474.636058
914.616582,-1184.329507,689.485948,9548.656652
914.616911,-1110.308913,1072.533697,9548.656652
914.617241,-1110.308913,689.485948,9474.636058
914.617570,-1184.329507,1378.971896,9548.656652
914.617899,-1110.308913,1149.143247,9696.697840
914.618229,-1184.329507,995.924147,9474.636058
914.618558,-1110.308913,1149.143247,9326.594869
914.618887,-1036.288319,919.314598,9548.656652
914.619217,-1554.432478,536.266849,9400.615463
914.619546,-740.205942,1072.533697,9918.759623
914.619875,-1036.288319,842.705048,9474.636058
914.620205,-1036.288319,919.314598,9474.636058
914.620534,-1036.288319,1072.533697,9622.677246
914.620863,-1258.350101,995.924147,9326.594869
914.621193,-888.247130,995.924147,9474.636058
914.621522,-1110.308913,842.705048,9474.636058
914.621851,-1036.288319,842.705048,9696.697840
914.622181,-888.247130,919.314598,9622.677246
914.622510,-1036.288319,766.095498,9474.636058
914.622840,-1036.288319,306.438199,9400.615463
914.623169,-962.267725,536.266849,9400.615463
914.623498,-740.205942,995.924147,9622.677246
914.623828,-962.267725,1072.533697,9548.656652
914.624157,-1110.308913,1072.533697,9548.656652
914.624486,-888.247130,995.924147,9548.656652
914.624816,-1184.329507,689.485948,9548.656652
914.625145,-962.267725,842.705048,9548.656652
914.625474,-1110.308913,689.485948,9474.636058
914.625804,-1036.288319,919.314598,9474.636058
914.626133,-1036.288319,842.705048,9400.615463
914.626462,-814.226536,1455.581446,9400.615463
914.626792,-1184.329507,842.705048,9548.656652
914.627121,-1110.308913,1149.143247,9400.615463
914.627450,-1184.329507,842.705048,9622.677246
914.627780,-1036.288319,1149.143247,9622.677246
914.628109,-1258.350101,995.924147,9622.677246
914.628438,-1110.308913,1072.533697,9474.636058
914.628768,-1110.308913,919.314598,9400.615463
914.629097,-962.267725,919.314598,9474.636058
914.629426,-962.267725,919.314598,9548.656652
914.629756,-1184.329507,766.095498,9474.636058
914.630085,-962.267725,1072.533697,9622.677246
914.630414,-1110.308913,842.705048,9548.656652
914.630744,-1110.308913,995.924147,9474.636058
914.631073,-1036.288319,1072.533697,9400.615463
914.631402,-888.247130,919.314598,9326.594869
914.631732,-962.267725,612.876398,9326.594869
914.632061,-1036.288319,842.705048,9770.718434
914.632390,-1036.288319,995.924147,9548.656652
914.632720,-444.123565,1072.533697,9104.533087
914.633049,518.144159,612.876398,9104.533087
914.633378,1184.329507,383.047749,9104.533087
914.633708,888.247130,842.705048,9104.533087
914.634037,518.144159,612.876398,9622.677246
914.634366,0.000000,919.314598,10140.821405
914.634696,-444.123565,995.924147,10510.924376
914.635025,-592.164754,842.705048,10288.862594
914.635354,-888.247130,0.000000,9992.780217
914.635684,0.000000,153.219100,9548.656652
914.636013,592.164754,0.000000,9474.636058
914.636342,1776.494261,76.609550,9178.553681
914.636672,2886.803174,995.924147,8882.471304
914.637001,3404.947333,919.314598,8586.388927
914.637330,3775.050304,1225.752797,9178.553681
914.637660,3849.070898,2221.676944,9326.594869
914.637989,3552.988522,1532.190996,9918.759623
914.638318,2590.720797,1455.581446,10140.821405
914.638648,2294.638420,1149.143247,10288.862594
914.638977,1332.370696,689.485948,10658.965565
914.639306,1554.432478,153.219100,10584.944971
914.639636,1702.473667,-306.438199,10288.862594
914.639965,2072.576638,-383.047749,9474.636058
914.640294,3182.885551,-1072.533697,9400.615463
914.640624,4071.132681,229.828649,9104.533087
914.640953,4071.132681,1225.752797,9326.594869
914.641282,4071.132681,2221.676944,9622.677246
914.641612,3182.885551,2681.334243,10140.821405
914.641941,1924.535449,2987.772442,10510.924376
914.642270,-296.082377,2451.505594,9992.780217
914.642600,-1850.514855,2298.286494,9696.697840
914.642929,-1776.494261,842.705048,8956.491898
914.643258,-666.185348,-536.266849,7624.121203
914.643588,1406.391290,-1072.533697,6883.915261
914.643917,2664.741391,-689.485948,6217.729913
914.644246,3775.050304,-383.047749,6735.874072
914.644576,4293.194464,1072.533697,7698.141797
914.644905,3404.947333,3370.820191,9548.656652
914.645234,2368.659014,4979.620737,11251.130318
914.645564,1554.432478,4519.963438,12213.398043
914.645893,0.000000,2834.553343,12805.562797
914.646222,-962.267725,1532.190996,12657.521608
914.646552,-1850.514855,-919.314598,11843.295072
914.646881,-1776.494261,-2374.896044,11103.089130
914.647211,-1036.288319,-2068.457845,9696.697840
914.647540,370.102971,-1838.629195,8290.306550
914.647869,2220.617826,-2145.067394,7624.121203
914.648199,4219.173869,-689.485948,7254.018232
914.648528,5181.441594,1149.143247,7105.977043
914.648857,4885.359217,2298.286494,7698.141797
914.649187,4367.215058,3217.601092,8956.491898
914.649516,3478.967927,4366.744339,9844.739029
914.649845,2590.720797,3830.477490,11103.089130
914.650175,2294.638420,2834.553343,11695.253884
914.650504,1110.308913,536.266849,11621.233289
914.650833,296.082377,-306.438199,10584.944971
914.651163,-444.123565,-1532.190996,10807.006753
914.651492,-1036.288319,-1455.581446,10584.944971
914.651821,-666.185348,-1302.362347,10955.047942
914.652151,-296.082377,-306.438199,10510.924376
914.652480,962.267725,229.828649,9252.574275
914.652809,1998.556043,612.876398,8142.265362
914.653139,3034.844362,689.485948,7772.162391
914.653468,3997.112087,612.876398,7846.182985
914.653797,3997.112087,612.876398,7846.182985
914.654127,3108.864956,1225.752797,8364.327145
914.654456,2590.720797,1685.410096,9178.553681
914.654785,1406.391290,1378.971896,9844.739029
914.655115,518.144159,1302.362347,10436.903782
914.655444,0.000000,1685.410096,10436.903782
914.655773,0.000000,1685.410096,10436.903782
914.656103,222.061783,1685.410096,10288.862594
914.656432,0.000000,1915.238745,9696.697840
914.656761,148.041188,1532.190996,8586.388927
914.657091,444.123565,766.095498,8216.285956
914.657420,1184.329507,383.047749,8216.285956
914.657749,1036.288319,1455.581446,8808.450710
914.658079,296.082377,995.924147,8956.491898
914.658408,-1406.391290,459.657299,9030.512492
914.658737,-2516.700203,459.657299,9844.739029
914.659067,-3034.844362,766.095498,11103.089130
914.659396,-3330.926739,383.047749,11843.295072
914.659725,-3775.050304,76.609550,11695.253884
914.660055,-3404.947333,0.000000,11251.130318
914.660384,-2368.659014,-229.828649,10214.842000
914.660713,-518.144159,0.000000,9474.636058
914.661043,1184.329507,383.047749,8882.471304
914.661372,2812.782580,1149.143247,8586.388927
914.661701,3256.906145,2757.943793,8438.347739
914.662031,4367.215058,3983.696590,8068.244768
914.662360,4441.235652,3677.258390,8364.327145
914.662689,3404.947333,3677.258390,9770.718434
914.663019,814.226536,4749.792088,10584.944971
914.663348,-1332.370696,3064.381992,11547.212695
914.663677,-3330.926739,2068.457845,11917.315666
914.664007,-5107.421000,995.924147,10807.006753
914.664336,-5847.626942,-766.095498,9326.594869
914.664665,-5181.441594,-2987.772442,8438.347739
914.664995,-4811.338623,-3600.648841,7328.038826
914.665324,-4145.153275,-2221.676944,7254.018232
914.665653,-2812.782580,-919.314598,7550.100608
914.665983,-1628.453072,229.828649,7846.182985
914.666312,-444.123565,1991.848295,8068.244768
914.666641,1406.391290,3217.601092,7402.059420
914.666971,3552.988522,2987.772442,7698.141797
914.667300,4441.235652,3217.601092,9030.512492
914.667629,3182.885551,3447.429741,10807.006753
914.667959,814.226536,3447.429741,12213.398043
914.668288,-1110.308913,3830.477490,12879.583391
914.668617,-2590.720797,1762.019645,12213.398043
914.668947,-3108.864956,383.047749,11843.295072
914.669276,-3034.844362,-1455.581446,10807.006753
914.669605,-2664.741391,-2528.115143,9474.636058
914.669935,-2886.803174,-1991.848295,8808.450710
914.670264,-2368.659014,-1072.533697,8068.244768
914.670593,-1702.473667,0.000000,8142.265362
914.670923,-592.164754,306.438199,8216.285956
914.671252,666.185348,1149.143247,7476.080014
914.671582,1776.494261,1838.629195,7105.977043
914.671911,3701.029710,919.314598,8068.244768
914.672240,3330.926739,1532.190996,9918.759623
914.672570,962.267725,2451.505594,11473.192101
914.672899,-1776.494261,2834.553343,12731.542202
914.673228,-3478.967927,2757.943793,13397.727550
914.673558,-4219.173869,2374.896044,12509.480420
914.673887,-4589.276840,-306.438199,11029.068536
914.674216,-4367.215058,-2374.896044,10362.883188
914.674546,-4219.173869,-2068.457845,9030.512492
914.674875,-3701.029710,-1608.800546,7550.100608
914.675204,-2294.638420,-1532.190996,6809.894666
914.675534,-666.185348,-459.657299,6069.688724
914.675863,814.226536,1532.190996,4515.256246
914.676192,3330.926739,612.876398,4515.256246
914.676522,5477.523971,919.314598,6143.709319
914.676851,5181.441594,2604.724693,8734.430116
914.677180,2368.659014,2834.553343,11769.274478
914.677510,-1628.453072,4290.134789,14211.954086
914.677839,-4811.338623,4979.620737,15174.221811
914.678168,-5921.647536,3370.820191,14359.995275
914.678498,-6365.771101,-306.438199,12361.439231
914.678827,-5773.606348,-3217.601092,11399.171507
914.679156,-5773.606348,-4903.011187,9992.780217
914.679486,-5329.482782,-3447.429741,8290.306550
914.679815,-3330.926739,-1762.019645,7105.977043
914.680144,-518.144159,-995.924147,6291.750507
914.680474,1924.535449,76.609550,5329.482782
914.680803,4885.359217,1838.629195,5403.503377
914.681132,6883.915261,3064.381992,6365.771101
914.681462,7254.018232,3600.648841,7994.224174
914.681791,5033.400406,5132.839837,10955.047942
914.682120,1406.391290,5132.839837,13249.686362
914.682449,-1850.514855,4443.353888,14285.974681
914.682779,-3997.112087,2911.162892,14285.974681
914.683108,-5699.585753,995.924147,13323.706956
914.683437,-5847.626942,-2068.457845,11991.336260
914.683766,-5847.626942,-4060.306139,11251.130318
914.684095,-4737.318029,-2911.162892,9178.553681
914.684425,-2960.823768,-1838.629195,6883.915261
914.684754,-1258.350101,-1455.581446,5033.400406
914.685083,814.226536,0.000000,4885.359217
914.685412,2738.761985,1225.752797,5403.503377
914.685742,4071.132681,3524.039291,5477.523971
914.686071,4959.379811,4749.792088,7105.977043
914.686400,4145.153275,3753.867940,9400.615463
914.686729,814.226536,4060.306139,11769.274478
914.687058,-2516.700203,3064.381992,13619.789333
914.687388,-4737.318029,2528.115143,14063.912898
914.687717,-5329.482782,2298.286494,12509.480420
914.688046,-5551.544565,-689.485948,10955.047942
914.688375,-4589.276840,-3294.210641,10140.821405
914.688704,-3256.906145,-4060.306139,9622.677246
914.689034,-2220.617826,-1838.629195,8142.265362
914.689363,-814.226536,229.828649,6809.894666
914.689692,888.247130,1072.533697,6661.853478
914.690021,2960.823768,2145.067394,7550.100608
914.690350,4885.359217,2604.724693,8216.285956
914.690680,5625.565159,3830.477490,8364.327145
914.691009,4589.276840,4213.525239,8808.450710
914.691338,1850.514855,4213.525239,10288.862594
914.691667,-2072.576638,3524.039291,12435.459826
914.691997,-4959.379811,2757.943793,12805.562797
914.692326,-6513.812290,1302.362347,12213.398043
914.692655,-6661.853478,-1225.752797,11103.089130
914.692984,-6291.750507,-2987.772442,10362.883188
914.693313,-5699.585753,-3907.087040,9252.574275
914.693643,-4441.235652,-3447.429741,8290.306550
914.693972,-2516.700203,-1838.629195,7328.038826
914.694301,-518.144159,766.095498,7254.018232
914.694630,1184.329507,2681.334243,6883.915261
914.694959,3849.070898,3677.258390,6809.894666
914.695289,5699.585753,3370.820191,7031.956449
914.695618,6291.750507,3753.867940,8734.430116
914.695947,4145.153275,4366.744339,10881.027347
914.696276,296.082377,4826.401637,12731.542202
914.696605,-3627.009116,3983.696590,13841.851115
914.696935,-5847.626942,2911.162892,13397.727550
914.697264,-5699.585753,383.047749,11473.192101
914.697593,-4589.276840,-2987.772442,9548.656652
914.697922,-3775.050304,-4366.744339,8290.306550
914.698252,-3182.885551,-3677.258390,7105.977043
914.698581,-2664.741391,-2298.286494,7179.997637
914.698910,-1628.453072,383.047749,7624.121203
914.699239,-518.144159,2145.067394,7920.203579
914.699568,1332.370696,2911.162892,8364.327145
914.699898,3775.050304,2145.067394,7920.203579
914.700227,4811.338623,2604.724693,8290.306550
914.700556,3997.112087,2987.772442,10214.842000
914.700885,1406.391290,3217.601092,12435.459826
914.701214,-1702.473667,4749.792088,13175.665768
914.701544,-3701.029710,3524.039291,12361.439231
914.701873,-4219.173869,919.314598,11251.130318
914.702202,-3997.112087,-1532.190996,9992.780217
914.702531,-3478.967927,-2757.943793,9030.512492
914.702861,-3108.864956,-2911.162892,7772.162391
914.703190,-2294.638420,-1991.848295,7031.956449
914.703519,-888.247130,-612.876398,6661.853478
914.703848,74.020594,76.609550,7105.977043
914.704177,814.226536,1685.410096,7105.977043
914.704507,2664.741391,2451.505594,7179.997637
914.704836,4219.173869,1838.629195,8068.244768
914.705165,4071.132681,2681.334243,10214.842000
914.705494,1036.288319,3370.820191,12213.398043
914.705823,-2368.659014,3447.429741,13989.892304
914.706153,-4589.276840,3370.820191,13841.851115
914.706482,-5329.482782,2221.676944,12435.459826
914.706811,-5033.400406,-1685.410096,10362.883188
914.707140,-4737.318029,-3830.477490,9474.636058
914.707469,-4515.256246,-4213.525239,8216.285956
914.707799,-3404.947333,-3294.210641,7624.121203
914.708128,-1702.473667,-1991.848295,7254.018232
914.708457,-592.164754,0.000000,7402.059420
914.708786,1036.288319,1378.971896,6513.812290
914.709116,3034.844362,1915.238745,7105.977043
914.709445,5477.523971,2451.505594,8068.244768
914.709774,5625.565159,3600.648841,9770.718434
914.710103,2960.823768,3677.258390,11843.295072
914.710432,-962.267725,3140.991542,13471.748144
914.710762,-3849.070898,3983.696590,13915.871710
914.711091,-5255.462188,3217.601092,13323.706956
914.711420,-5625.565159,0.000000,11473.192101
914.711749,-5107.421000,-3140.991542,9548.656652
914.712078,-5033.400406,-3907.087040,8216.285956
914.712408,-4145.153275,-3524.039291,7031.956449
914.712737,-3404.947333,-1991.848295,6365.771101
914.713066,-2220.617826,689.485948,5329.482782
914.713395,-370.102971,2451.505594,4737.318029
914.713724,1998.556043,1685.410096,5921.647536
914.714054,4367.215058,2604.724693,7328.038826
914.714383,4219.173869,3677.258390,9474.636058
914.714712,1480.411884,4290.134789,11843.295072
914.715041,-2220.617826,4903.011187,14211.954086
914.715371,-4737.318029,4366.744339,15026.180623
914.715700,-5329.482782,2451.505594,13545.768739
914.716029,-4811.338623,306.438199,11621.233289
914.716358,-4071.132681,-2298.286494,9030.512492
914.716687,-2590.720797,-4060.306139,8290.306550
914.717017,-1628.453072,-3830.477490,7624.121203
914.717346,-1776.494261,-919.314598,7254.018232
914.717675,-740.205942,383.047749,7031.956449
914.718004,962.267725,2451.505594,7624.121203
914.718333,3108.864956,3140.991542,8290.306550
914.718663,5107.421000,4060.306139,8216.285956
914.718992,6217.729913,3677.258390,8438.347739
914.719321,5181.441594,3370.820191,10214.842000
914.719650,1850.514855,4366.744339,12435.459826
914.719980,-1998.556043,4596.572988,13027.624579
914.720309,-4811.338623,3907.087040,12731.542202
914.720638,-5551.544565,919.314598,11547.212695
914.720967,-5403.503377,-1378.971896,10214.842000
914.721296,-5033.400406,-3447.429741,9844.739029
914.721626,-5255.462188,-3447.429741,8512.368333
914.721955,-4515.256246,-2528.115143,7105.977043
914.722284,-2738.761985,-1072.533697,6883.915261
914.722613,-592.164754,995.924147,7402.059420
914.722942,1110.308913,1915.238745,7254.018232
914.723272,2960.823768,3294.210641,6513.812290
914.723601,5329.482782,3064.381992,6587.832884
914.723930,5551.544565,2834.553343,8660.409521
914.724259,3034.844362,4060.306139,11769.274478
914.724588,-962.267725,4290.134789,13175.665768
914.724918,-3627.009116,3983.696590,13323.706956
914.725247,-4737.318029,2451.505594,12879.583391
914.725576,-4293.194464,0.000000,11399.171507
914.725905,-3627.009116,-3600.648841,10140.821405
914.726235,-2960.823768,-5209.449386,8882.471304
914.726564,-2738.761985,-2911.162892,7328.038826
914.726893,-2072.576638,-1378.971896,7772.162391
914.727222,-1110.308913,153.219100,8586.388927
914.727551,-296.082377,2145.067394,7920.203579
914.727881,1184.329507,2681.334243,7031.956449
914.728210,4515.256246,2145.067394,7624.121203
914.728539,5107.421000,1991.848295,9400.615463
914.728868,2886.803174,2604.724693,11325.150913
914.729197,-1110.308913,2911.162892,12953.603985
914.729527,-4293.194464,3600.648841,13693.809927
914.729856,-5403.503377,3447.429741,12287.418637
914.730185,-4663.297435,-229.828649,10732.986159
914.730514,-4441.235652,-3907.087040,9178.553681
914.730843,-4145.153275,-4290.134789,8216.285956
914.731173,-3182.885551,-3447.429741,7920.203579
914.731502,-2812.782580,-1685.410096,7550.100608
914.731831,-1628.453072,536.266849,7624.121203
914.732160,-592.164754,2757.943793,7031.956449
914.732490,2072.576638,2528.115143,6809.894666
914.732819,4663.297435,1991.848295,7328.038826
914.733148,5773.606348,2681.334243,8438.347739
914.733477,3256.906145,2987.772442,10732.986159
914.733806,-962.267725,3677.258390,13471.748144
914.734136,-4811.338623,5056.230287,13915.871710
914.734465,-5921.647536,4136.915689,12657.521608
914.734794,-4737.318029,-306.438199,10881.027347
914.735123,-3404.947333,-3753.867940,9622.677246
914.735452,-3404.947333,-5056.230287,8586.388927
914.735782,-3701.029710,-3830.477490,7920.203579
914.736111,-3182.885551,-1378.971896,7254.018232
914.736440,-1998.556043,612.876398,6957.935855
914.736769,296.082377,1608.800546,6735.874072
914.737099,2812.782580,1072.533697,7846.182985
914.737428,4885.359217,2604.724693,9104.533087
914.737757,5477.523971,4290.134789,9030.512492
914.738086,4071.132681,4903.011187,9844.739029
914.738415,1110.308913,4136.915689,11843.295072
914.738745,-1480.411884,3370.820191,13249.686362
914.739074,-3627.009116,2528.115143,13397.727550
914.739403,-5033.400406,1685.410096,12213.398043
914.739732,-5847.626942,-459.657299,10436.903782
914.740061,-5847.626942,-2681.334243,9622.677246
914.740391,-5033.400406,-3600.648841,8216.285956
914.740720,-4293.194464,-4060.306139,6661.853478
914.741049,-2738.761985,-2145.067394,6291.750507
914.741378,-1628.453072,153.219100,6883.915261
914.741707,-444.123565,1915.238745,7031.956449
914.742037,1776.494261,2757.943793,6957.935855
914.742366,4293.194464,2604.724693,7550.100608
914.742695,4663.297435,3140.991542,9696.697840
914.743024,2368.659014,3907.087040,11843.295072
914.743354,-1258.350101,3983.696590,13767.830521
914.743683,-3923.091493,4213.525239,13915.871710
914.744012,-5033.400406,2987.772442,11843.295072
914.744341,-4071.132681,0.000000,10584.944971
914.744670,-2738.761985,-3064.381992,9992.780217
914.745000,-2368.659014,-3753.867940,9104.533087
914.745329,-2516.700203,-2757.943793,7772.162391
914.745658,-2294.638420,-1149.143247,7031.956449
914.745987,-1406.391290,1991.848295,7105.977043
914.746316,-222.061783,2298.286494,7624.121203
914.746646,1554.432478,2221.676944,7994.224174
914.746975,3182.885551,2911.162892,8364.327145
914.747304,2960.823768,2987.772442,8586.388927
914.747633,1924.535449,2604.724693,10066.800811
914.747962,-1702.473667,2834.553343,11473.192101
914.748292,-3849.070898,2681.334243,12435.459826
914.748621,-4293.194464,1302.362347,12287.418637
914.748950,-3997.112087,-229.828649,11473.192101
914.749279,-3256.906145,-1149.143247,9696.697840
914.749609,-2738.761985,-2987.772442,9326.594869
914.749938,-2368.659014,-2451.505594,8586.388927
914.750267,-1776.494261,-459.657299,7772.162391
914.750596,-148.041188,1149.143247,7846.182985
914.750925,888.247130,1838.629195,8290.306550
914.751255,2072.576638,2528.115143,8290.306550
914.751584,3775.050304,2298.286494,7846.182985
914.751913,4663.297435,2374.896044,8216.285956
914.752242,3775.050304,3447.429741,9548.656652
914.752571,814.226536,3677.258390,10732.986159
914.752901,-2220.617826,3830.477490,12139.377449
914.753230,-3997.112087,3217.601092,12139.377449
914.753559,-4663.297435,1378.971896,11177.109724
914.753888,-4959.379811,-842.705048,10436.903782
914.754217,-4811.338623,-1838.629195,9474.636058
914.754547,-5033.400406,-3064.381992,8586.388927
914.754876,-4145.153275,-3064.381992,8068.244768
914.755205,-2664.741391,-995.924147,8290.306550
914.755534,-1184.329507,689.485948,8660.409521
914.755864,370.102971,1608.800546,8512.368333
914.756193,2590.720797,2757.943793,8364.327145
914.756522,4811.338623,2451.505594,8364.327145
914.756851,5329.482782,2528.115143,9548.656652
914.757180,3478.967927,3907.087040,11251.130318
914.757510,444.123565,4903.011187,12361.439231
914.757839,-1776.494261,4366.744339,11843.295072
914.758168,-2960.823768,2145.067394,10807.006753
914.758497,-2960.823768,-689.485948,9844.739029
914.758826,-3404.947333,-3064.381992,9400.615463
914.759156,-3997.112087,-3370.820191,8956.491898
914.759485,-4219.173869,-2298.286494,7698.141797
914.759814,-3108.864956,-1915.238745,7402.059420
914.760143,-2220.617826,-689.485948,7846.182985
914.760473,-1036.288319,1149.143247,8216.285956
914.760802,962.267725,2911.162892,8142.265362
914.761131,2738.761985,2757.943793,7476.080014
914.761460,3627.009116,2681.334243,7920.203579
914.761789,2072.576638,2528.115143,10288.862594
914.762119,-1036.288319,2681.334243,12287.418637
914.762448,-3997.112087,2834.553343,13471.748144
914.762777,-5329.482782,2451.505594,12805.562797
914.763106,-5551.544565,229.828649,10807.006753
914.763435,-4515.256246,-2834.553343,9770.718434
914.763765,-3701.029710,-4213.525239,8956.491898
914.764094,-3034.844362,-3370.820191,8364.327145
914.764423,-1850.514855,-1302.362347,8142.265362
914.764752,-888.247130,536.266849,8142.265362
914.765081,814.226536,1838.629195,7994.224174
914.765411,2442.679609,2221.676944,8364.327145
914.765740,4737.318029,2298.286494,8290.306550
914.766069,5699.585753,2604.724693,8660.409521
914.766398,4441.235652,3064.381992,9992.780217
914.766728,1110.308913,3524.039291,12287.418637
914.767057,-1924.535449,3140.991542,13101.645173
914.767386,-3997.112087,2681.334243,13027.624579
914.767715,-5477.523971,1532.190996,11769.274478
914.768044,-5773.606348,-842.705048,10510.924376
914.768374,-5551.544565,-2757.943793,9400.615463
914.768703,-5255.462188,-4060.306139,8142.265362
914.769032,-4663.297435,-2604.724693,6883.915261
914.769361,-3182.885551,-1378.971896,6587.832884
914.769690,-1850.514855,229.828649,6513.812290
914.770020,-296.082377,2911.162892,5921.647536
914.770349,2072.576638,2298.286494,6143.709319
914.770678,4811.338623,1608.800546,7550.100608
914.771007,4367.215058,2911.162892,9474.636058
914.771336,1184.329507,3983.696590,11991.336260
914.771666,-2368.659014,4290.134789,13989.892304
914.771995,-4071.132681,4213.525239,14063.912898
914.772324,-4589.276840,2834.553343,12731.542202
914.772653,-3775.050304,-1072.533697,10955.047942
914.772983,-2960.823768,-3294.210641,9622.677246
914.773312,-2368.659014,-2987.772442,8882.471304
914.773641,-2072.576638,-2374.896044,7994.224174
914.773970,-888.247130,-689.485948,7402.059420
914.774299,-148.041188,1378.971896,7254.018232
914.774629,1406.391290,1608.800546,7550.100608
914.774958,3256.906145,2451.505594,8068.244768
914.775287,4885.359217,3907.087040,8734.430116
914.775616,4737.318029,3600.648841,9252.574275
914.775945,2146.597232,3600.648841,11029.068536
914.776275,-1258.350101,4136.915689,12435.459826
914.776604,-3701.029710,3677.258390,12805.562797
914.776933,-4959.379811,1991.848295,12583.501014
914.777262,-5033.400406,76.609550,10881.027347
914.777592,-5255.462188,-1532.190996,9918.759623
914.777921,-4737.318029,-2604.724693,9178.553681
914.778250,-3849.070898,-2451.505594,7698.141797
914.778579,-2664.741391,-1532.190996,6513.812290
914.778908,-1110.308913,-689.485948,6217.729913
914.779238,222.061783,1149.143247,7254.018232
914.779567,2072.576638,2604.724693,7476.080014
914.779896,3701.029710,2757.943793,7402.059420
914.780225,4959.379811,2757.943793,7994.224174
914.780554,3997.112087,2757.943793,9696.697840
914.780884,1110.308913,4060.306139,11917.315666
914.781213,-1998.556043,3907.087040,13323.706956
914.781543,-3627.009116,3524.039291,13175.665768
914.781872,-4515.256246,1455.581446,11621.233289
914.782202,-4219.173869,-1225.752797,10288.862594
914.782531,-3478.967927,-3677.258390,9770.718434
914.782861,-2738.761985,-3447.429741,9104.533087
914.783190,-2590.720797,-2068.457845,8290.306550
914.783520,-2294.638420,0.000000,7846.182985
914.783849,-814.226536,1072.533697,8142.265362
914.784179,1480.411884,1455.581446,8438.347739
914.784508,2886.803174,2068.457845,7994.224174
914.784838,4515.256246,2374.896044,8438.347739
914.785167,3997.112087,2528.115143,9770.718434
914.785497,1332.370696,3217.601092,11621.233289
914.785826,-1924.535449,3677.258390,12287.418637
914.786156,-3849.070898,2757.943793,11917.315666
914.786485,-4367.215058,1149.143247,11769.274478
914.786815,-4441.235652,-1072.533697,10658.965565
914.787144,-4737.318029,-2451.505594,9474.636058
914.787474,-4219.173869,-2911.162892,8734.430116
914.787803,-2590.720797,-2374.896044,7550.100608
914.788133,-1850.514855,-536.266849,7105.977043
914.788462,-370.102971,459.657299,7254.018232
914.788792,592.164754,1915.238745,7402.059420
914.789121,1998.556043,2374.896044,7550.100608
914.789451,3552.988522,2834.553343,8142.265362
914.789780,3849.070898,2757.943793,9474.636058
914.790110,1702.473667,2987.772442,11177.109724
914.790439,-1258.350101,3447.429741,12139.377449
914.790769,-3627.009116,3217.601092,12065.356855
914.791098,-4219.173869,2221.676944,11473.192101
914.791428,-3552.988522,-383.047749,10584.944971
914.791757,-3552.988522,-2374.896044,9474.636058
914.792087,-3923.091493,-2911.162892,9030.512492
914.792416,-3256.906145,-2145.067394,8216.285956
914.792746,-2146.597232,-995.924147,7772.162391
914.793075,-888.247130,306.438199,7402.059420
914.793405,592.164754,1072.533697,8068.244768
914.793734,2442.679609,1838.629195,8734.430116
914.794064,4071.132681,2068.457845,9178.553681
914.794393,4145.153275,2374.896044,9696.697840
914.794723,2812.782580,3830.477490,10807.006753
914.795052,-518.144159,3370.820191,11843.295072
914.795382,-2664.741391,2834.553343,12805.562797
914.795711,-3849.070898,1685.410096,12657.521608
914.796041,-4737.318029,459.657299,11547.212695
914.796370,-4959.379811,-1225.752797,10288.862594
914.796700,-5033.400406,-2528.115143,8956.491898
914.797029,-3849.070898,-2681.334243,8438.347739
914.797359,-2442.679609,-2068.457845,7254.018232
914.797688,-1258.350101,-689.485948,6883.915261
914.798018,74.020594,1072.533697,7105.977043
914.798347,1554.432478,1991.848295,7402.059420
914.798677,3404.947333,2757.943793,7328.038826
914.799006,4441.235652,2757.943793,8142.265362
914.799336,3404.947333,3370.820191,9622.677246
914.799665,666.185348,3677.258390,12065.356855
914.799995,-2516.700203,3217.601092,13545.768739
914.800324,-5033.400406,3830.477490,13693.809927
914.800654,-6365.771101,1838.629195,11843.295072
914.800983,-6069.688724,-766.095498,10288.862594
914.801313,-5403.503377,-3140.991542,9178.553681
914.801642,-4515.256246,-3753.867940,7772.162391
914.801972,-3182.885551,-3064.381992,6735.874072
914.802301,-1702.473667,-2068.457845,6883.915261
914.802631,-148.041188,76.609550,7031.956449
914.802960,1850.514855,1532.190996,7920.203579
914.803290,4293.194464,2068.457845,8660.409521
914.803619,6069.688724,3600.648841,8956.491898
914.803949,5551.544565,4443.353888,10140.821405
914.804278,3404.947333,5362.668486,11769.274478
914.804608,518.144159,5056.230287,12953.603985
914.804937,-1554.432478,3294.210641,13323.706956
914.805267,-3256.906145,1762.019645,12435.459826
914.805596,-4367.215058,0.000000,11177.109724
914.805926,-4885.359217,-1991.848295,9918.759623
914.806255,-5033.400406,-2757.943793,8660.409521
914.806585,-4219.173869,-2604.724693,7105.977043
914.806914,-2516.700203,-1762.019645,5995.668130
914.807244,-962.267725,-383.047749,6291.750507
914.807573,444.123565,1072.533697,6809.894666
914.807903,1702.473667,2451.505594,7476.080014
914.808232,2368.659014,3217.601092,8068.244768
914.808562,2368.659014,4213.525239,8882.471304
914.808891,1258.350101,3907.087040,11103.089130
914.809221,-1036.288319,4366.744339,12657.521608
914.809550,-3108.864956,3600.648841,13249.686362
914.809880,-3923.091493,2145.067394,12435.459826
914.810209,-3849.070898,229.828649,11103.089130
914.810539,-3552.988522,-1302.362347,9918.759623
914.810868,-3182.885551,-2374.896044,9622.677246
914.811198,-2368.659014,-2374.896044,8512.368333
914.811527,-1184.329507,-995.924147,7772.162391
914.811857,444.123565,612.876398,7476.080014
914.812186,2294.638420,1915.238745,7550.100608
914.812516,3849.070898,2145.067394,7550.100608
914.812845,4367.215058,2451.505594,8068.244768
914.813175,4589.276840,2834.553343,8956.491898
914.813504,3108.864956,3370.820191,10658.965565
914.813834,222.061783,3753.867940,12361.439231
914.814163,-2590.720797,3907.087040,12953.603985
914.814493,-4589.276840,1991.848295,12287.418637
914.814822,-5107.421000,0.000000,11177.109724
914.815152,-5329.482782,-1915.238745,10436.903782
914.815481,-5477.523971,-2451.505594,9696.697840
914.815811,-4663.297435,-2911.162892,8882.471304
914.816140,-3330.926739,-2374.896044,7328.038826
914.816470,-1776.494261,-919.314598,6661.853478
914.816799,0.000000,153.219100,6661.853478
914.817129,1850.514855,1685.410096,7105.977043
914.817458,3552.988522,2374.896044,7031.956449
914.817788,4515.256246,2911.162892,8068.244768
914.818117,3552.988522,2834.553343,9770.718434
914.818447,888.247130,3294.210641,11843.295072
914.818776,-2220.617826,3753.867940,13323.706956
914.819106,-3849.070898,3524.039291,13027.624579
914.819435,-3775.050304,1838.629195,11769.274478
914.819765,-3627.009116,-1685.410096,10140.821405
914.820094,-3182.885551,-3370.820191,9326.594869
914.820424,-2738.761985,-3600.648841,8734.430116
914.820753,-2442.679609,-2298.286494,8364.327145
914.821083,-1480.411884,0.000000,8290.306550
914.821412,0.000000,1072.533697,8216.285956
914.821742,1406.391290,1608.800546,8364.327145
914.822071,3108.864956,1762.019645,8586.388927
914.822401,4367.215058,2451.505594,9326.594869
914.822730,3552.988522,3677.258390,10066.800811
914.823060,888.247130,3830.477490,11251.130318
914.823389,-1924.535449,3524.039291,12583.501014
914.823719,-3997.112087,2451.505594,12731.542202
914.824048,-4811.338623,689.485948,11917.315666
914.824378,-5181.441594,-689.485948,10140.821405
914.824707,-5625.565159,-2451.505594,9400.615463
914.825037,-5033.400406,-2911.162892,8512.368333
914.825366,-3627.009116,-2834.553343,7624.121203
914.825696,-1998.556043,-1455.581446,6661.853478
914.826025,-518.144159,-153.219100,6513.812290
914.826355,1554.432478,1072.533697,6513.812290
914.826684,2812.782580,2221.676944,7254.018232
914.827014,4219.173869,2987.772442,7698.141797
914.827343,3997.112087,3370.820191,8956.491898
914.827673,2072.576638,4213.525239,10658.965565
914.828002,-444.123565,3677.258390,12583.501014
914.828332,-2812.782580,2528.115143,13175.665768
914.828661,-4737.318029,2068.457845,12657.521608
914.828991,-5033.400406,459.657299,11473.192101
914.829320,-4737.318029,-1685.410096,10288.862594
914.829650,-3997.112087,-3447.429741,9178.553681
914.829979,-3478.967927,-2911.162892,8068.244768
914.830309,-2368.659014,-2451.505594,7179.997637
914.830638,-814.226536,-612.876398,7624.121203
914.830968,370.102971,1302.362347,8068.244768
914.831297,1850.514855,2451.505594,8142.265362
914.831627,3923.091493,2681.334243,8290.306550
914.831956,4737.318029,2911.162892,9400.615463
914.832286,3404.947333,3907.087040,11621.233289
914.832615,444.123565,4366.744339,12805.562797
914.832945,-2294.638420,4443.353888,13101.645173
914.833274,-3627.009116,2911.162892,11991.336260
914.833604,-4293.194464,0.000000,11177.109724
914.833933,-4367.215058,-1762.019645,10140.821405
914.834263,-4367.215058,-2757.943793,9252.574275
914.834592,-4071.132681,-2834.553343,8290.306550
914.834922,-2738.761985,-1838.629195,7179.997637
914.835251,-1332.370696,-536.266849,7031.956449
914.835581,0.000000,612.876398,6661.853478
914.835910,1776.494261,1991.848295,7105.977043
914.836240,3404.947333,3217.601092,7328.038826
914.836569,4441.235652,3677.258390,7994.224174
914.836899,3552.988522,3907.087040,9400.615463
914.837228,888.247130,4749.792088,11547.212695
914.837558,-2220.617826,4136.915689,12287.418637
914.837887,-4145.153275,3140.991542,12287.418637
914.838217,-4663.297435,1762.019645,11325.150913
914.838546,-4293.194464,-689.485948,10288.862594
914.838876,-4367.215058,-2911.162892,9400.615463
914.839205,-4219.173869,-3524.039291,8586.388927
914.839535,-3552.988522,-1991.848295,7772.162391
914.839864,-1998.556043,-919.314598,7772.162391
914.840194,148.041188,919.314598,7994.224174
914.840523,1702.473667,2068.457845,7846.182985
914.840853,3330.926739,2451.505594,8068.244768
914.841182,4589.276840,2604.724693,8956.491898
914.841512,4367.215058,3600.648841,10955.047942
914.841841,1850.514855,4596.572988,12731.542202
914.842171,-1258.350101,4979.620737,13323.706956
914.842500,-3478.967927,3600.648841,13027.624579
914.842830,-4219.173869,1685.410096,11843.295072
914.843159,-4441.235652,-995.924147,10881.027347
914.843489,-4515.256246,-2987.772442,9844.739029
914.843818,-4737.318029,-3217.601092,8882.471304
914.844148,-4737.318029,-2221.676944,7402.059420
914.844477,-3034.844362,-1072.533697,6809.894666
914.844807,-1110.308913,-766.095498,6809.894666
914.845136,666.185348,612.876398,7105.977043
914.845466,2294.638420,2451.505594,7698.141797
914.845795,3775.050304,3217.601092,7772.162391
914.846125,3849.070898,3753.867940,8438.347739
914.846454,2368.659014,4060.306139,9770.718434
914.846784,0.000000,3830.477490,11473.192101
914.847113,-2220.617826,3294.210641,12213.398043
914.847443,-3775.050304,2528.115143,11547.212695
914.847772,-3849.070898,459.657299,10584.944971
914.848102,-4219.173869,-1762.019645,9548.656652
914.848431,-4219.173869,-3064.381992,9326.594869
914.848761,-3701.029710,-3370.820191,8512.368333
914.849090,-2442.679609,-2298.286494,7328.038826
914.849420,-1184.329507,-459.657299,7550.100608
914.849749,444.123565,995.924147,7920.203579
914.850079,1924.535449,1455.581446,8808.450710
914.850408,3627.009116,1915.238745,9252.574275
914.850738,3849.070898,3217.601092,9548.656652
914.851067,3034.844362,3753.867940,10807.006753
914.851397,888.247130,3370.820191,11991.336260
914.851726,-1480.411884,2911.162892,13175.665768
914.852056,-2738.761985,1685.410096,13027.624579
914.852385,-3404.947333,76.609550,11843.295072
914.852715,-4145.153275,-1532.190996,10362.883188
914.853044,-4737.318029,-2604.724693,9696.697840
914.853374,-4441.235652,-2757.943793,9252.574275
914.853703,-3182.885551,-2068.457845,8290.306550
914.854033,-1924.535449,-536.266849,6883.915261
914.854362,0.000000,995.924147,7105.977043
914.854692,1850.514855,1608.800546,7105.977043
914.855021,2368.659014,2451.505594,7846.182985
914.855351,2516.700203,3064.381992,7994.224174
914.855680,1110.308913,4136.915689,8512.368333
914.856010,-888.247130,3907.087040,10066.800811
914.856339,-3404.947333,3370.820191,11621.233289
914.856669,-5255.462188,1532.190996,12213.398043
914.856998,-5551.544565,0.000000,11399.171507
914.857328,-5255.462188,-1532.190996,9992.780217
914.857657,-4219.173869,-2911.162892,9548.656652
914.857987,-3034.844362,-3294.210641,8956.491898
914.858316,-2368.659014,-2911.162892,8068.244768
914.858646,-814.226536,-383.047749,7698.141797
914.858975,1110.308913,1608.800546,7994.224174
914.859305,2812.782580,2451.505594,8882.471304
914.859634,4589.276840,3524.039291,9030.512492
914.859964,5033.400406,3600.648841,9474.636058
914.860293,4663.297435,3600.648841,10140.821405
914.860623,2664.741391,3983.696590,11325.150913
914.860952,0.000000,3753.867940,11991.336260
914.861282,-2516.700203,2911.162892,11991.336260
914.861611,-3627.009116,1455.581446,11695.253884
914.861941,-4515.256246,0.000000,10658.965565
914.862270,-4811.338623,-1991.848295,9548.656652
914.862600,-5403.503377,-2834.553343,8882.471304
914.862929,-5477.523971,-2068.457845,7772.162391
914.863259,-4293.194464,-1302.362347,7476.080014
914.863588,-2442.679609,-612.876398,7550.100608
914.863918,-740.205942,1455.581446,7698.141797
914.864247,888.247130,2528.115143,7105.977043
914.864577,2812.782580,2528.115143,7476.080014
914.864906,3923.091493,2757.943793,8586.388927
914.865236,2738.761985,4060.306139,10510.924376
914.865565,74.020594,4749.792088,11917.315666
914.865895,-2220.617826,4213.525239,12731.542202
914.866224,-3330.926739,3217.601092,11843.295072
914.866554,-3404.947333,1838.629195,10436.903782
914.866883,-2886.803174,-1685.410096,9474.636058
914.867213,-2812.782580,-2911.162892,8586.388927
914.867542,-2886.803174,-2681.334243,7698.141797
914.867872,-2368.659014,-1685.410096,7772.162391
914.868201,-1184.329507,0.000000,7698.141797
914.868531,370.102971,1532.190996,7328.038826
914.868860,1850.514855,2221.676944,7772.162391
914.869190,3552.988522,2221.676944,8882.471304
914.869519,3775.050304,3064.381992,10140.821405
914.869849,2294.638420,3907.087040,12065.356855
914.870178,-592.164754,4290.134789,13397.727550
914.870508,-3478.967927,4673.182538,13767.830521
914.870837,-4663.297435,2681.334243,12361.439231
914.871167,-4737.318029,-459.657299,10584.944971
914.871496,-4663.297435,-2834.553343,9030.512492
914.871826,-4515.256246,-3677.258390,8438.347739
914.872155,-4145.153275,-4749.792088,8364.327145
914.872485,-3478.967927,-2374.896044,7994.224174
914.872814,-2442.679609,-459.657299,7031.956449
914.873144,-370.102971,76.609550,7105.977043
914.873473,2220.617826,1762.019645,7179.997637
914.873803,3701.029710,3370.820191,7031.956449
914.874132,5329.482782,3524.039291,7920.203579
914.874462,4885.359217,3370.820191,9696.697840
914.874791,2220.617826,3600.648841,11695.253884
914.875121,-1258.350101,3753.867940,13471.748144
914.875450,-4145.153275,3217.601092,13397.727550
914.875780,-5329.482782,2145.067394,12213.398043
914.876109,-4811.338623,-383.047749,10288.862594
914.876439,-4219.173869,-3983.696590,9104.533087
914.876768,-3923.091493,-4903.011187,8142.265362
914.877098,-3404.947333,-3064.381992,7328.038826
914.877427,-2812.782580,-1915.238745,7105.977043
914.877757,-1554.432478,536.266849,7772.162391
914.878086,148.041188,1762.019645,8438.347739
914.878416,2590.720797,1991.848295,8660.409521
914.878745,4663.297435,2757.943793,8882.471304
914.879075,4959.379811,3370.820191,9696.697840
914.879404,3182.885551,3753.867940,11029.068536
914.879734,296.082377,4290.134789,12213.398043
914.880063,-2220.617826,3064.381992,13101.645173
914.880393,-3701.029710,2145.067394,12879.583391
914.880722,-3701.029710,0.000000,11325.150913
914.881052,-3997.112087,-1991.848295,10214.842000
914.881381,-4219.173869,-3140.991542,9252.574275
914.881711,-4219.173869,-2528.115143,7772.162391
914.882040,-3108.864956,-1915.238745,7031.956449
914.882370,-1702.473667,-383.047749,7031.956449
914.882699,-1036.288319,1608.800546,7328.038826
914.883029,148.041188,2528.115143,7476.080014
914.883359,1480.411884,2451.505594,6883.915261
914.883688,2738.761985,2911.162892,7105.977043
914.884018,2220.617826,2451.505594,8512.368333
914.884347,444.123565,2681.334243,10881.027347
914.884677,-2738.761985,2757.943793,12435.459826
914.885007,-5033.400406,2681.334243,12509.480420
914.885336,-5699.585753,1302.362347,11547.212695
914.885666,-5181.441594,-995.924147,10732.986159
914.885996,-3997.112087,-2834.553343,10066.800811
914.886325,-2960.823768,-3600.648841,9104.533087
914.886655,-2146.597232,-1915.238745,8364.327145
914.886984,-1406.391290,76.609550,7920.203579
914.887314,0.000000,919.314598,7920.203579
914.887644,1924.535449,2451.505594,8290.306550
914.887973,3775.050304,1991.848295,8586.388927
914.888303,4959.379811,2604.724693,8956.491898
914.888632,4589.276840,2528.115143,9622.677246
914.888962,2072.576638,3064.381992,11029.068536
914.889292,-1184.329507,3907.087040,11843.295072
914.889621,-3108.864956,2451.505594,12213.398043
914.889951,-4293.194464,995.924147,12213.398043
914.890281,-4885.359217,-536.266849,11251.130318
914.890610,-5033.400406,-1991.848295,9918.759623
914.890940,-4367.215058,-2834.553343,9252.574275
914.891269,-3627.009116,-2757.943793,7846.182985
914.891599,-1924.535449,-995.924147,7328.038826
914.891929,-888.247130,-153.219100,7031.956449
914.892258,222.061783,1455.581446,7179.997637
914.892588,1998.556043,2451.505594,7698.141797
914.892918,3701.029710,3140.991542,7772.162391
914.893247,4367.215058,3294.210641,8290.306550
914.893577,2664.741391,3677.258390,9400.615463
914.893906,0.000000,3677.258390,11103.089130
914.894236,-2590.720797,3217.601092,12361.439231
914.894566,-4293.194464,2374.896044,12287.418637
914.894895,-4737.318029,919.314598,11029.068536
914.895225,-4959.379811,-1149.143247,9622.677246
914.895554,-3997.112087,-2757.943793,8734.430116
914.895884,-2590.720797,-2911.162892,8438.347739
914.896214,-1850.514855,-1378.971896,7994.224174
914.896543,-592.164754,229.828649,7698.141797
914.896873,444.123565,1685.410096,7920.203579
914.897203,1776.494261,2528.115143,8734.430116
914.897532,3256.906145,2757.943793,9622.677246
914.897862,3330.926739,3370.820191,10362.883188
914.898191,1850.514855,4366.744339,11103.089130
914.898521,-148.041188,4749.792088,12139.377449
914.898851,-2442.679609,3370.820191,12435.459826
914.899180,-3330.926739,842.705048,11991.336260
914.899510,-3478.967927,-919.314598,11325.150913
914.899840,-3997.112087,-2221.676944,10584.944971
914.900169,-4737.318029,-1838.629195,9474.636058
914.900499,-4145.153275,-1455.581446,7846.182985
914.900828,-2442.679609,-995.924147,6513.812290
914.901158,-370.102971,-306.438199,5995.668130
914.901488,1332.370696,919.314598,5921.647536
914.901817,2886.803174,2145.067394,6661.853478
914.902147,3256.906145,2911.162892,7920.203579
914.902476,2516.700203,4290.134789,8882.471304
914.902806,1406.391290,4290.134789,9992.780217
914.903136,-814.226536,3370.820191,11325.150913
914.903465,-2368.659014,2681.334243,12953.603985
914.903795,-4219.173869,1915.238745,12953.603985
914.904125,-5107.421000,842.705048,11621.233289
914.904454,-5107.421000,-1302.362347,10140.821405
914.904784,-4811.338623,-2757.943793,9326.594869
914.905113,-3997.112087,-2987.772442,8882.471304
914.905443,-2812.782580,-2834.553343,7550.100608
914.905773,-1184.329507,-1149.143247,7328.038826
914.906102,814.226536,229.828649,7624.121203
914.906432,2442.679609,1455.581446,8290.306550
914.906761,4441.235652,1302.362347,8956.491898
914.907091,4959.379811,2528.115143,9104.533087
914.907421,4293.194464,3140.991542,9992.780217
914.907750,2738.761985,3753.867940,11843.295072
914.908080,592.164754,3217.601092,13101.645173
914.908410,-1480.411884,1991.848295,14137.933492
914.908739,-3182.885551,1225.752797,13619.789333
914.909069,-3849.070898,-306.438199,12361.439231
914.909398,-4145.153275,-1302.362347,10658.965565
914.909728,-4441.235652,-1762.019645,8364.327145
914.910058,-3923.091493,-2068.457845,6069.688724
914.910387,-2294.638420,-1608.800546,4885.359217
914.910717,-666.185348,-1149.143247,5181.441594
914.911047,-592.164754,842.705048,6513.812290
914.911376,-740.205942,2451.505594,7846.182985
914.911706,-370.102971,2987.772442,8068.244768
914.912035,0.000000,2987.772442,8364.327145
914.912365,518.144159,1685.410096,10288.862594
914.912695,-1480.411884,2145.067394,12139.377449
914.913024,-3182.885551,2145.067394,12509.480420
914.913354,-4145.153275,1838.629195,12139.377449
914.913683,-4219.173869,842.705048,11029.068536
914.914013,-3627.009116,-766.095498,10140.821405
914.914343,-3034.844362,-1915.238745,9178.553681
914.914672,-2294.638420,-2145.067394,8512.368333
914.915002,-888.247130,-536.266849,8438.347739
914.915332,592.164754,536.266849,8068.244768
914.915661,1850.514855,995.924147,8142.265362
914.915991,2664.741391,2068.457845,7846.182985
914.916320,3627.009116,1991.848295,8586.388927
914.916650,4219.173869,2528.115143,9622.677246
914.916980,2442.679609,3064.381992,10658.965565
914.917309,-444.123565,4136.915689,11843.295072
914.917639,-2886.803174,2757.943793,11991.336260
914.917969,-4515.256246,1455.581446,12361.439231
914.918298,-5033.400406,306.438199,11991.336260
914.918628,-5773.606348,-766.095498,11621.233289
914.918957,-6735.874072,-1455.581446,10214.842000
914.919287,-6069.688724,-1838.629195,8512.368333
914.919617,-3923.091493,-2374.896044,7254.018232
914.919946,-1332.370696,-1455.581446,6735.874072
914.920276,666.185348,229.828649,6365.771101
914.920605,2368.659014,1532.190996,6365.771101
914.920935,3923.091493,2757.943793,6809.894666
914.921265,4737.318029,3064.381992,7550.100608
914.921594,4293.194464,3907.087040,9178.553681
914.921924,2146.597232,4749.792088,10955.047942
914.922254,-370.102971,4443.353888,11917.315666
914.922583,-1924.535449,3064.381992,12287.418637
914.922913,-2516.700203,1378.971896,11547.212695
914.923242,-2812.782580,-919.314598,10584.944971
914.923572,-3552.988522,-2221.676944,10066.800811
914.923902,-4219.173869,-1991.848295,9548.656652
914.924231,-3478.967927,-1225.752797,9178.553681
914.924561,-1924.535449,-612.876398,8438.347739
914.924890,-592.164754,383.047749,7402.059420
914.925220,1110.308913,1072.533697,7254.018232
914.925550,2664.741391,1532.190996,7994.224174
914.925879,3775.050304,2221.676944,8882.471304
914.926209,2516.700203,3524.039291,9992.780217
914.926539,592.164754,3524.039291,11325.150913
914.926868,-1554.432478,2987.772442,12213.398043
914.927198,-2812.782580,2068.457845,13249.686362
914.927527,-3478.967927,1072.533697,13027.624579
914.927857,-3997.112087,0.000000,11695.253884
914.928187,-4663.297435,-1378.971896,9770.718434
914.928516,-4293.194464,-1685.410096,8882.471304
914.928846,-3108.864956,-1838.629195,7994.224174
914.929176,-1406.391290,-995.924147,7624.121203
914.929505,296.082377,153.219100,6883.915261
914.929835,1776.494261,1991.848295,6291.750507
914.930164,2812.782580,2145.067394,7031.956449
914.930494,3627.009116,2221.676944,8142.265362
914.930824,3256.906145,3294.210641,9104.533087
914.931153,1110.308913,4290.134789,10362.883188
914.931483,-1554.432478,4596.572988,11399.171507
914.931812,-3627.009116,3370.820191,11843.295072
914.932142,-4885.359217,1685.410096,11917.315666
914.932472,-5033.400406,-383.047749,11325.150913
914.932801,-5551.544565,-1378.971896,10288.862594
914.933131,-5551.544565,-1991.848295,9474.636058
914.933461,-4663.297435,-2834.553343,8142.265362
914.933790,-3182.885551,-2604.724693,7624.121203
914.934120,-1258.350101,-1149.143247,7254.018232
914.934449,814.226536,536.266849,7550.100608
914.934779,2590.720797,1608.800546,7994.224174
914.935109,4293.194464,3140.991542,8586.388927
914.935438,4811.338623,3140.991542,9030.512492
914.935768,4441.235652,3370.820191,10066.800811
914.936097,2368.659014,3983.696590,11621.233289
914.936427,0.000000,3524.039291,12361.439231
914.936757,-1332.370696,2145.067394,13249.686362
914.937086,-2960.823768,612.876398,12731.542202
914.937416,-4367.215058,-689.485948,11769.274478
914.937746,-5107.421000,-1685.410096,10436.903782
914.938075,-4663.297435,-2221.676944,8808.450710
914.938405,-3256.906145,-2528.115143,7105.977043
914.938734,-1110.308913,-2221.676944,5477.523971
914.939064,222.061783,-689.485948,5773.606348
914.939394,1628.453072,1072.533697,6513.812290
914.939723,2368.659014,2145.067394,7846.182985
914.940053,2590.720797,3064.381992,8808.450710
914.940383,1776.494261,3753.867940,9844.739029
914.940712,0.000000,3830.477490,10807.006753
914.941042,-1776.494261,3370.820191,12213.398043
914.941371,-3330.926739,2451.505594,12435.459826
914.941701,-4293.194464,536.266849,11843.295072
914.942031,-4515.256246,-1685.410096,11029.068536
914.942360,-4811.338623,-2681.334243,10732.986159
914.942690,-4515.256246,-3064.381992,9696.697840
914.943019,-3478.967927,-2911.162892,7994.224174
914.943349,-1702.473667,-1378.971896,7105.977043
914.943679,518.144159,-229.828649,6661.853478
914.944008,3034.844362,153.219100,6883.915261
914.944338,4219.173869,1532.190996,7846.182985
914.944668,4737.318029,3064.381992,9104.533087
914.944997,3701.029710,4290.134789,10288.862594
914.945327,1702.473667,4749.792088,11769.274478
914.945656,-666.185348,5209.449386,13027.624579
914.945986,-2368.659014,2604.724693,13027.624579
914.946316,-4071.132681,536.266849,12065.356855
914.946645,-4885.359217,-766.095498,11325.150913
914.946975,-5847.626942,-1838.629195,10658.965565
914.947305,-6069.688724,-3064.381992,9696.697840
914.947634,-6069.688724,-2757.943793,7698.141797
914.947964,-3849.070898,-2221.676944,6661.853478
914.948293,-1406.391290,-1225.752797,6513.812290
914.948623,740.205942,76.609550,6661.853478
914.948953,2664.741391,2528.115143,7031.956449
914.949282,3552.988522,3524.039291,7772.162391
914.949612,3404.947333,4213.525239,8586.388927
914.949941,2368.659014,5132.839837,10436.903782
914.950271,370.102971,4903.011187,11843.295072
914.950601,-1998.556043,4136.915689,12065.356855
914.950930,-3182.885551,2374.896044,11695.253884
914.951260,-3701.029710,76.609550,11029.068536
914.951590,-3627.009116,-1072.533697,10288.862594
914.951919,-3923.091493,-1915.238745,9474.636058
914.952249,-3997.112087,-2451.505594,8364.327145
914.952578,-2960.823768,-1838.629195,7624.121203
914.952908,-1258.350101,-306.438199,7772.162391
914.953238,296.082377,689.485948,8290.306550
914.953567,1776.494261,2374.896044,8660.409521
914.953897,2960.823768,2987.772442,8956.491898
914.954226,3923.091493,2757.943793,9326.594869
914.954556,3701.029710,3217.601092,10658.965565
914.954886,1480.411884,3294.210641,11991.336260
914.955215,-814.226536,3140.991542,12953.603985
914.955545,-2368.659014,2451.505594,12509.480420
914.955875,-2960.823768,1302.362347,11399.171507
914.956204,-2812.782580,-459.657299,9326.594869
914.956534,-2738.761985,-2145.067394,8068.244768
914.956863,-2886.803174,-2374.896044,7031.956449
914.957193,-2220.617826,-1225.752797,6735.874072
914.957523,-962.267725,76.609550,7179.997637
914.957852,0.000000,1378.971896,8068.244768
914.958182,74.020594,1991.848295,8216.285956
914.958512,962.267725,3217.601092,8734.430116
914.958841,1924.535449,3524.039291,9030.512492
914.959171,1850.514855,3753.867940,10214.842000
914.959500,0.000000,3524.039291,11029.068536
914.959830,-2886.803174,2834.553343,11399.171507
914.960160,-4441.235652,1838.629195,11547.212695
914.960489,-4515.256246,459.657299,10881.027347
914.960819,-3997.112087,-1455.581446,10214.842000
914.961148,-3849.070898,-3370.820191,9918.759623
914.961478,-3997.112087,-3064.381992,8882.471304
914.961808,-2738.761985,-2145.067394,8586.388927
914.962137,-888.247130,-306.438199,8512.368333
914.962467,1184.329507,995.924147,8216.285956
914.962797,2886.803174,1685.410096,7772.162391
914.963126,4293.194464,2221.676944,8290.306550
914.963456,5847.626942,2528.115143,9030.512492
914.963785,5551.544565,4060.306139,10658.965565
914.964115,2886.803174,4903.011187,11991.336260
914.964445,-222.061783,3907.087040,13175.665768
914.964774,-2812.782580,2681.334243,13027.624579
914.965104,-4293.194464,1302.362347,12065.356855
914.965433,-5033.400406,0.000000,10658.965565
914.965763,-6143.709319,-2221.676944,8734.430116
914.966093,-6661.853478,-4060.306139,7328.038826
914.966422,-6069.688724,-4060.306139,6069.688724
914.966752,-4441.235652,-2987.772442,5033.400406
914.967082,-2146.597232,-2221.676944,5995.668130
914.967411,0.000000,0.000000,7402.059420
914.967741,1406.391290,2145.067394,8660.409521
914.968070,3330.926739,3064.381992,9030.512492
914.968400,4737.318029,4136.915689,9992.780217
914.968730,4145.153275,5132.839837,10955.047942
914.969059,2072.576638,4979.620737,12139.377449
914.969389,0.000000,3677.258390,12435.459826
914.969719,-1702.473667,2451.505594,12287.418637
914.970048,-2516.700203,0.000000,11843.295072
914.970378,-3552.988522,-1838.629195,11251.130318
914.970707,-4663.297435,-2911.162892,10955.047942
914.971037,-4885.359217,-3140.991542,9178.553681
914.971367,-3552.988522,-2451.505594,7476.080014
914.971696,-1480.411884,-1149.143247,6513.812290
914.972026,148.041188,689.485948,5921.647536
914.972355,2072.576638,1302.362347,6587.832884
914.972685,3256.906145,2298.286494,7920.203579
914.973015,3108.864956,3830.477490,9474.636058
914.973344,1850.514855,4519.963438,10955.047942
914.973674,-592.164754,4673.182538,12139.377449
914.974004,-2738.761985,3217.601092,12805.562797
914.974333,-3923.091493,1685.410096,13175.665768
914.974663,-4293.194464,0.000000,12435.459826
914.974992,-5033.400406,-1225.752797,11251.130318
914.975322,-5625.565159,-1838.629195,9844.739029
914.975652,-5107.421000,-2451.505594,7920.203579
914.975981,-3627.009116,-2068.457845,6439.791695
914.976311,-1110.308913,-842.705048,5773.606348
914.976641,888.247130,0.000000,5847.626942
914.976970,2146.597232,1302.362347,6587.832884
914.977300,3256.906145,2757.943793,7328.038826
914.977629,3701.029710,3600.648841,8438.347739
914.977959,2886.803174,4136.915689,9400.615463
914.978289,1258.350101,4290.134789,11029.068536
914.978618,-1036.288319,3524.039291,12287.418637
914.978948,-2738.761985,2298.286494,11991.336260
914.979277,-3627.009116,1608.800546,11843.295072
914.979607,-3775.050304,-383.047749,10955.047942
914.979937,-4367.215058,-2145.067394,10807.006753
914.980266,-5107.421000,-2681.334243,10214.842000
914.980596,-4515.256246,-2298.286494,9326.594869
914.980926,-3627.009116,-919.314598,8068.244768
914.981255,-1406.391290,0.000000,7994.224174
914.981585,740.205942,536.266849,7994.224174
914.981917,2886.803174,1302.362347,8216.285956
914.982246,4737.318029,2374.896044,8142.265362
914.982576,4737.318029,2451.505594,8808.450710
914.982905,2886.803174,3907.087040,10066.800811
914.983234,444.123565,3983.696590,11991.336260
914.983564,-1702.473667,3447.429741,13397.727550
914.983893,-2886.803174,2757.943793,12805.562797
914.984223,-2960.823768,1072.533697,11177.109724
914.984552,-2960.823768,-1378.971896,9770.718434
914.984882,-3478.967927,-2681.334243,9104.533087
914.985211,-3627.009116,-2834.553343,7550.100608
914.985541,-2368.659014,-1455.581446,6513.812290
914.985870,-666.185348,0.000000,6735.874072
914.986199,296.082377,842.705048,7105.977043
914.986529,1110.308913,2068.457845,8290.306550
914.986858,1998.556043,3370.820191,9030.512492
914.987188,1924.535449,4366.744339,9178.553681
914.987517,1184.329507,4903.011187,9992.780217
914.987847,-814.226536,3830.477490,10955.047942
914.988176,-2442.679609,2757.943793,11399.171507
914.988506,-3330.926739,842.705048,11029.068536
914.988835,-3478.967927,-536.266849,10214.842000
914.989164,-3997.112087,-1991.848295,10214.842000
914.989494,-4515.256246,-3294.210641,10807.006753
914.989823,-5107.421000,-2451.505594,10584.944971
914.990153,-3923.091493,-383.047749,9326.594869
914.990482,-1110.308913,689.485948,8068.244768
914.990812,1628.453072,689.485948,7550.100608
914.991141,3849.070898,2068.457845,7328.038826
914.991471,5107.421000,2528.115143,7994.224174
914.991800,4959.379811,3524.039291,9474.636058
914.992129,3849.070898,5132.839837,10807.006753
914.992459,1184.329507,5132.839837,11843.295072
914.992788,-1258.350101,3983.696590,12435.459826
914.993118,-2516.700203,1685.410096,11917.315666
914.993447,-3552.988522,-306.438199,11399.171507
914.993777,-4145.153275,-1532.190996,10510.924376
914.994106,-5403.503377,-2451.505594,9030.512492
914.994436,-5921.647536,-2987.772442,8216.285956
914.994765,-4589.276840,-1532.190996,7179.997637
914.995094,-2516.700203,-1149.143247,6143.709319
914.995424,-518.144159,0.000000,5921.647536
914.995753,1406.391290,612.876398,6587.832884
914.996083,2516.700203,2145.067394,7772.162391
914.996412,3034.844362,2911.162892,8512.368333
914.996742,2664.741391,3983.696590,9548.656652
914.997071,962.267725,4366.744339,11103.089130
914.997401,-1332.370696,3677.258390,11843.295072
914.997730,-2812.782580,2068.457845,11917.315666
914.998059,-2812.782580,76.609550,11547.212695
914.998389,-2516.700203,-1762.019645,11251.130318
914.998718,-3330.926739,-3140.991542,11103.089130
914.999048,-4515.256246,-3064.381992,10732.986159
914.999377,-4811.338623,-2221.676944,9252.574275
914.999707,-3034.844362,-995.924147,8364.327145
915.000036,-592.164754,153.219100,7550.100608
915.000366,1998.556043,1072.533697,7772.162391
915.000695,3330.926739,919.314598,8068.244768
915.001024,4441.235652,1762.019645,8660.409521
915.001354,3775.050304,3140.991542,9474.636058
915.001683,1998.556043,3983.696590,10584.944971
915.002013,-370.102971,3140.991542,11695.253884
915.002342,-2368.659014,2451.505594,12361.439231
915.002672,-3478.967927,1072.533697,12657.521608
915.003001,-4071.132681,0.000000,12139.377449
915.003331,-5107.421000,-459.657299,11251.130318
915.003660,-6069.688724,-1455.581446,10214.842000
915.003989,-6291.750507,-1838.629195,8734.430116
915.004319,-4737.318029,-1302.362347,7105.977043
915.004648,-2368.659014,-1072.533697,6217.729913
915.004978,-370.102971,-689.485948,6069.688724
915.005307,1184.329507,612.876398,6735.874072
915.005637,2442.679609,2068.457845,7105.977043
915.005966,3182.885551,2911.162892,7846.182985
915.006296,2220.617826,4213.525239,8734.430116
915.006625,518.144159,3983.696590,9844.739029
915.006954,-592.164754,3294.210641,11325.150913
915.007284,-2072.576638,2681.334243,12361.439231
915.007613,-3182.885551,1991.848295,12213.398043
915.007943,-3701.029710,842.705048,10955.047942
915.008272,-4589.276840,-1302.362347,10584.944971
915.008602,-4293.194464,-2528.115143,10510.924376
915.008931,-3849.070898,-1608.800546,9844.739029
915.009261,-3182.885551,-612.876398,8586.388927
915.009590,-1036.288319,229.828649,7402.059420
915.009919,1406.391290,919.314598,7254.018232
915.010249,3775.050304,995.924147,7402.059420
915.010578,5329.482782,2068.457845,7772.162391
915.010908,5033.400406,2451.505594,9030.512492
915.011237,2220.617826,4596.572988,10288.862594
915.011567,-444.123565,4366.744339,12287.418637
915.011896,-1924.535449,3140.991542,13175.665768
915.012226,-2886.803174,2528.115143,12435.459826
915.012555,-2812.782580,306.438199,10807.006753
915.012884,-3330.926739,-919.314598,9548.656652
915.013214,-3701.029710,-1149.143247,8438.347739
915.013543,-3478.967927,-1225.752797,7624.121203
915.013873,-2368.659014,-229.828649,7031.956449
915.014202,-1184.329507,459.657299,6661.853478
915.014532,518.144159,1225.752797,7105.977043
915.014861,1184.329507,2145.067394,7772.162391
915.015191,1554.432478,2604.724693,8290.306550
915.015520,1776.494261,2911.162892,8956.491898
915.015849,518.144159,3217.601092,10140.821405
915.016179,-1258.350101,3064.381992,10881.027347
915.016508,-2516.700203,1455.581446,11843.295072
915.016838,-3256.906145,-689.485948,12287.418637
915.017167,-3701.029710,-842.705048,12435.459826
915.017497,-4441.235652,-1225.752797,11695.253884
915.017826,-3775.050304,-1762.019645,10732.986159
915.018156,-3034.844362,-766.095498,9252.574275
915.018485,-1184.329507,-306.438199,7772.162391
915.018814,1480.411884,0.000000,6587.832884
915.019144,2960.823768,1072.533697,5921.647536
915.019473,3923.091493,2987.772442,7105.977043
915.019803,3330.926739,2757.943793,8956.491898
915.020132,1924.535449,3677.258390,10436.903782
915.020462,-222.061783,4366.744339,11399.171507
915.020791,-2368.659014,3600.648841,11843.295072
915.021121,-3775.050304,1225.752797,11991.336260
915.021450,-4885.359217,-766.095498,12805.562797
915.021779,-5255.462188,-2451.505594,12361.439231
915.022109,-5551.544565,-2911.162892,10881.027347
915.022438,-5773.606348,-2451.505594,9400.615463
915.022768,-4811.338623,-1991.848295,8142.265362
915.023097,-2072.576638,-842.705048,6217.729913
915.023427,814.226536,0.000000,5403.503377
915.023756,3478.967927,842.705048,5403.503377
915.024086,4959.379811,2298.286494,6661.853478
915.024415,4737.318029,3830.477490,8142.265362
915.024744,3552.988522,4136.915689,9252.574275
915.025074,2072.576638,4443.353888,10510.924376
915.025403,148.041188,4136.915689,11547.212695
915.025733,-1776.494261,2911.162892,12213.398043
915.026062,-3182.885551,536.266849,12435.459826
915.026392,-4441.235652,-1072.533697,12657.521608
915.026721,-5551.544565,-1532.190996,12287.418637
915.027051,-6735.874072,-1838.629195,11177.109724
915.027380,-6735.874072,-1762.019645,9252.574275
915.027709,-4885.359217,-1225.752797,7105.977043
915.028039,-1924.535449,-1762.019645,5551.544565
915.028368,1554.432478,-766.095498,5255.462188
915.028698,3108.864956,229.828649,5625.565159
915.029027,3775.050304,1762.019645,7105.977043
915.029357,3256.906145,2911.162892,9326.594869
915.029686,2368.659014,4903.011187,11103.089130
915.030016,888.247130,5056.230287,11769.274478
915.030345,-296.082377,3830.477490,12435.459826
915.030674,-1406.391290,1455.581446,13693.809927
915.031004,-2516.700203,0.000000,14434.015869
915.031333,-4071.132681,-459.657299,14137.933492
915.031663,-5699.585753,-536.266849,12213.398043
915.031992,-6069.688724,-1149.143247,9844.739029
915.032322,-4885.359217,-1608.800546,6957.935855
915.032651,-2072.576638,-1838.629195,4959.379811
915.032981,1702.473667,-1915.238745,3923.091493
915.033310,3256.906145,-766.095498,4515.256246
915.033639,3404.947333,2374.896044,6291.750507
915.033969,2664.741391,4213.525239,8364.327145
915.034298,1850.514855,4749.792088,9252.574275
915.034628,814.226536,4903.011187,10214.842000
915.034957,-444.123565,3983.696590,11547.212695
915.035287,-1776.494261,2145.067394,12213.398043
915.035616,-3627.009116,1302.362347,11843.295072
915.035946,-4737.318029,-612.876398,12065.356855
915.036275,-6069.688724,-2681.334243,12953.603985
915.036604,-7105.977043,-2911.162892,12879.583391
915.036934,-6809.894666,-1455.581446,10288.862594
915.037263,-4367.215058,-1072.533697,7846.182985
915.037593,-148.041188,-1378.971896,6291.750507
915.037922,3478.967927,-842.705048,5107.421000
915.038252,5551.544565,306.438199,5329.482782
915.038581,6587.832884,2068.457845,6735.874072
915.038911,5773.606348,4903.011187,8808.450710
915.039240,3330.926739,5515.887586,10807.006753
915.039569,814.226536,4749.792088,12287.418637
915.039899,-1258.350101,2681.334243,13397.727550
915.040228,-2294.638420,995.924147,14285.974681
915.040558,-3034.844362,-229.828649,14137.933492
915.040887,-4737.318029,-612.876398,12583.501014
915.041217,-6513.812290,-1302.362347,10362.883188
915.041546,-6735.874072,-1915.238745,8216.285956
915.041876,-4441.235652,-1532.190996,5921.647536
915.042205,-814.226536,-153.219100,4663.297435
915.042534,1628.453072,-306.438199,5403.503377
915.042864,2664.741391,919.314598,6735.874072
915.043193,2072.576638,3907.087040,7254.018232
915.043523,1480.411884,4290.134789,8142.265362
915.043852,1332.370696,4826.401637,9400.615463
915.044182,0.000000,4826.401637,10955.047942
915.044511,-1628.453072,3217.601092,11695.253884
915.044841,-2368.659014,1225.752797,11029.068536
915.045170,-2886.803174,-612.876398,10436.903782
915.045499,-3034.844362,-1991.848295,12213.398043
915.045829,-4589.276840,-2451.505594,13397.727550
915.046158,-6735.874072,-153.219100,12213.398043
915.046488,-5625.565159,383.047749,9326.594869
915.046817,-1702.473667,-306.438199,7624.121203
915.047147,2368.659014,76.609550,6661.853478
915.047476,4663.297435,-306.438199,5255.462188
915.047806,5551.544565,689.485948,5847.626942
915.048135,5181.441594,3447.429741,7328.038826
915.048464,3701.029710,5209.449386,9992.780217
915.048794,1332.370696,5056.230287,11843.295072
915.049123,-1776.494261,4519.963438,12509.480420
915.049453,-3034.844362,2911.162892,12805.562797
915.049782,-3108.864956,0.000000,12953.603985
915.050112,-3701.029710,-1302.362347,11991.336260
915.050441,-5477.523971,-1838.629195,11177.109724
915.050771,-7254.018232,-2451.505594,9474.636058
915.051100,-6513.812290,-2298.286494,7402.059420
915.051429,-3478.967927,-1532.190996,6069.688724
915.051759,-222.061783,-1378.971896,5181.441594
915.052088,1850.514855,-689.485948,5847.626942
915.052418,2738.761985,995.924147,6513.812290
915.052747,3330.926739,3217.601092,8142.265362
915.053077,2664.741391,4596.572988,9178.553681
915.053406,1258.350101,5209.449386,10881.027347
915.053736,-592.164754,4749.792088,11843.295072
915.054065,-1406.391290,2681.334243,12361.439231
915.054394,-1628.453072,536.266849,11769.274478
915.054724,-1628.453072,-1762.019645,11621.233289
915.055053,-3108.864956,-2298.286494,12213.398043
915.055383,-5551.544565,-1991.848295,11917.315666
915.055712,-6217.729913,-1991.848295,10362.883188
915.056042,-4145.153275,-766.095498,7846.182985
915.056371,-222.061783,-383.047749,7105.977043
915.056701,2738.761985,-689.485948,6069.688724
915.057030,4367.215058,-306.438199,5995.668130
915.057359,5033.400406,1915.238745,7476.080014
915.057689,4293.194464,3677.258390,9252.574275
915.058018,2294.638420,4290.134789,10510.924376
915.058348,-592.164754,4903.011187,12213.398043
915.058677,-2886.803174,2757.943793,13619.789333
915.059007,-3330.926739,536.266849,14211.954086
915.059336,-4367.215058,76.609550,13249.686362
915.059666,-4885.359217,-689.485948,11621.233289
915.059995,-6291.750507,-2451.505594,9548.656652
915.060324,-6513.812290,-2528.115143,7994.224174
915.060654,-4737.318029,-1991.848295,6291.750507
915.060983,-1776.494261,-1378.971896,4515.256246
915.061313,888.247130,-766.095498,4737.318029
915.061642,2664.741391,1149.143247,6069.688724
915.061972,3330.926739,2911.162892,7624.121203
915.062301,3256.906145,4290.134789,8290.306550
915.062631,2220.617826,5209.449386,8956.491898
915.062960,814.226536,4903.011187,10732.986159
915.063289,-888.247130,4213.525239,12065.356855
915.063619,-2368.659014,2374.896044,12731.542202
915.063948,-3627.009116,76.609550,11621.233289
915.064278,-4219.173869,-1455.581446,11621.233289
915.064607,-5551.544565,-3064.381992,12657.521608
915.064937,-7031.956449,-1915.238745,12287.418637
915.065266,-6661.853478,-995.924147,9918.759623
915.065596,-3701.029710,-766.095498,7402.059420
915.065925,222.061783,-383.047749,6069.688724
915.066254,3478.967927,-153.219100,5551.544565
915.066584,5551.544565,459.657299,5995.668130
915.066913,6587.832884,2145.067394,7402.059420
915.067243,4959.379811,4903.011187,9770.718434
915.067572,2368.659014,5669.106685,11917.315666
915.067902,-296.082377,4596.572988,13841.851115
915.068231,-2442.679609,3370.820191,14359.995275
915.068561,-3108.864956,1225.752797,13841.851115
915.068890,-3330.926739,153.219100,12139.377449
915.069219,-3997.112087,-612.876398,10066.800811
915.069549,-5033.400406,-2451.505594,8216.285956
915.069878,-4737.318029,-2987.772442,6439.791695
915.070208,-2738.761985,-1455.581446,5255.462188
915.070537,-222.061783,0.000000,5329.482782
915.070867,1480.411884,612.876398,6661.853478
915.071196,1998.556043,2298.286494,7105.977043
915.071526,2294.638420,4060.306139,7846.182985
915.071855,2812.782580,4136.915689,8734.430116
915.072184,2146.597232,4673.182538,10140.821405
915.072514,-148.041188,4366.744339,11029.068536
915.072843,-2146.597232,1378.971896,12213.398043
915.073173,-3034.844362,-1149.143247,13175.665768
915.073502,-3775.050304,-995.924147,13175.665768
915.073832,-4219.173869,-766.095498,11769.274478
915.074161,-4737.318029,-2068.457845,10214.842000
915.074491,-3997.112087,-1225.752797,8216.285956
915.074820,-1776.494261,-229.828649,6365.771101
915.075149,1332.370696,-153.219100,5181.441594
915.075479,2738.761985,1762.019645,5847.626942
915.075808,3034.844362,2834.553343,8142.265362
915.076138,1850.514855,3600.648841,9770.718434
915.076467,1406.391290,4290.134789,10658.965565
915.076797,888.247130,4443.353888,11325.150913
915.077126,-592.164754,3677.258390,11843.295072
915.077456,-1776.494261,2451.505594,11251.130318
915.077785,-2812.782580,-612.876398,12213.398043
915.078114,-3256.906145,-2528.115143,13175.665768
915.078444,-5107.421000,-536.266849,12509.480420
915.078773,-6513.812290,-306.438199,10510.924376
915.079103,-5403.503377,-2528.115143,8512.368333
915.079432,-3108.864956,-1302.362347,7031.956449
915.079762,0.000000,-995.924147,5551.544565
915.080091,2664.741391,-1072.533697,4959.379811
915.080421,3923.091493,612.876398,5995.668130
915.080750,3478.967927,3907.087040,7846.182985
915.081079,2368.659014,4366.744339,9548.656652
915.081409,1332.370696,4596.572988,10658.965565
915.081738,74.020594,5439.278036,11325.150913
915.082068,-1554.432478,3830.477490,11843.295072
915.082397,-2886.803174,2068.457845,11325.150913
915.082727,-3034.844362,-842.705048,11621.233289
915.083056,-4219.173869,-2604.724693,11695.253884
915.083386,-5921.647536,-2145.067394,11325.150913
915.083715,-7105.977043,-1532.190996,9918.759623
915.084044,-5255.462188,-1991.848295,8438.347739
915.084374,-2368.659014,-1532.190996,6883.915261
915.084703,592.164754,-536.266849,5847.626942
915.085033,3108.864956,306.438199,5921.647536
915.085362,4663.297435,1225.752797,6735.874072
915.085691,4515.256246,3907.087040,8438.347739
915.086021,3849.070898,4366.744339,10214.842000
915.086350,2516.700203,4673.182538,11843.295072
915.086680,592.164754,3600.648841,13175.665768
915.087009,-1480.411884,1762.019645,14359.995275
915.087338,-2738.761985,919.314598,14137.933492
915.087668,-3923.091493,0.000000,12731.542202
915.087997,-4737.318029,-1378.971896,11029.068536
915.088326,-5699.585753,-2145.067394,8734.430116
915.088656,-4663.297435,-1991.848295,6439.791695
915.088985,-1998.556043,-1762.019645,4811.338623
915.089315,370.102971,-1608.800546,5255.462188
915.089644,1332.370696,766.095498,6661.853478
915.089973,1480.411884,2604.724693,7476.080014
915.090303,1480.411884,3524.039291,8364.327145
915.090632,1628.453072,4519.963438,9326.594869
915.090962,740.205942,4443.353888,10288.862594
915.091291,-666.185348,3447.429741,11325.150913
915.091620,-2442.679609,1685.410096,11029.068536
915.091950,-3701.029710,459.657299,11399.171507
915.092279,-4293.194464,-842.705048,11991.336260
915.092609,-4663.297435,-2528.115143,12953.603985
915.092938,-5847.626942,-2834.553343,12509.480420
915.093267,-5995.668130,-2221.676944,9474.636058
915.093597,-3552.988522,-1762.019645,7846.182985
915.093926,370.102971,-766.095498,6883.915261
915.094256,3404.947333,0.000000,6291.750507
915.094585,4811.338623,919.314598,6365.771101
915.094914,6143.709319,2681.334243,7105.977043
915.095244,5255.462188,4443.353888,8956.491898
915.095573,4071.132681,5515.887586,11177.109724
915.095902,1110.308913,4903.011187,12213.398043
915.096232,-1184.329507,2911.162892,13323.706956
915.096561,-2590.720797,766.095498,13989.892304
915.096891,-3849.070898,-306.438199,13545.768739
915.097220,-5699.585753,-766.095498,11769.274478
915.097549,-6587.832884,-2528.115143,9474.636058
915.097879,-6513.812290,-3600.648841,7476.080014
915.098208,-4441.235652,-2681.334243,6069.688724
915.098538,-1554.432478,-1838.629195,4811.338623
915.098867,222.061783,153.219100,4885.359217
915.099196,1998.556043,1225.752797,6439.791695
915.099526,2590.720797,3217.601092,8068.244768
915.099855,2886.803174,4979.620737,8660.409521
915.100185,2960.823768,5209.449386,8808.450710
915.100514,1406.391290,5056.230287,10881.027347
915.100843,0.000000,4290.134789,11769.274478
915.101173,-1776.494261,1532.190996,11547.212695
915.101502,-2442.679609,-1072.533697,11991.336260
915.101832,-3627.009116,-1225.752797,12731.542202
915.102161,-5403.503377,-1225.752797,12287.418637
915.102490,-6217.729913,-1762.019645,11251.130318
915.102820,-5255.462188,-1532.190996,8438.347739
915.103149,-2220.617826,-995.924147,6365.771101
915.103478,1480.411884,-995.924147,5773.606348
915.103808,4145.153275,766.095498,5329.482782
915.104137,4737.318029,2451.505594,6587.832884
915.104467,4515.256246,3140.991542,8512.368333
915.104796,3256.906145,4903.011187,10140.821405
915.105125,1258.350101,6358.592633,11769.274478
915.105455,-888.247130,4903.011187,12583.501014
915.105784,-2146.597232,2834.553343,12879.583391
915.106114,-2812.782580,153.219100,13101.645173
915.106443,-3923.091493,-1685.410096,12435.459826
915.106772,-5255.462188,-2298.286494,11695.253884
915.107102,-7031.956449,-1838.629195,10436.903782
915.107431,-6661.853478,-2145.067394,8068.244768
915.107761,-4219.173869,-1378.971896,6143.709319
915.108090,-740.205942,-995.924147,5107.421000
915.108419,2368.659014,-766.095498,5255.462188
915.108749,3552.988522,1532.190996,6069.688724
915.109078,3701.029710,4290.134789,8068.244768
915.109408,2664.741391,4903.011187,8956.491898
915.109737,1850.514855,5209.449386,10140.821405
915.110066,592.164754,4826.401637,11769.274478
915.110396,-1110.308913,3600.648841,11991.336260
915.110725,-2368.659014,1685.410096,11325.150913
915.111054,-2960.823768,-1762.019645,11399.171507
915.111384,-3552.988522,-2451.505594,11991.336260
915.111713,-5181.441594,-2221.676944,11917.315666
915.112043,-5847.626942,-2068.457845,9992.780217
915.112372,-4515.256246,-1532.190996,8364.327145
915.112701,-1184.329507,-306.438199,7105.977043
915.113031,1480.411884,0.000000,6513.812290
915.113360,3404.947333,766.095498,6513.812290
915.113690,4737.318029,2681.334243,7254.018232
915.114019,4293.194464,3677.258390,8142.265362
915.114348,3182.885551,4290.134789,10214.842000
915.114678,1110.308913,4366.744339,11473.192101
915.115007,-1480.411884,2681.334243,12435.459826
915.115337,-2812.782580,995.924147,13693.809927
915.115666,-3849.070898,842.705048,13915.871710
915.115995,-4367.215058,-536.266849,12287.418637
915.116325,-5255.462188,-2451.505594,10362.883188
915.116654,-5995.668130,-2834.553343,8364.327145
915.116984,-4737.318029,-2221.676944,6587.832884
915.117313,-2294.638420,-1378.971896,5699.585753
915.117642,0.000000,153.219100,5181.441594
915.117972,1628.453072,1225.752797,6365.771101
915.118301,2294.638420,2221.676944,7624.121203
915.118630,2220.617826,3447.429741,7846.182985
915.118960,1702.473667,4519.963438,8512.368333
915.119289,666.185348,4136.915689,9696.697840
915.119619,-592.164754,4443.353888,11917.315666
915.119948,-2886.803174,2374.896044,12065.356855
915.120277,-3923.091493,0.000000,11547.212695
915.120607,-4441.235652,-1991.848295,11991.336260
915.120936,-5403.503377,-2145.067394,12953.603985
915.121266,-6365.771101,-1762.019645,11991.336260
915.121595,-5921.647536,-1991.848295,9622.677246
915.121924,-3330.926739,-1225.752797,7254.018232
915.122254,592.164754,-383.047749,6291.750507
915.122583,3404.947333,-153.219100,5625.565159
915.122913,4885.359217,1685.410096,5551.544565
915.123242,5699.585753,2528.115143,7402.059420
915.123571,4663.297435,4290.134789,9474.636058
915.123901,2664.741391,5515.887586,11325.150913
915.124230,-296.082377,5209.449386,12509.480420
915.124560,-2368.659014,2221.676944,13471.748144
915.124889,-3108.864956,842.705048,13841.851115
915.125218,-3849.070898,0.000000,13323.706956
915.125548,-4663.297435,-1685.410096,11843.295072
915.125877,-5699.585753,-2604.724693,9844.739029
915.126206,-5921.647536,-2451.505594,7772.162391
915.126536,-3997.112087,-995.924147,6069.688724
915.126865,-1110.308913,-306.438199,5773.606348
915.127195,1110.308913,612.876398,5551.544565
915.127524,2368.659014,1072.533697,6291.750507
915.127853,3108.864956,2374.896044,7550.100608
915.128183,3330.926739,4673.182538,8808.450710
915.128512,2590.720797,4366.744339,9622.677246
915.128842,888.247130,3524.039291,10955.047942
915.129171,-888.247130,1762.019645,12287.418637
915.129500,-1924.535449,-153.219100,13693.809927
915.129830,-2812.782580,-153.219100,13471.748144
915.130159,-4071.132681,0.000000,12657.521608
915.130489,-4811.338623,-306.438199,11103.089130
915.130818,-4367.215058,-459.657299,8882.471304
915.131147,-2590.720797,-459.657299,6365.771101
915.131477,0.000000,-689.485948,4663.297435
915.131806,2368.659014,306.438199,4663.297435
915.132136,2220.617826,1991.848295,6735.874072
915.132465,1332.370696,2987.772442,8660.409521
915.132794,1110.308913,3600.648841,9696.697840
915.133124,592.164754,3983.696590,10288.862594
915.133453,370.102971,3907.087040,11399.171507
915.133782,-592.164754,2451.505594,11843.295072
915.134112,-1776.494261,383.047749,12953.603985
915.134441,-2738.761985,-995.924147,13693.809927
915.134771,-4515.256246,459.657299,13397.727550
915.135100,-5625.565159,842.705048,11991.336260
915.135429,-5773.606348,-306.438199,10732.986159
915.135759,-4589.276840,-842.705048,7698.141797
915.136088,-1332.370696,-766.095498,5255.462188
915.136418,1924.535449,-1532.190996,4367.215058
915.136747,3627.009116,76.609550,4811.338623
915.137076,2812.782580,3217.601092,6957.935855
915.137406,2516.700203,3907.087040,8734.430116
915.137735,1332.370696,4673.182538,9918.759623
915.138065,222.061783,5592.497135,10510.924376
915.138394,-1332.370696,3830.477490,11917.315666
915.138723,-2738.761985,2681.334243,12287.418637
915.139053,-3849.070898,919.314598,11695.253884
915.139382,-4441.235652,-2451.505594,12213.398043
915.139712,-5995.668130,-2451.505594,12361.439231
915.140041,-7920.203579,-1378.971896,11325.150913
915.140370,-6957.935855,-2528.115143,8956.491898
915.140700,-3849.070898,-1838.629195,7476.080014
915.141029,74.020594,-612.876398,6069.688724
915.141358,3256.906145,-612.876398,5329.482782
915.141688,5181.441594,459.657299,5773.606348
915.142017,5255.462188,3447.429741,7031.956449
915.142347,4885.359217,4443.353888,9030.512492
915.142676,3775.050304,3983.696590,10955.047942
915.143005,1628.453072,4136.915689,12583.501014
915.143335,-444.123565,2757.943793,14137.933492
915.143664,-1776.494261,612.876398,14804.118840
915.143994,-2960.823768,306.438199,13323.706956
915.144323,-3775.050304,-612.876398,11991.336260
915.144652,-4811.338623,-2604.724693,9992.780217
915.144982,-4811.338623,-1915.238745,7698.141797
915.145311,-3256.906145,-1225.752797,6217.729913
915.145641,-666.185348,-842.705048,5181.441594
915.145970,444.123565,0.000000,5329.482782
915.146299,962.267725,1685.410096,6513.812290
915.146629,1332.370696,2451.505594,7550.100608
915.146958,1110.308913,3064.381992,8364.327145
915.147288,444.123565,3524.039291,9696.697840
915.147617,-592.164754,2911.162892,10658.965565
915.147946,-2368.659014,2451.505594,10807.006753
915.148276,-3182.885551,76.609550,11769.274478
915.148605,-3701.029710,-2068.457845,12805.562797
915.148935,-5033.400406,-766.095498,13545.768739
915.149264,-6957.935855,-842.705048,12509.480420
915.149593,-6661.853478,-1149.143247,10584.944971
915.149923,-4589.276840,-689.485948,8068.244768
915.150252,-666.185348,-842.705048,6809.894666
915.150581,2738.761985,-842.705048,6143.709319
915.150911,3923.091493,689.485948,6365.771101
915.151240,3997.112087,3217.601092,7328.038826
915.151570,3627.009116,3753.867940,8364.327145
915.151899,3701.029710,3983.696590,9844.739029
915.152228,1850.514855,4826.401637,10955.047942
915.152558,-444.123565,3140.991542,11325.150913
915.152887,-1776.494261,1378.971896,12065.356855
915.153217,-3256.906145,-689.485948,13841.851115
915.153546,-5477.523971,-306.438199,14063.912898
915.153875,-8142.265362,-306.438199,12583.501014
915.154205,-8660.409521,-1915.238745,10362.883188
915.154534,-6291.750507,-2221.676944,7402.059420
915.154864,-2812.782580,-2374.896044,5329.482782
915.155193,962.267725,-2451.505594,4663.297435
915.155522,3108.864956,-612.876398,4367.215058
915.155852,3330.926739,2221.676944,6217.729913
915.156181,3256.906145,4903.011187,7624.121203
915.156511,2812.782580,5439.278036,9400.615463
915.156840,1998.556043,5592.497135,10288.862594
915.157169,814.226536,4596.572988,11325.150913
915.157499,-592.164754,1915.238745,11991.336260
915.157828,-1702.473667,0.000000,13027.624579
915.158157,-3404.947333,-766.095498,13693.809927
915.158487,-5477.523971,-1225.752797,13101.645173
915.158816,-6587.832884,-1149.143247,11103.089130
915.159146,-5107.421000,-1532.190996,9030.512492
915.159475,-1702.473667,-1225.752797,6661.853478
915.159804,1850.514855,-612.876398,5181.441594
915.160134,4071.132681,-153.219100,4663.297435
915.160463,4589.276840,2528.115143,5477.523971
915.160793,4589.276840,4443.353888,7624.121203
915.161122,3552.988522,4979.620737,9696.697840
915.161451,1332.370696,5975.544884,11251.130318
915.161781,-296.082377,4826.401637,11695.253884
915.162110,-1702.473667,1838.629195,12879.583391
915.162440,-2738.761985,-153.219100,13767.830521
915.162769,-4515.256246,-842.705048,13767.830521
915.163098,-6439.791695,-1838.629195,12731.542202
915.163428,-7105.977043,-1915.238745,11325.150913
915.163757,-6513.812290,-919.314598,8882.471304
915.164087,-4145.153275,-1302.362347,6587.832884
915.164416,-814.226536,-1378.971896,4885.359217
915.164745,1924.535449,-306.438199,4885.359217
915.165075,2960.823768,1685.410096,5995.668130
915.165404,3923.091493,2911.162892,7476.080014
915.165733,2886.803174,4136.915689,8216.285956
915.166063,1850.514855,4903.011187,9474.636058
915.166392,592.164754,4519.963438,11251.130318
915.166722,-1036.288319,3447.429741,12435.459826
915.167051,-2368.659014,2834.553343,12287.418637
915.167380,-3701.029710,153.219100,11991.336260
915.167710,-4737.318029,-1685.410096,12213.398043
915.168039,-5773.606348,-1991.848295,12435.459826
915.168369,-6883.915261,-1685.410096,11325.150913
915.168698,-5551.544565,-1378.971896,9030.512492
915.169027,-2960.823768,-1072.533697,7179.997637
915.169357,370.102971,-459.657299,6439.791695
915.169686,3034.844362,-536.266849,5921.647536
915.170016,4589.276840,1072.533697,5847.626942
915.170345,5033.400406,3294.210641,6439.791695
915.170674,3775.050304,4213.525239,8734.430116
915.171004,2368.659014,4290.134789,10955.047942
915.171333,0.000000,3983.696590,12435.459826
915.171663,-1776.494261,2604.724693,13989.892304
915.171992,-2886.803174,1532.190996,14508.036463
915.172321,-3997.112087,153.219100,13545.768739
915.172651,-4959.379811,-1762.019645,11843.295072
915.172980,-5699.585753,-2757.943793,9770.718434
915.173309,-4737.318029,-2681.334243,7179.997637
915.173639,-1850.514855,-1838.629195,5625.565159
915.173968,370.102971,-1532.190996,4663.297435
915.174298,2220.617826,383.047749,5107.421000
915.174627,2590.720797,2451.505594,6661.853478
915.174956,2664.741391,3907.087040,8290.306550
915.175286,2146.597232,5286.058936,9474.636058
915.175615,1184.329507,4903.011187,10732.986159
915.175945,-148.041188,3524.039291,11843.295072
915.176274,-2146.597232,919.314598,12879.583391
915.176603,-3997.112087,-995.924147,13767.830521
915.176933,-5551.544565,-842.705048,13249.686362
915.177262,-6143.709319,-919.314598,12065.356855
915.177592,-5773.606348,-1608.800546,10362.883188
915.177921,-4367.215058,-2604.724693,7772.162391
915.178250,-1332.370696,-1991.848295,5255.462188
915.178580,1702.473667,-995.924147,4367.215058
915.178909,3552.988522,995.924147,5329.482782
915.179239,3552.988522,3294.210641,7254.018232
915.179568,3108.864956,4826.401637,9030.512492
915.179897,2368.659014,4903.011187,10066.800811
915.180227,1924.535449,4749.792088,11473.192101
915.180556,518.144159,3907.087040,11917.315666
915.180885,-1406.391290,1225.752797,11991.336260
915.181215,-3108.864956,-1608.800546,12805.562797
915.181544,-4811.338623,-2221.676944,13693.809927
915.181874,-6883.915261,-459.657299,13323.706956
915.182203,-7476.080014,-1149.143247,11473.192101
915.182532,-6513.812290,-1991.848295,8660.409521
915.182862,-4071.132681,-1915.238745,6143.709319
915.183191,-370.102971,-2145.067394,4737.318029
915.183521,2960.823768,-1302.362347,4959.379811
915.183850,3552.988522,1532.190996,6069.688724
915.184180,3034.844362,3907.087040,7254.018232
915.184510,2442.679609,4290.134789,8734.430116
915.184839,2294.638420,5056.230287,10214.842000
915.185169,1776.494261,4673.182538,11547.212695
915.185498,148.041188,2604.724693,12361.439231
915.185828,-1850.514855,536.266849,13619.789333
915.186157,-3404.947333,76.609550,14359.995275
915.186487,-4885.359217,-153.219100,12953.603985
915.186816,-5847.626942,-689.485948,10807.006753
915.187146,-5107.421000,-1378.971896,8142.265362
915.187475,-3627.009116,-1915.238745,5995.668130
915.187805,-740.205942,-1532.190996,4737.318029
915.188134,1480.411884,-1149.143247,4811.338623
915.188464,2590.720797,1302.362347,6439.791695
915.188793,2368.659014,3600.648841,7476.080014
915.189123,2220.617826,4213.525239,8956.491898
915.189452,2590.720797,4596.572988,9844.739029
915.189782,2664.741391,4213.525239,11251.130318
915.190111,1332.370696,1838.629195,12805.562797
915.190441,-1184.329507,1149.143247,14137.933492
915.190770,-3997.112087,995.924147,13989.892304
915.191100,-4737.318029,76.609550,13249.686362
915.191429,-4663.297435,-689.485948,11325.150913
915.191759,-4515.256246,-1532.190996,8734.430116
915.192088,-2960.823768,-1991.848295,6291.750507
915.192418,-444.123565,-1915.238745,5033.400406
915.192747,1628.453072,0.000000,5033.400406
915.193077,2220.617826,1762.019645,5847.626942
915.193406,1628.453072,3217.601092,7994.224174
915.193736,1036.288319,4673.182538,8660.409521
915.194065,666.185348,4596.572988,9474.636058
915.194395,444.123565,3907.087040,10732.986159
915.194724,-370.102971,3447.429741,11621.233289
915.195054,-2664.741391,1455.581446,11029.068536
915.195383,-4145.153275,-842.705048,12509.480420
915.195713,-5033.400406,-1378.971896,12953.603985
915.196042,-6513.812290,-536.266849,12731.542202
915.196372,-6809.894666,-1302.362347,10807.006753
915.196702,-5107.421000,-2374.896044,9030.512492
915.197031,-2368.659014,-1225.752797,7254.018232
915.197361,1480.411884,-1072.533697,6587.832884
915.197690,3997.112087,-153.219100,6291.750507
915.198020,4293.194464,2528.115143,6143.709319
915.198349,3849.070898,3983.696590,7105.977043
915.198679,4441.235652,4060.306139,9252.574275
915.199008,3478.967927,4903.011187,10584.944971
915.199338,2072.576638,4443.353888,11621.233289
915.199667,0.000000,1991.848295,12287.418637
915.199997,-2072.576638,689.485948,13175.665768
915.200326,-3923.091493,0.000000,13397.727550
915.200656,-5625.565159,-1378.971896,12361.439231
915.200985,-6957.935855,-1532.190996,10732.986159
915.201315,-6513.812290,-1838.629195,8882.471304
915.201644,-4293.194464,-2757.943793,6883.915261
915.201974,-1036.288319,-2298.286494,5033.400406
915.202303,888.247130,-995.924147,4885.359217
915.202633,1776.494261,612.876398,5995.668130
915.202962,1258.350101,2987.772442,7624.121203
915.203292,1110.308913,4213.525239,8956.491898
915.203621,1184.329507,3830.477490,9474.636058
915.203951,1480.411884,3217.601092,10510.924376
915.204280,74.020594,2298.286494,11325.150913
915.204610,-1332.370696,229.828649,12287.418637
915.204939,-2664.741391,-842.705048,13101.645173
915.205269,-4441.235652,-536.266849,12657.521608
915.205598,-5551.544565,-1149.143247,11621.233289
915.205928,-5403.503377,-1608.800546,10066.800811
915.206257,-3478.967927,-1762.019645,8290.306550
915.206587,-740.205942,-1838.629195,6513.812290
915.206916,1924.535449,-1149.143247,5995.668130
915.207246,3478.967927,-153.219100,6513.812290
915.207575,2960.823768,2604.724693,7624.121203
915.207905,2738.761985,4136.915689,8586.388927
915.208235,2442.679609,3983.696590,9548.656652
915.208564,1924.535449,3983.696590,10881.027347
915.208894,444.123565,3370.820191,11695.253884
915.209223,-1184.329507,995.924147,12213.398043
915.209553,-2812.782580,0.000000,13545.768739
915.209882,-5033.400406,-306.438199,13101.645173
915.210212,-6439.791695,-1072.533697,12213.398043
915.210541,-7254.018232,-1762.019645,10214.842000
915.210871,-5773.606348,-2068.457845,7846.182985
915.211200,-2590.720797,-2145.067394,5773.606348
915.211530,592.164754,-1991.848295,4589.276840
915.211859,2516.700203,-459.657299,5107.421000
915.212189,3034.844362,2145.067394,6809.894666
915.212518,2886.803174,4903.011187,8068.244768
915.212848,2664.741391,5898.935335,9252.574275
915.213177,2146.597232,5898.935335,10362.883188
915.213507,1036.288319,4903.011187,11547.212695
915.213836,-666.185348,2681.334243,11251.130318
915.214166,-1998.556043,76.609550,11843.295072
915.214495,-3108.864956,-2068.457845,12731.542202
915.214825,-5107.421000,-919.314598,13027.624579
915.215154,-7031.956449,-1072.533697,11473.192101
915.215484,-6217.729913,-2298.286494,9104.533087
915.215813,-2886.803174,-1685.410096,7031.956449
915.216143,370.102971,-612.876398,5921.647536
915.216472,3182.885551,-383.047749,5625.565159
915.216802,4219.173869,1532.190996,6365.771101
915.217131,3923.091493,4519.963438,7846.182985
915.217461,3256.906145,5209.449386,9326.594869
915.217790,2812.782580,5286.058936,10584.944971
915.218120,1554.432478,5056.230287,11843.295072
915.218449,-592.164754,2451.505594,12139.377449
915.218779,-2294.638420,229.828649,12953.603985
915.219108,-3997.112087,-459.657299,13619.789333
915.219438,-5551.544565,-1302.362347,12805.562797
915.219767,-7031.956449,-1532.190996,11029.068536
915.220097,-6661.853478,-2374.896044,8882.471304
915.220427,-4219.173869,-1838.629195,6587.832884
915.220756,-1036.288319,-1762.019645,4959.379811
915.221086,1480.411884,-383.047749,4515.256246
915.221415,2590.720797,1072.533697,5329.482782
915.221745,2590.720797,3294.210641,7328.038826
915.222074,2368.659014,4903.011187,8586.388927
915.222404,1998.556043,5132.839837,10066.800811
915.222733,1184.329507,5209.449386,11399.171507
915.223063,0.000000,3907.087040,11621.233289
915.223392,-1998.556043,2068.457845,11473.192101
915.223722,-3108.864956,0.000000,12065.356855
915.224051,-4219.173869,-1532.190996,12583.501014
915.224381,-5847.626942,-1762.019645,12657.521608
915.224710,-6809.894666,-1915.238745,10955.047942
915.225040,-6217.729913,-2145.067394,8882.471304
915.225369,-3330.926739,-1532.190996,7105.977043
915.225699,148.041188,-1149.143247,6513.812290
915.226028,2886.803174,-153.219100,6365.771101
915.226358,4293.194464,1991.848295,6439.791695
915.226687,4737.318029,3677.258390,7328.038826
915.227017,4367.215058,4443.353888,9104.533087
915.227346,3034.844362,4979.620737,10584.944971
915.227676,888.247130,4903.011187,11695.253884
915.228005,-296.082377,3217.601092,13027.624579
915.228335,-1184.329507,612.876398,13915.871710
915.228664,-3627.009116,383.047749,13175.665768
915.228994,-5699.585753,-1378.971896,11769.274478
915.229323,-6735.874072,-3064.381992,10140.821405
915.229653,-6069.688724,-2987.772442,8808.450710
915.229982,-3923.091493,-1762.019645,7179.997637
915.230312,-1850.514855,-1532.190996,5699.585753
915.230641,296.082377,-766.095498,5477.523971
915.230971,1628.453072,1838.629195,5773.606348
915.231300,2664.741391,3064.381992,7031.956449
915.231630,3997.112087,3677.258390,7920.203579
915.231959,2664.741391,4749.792088,9326.594869
915.232289,1406.391290,3524.039291,11103.089130
915.232619,-518.144159,2451.505594,12657.521608
915.232948,-2664.741391,995.924147,13471.748144
915.233278,-3997.112087,0.000000,12657.521608
915.233607,-4589.276840,-919.314598,11843.295072
915.233937,-4885.359217,-1762.019645,10510.924376
915.234266,-4589.276840,-2221.676944,8438.347739
915.234596,-2812.782580,-2298.286494,6735.874072
915.234925,-592.164754,-1302.362347,5699.585753
915.235255,1702.473667,1149.143247,6291.750507
915.235584,2220.617826,1838.629195,7254.018232
915.235914,2516.700203,3370.820191,8586.388927
915.236243,2146.597232,4290.134789,9400.615463
915.236573,1554.432478,4290.134789,10140.821405
915.236902,370.102971,3907.087040,10955.047942
915.237232,-370.102971,1608.800546,12361.439231
915.237561,-1998.556043,-1072.533697,13323.706956
915.237891,-3701.029710,-1915.238745,13693.809927
915.238220,-5477.523971,-919.314598,12953.603985
915.238550,-6587.832884,-1378.971896,11769.274478
915.238879,-5773.606348,-2145.067394,10288.862594
915.239209,-4145.153275,-1378.971896,7920.203579
915.239538,-962.267725,-995.924147,5625.565159
915.239868,2220.617826,-919.314598,4515.256246
915.240197,4219.173869,1302.362347,4811.338623
915.240527,4441.235652,2528.115143,6513.812290
915.240856,4071.132681,3907.087040,8290.306550
915.241186,2368.659014,5439.278036,9696.697840
915.241515,666.185348,5515.887586,11029.068536
915.241845,-1332.370696,3830.477490,11695.253884
915.242174,-3701.029710,1378.971896,12213.398043
915.242504,-4811.338623,-766.095498,12879.583391
915.242833,-5773.606348,-2374.896044,12731.542202
915.243163,-7105.977043,-2604.724693,11991.336260
915.243492,-7179.997637,-2451.505594,10584.944971
915.243822,-5699.585753,-2298.286494,8438.347739
915.244152,-2220.617826,-1838.629195,6291.750507
915.244481,1480.411884,-306.438199,5107.421000
915.244811,4737.318029,766.095498,5033.400406
915.245140,6069.688724,2757.943793,6069.688724
915.245470,6291.750507,4519.963438,7846.182985
915.245799,4811.338623,5975.544884,9770.718434
915.246129,3478.967927,5975.544884,11399.171507
915.246458,1406.391290,4673.182538,12731.542202
915.246788,-740.205942,2221.676944,14359.995275
915.247117,-3108.864956,612.876398,14952.160028
915.247447,-5033.400406,-306.438199,13841.851115
915.247776,-5921.647536,-1302.362347,11991.336260
915.248106,-6587.832884,-2451.505594,10140.821405
915.248435,-6069.688724,-2145.067394,8216.285956
915.248765,-4219.173869,-1532.190996,5921.647536
915.249094,-1480.411884,-919.314598,3923.091493
915.249424,1480.411884,689.485948,3849.070898
915.249753,2590.720797,1915.238745,5255.462188
915.250083,2368.659014,3370.820191,6883.915261
915.250412,1998.556043,4443.353888,8512.368333
915.250742,1110.308913,4903.011187,10214.842000
915.251071,0.000000,5822.325785,11843.295072
915.251401,-1776.494261,3983.696590,11843.295072
915.251730,-2738.761985,536.266849,12287.418637
915.252060,-3256.906145,-1991.848295,13175.665768
915.252389,-4071.132681,-1225.752797,13471.748144
915.252719,-5477.523971,-689.485948,12139.377449
915.253048,-5847.626942,-1225.752797,9992.780217
915.253378,-3701.029710,-919.314598,8216.285956
915.253707,-666.185348,-842.705048,6291.750507
915.254037,2664.741391,-536.266849,5477.523971
915.254366,4589.276840,306.438199,5477.523971
915.254696,4663.297435,2834.553343,5995.668130
915.255025,4293.194464,3907.087040,7550.100608
915.255355,3552.988522,3983.696590,9770.718434
915.255684,2146.597232,4596.572988,11399.171507
915.256014,-592.164754,4136.915689,12435.459826
915.256344,-2368.659014,1991.848295,13397.727550
915.256673,-3849.070898,-306.438199,13915.871710
915.257003,-5329.482782,-1302.362347,13915.871710
915.257332,-7179.997637,-1608.800546,12139.377449
915.257662,-7698.141797,-2681.334243,10658.965565
915.257991,-6291.750507,-2298.286494,8438.347739
915.258321,-3256.906145,-1762.019645,5255.462188
915.258650,0.000000,-1762.019645,4441.235652
915.258980,2886.803174,-919.314598,4737.318029
915.259309,3849.070898,1838.629195,5921.647536
915.259639,3701.029710,3907.087040,7105.977043
915.259968,2960.823768,4519.963438,8956.491898
915.260298,1702.473667,5056.230287,10288.862594
915.260627,518.144159,4519.963438,11843.295072
915.260957,-962.267725,2221.676944,12583.501014
915.261286,-2368.659014,-383.047749,13545.768739
915.261616,-3404.947333,-1302.362347,13249.686362
915.261945,-5255.462188,-1838.629195,12583.501014
915.262275,-6069.688724,-2221.676944,11251.130318
915.262604,-5477.523971,-1838.629195,9400.615463
915.262934,-3404.947333,-995.924147,7105.977043
915.263263,0.000000,-612.876398,5255.462188
915.263593,2146.597232,-612.876398,4663.297435
915.263922,3404.947333,1915.238745,6143.709319
915.264252,3330.926739,3600.648841,7624.121203
915.264581,2664.741391,4060.306139,9104.533087
915.264911,1036.288319,4443.353888,10066.800811
915.265240,148.041188,4136.915689,11325.150913
915.265570,-1406.391290,1225.752797,12435.459826
915.265899,-2886.803174,-842.705048,13767.830521
915.266229,-4515.256246,-995.924147,14063.912898
915.266558,-5699.585753,-612.876398,12953.603985
915.266888,-6217.729913,-1608.800546,11103.089130
915.267217,-5921.647536,-1762.019645,9252.574275
915.267547,-3775.050304,-1455.581446,7254.018232
915.267877,-666.185348,-1149.143247,5329.482782
915.268206,2220.617826,-306.438199,4885.359217
915.268536,3404.947333,1915.238745,5921.647536
915.268865,3701.029710,3140.991542,7179.997637
915.269195,2886.803174,3677.258390,8142.265362
915.269524,1702.473667,4519.963438,9326.594869
915.269854,370.102971,4366.744339,10510.924376
915.270183,-1110.308913,2834.553343,11103.089130
915.270513,-2664.741391,383.047749,11917.315666
915.270842,-3701.029710,-1685.410096,13249.686362
915.271172,-4885.359217,-1685.410096,13619.789333
915.271501,-6365.771101,-766.095498,12509.480420
915.271831,-6143.709319,-1225.752797,10881.027347
915.272160,-4515.256246,-689.485948,8586.388927
915.272490,-1406.391290,-689.485948,6661.853478
915.272819,1924.535449,-536.266849,5107.421000
915.273149,4219.173869,766.095498,5107.421000
915.273478,4811.338623,2911.162892,6217.729913
915.273808,4367.215058,3907.087040,8068.244768
915.274137,3627.009116,4443.353888,9844.739029
915.274467,1702.473667,5286.058936,11103.089130
915.274796,0.000000,3983.696590,12583.501014
915.275126,-1554.432478,995.924147,13915.871710
915.275455,-3256.906145,153.219100,13989.892304
915.275785,-4737.318029,-612.876398,13397.727550
915.276114,-5329.482782,-1378.971896,11547.212695
915.276444,-5625.565159,-1838.629195,9548.656652
915.276773,-4515.256246,-1149.143247,7402.059420
915.277103,-2294.638420,-1455.581446,5329.482782
915.277432,666.185348,-536.266849,4293.194464
915.277762,2738.761985,995.924147,4737.318029
915.278091,3108.864956,2604.724693,6291.750507
915.278421,2590.720797,4213.525239,7772.162391
915.278750,1850.514855,4826.401637,9104.533087
915.279080,962.267725,4826.401637,10362.883188
915.279409,-518.144159,4290.134789,11695.253884
915.279739,-2368.659014,1991.848295,12065.356855
915.280069,-3330.926739,-459.657299,13027.624579
915.280398,-4663.297435,-1532.190996,13323.706956
915.280728,-6217.729913,-1225.752797,12731.542202
915.281057,-6661.853478,-1455.581446,11399.171507
915.281387,-5921.647536,-1455.581446,9548.656652
915.281716,-3330.926739,-306.438199,7772.162391
915.282046,0.000000,-612.876398,5995.668130
915.282375,2886.803174,-766.095498,4959.379811
915.282705,4367.215058,2068.457845,5477.523971
915.283034,4441.235652,3217.601092,7179.997637
915.283364,3849.070898,4060.306139,9400.615463
915.283693,2442.679609,5056.230287,10955.047942
915.284023,740.205942,4979.620737,11769.274478
915.284352,-814.226536,3140.991542,12879.583391
915.284682,-2220.617826,689.485948,14582.057057
915.285011,-3849.070898,-383.047749,14582.057057
915.285341,-5403.503377,-766.095498,13101.645173
915.285670,-6735.874072,-1685.410096,11325.150913
915.285999,-6513.812290,-1762.019645,8956.491898
915.286329,-4737.318029,-1991.848295,6883.915261
915.286658,-1998.556043,-1685.410096,4885.359217
915.286988,1036.288319,-459.657299,3849.070898
915.287317,2960.823768,995.924147,4515.256246
915.287647,3552.988522,2451.505594,6513.812290
915.287976,3256.906145,3217.601092,7920.203579
915.288306,1628.453072,4443.353888,9400.615463
915.288635,740.205942,4979.620737,10288.862594
915.288964,-296.082377,2987.772442,12287.418637
915.289294,-1924.535449,306.438199,13693.809927
915.289623,-3182.885551,0.000000,13693.809927
915.289953,-4293.194464,-1225.752797,11991.336260
915.290282,-4515.256246,-1378.971896,10807.006753
915.290612,-4219.173869,-1762.019645,9474.636058
915.290941,-3108.864956,-2145.067394,7994.224174
915.291271,-1110.308913,-1838.629195,6069.688724
915.291600,1036.288319,229.828649,5921.647536
915.291929,2442.679609,1915.238745,6957.935855
915.292259,2886.803174,2757.943793,7846.182985
915.292588,2590.720797,3370.820191,8734.430116
915.292918,2072.576638,3524.039291,9844.739029
915.293247,1332.370696,2834.553343,11399.171507
915.293577,-444.123565,1991.848295,13323.706956
915.293906,-2516.700203,306.438199,14508.036463
915.294236,-4441.235652,-229.828649,14137.933492
915.294565,-5107.421000,-842.705048,13175.665768
915.294894,-4885.359217,-842.705048,11473.192101
915.295224,-4441.235652,-1302.362347,9104.533087
915.295553,-3997.112087,-1302.362347,6513.812290
915.295883,-2072.576638,-842.705048,4219.173869
915.296212,370.102971,-383.047749,3627.009116
915.296542,1924.535449,459.657299,5255.462188
915.296871,1406.391290,1915.238745,7698.141797
915.297201,0.000000,4290.134789,9104.533087
915.297530,-592.164754,4673.182538,9326.594869
915.297859,0.000000,3830.477490,10362.883188
915.298189,-370.102971,2987.772442,11029.068536
915.298518,-1258.350101,995.924147,10510.924376
915.298848,-2738.761985,-2757.943793,11843.295072
915.299177,-3849.070898,-2451.505594,13841.851115
915.299507,-6291.750507,612.876398,13545.768739
915.299836,-6587.832884,-306.438199,11843.295072
915.300166,-4737.318029,-1915.238745,9844.739029
915.300495,-1332.370696,-1378.971896,7031.956449
915.300824,2368.659014,-1532.190996,5329.482782
915.301154,5255.462188,-1762.019645,5033.400406
915.301483,5181.441594,2451.505594,5773.606348
915.301813,3627.009116,5822.325785,7254.018232
915.302142,3330.926739,4136.915689,9770.718434
915.302472,2738.761985,5132.839837,11695.253884
915.302801,814.226536,4903.011187,12361.439231
915.303131,-1184.329507,1072.533697,13693.809927
915.303460,-3256.906145,612.876398,14359.995275
915.303789,-4737.318029,229.828649,14359.995275
915.304119,-6143.709319,-1378.971896,12805.562797
915.304448,-6661.853478,-1838.629195,10732.986159
915.304778,-6217.729913,-1762.019645,7994.224174
915.305107,-3849.070898,-2451.505594,5551.544565
915.305437,-814.226536,-1685.410096,3923.091493
915.305766,1998.556043,842.705048,3478.967927
915.306096,3034.844362,2145.067394,4737.318029
915.306425,3330.926739,2834.553343,7105.977043
915.306754,2886.803174,5209.449386,8882.471304
915.307084,1628.453072,5515.887586,9918.759623
915.307413,518.144159,5822.325785,10732.986159
915.307743,0.000000,3600.648841,11917.315666
915.308072,-1480.411884,0.000000,13619.789333
915.308402,-3108.864956,-1378.971896,14063.912898
915.308731,-5329.482782,-689.485948,12879.583391
915.309061,-5921.647536,-919.314598,11103.089130
915.309390,-5551.544565,-995.924147,9770.718434
915.309719,-3997.112087,-1302.362347,7698.141797
915.310049,-740.205942,-1072.533697,5255.462188
915.310378,1998.556043,-995.924147,3923.091493
915.310708,3775.050304,1685.410096,4737.318029
915.311037,3256.906145,3983.696590,6661.853478
915.311367,2886.803174,3524.039291,9178.553681
915.311696,1406.391290,4826.401637,10362.883188
915.312026,0.000000,5362.668486,11695.253884
915.312355,-740.205942,3830.477490,12805.562797
915.312684,-2072.576638,766.095498,14359.995275
915.313014,-3552.988522,-842.705048,15100.201217
915.313343,-5033.400406,-919.314598,13693.809927
915.313673,-6217.729913,-1991.848295,11843.295072
915.314002,-6291.750507,-2298.286494,10288.862594
915.314332,-5033.400406,-1915.238745,7846.182985
915.314661,-3108.864956,-1532.190996,5921.647536
915.314991,444.123565,-766.095498,4663.297435
915.315320,3182.885551,536.266849,4737.318029
915.315649,3775.050304,2298.286494,5847.626942
915.315979,3404.947333,2757.943793,7105.977043
915.316308,2368.659014,4290.134789,8734.430116
915.316638,1554.432478,5362.668486,10362.883188
915.316967,518.144159,4903.011187,11399.171507
915.317297,-1184.329507,2604.724693,11547.212695
915.317626,-2220.617826,-459.657299,13175.665768
915.317956,-3923.091493,-2068.457845,13619.789333
915.318285,-5625.565159,-1378.971896,12731.542202
915.318614,-6735.874072,-1302.362347,11251.130318
915.318944,-6143.709319,-2451.505594,9400.615463
915.319273,-3923.091493,-1838.629195,7105.977043
915.319603,-592.164754,-1762.019645,5033.400406
915.319932,3108.864956,-1378.971896,4811.338623
915.320262,4737.318029,1225.752797,5551.544565
915.320591,4515.256246,3830.477490,7031.956449
915.320921,3701.029710,3983.696590,8734.430116
915.321250,2738.761985,4290.134789,10658.965565
915.321579,1480.411884,4136.915689,12287.418637
915.321909,0.000000,2374.896044,14582.057057
915.322238,-2442.679609,919.314598,14730.098246
915.322568,-4145.153275,0.000000,14211.954086
915.322897,-4441.235652,-1608.800546,12731.542202
915.323227,-4515.256246,-2374.896044,11103.089130
915.323556,-4589.276840,-2451.505594,9030.512492
915.323886,-3923.091493,-2068.457845,6513.812290
915.324215,-1776.494261,-1302.362347,4811.338623
915.324544,888.247130,306.438199,4589.276840
915.324874,2738.761985,1455.581446,5107.421000
915.325203,2960.823768,2145.067394,7402.059420
915.325533,1850.514855,4519.963438,8808.450710
915.325862,148.041188,5439.278036,9622.677246
915.326192,0.000000,4596.572988,11029.068536
915.326521,-1406.391290,3294.210641,11473.192101
915.326850,-2220.617826,919.314598,10955.047942
915.327180,-3108.864956,-2757.943793,12361.439231
915.327509,-4219.173869,-2604.724693,13397.727550
915.327839,-6439.791695,-766.095498,12731.542202
915.328168,-7550.100608,-1225.752797,10584.944971
915.328498,-5699.585753,-1532.190996,8586.388927
915.328827,-2368.659014,-612.876398,6217.729913
915.329157,1924.535449,-1149.143247,4885.359217
915.329486,4441.235652,-1225.752797,4737.318029
915.329815,4737.318029,2451.505594,6291.750507
915.330145,3627.009116,5362.668486,8438.347739
915.330474,2812.782580,5362.668486,10732.986159
915.330804,1332.370696,6588.421283,11843.295072
915.331133,74.020594,4903.011187,12139.377449
915.331463,-1110.308913,1685.410096,12731.542202
915.331792,-2368.659014,-612.876398,13027.624579
915.332122,-4293.194464,-306.438199,13175.665768
915.332451,-6217.729913,-1532.190996,11843.295072
915.332780,-7846.182985,-1991.848295,10658.965565
915.333110,-7476.080014,-1608.800546,8808.450710
915.333439,-4885.359217,-1455.581446,6143.709319
915.333769,-740.205942,-1532.190996,4737.318029
915.334098,2294.638420,-459.657299,3627.009116
915.334428,3627.009116,1532.190996,4811.338623
915.334757,3775.050304,3524.039291,7254.018232
915.335087,2738.761985,5439.278036,9400.615463
915.335416,2072.576638,6818.249932,11103.089130
915.335745,592.164754,6435.202183,11843.295072
915.336075,-592.164754,4213.525239,11695.253884
915.336404,-1258.350101,306.438199,12583.501014
915.336734,-2220.617826,-2757.943793,13249.686362
915.337063,-4071.132681,-1302.362347,12731.542202
915.337393,-5921.647536,-1532.190996,11473.192101
915.337722,-5699.585753,-1915.238745,9918.759623
915.338052,-4367.215058,-1455.581446,7550.100608
915.338381,-1184.329507,-1225.752797,5477.523971
915.338710,2590.720797,-1608.800546,4811.338623
915.339040,4441.235652,766.095498,5625.565159
915.339369,4367.215058,4519.963438,7031.956449
915.339699,3552.988522,3983.696590,8512.368333
915.340028,2442.679609,4443.353888,10584.944971
915.340358,740.205942,5286.058936,11769.274478
915.340687,-592.164754,2757.943793,13397.727550
915.341017,-1998.556043,842.705048,14285.974681
915.341346,-3478.967927,0.000000,14211.954086
915.341675,-4589.276840,-1532.190996,12583.501014
915.342005,-5107.421000,-2911.162892,11251.130318
915.342334,-5255.462188,-2068.457845,9474.636058
915.342664,-4737.318029,-1378.971896,7254.018232
915.342993,-2738.761985,-842.705048,5329.482782
915.343323,370.102971,306.438199,4663.297435
915.343652,3034.844362,689.485948,5107.421000
915.343982,4145.153275,1532.190996,6661.853478
915.344311,2960.823768,3524.039291,7994.224174
915.344640,1332.370696,5132.839837,9104.533087
915.344970,370.102971,4903.011187,10436.903782
915.345299,-740.205942,3830.477490,11251.130318
915.345629,-2072.576638,1838.629195,11843.295072
915.345958,-2664.741391,-1149.143247,12139.377449
915.346288,-3404.947333,-2298.286494,13175.665768
915.346617,-5255.462188,-1302.362347,12509.480420
915.346947,-6439.791695,-2221.676944,11103.089130
915.347276,-5847.626942,-2221.676944,9844.739029
915.347605,-3701.029710,-919.314598,7105.977043
915.347935,0.000000,-689.485948,5995.668130
915.348264,2960.823768,-383.047749,5477.523971
915.348594,4441.235652,1762.019645,5921.647536
915.348923,4293.194464,3294.210641,7179.997637
915.349253,3849.070898,4443.353888,8882.471304
915.349582,2812.782580,4826.401637,11473.192101
915.349912,518.144159,4596.572988,12435.459826
915.350241,-1776.494261,2528.115143,13175.665768
915.350570,-3256.906145,842.705048,13767.830521
915.350900,-4293.194464,-383.047749,13249.686362
915.351229,-5329.482782,-536.266849,11547.212695
915.351559,-5921.647536,-2451.505594,10140.821405
915.351888,-6291.750507,-2757.943793,8882.471304
915.352218,-5107.421000,-1991.848295,7105.977043
915.352547,-2442.679609,-919.314598,5921.647536
915.352877,962.267725,76.609550,5403.503377
915.353206,2516.700203,1072.533697,5995.668130
915.353535,3182.885551,2604.724693,6957.935855
915.353865,3034.844362,3677.258390,8068.244768
915.354194,2516.700203,4749.792088,9474.636058
915.354524,1258.350101,4826.401637,10362.883188
915.354853,-444.123565,2757.943793,11621.233289
915.355183,-2294.638420,-459.657299,12879.583391
915.355512,-3478.967927,-995.924147,13175.665768
915.355842,-4663.297435,-995.924147,12509.480420
915.356171,-4885.359217,-1302.362347,11769.274478
915.356500,-5033.400406,-1838.629195,10066.800811
915.356830,-3997.112087,-1455.581446,8068.244768
915.357159,-1702.473667,-1302.362347,6587.832884
915.357489,962.267725,-153.219100,5995.668130
915.357818,2664.741391,1915.238745,6439.791695
915.358148,3404.947333,2681.334243,7550.100608
915.358477,3182.885551,3217.601092,8660.409521
915.358807,2368.659014,4213.525239,9844.739029
915.359136,962.267725,4136.915689,11029.068536
915.359465,-296.082377,2834.553343,12657.521608
915.359795,-2294.638420,842.705048,13693.809927
915.360124,-3775.050304,-153.219100,13545.768739
915.360454,-4663.297435,-1072.533697,12509.480420
915.360783,-4515.256246,-1838.629195,11029.068536
915.361113,-4737.318029,-1915.238745,9548.656652
915.361442,-3997.112087,-1302.362347,7550.100608
915.361772,-1850.514855,-1149.143247,5477.523971
915.362101,888.247130,153.219100,4663.297435
915.362430,2960.823768,1378.971896,5329.482782
915.362760,3627.009116,2528.115143,6883.915261
915.363089,3034.844362,3983.696590,8216.285956
915.363419,1998.556043,5286.058936,8808.450710
915.363748,1258.350101,4903.011187,10140.821405
915.364078,0.000000,3753.867940,11177.109724
915.364407,-1850.514855,1455.581446,11991.336260
915.364737,-3627.009116,-1378.971896,13027.624579
915.365066,-4737.318029,-1072.533697,13027.624579
915.365395,-5625.565159,-306.438199,11991.336260
915.365725,-5847.626942,-1072.533697,10436.903782
915.366054,-5107.421000,-1762.019645,9030.512492
915.366384,-3330.926739,-1072.533697,6957.935855
915.366713,-296.082377,-612.876398,5477.523971
915.367043,2516.700203,383.047749,5181.441594
915.367372,3034.844362,2604.724693,6439.791695
915.367702,3108.864956,3140.991542,8068.244768
915.368031,3034.844362,3064.381992,9696.697840
915.368360,2442.679609,4443.353888,10881.027347
915.368690,1628.453072,4519.963438,11547.212695
915.369019,74.020594,1149.143247,13249.686362
915.369349,-1850.514855,306.438199,14582.057057
915.369678,-3627.009116,306.438199,14434.015869
915.370008,-4663.297435,-536.266849,12953.603985
915.370337,-4959.379811,-612.876398,10955.047942
915.370666,-4811.338623,-1378.971896,8734.430116
915.370996,-4145.153275,-1838.629195,7105.977043
915.371325,-1628.453072,-1532.190996,5255.462188
915.371655,1110.308913,153.219100,4737.318029
915.371984,2368.659014,1532.190996,5255.462188
915.372314,1998.556043,2834.553343,6217.729913
915.372643,1480.411884,3524.039291,7920.203579
915.372973,1332.370696,3907.087040,8956.491898
915.373302,814.226536,4136.915689,10436.903782
915.373631,-1036.288319,3677.258390,10807.006753
915.373961,-2738.761985,766.095498,11917.315666
915.374290,-3701.029710,-1762.019645,13545.768739
915.374620,-5033.400406,-1072.533697,13693.809927
915.374949,-5625.565159,-536.266849,12139.377449
915.375279,-5403.503377,-1608.800546,10140.821405
915.375608,-3404.947333,-1838.629195,8142.265362
915.375938,-666.185348,-1149.143247,5921.647536
915.376267,2590.720797,-536.266849,5477.523971
915.376596,4219.173869,919.314598,5551.544565
915.376926,3923.091493,4060.306139,6291.750507
915.377255,3478.967927,3907.087040,8216.285956
915.377585,2886.803174,3907.087040,9622.677246
915.377914,2368.659014,3907.087040,10881.027347
915.378244,592.164754,1838.629195,12435.459826
915.378573,-1554.432478,306.438199,14063.912898
915.378903,-3849.070898,76.609550,14878.139434
915.379232,-5181.441594,-229.828649,14211.954086
915.379561,-5699.585753,-1225.752797,12287.418637
915.379891,-5625.565159,-1378.971896,9770.718434
915.380220,-4663.297435,-1149.143247,7698.141797
915.380550,-2590.720797,-1455.581446,6143.709319
915.380879,-296.082377,-306.438199,5033.400406
915.381209,1258.350101,1302.362347,5403.503377
915.381538,1850.514855,1762.019645,7031.956449
915.381868,1406.391290,3753.867940,7772.162391
915.382197,1036.288319,4060.306139,8364.327145
915.382526,1036.288319,3140.991542,9178.553681
915.382856,666.185348,3217.601092,9770.718434
915.383185,-1480.411884,1915.238745,10288.862594
915.383515,-3108.864956,-766.095498,12139.377449
915.383844,-4589.276840,-2221.676944,13915.871710
915.384174,-6809.894666,153.219100,13915.871710
915.384503,-7328.038826,153.219100,12065.356855
915.384833,-5403.503377,-1762.019645,10214.842000
915.385162,-2442.679609,-1455.581446,7698.141797
915.385491,1110.308913,-1532.190996,5847.626942
915.385821,3552.988522,-1225.752797,5107.421000
915.386150,4589.276840,2145.067394,5403.503377
915.386480,3701.029710,4519.963438,7179.997637
915.386809,3182.885551,4290.134789,9400.615463
915.387139,2368.659014,4826.401637,10807.006753
915.387468,1406.391290,4673.182538,11103.089130
915.387798,148.041188,1838.629195,12435.459826
915.388127,-1924.535449,-536.266849,13989.892304
915.388456,-4441.235652,-306.438199,14730.098246
915.388786,-6513.812290,-995.924147,13915.871710
915.389115,-7105.977043,-1915.238745,11917.315666
915.389445,-6661.853478,-1149.143247,9696.697840
915.389774,-4219.173869,-1685.410096,6513.812290
915.390104,-518.144159,-1991.848295,4663.297435
915.390433,2220.617826,-229.828649,3552.988522
915.390763,3775.050304,1532.190996,4737.318029
915.391092,3701.029710,2757.943793,6957.935855
915.391421,2738.761985,4903.011187,8660.409521
915.391751,1554.432478,5898.935335,8808.450710
915.392080,1036.288319,4443.353888,10140.821405
915.392410,888.247130,3370.820191,10658.965565
915.392739,-444.123565,1225.752797,11991.336260
915.393069,-2368.659014,-2604.724693,13323.706956
915.393398,-4811.338623,-1149.143247,13989.892304
915.393728,-7105.977043,383.047749,13397.727550
915.394057,-7031.956449,-229.828649,11473.192101
915.394386,-5477.523971,-1149.143247,9178.553681
915.394716,-2220.617826,-229.828649,6439.791695
915.395045,1480.411884,-1915.238745,4663.297435
915.395375,3701.029710,-536.266849,4219.173869
915.395704,3627.009116,3217.601092,5403.503377
915.396034,3034.844362,4060.306139,7624.121203
915.396363,2516.700203,3524.039291,9696.697840
915.396693,1628.453072,5286.058936,11029.068536
915.397022,0.000000,4290.134789,12139.377449
915.397351,-1184.329507,766.095498,13841.851115
915.397681,-3108.864956,306.438199,15100.201217
915.398010,-5255.462188,0.000000,15100.201217
915.398340,-6291.750507,-536.266849,13175.665768
915.398669,-6143.709319,-842.705048,10362.883188
915.398999,-4811.338623,-1072.533697,7772.162391
915.399328,-2664.741391,-1915.238745,5329.482782
915.399658,222.061783,-1455.581446,3627.009116
915.399987,2516.700203,689.485948,4293.194464
915.400316,3330.926739,1991.848295,5551.544565
915.400646,2368.659014,3907.087040,7476.080014
915.400975,888.247130,5439.278036,8660.409521
915.401305,592.164754,4749.792088,9696.697840
915.401634,296.082377,3677.258390,11325.150913
915.401964,-814.226536,3370.820191,11177.109724
915.402293,-2220.617826,536.266849,11325.150913
915.402623,-3256.906145,-3830.477490,13323.706956
915.402952,-5403.503377,-2068.457845,14656.077652
915.403281,-7772.162391,383.047749,13767.830521
915.403611,-7254.018232,-1532.190996,10584.944971
915.403940,-4811.338623,-1532.190996,8068.244768
915.404270,-296.082377,-919.314598,6069.688724
915.404599,3923.091493,-2145.067394,5329.482782
915.404929,6069.688724,-306.438199,5181.441594
915.405258,5625.565159,4213.525239,5477.523971
915.405588,4441.235652,4749.792088,7105.977043
915.405917,4219.173869,3983.696590,10066.800811
915.406246,2738.761985,5209.449386,11769.274478
915.406576,370.102971,3677.258390,12583.501014
915.406905,-1480.411884,842.705048,13693.809927
915.407235,-3849.070898,536.266849,13989.892304
915.407564,-5773.606348,-153.219100,14211.954086
915.407894,-7328.038826,-2451.505594,12361.439231
915.408223,-7772.162391,-3064.381992,10436.903782
915.408553,-6439.791695,-2298.286494,7698.141797
915.408882,-3330.926739,-2604.724693,5403.503377
915.409211,296.082377,-1532.190996,4441.235652
915.409541,2442.679609,689.485948,4737.318029
915.409870,3849.070898,2451.505594,5773.606348
915.410200,3849.070898,3983.696590,7105.977043
915.410529,2664.741391,5822.325785,8586.388927
915.410859,1628.453072,5286.058936,10362.883188
915.411188,296.082377,3447.429741,11473.192101
915.411518,-1406.391290,1072.533697,13249.686362
915.411847,-3182.885551,-995.924147,14434.015869
915.412176,-5699.585753,-1225.752797,13841.851115
915.412506,-7179.997637,-1072.533697,12879.583391
915.412835,-6957.935855,-1532.190996,11103.089130
915.413165,-5625.565159,-1838.629195,8290.306550
915.413494,-2516.700203,-1838.629195,5921.647536
915.413824,1332.370696,-995.924147,4737.318029
915.414153,3256.906145,766.095498,4885.359217
915.414483,3034.844362,2757.943793,6735.874072
915.414812,2516.700203,4596.572988,8142.265362
915.415141,1776.494261,5286.058936,9326.594869
915.415471,1332.370696,4979.620737,10510.924376
915.415800,0.000000,3064.381992,11917.315666
915.416130,-1110.308913,459.657299,12805.562797
915.416459,-3256.906145,-1225.752797,13841.851115
915.416789,-5033.400406,-1225.752797,13989.892304
915.417118,-6439.791695,-383.047749,13397.727550
915.417448,-6809.894666,-919.314598,11621.233289
915.417777,-5625.565159,-2298.286494,8660.409521
915.418106,-2738.761985,-1072.533697,5847.626942
915.418436,740.205942,-842.705048,4293.194464
915.418765,3627.009116,306.438199,4145.153275
915.419095,4737.318029,2145.067394,5107.421000
915.419424,4071.132681,3524.039291,6513.812290
915.419754,3404.947333,4366.744339,8660.409521
915.420083,2220.617826,4903.011187,9696.697840
915.420413,1110.308913,4826.401637,11103.089130
915.420742,-444.123565,2528.115143,11991.336260
915.421071,-2368.659014,0.000000,13249.686362
915.421401,-3552.988522,-1149.143247,13841.851115
915.421730,-5329.482782,-995.924147,13027.624579
915.422060,-6513.812290,-536.266849,11621.233289
915.422389,-6291.750507,-1455.581446,9696.697840
915.422719,-4145.153275,-1991.848295,7402.059420
915.423048,-592.164754,-1838.629195,6217.729913
915.423378,2072.576638,-1225.752797,5329.482782
915.423707,3256.906145,1532.190996,5847.626942
915.424036,3182.885551,3907.087040,6957.935855
915.424366,3108.864956,3983.696590,8734.430116
915.424695,3256.906145,4903.011187,10436.903782
915.425025,1924.535449,4673.182538,11991.336260
915.425354,296.082377,2834.553343,13175.665768
915.425684,-1480.411884,1225.752797,14285.974681
915.426013,-3478.967927,0.000000,13915.871710
915.426343,-4441.235652,-1225.752797,12879.583391
915.426672,-4959.379811,-2145.067394,11473.192101
915.427001,-5181.441594,-2068.457845,9030.512492
915.427331,-4145.153275,-1762.019645,7402.059420
915.427660,-1850.514855,-1225.752797,5921.647536
915.427990,592.164754,229.828649,5181.441594
915.428319,2368.659014,1838.629195,5107.421000
915.428649,2738.761985,2528.115143,6217.729913
915.428978,2294.638420,3983.696590,7772.162391
915.429308,1480.411884,4826.401637,8956.491898
915.429637,444.123565,4443.353888,10436.903782
915.429966,-1406.391290,3600.648841,11177.109724
915.430296,-3256.906145,1762.019645,11917.315666
915.430625,-4219.173869,-689.485948,13027.624579
915.430955,-5181.441594,-1838.629195,13249.686362
915.431284,-6291.750507,-995.924147,12361.439231
915.431614,-6365.771101,-1608.800546,10584.944971
915.431943,-4515.256246,-1991.848295,8512.368333
915.432273,-2368.659014,-1455.581446,6661.853478
915.432602,1036.288319,-766.095498,5403.503377
915.432931,3108.864956,153.219100,5625.565159
915.433261,3849.070898,2834.553343,6365.771101
915.433590,4145.153275,4519.963438,7402.059420
915.433920,4071.132681,4443.353888,9770.718434
915.434249,3256.906145,4903.011187,10807.006753
915.434579,1776.494261,3830.477490,12287.418637
915.434908,-370.102971,1149.143247,13619.789333
915.435238,-2516.700203,1072.533697,14359.995275
915.435567,-4293.194464,-153.219100,13545.768739
915.435896,-5329.482782,-1149.143247,12435.459826
915.436226,-5773.606348,-1991.848295,10510.924376
