#time,accel_x,accel_y,accel_z
1001.875623,-1036.288319,612.876398,9622.677246
1001.875953,-1258.350101,995.924147,9622.677246
1001.876282,-888.247130,995.924147,9622.677246
1001.876612,-962.267725,536.266849,9622.677246
1001.876941,-1184.329507,1225.752797,9252.574275
1001.877270,-1036.288319,919.314598,9474.636058
1001.877600,-1184.329507,995.924147,9548.656652
1001.877929,-1036.288319,919.314598,9548.656652
1001.878259,-1110.308913,612.876398,9844.739029
1001.878588,-962.267725,842.705048,9548.656652
1001.878918,-1036.288319,919.314598,9474.636058
1001.879247,-1036.288319,842.705048,9622.677246
1001.879576,-1110.308913,995.924147,9474.636058
1001.879906,-1036.288319,1149.143247,9104.533087
1001.880235,-1184.329507,1225.752797,9474.636058
1001.880565,-1110.308913,842.705048,9474.636058
1001.880894,-888.247130,766.095498,9474.636058
1001.881223,-1110.308913,842.705048,9548.656652
1001.881553,-1110.308913,995.924147,9252.574275
1001.881882,-888.247130,1225.752797,9400.615463
1001.882212,-1184.329507,842.705048,9400.615463
1001.882541,-888.247130,842.705048,9696.697840
1001.882871,-962.267725,919.314598,9474.636058
1001.883200,-1036.288319,919.314598,9400.615463
1001.883529,-962.267725,1225.752797,9992.780217
1001.883859,-1184.329507,919.314598,9326.594869
1001.884188,-888.247130,842.705048,9474.636058
1001.884518,-962.267725,1072.533697,9474.636058
1001.884847,-962.267725,919.314598,9548.656652
1001.885176,-888.247130,1072.533697,9474.636058
1001.885506,-740.205942,919.314598,9622.677246
1001.885835,-1184.329507,919.314598,9326.594869
1001.886165,-962.267725,689.485948,9474.636058
1001.886494,-1036.288319,766.095498,9474.636058
1001.886823,-888.247130,1302.362347,9400.615463
1001.887153,-1036.288319,1072.533697,9400.615463
1001.887482,-962.267725,995.924147,9548.656652
1001.887812,-888.247130,842.705048,9770.718434
1001.888141,-1110.308913,842.705048,9844.739029
1001.888471,-1110.308913,1072.533697,9548.656652
1001.888800,-962.267725,1225.752797,9474.636058
1001.889129,-1184.329507,995.924147,9622.677246
1001.889459,-1036.288319,995.924147,9770.718434
1001.889788,-1036.288319,995.924147,9622.677246
1001.890118,-1036.288319,766.095498,9474.636058
1001.890447,-888.247130,1149.143247,9326.594869
1001.890776,-1036.288319,1225.752797,9252.574275
1001.891106,-888.247130,1072.533697,9474.636058
1001.891435,-1110.308913,766.095498,9622.677246
1001.891765,-1110.308913,766.095498,9548.656652
1001.892094,-1110.308913,995.924147,9474.636058
1001.892423,-740.205942,1072.533697,9474.636058
1001.892753,-1036.288319,919.314598,9400.615463
1001.893082,-1110.308913,995.924147,9474.636058
1001.893412,-1110.308913,995.924147,9474.636058
1001.893741,-962.267725,919.314598,9474.636058
1001.894071,-740.205942,1072.533697,9474.636058
1001.894400,-888.247130,1072.533697,9622.677246
1001.894729,-1184.329507,919.314598,9400.615463
1001.895059,-1258.350101,919.314598,9326.594869
1001.895388,-1036.288319,1072.533697,9474.636058
1001.895718,-1110.308913,1378.971896,9696.697840
1001.896047,-1110.308913,459.657299,8882.471304
1001.896376,-1258.350101,766.095498,9474.636058
1001.896706,-1036.288319,919.314598,9548.656652
1001.897035,-888.247130,1072.533697,9622.677246
1001.897365,-814.226536,919.314598,9326.594869
1001.897694,0.000000,1072.533697,9400.615463
1001.898023,222.061783,689.485948,9030.512492
1001.898353,1036.288319,536.266849,9474.636058
1001.898682,888.247130,612.876398,9326.594869
1001.899012,370.102971,612.876398,9622.677246
1001.899341,148.041188,766.095498,9918.759623
1001.899671,-444.123565,1149.143247,10510.924376
1001.900000,-814.226536,689.485948,10658.965565
1001.900329,-518.144159,459.657299,10362.883188
1001.900659,0.000000,153.219100,9622.677246
1001.900988,888.247130,153.219100,9400.615463
1001.901318,1776.494261,153.219100,9178.553681
1001.901647,2368.659014,689.485948,9104.533087
1001.901976,3108.864956,919.314598,8956.491898
1001.902306,3404.947333,1455.581446,9178.553681
1001.902635,3701.029710,1991.848295,9252.574275
1001.902965,3552.988522,2145.067394,9844.739029
1001.903294,3034.844362,1225.752797,10140.821405
1001.903624,2146.597232,842.705048,10214.842000
1001.903953,1184.329507,612.876398,10584.944971
1001.904282,1258.350101,306.438199,10436.903782
1001.904612,1406.391290,0.000000,10140.821405
1001.904941,2146.597232,0.000000,9474.636058
1001.905271,2960.823768,-383.047749,9104.533087
1001.905600,3849.070898,0.000000,9252.574275
1001.905929,4441.235652,842.705048,9104.533087
1001.906259,4219.173869,1915.238745,9548.656652
1001.906588,3182.885551,3217.601092,9770.718434
1001.906918,2072.576638,2834.553343,10584.944971
1001.907247,296.082377,2681.334243,10362.883188
1001.907576,-1406.391290,1991.848295,9992.780217
1001.907906,-1850.514855,1149.143247,9178.553681
1001.908235,-962.267725,-229.828649,7994.224174
1001.908565,666.185348,-1225.752797,7105.977043
1001.908894,2368.659014,-1149.143247,6587.832884
1001.909224,3701.029710,-459.657299,6365.771101
1001.909553,4441.235652,919.314598,7105.977043
1001.909882,3997.112087,2451.505594,8956.491898
1001.910212,2590.720797,4826.401637,11399.171507
1001.910541,962.267725,4673.182538,12139.377449
1001.910871,0.000000,3524.039291,12509.480420
1001.911200,-962.267725,1608.800546,12361.439231
1001.911529,-1702.473667,-1225.752797,11325.150913
1001.911859,-1554.432478,-2681.334243,11103.089130
1001.912188,-1036.288319,-2834.553343,10140.821405
1001.912518,-222.061783,-2068.457845,9104.533087
1001.912847,1702.473667,-1532.190996,8364.327145
1001.913176,4071.132681,-1455.581446,7624.121203
1001.913506,4663.297435,995.924147,7105.977043
1001.913835,5107.421000,2298.286494,7624.121203
1001.914165,4737.318029,3294.210641,8660.409521
1001.914494,4367.215058,4136.915689,9992.780217
1001.914824,3330.926739,3983.696590,10658.965565
1001.915153,2368.659014,2834.553343,11251.130318
1001.915482,1110.308913,1532.190996,11473.192101
1001.915812,0.000000,229.828649,10955.047942
1001.916141,-740.205942,-612.876398,10436.903782
1001.916471,-518.144159,-1532.190996,10214.842000
1001.916800,-148.041188,-1378.971896,9992.780217
1001.917129,0.000000,-689.485948,9696.697840
1001.917459,296.082377,0.000000,9178.553681
1001.917788,1406.391290,229.828649,8290.306550
1001.918118,2368.659014,536.266849,8142.265362
1001.918447,3701.029710,689.485948,8660.409521
1001.918776,4219.173869,536.266849,8364.327145
1001.919106,4367.215058,459.657299,8364.327145
1001.919435,4145.153275,612.876398,9252.574275
1001.919765,2960.823768,995.924147,10066.800811
1001.920094,1998.556043,1608.800546,10807.006753
1001.920424,1554.432478,1991.848295,10510.924376
1001.920753,2294.638420,1915.238745,10584.944971
1001.921082,2368.659014,2145.067394,10288.862594
1001.921412,2664.741391,1762.019645,9400.615463
1001.921741,3552.988522,919.314598,8660.409521
1001.922071,3849.070898,612.876398,7994.224174
1001.922400,3182.885551,766.095498,8068.244768
1001.922729,2220.617826,1302.362347,9104.533087
1001.923059,666.185348,995.924147,9770.718434
1001.923388,-518.144159,689.485948,9696.697840
1001.923718,-1406.391290,612.876398,10066.800811
1001.924047,-1554.432478,-229.828649,10955.047942
1001.924377,-1628.453072,-766.095498,11399.171507
1001.924706,-1924.535449,-459.657299,11325.150913
1001.925035,-1776.494261,-229.828649,10510.924376
1001.925365,0.000000,153.219100,9400.615463
1001.925694,2368.659014,153.219100,8808.450710
1001.926024,4737.318029,1302.362347,7846.182985
1001.926353,7179.997637,2298.286494,7476.080014
1001.926682,9030.512492,2987.772442,7994.224174
1001.927012,9326.594869,4213.525239,8660.409521
1001.927341,7920.203579,4673.182538,9696.697840
1001.927671,5477.523971,4596.572988,10362.883188
1001.928000,2516.700203,3753.867940,13027.624579
1001.928329,-1036.288319,2068.457845,15544.324782
1001.928659,-5255.462188,1225.752797,15100.201217
1001.928988,-7920.203579,-995.924147,12435.459826
1001.929318,-7994.224174,-3753.867940,9770.718434
1001.929647,-5329.482782,-3370.820191,7105.977043
1001.929977,-444.123565,-4366.744339,3182.885551
1001.930306,5107.421000,-4596.572988,740.205942
1001.930635,9252.574275,-2451.505594,592.164754
1001.930965,9844.739029,2451.505594,3404.947333
1001.931294,8882.471304,6818.249932,7328.038826
1001.931624,7328.038826,9039.926876,11251.130318
1001.931953,4293.194464,10342.289223,13841.851115
1001.932282,814.226536,8656.879127,14730.098246
1001.932612,-1924.535449,3140.991542,16580.613101
1001.932941,-4737.318029,-1149.143247,17098.757260
1001.933271,-6587.832884,-2604.724693,14878.139434
1001.933600,-6291.750507,-4366.744339,11029.068536
1001.933929,-2442.679609,-6818.249932,8438.347739
1001.934259,2368.659014,-6511.811733,4885.359217
1001.934588,6735.874072,-4213.525239,2368.659014
1001.934918,10658.965565,-2604.724693,2812.782580
1001.935247,11769.274478,2374.896044,5921.647536
1001.935577,8512.368333,7431.126331,9548.656652
1001.935906,2886.803174,8580.269578,12583.501014
1001.936235,-2368.659014,8427.050478,14582.057057
1001.936565,-4219.173869,6205.373534,15248.242405
1001.936894,-3775.050304,1149.143247,13471.748144
1001.937224,-2960.823768,-3600.648841,10881.027347
1001.937553,-3478.967927,-6741.640382,6809.894666
1001.937882,-1628.453072,-8044.002729,4737.318029
1001.938212,296.082377,-6818.249932,5921.647536
1001.938541,370.102971,-2145.067394,8290.306550
1001.938871,-1036.288319,2528.115143,9474.636058
1001.939200,-1110.308913,4366.744339,10214.842000
1001.939529,148.041188,5362.668486,11251.130318
1001.939859,1776.494261,3447.429741,12287.418637
1001.940188,1110.308913,1685.410096,12731.542202
1001.940518,-1110.308913,842.705048,11843.295072
1001.940847,-2812.782580,-459.657299,11399.171507
1001.941177,-2590.720797,-1072.533697,10807.006753
1001.941506,-2368.659014,-2451.505594,9030.512492
1001.941835,-1554.432478,-4290.134789,6587.832884
1001.942165,0.000000,-3600.648841,5181.441594
1001.942494,2664.741391,-766.095498,6217.729913
1001.942824,4589.276840,2374.896044,7846.182985
1001.943153,4145.153275,4596.572988,7328.038826
1001.943482,2664.741391,5822.325785,7179.997637
1001.943812,1924.535449,6052.154434,9918.759623
1001.944141,666.185348,4826.401637,13767.830521
1001.944471,-3108.864956,4136.915689,14952.160028
1001.944800,-7772.162391,2221.676944,13693.809927
1001.945129,-10510.924376,459.657299,11399.171507
1001.945459,-10510.924376,-2298.286494,10955.047942
1001.945788,-7105.977043,-4136.915689,9474.636058
1001.946118,-2368.659014,-4826.401637,6439.791695
1001.946447,962.267725,-4673.182538,4663.297435
1001.946776,2590.720797,-995.924147,5255.462188
1001.947106,2886.803174,3064.381992,7846.182985
1001.947435,2664.741391,5669.106685,9474.636058
1001.947764,1998.556043,7277.907231,10140.821405
1001.948093,1258.350101,7507.735880,11473.192101
1001.948423,1036.288319,5898.935335,12435.459826
1001.948752,1554.432478,2451.505594,11621.233289
1001.949081,1332.370696,76.609550,9474.636058
1001.949411,740.205942,-536.266849,8586.388927
1001.949740,-444.123565,-689.485948,9770.718434
1001.950069,-1258.350101,1302.362347,10658.965565
1001.950398,-2664.741391,2298.286494,9252.574275
1001.950728,-2516.700203,2374.896044,7772.162391
1001.951057,-1110.308913,2681.334243,8068.244768
1001.951386,518.144159,2528.115143,8290.306550
1001.951716,1628.453072,2451.505594,7920.203579
1001.952045,444.123565,2298.286494,7624.121203
1001.952374,-1480.411884,1838.629195,8734.430116
1001.952703,-3923.091493,1149.143247,9400.615463
1001.953033,-5847.626942,76.609550,10362.883188
1001.953362,-6217.729913,0.000000,10510.924376
1001.953691,-4219.173869,-1225.752797,9326.594869
1001.954020,-1480.411884,-2451.505594,8808.450710
1001.954350,888.247130,-1225.752797,7772.162391
1001.954679,2960.823768,-306.438199,6809.894666
1001.955008,4737.318029,689.485948,7994.224174
1001.955338,4885.359217,2911.162892,10510.924376
1001.955667,2516.700203,4673.182538,12731.542202
1001.955996,-888.247130,5286.058936,12805.562797
1001.956325,-2812.782580,3370.820191,12583.501014
1001.956655,-3701.029710,766.095498,12213.398043
1001.956984,-3330.926739,-1685.410096,11325.150913
1001.957313,-2960.823768,-4213.525239,9770.718434
1001.957643,-1850.514855,-4979.620737,8438.347739
1001.957972,-1702.473667,-5286.058936,8068.244768
1001.958301,-2294.638420,-4060.306139,8734.430116
1001.958630,-2664.741391,-1149.143247,9696.697840
1001.958960,-2220.617826,1915.238745,9326.594869
1001.959289,-1406.391290,2757.943793,8956.491898
1001.959618,-148.041188,2451.505594,9178.553681
1001.959948,1628.453072,2221.676944,9400.615463
1001.960277,1628.453072,2145.067394,9252.574275
1001.960606,1258.350101,459.657299,9548.656652
1001.960935,-1258.350101,306.438199,11103.089130
1001.961265,-3997.112087,1532.190996,12213.398043
1001.961594,-6291.750507,1149.143247,12065.356855
1001.961923,-6883.915261,-306.438199,11251.130318
1001.962252,-5477.523971,0.000000,10066.800811
1001.962582,-2738.761985,0.000000,9326.594869
1001.962911,0.000000,-1532.190996,8290.306550
1001.963240,1480.411884,-306.438199,6809.894666
1001.963570,2294.638420,995.924147,5921.647536
1001.963899,1480.411884,1991.848295,7476.080014
1001.964228,814.226536,3140.991542,9104.533087
1001.964557,-888.247130,4060.306139,9400.615463
1001.964887,-962.267725,3524.039291,9252.574275
1001.965216,-222.061783,1838.629195,9770.718434
1001.965545,888.247130,1532.190996,9326.594869
1001.965875,1702.473667,1072.533697,8290.306550
1001.966204,1480.411884,1378.971896,7698.141797
1001.966533,740.205942,2068.457845,9474.636058
1001.966862,0.000000,3140.991542,11399.171507
1001.967192,-2072.576638,4826.401637,11251.130318
1001.967521,-3182.885551,4596.572988,9622.677246
1001.967850,-2812.782580,3064.381992,8956.491898
1001.968180,-1480.411884,1762.019645,9030.512492
1001.968509,-148.041188,995.924147,8512.368333
1001.968838,444.123565,153.219100,7550.100608
1001.969167,444.123565,-766.095498,7254.018232
1001.969497,148.041188,-612.876398,9030.512492
1001.969826,-1184.329507,995.924147,10436.903782
1001.970155,-2368.659014,2145.067394,9844.739029
1001.970485,-2072.576638,2757.943793,9326.594869
1001.970814,-222.061783,1608.800546,9918.759623
1001.971143,1406.391290,1838.629195,10584.944971
1001.971472,2294.638420,2145.067394,9770.718434
1001.971802,2738.761985,612.876398,8290.306550
1001.972131,2664.741391,0.000000,9104.533087
1001.972460,888.247130,919.314598,10955.047942
1001.972789,-1332.370696,1532.190996,11991.336260
1001.973119,-3108.864956,1455.581446,11251.130318
1001.973448,-3923.091493,306.438199,11177.109724
1001.973777,-3330.926739,153.219100,10066.800811
1001.974107,-1702.473667,-1532.190996,9252.574275
1001.974436,0.000000,-3217.601092,7846.182985
1001.974765,222.061783,-3447.429741,7254.018232
1001.975094,-1480.411884,-1149.143247,8734.430116
1001.975424,-3404.947333,229.828649,9548.656652
1001.975753,-4293.194464,153.219100,10214.842000
1001.976082,-4367.215058,536.266849,10214.842000
1001.976412,-3034.844362,1302.362347,9030.512492
1001.976741,-666.185348,0.000000,8808.450710
1001.977070,1184.329507,-1149.143247,8068.244768
1001.977399,1332.370696,-612.876398,8290.306550
1001.977729,-740.205942,-383.047749,10140.821405
1001.978058,-2442.679609,1378.971896,12805.562797
1001.978387,-4515.256246,3524.039291,13249.686362
1001.978717,-5255.462188,2374.896044,12361.439231
1001.979046,-4367.215058,-459.657299,11769.274478
1001.979375,-2368.659014,-1455.581446,11177.109724
1001.979704,-740.205942,-1685.410096,9474.636058
1001.980034,0.000000,-842.705048,7254.018232
1001.980363,814.226536,-383.047749,6883.915261
1001.980692,666.185348,0.000000,8512.368333
1001.981022,-888.247130,1072.533697,9326.594869
1001.981351,-2294.638420,2987.772442,9178.553681
1001.981680,-1554.432478,3447.429741,8216.285956
1001.982009,592.164754,1991.848295,9178.553681
1001.982339,1406.391290,2145.067394,9252.574275
1001.982668,1924.535449,2145.067394,8808.450710
1001.982997,1554.432478,1838.629195,8068.244768
1001.983326,740.205942,2604.724693,9252.574275
1001.983656,-518.144159,4060.306139,11029.068536
1001.983985,-2812.782580,4673.182538,11843.295072
1001.984314,-3849.070898,3830.477490,11177.109724
1001.984644,-3182.885551,2987.772442,9474.636058
1001.984973,-1924.535449,1838.629195,8216.285956
1001.985302,370.102971,229.828649,7031.956449
1001.985631,888.247130,-766.095498,6439.791695
1001.985961,740.205942,-383.047749,6735.874072
1001.986290,370.102971,306.438199,8068.244768
1001.986619,0.000000,1838.629195,9474.636058
1001.986949,-518.144159,3370.820191,9474.636058
1001.987278,-962.267725,2911.162892,9104.533087
1001.987607,1110.308913,1762.019645,10214.842000
1001.987936,3182.885551,2068.457845,10732.986159
1001.988266,3552.988522,2757.943793,9770.718434
1001.988595,2664.741391,2604.724693,9400.615463
1001.988924,1332.370696,2298.286494,10288.862594
1001.989254,-444.123565,2374.896044,11991.336260
1001.989583,-2886.803174,2221.676944,11843.295072
1001.989912,-4811.338623,1378.971896,11029.068536
1001.990241,-4885.359217,383.047749,10436.903782
1001.990571,-3256.906145,-689.485948,9622.677246
1001.990900,-2442.679609,-2604.724693,8660.409521
1001.991229,-1776.494261,-3370.820191,7031.956449
1001.991558,-1480.411884,-2451.505594,7105.977043
1001.991888,-1924.535449,-1915.238745,9030.512492
1001.992217,-3552.988522,1149.143247,10362.883188
1001.992546,-4293.194464,2221.676944,9326.594869
1001.992876,-2886.803174,459.657299,8734.430116
1001.993205,-962.267725,-919.314598,9474.636058
1001.993534,-222.061783,-229.828649,10214.842000
1001.993863,-148.041188,766.095498,8882.471304
1001.994193,0.000000,306.438199,9030.512492
1001.994522,0.000000,0.000000,11029.068536
1001.994851,-1702.473667,995.924147,13323.706956
1001.995181,-4219.173869,995.924147,13619.789333
1001.995510,-5699.585753,1072.533697,11991.336260
1001.995839,-4885.359217,1072.533697,11843.295072
1001.996168,-3478.967927,-153.219100,11325.150913
1001.996498,-1628.453072,-1532.190996,9030.512492
1001.996827,-444.123565,-2681.334243,6069.688724
1001.997156,518.144159,-2911.162892,5107.421000
1001.997486,592.164754,-1149.143247,6957.935855
1001.997815,-888.247130,1378.971896,8660.409521
1001.998144,-2368.659014,3064.381992,8660.409521
1001.998473,-2590.720797,3140.991542,8068.244768
1001.998803,-518.144159,2145.067394,9178.553681
1001.999132,1628.453072,1225.752797,9992.780217
1001.999461,2442.679609,1608.800546,9622.677246
1001.999791,1924.535449,2145.067394,9622.677246
1002.000120,1110.308913,3217.601092,10658.965565
1002.000449,-370.102971,4213.525239,12139.377449
1002.000778,-2368.659014,4443.353888,11399.171507
1002.001108,-3182.885551,3217.601092,9844.739029
1002.001437,-1850.514855,2068.457845,8956.491898
1002.001766,148.041188,995.924147,9104.533087
1002.002095,1258.350101,229.828649,8216.285956
1002.002425,592.164754,0.000000,5847.626942
1002.002754,-370.102971,536.266849,4885.359217
1002.003083,-814.226536,536.266849,7920.203579
1002.003413,-1258.350101,1838.629195,10584.944971
1002.003742,-2072.576638,3140.991542,10732.986159
1002.004071,-1924.535449,2604.724693,9178.553681
1002.004400,74.020594,1302.362347,8734.430116
1002.004730,2664.741391,766.095498,9474.636058
1002.005059,3775.050304,1378.971896,9548.656652
1002.005388,3552.988522,2374.896044,9474.636058
1002.005718,2368.659014,3524.039291,11103.089130
1002.006047,148.041188,4673.182538,12731.542202
1002.006376,-2220.617826,4519.963438,11769.274478
1002.006705,-3627.009116,1991.848295,9844.739029
1002.007035,-3330.926739,0.000000,9252.574275
1002.007364,-2516.700203,-1225.752797,9622.677246
1002.007693,-2442.679609,-2221.676944,9104.533087
1002.008023,-2664.741391,-2757.943793,7328.038826
1002.008352,-3478.967927,-2834.553343,6809.894666
1002.008681,-3478.967927,-1915.238745,8290.306550
1002.009010,-3330.926739,-612.876398,10066.800811
1002.009340,-3627.009116,766.095498,10658.965565
1002.009669,-3552.988522,995.924147,9030.512492
1002.009998,-2590.720797,1608.800546,8290.306550
1002.010327,-518.144159,0.000000,8734.430116
1002.010657,1332.370696,0.000000,9252.574275
1002.010986,1258.350101,0.000000,9622.677246
1002.011315,370.102971,306.438199,10955.047942
1002.011645,-2146.597232,842.705048,13323.706956
1002.011974,-4737.318029,1685.410096,14137.933492
1002.012303,-5921.647536,842.705048,12805.562797
1002.012632,-4885.359217,-536.266849,11843.295072
1002.012962,-3034.844362,-1149.143247,11251.130318
1002.013291,-1184.329507,-2451.505594,8956.491898
1002.013620,296.082377,-2987.772442,7328.038826
1002.013950,444.123565,-2068.457845,6069.688724
1002.014279,0.000000,-612.876398,7328.038826
1002.014608,-962.267725,1302.362347,8734.430116
1002.014937,-1628.453072,2757.943793,8956.491898
1002.015267,-1406.391290,2604.724693,8808.450710
1002.015596,0.000000,1455.581446,9326.594869
1002.015925,888.247130,1302.362347,9622.677246
1002.016255,1406.391290,1762.019645,9252.574275
1002.016584,1332.370696,1225.752797,9622.677246
1002.016913,1110.308913,2374.896044,10510.924376
1002.017242,-666.185348,3677.258390,11769.274478
1002.017572,-2516.700203,4903.011187,11029.068536
1002.017901,-3108.864956,3600.648841,9474.636058
1002.018230,-2368.659014,2068.457845,8586.388927
1002.018560,-888.247130,1608.800546,8438.347739
1002.018889,666.185348,842.705048,8142.265362
1002.019218,962.267725,0.000000,6883.915261
1002.019547,666.185348,0.000000,6217.729913
1002.019877,74.020594,766.095498,7624.121203
1002.020206,-666.185348,1608.800546,9474.636058
1002.020535,-1850.514855,2604.724693,10362.883188
1002.020864,-2220.617826,3447.429741,9548.656652
1002.021194,-222.061783,2757.943793,9622.677246
1002.021523,1702.473667,1915.238745,9622.677246
1002.021852,2368.659014,2221.676944,8734.430116
1002.022182,2072.576638,1991.848295,8734.430116
1002.022511,1850.514855,2374.896044,10510.924376
1002.022840,148.041188,4060.306139,12213.398043
1002.023169,-2072.576638,4366.744339,11695.253884
1002.023499,-4071.132681,2604.724693,10066.800811
1002.023828,-3627.009116,612.876398,9918.759623
1002.024157,-2812.782580,153.219100,10066.800811
1002.024487,-1776.494261,-689.485948,9326.594869
1002.024816,-1850.514855,-1838.629195,7698.141797
1002.025145,-1924.535449,-1991.848295,7179.997637
1002.025474,-1924.535449,-1991.848295,8290.306550
1002.025804,-2368.659014,-1149.143247,9474.636058
1002.026133,-3701.029710,536.266849,9696.697840
1002.026462,-3701.029710,306.438199,9844.739029
1002.026792,-2368.659014,689.485948,10658.965565
1002.027121,-814.226536,1072.533697,9770.718434
1002.027450,518.144159,153.219100,8142.265362
1002.027779,1480.411884,-842.705048,7846.182985
1002.028109,962.267725,229.828649,9992.780217
1002.028438,-888.247130,1455.581446,12139.377449
1002.028767,-3330.926739,1225.752797,13323.706956
1002.029097,-4885.359217,536.266849,11991.336260
1002.029426,-5625.565159,306.438199,11177.109724
1002.029755,-3849.070898,-1762.019645,10732.986159
1002.030084,-1406.391290,-2757.943793,9622.677246
1002.030414,0.000000,-2528.115143,7476.080014
1002.030743,0.000000,-2604.724693,6143.709319
1002.031072,-666.185348,-2221.676944,7624.121203
1002.031401,-2146.597232,383.047749,9474.636058
1002.031731,-3923.091493,2068.457845,9844.739029
1002.032060,-3552.988522,1455.581446,9548.656652
1002.032389,-1924.535449,1072.533697,9844.739029
1002.032719,-222.061783,995.924147,9918.759623
1002.033048,1036.288319,76.609550,9548.656652
1002.033377,1628.453072,919.314598,8586.388927
1002.033706,1924.535449,1762.019645,10066.800811
1002.034036,1480.411884,3140.991542,11621.233289
1002.034365,-962.267725,4290.134789,11991.336260
1002.034694,-2960.823768,4673.182538,10510.924376
1002.035024,-3923.091493,3294.210641,9326.594869
1002.035353,-2886.803174,2068.457845,9104.533087
1002.035682,-1628.453072,383.047749,8734.430116
1002.036011,-222.061783,0.000000,8068.244768
1002.036341,-444.123565,-995.924147,6883.915261
1002.036670,-666.185348,-153.219100,7031.956449
1002.036999,-592.164754,229.828649,8438.347739
1002.037329,-888.247130,1991.848295,9326.594869
1002.037658,-888.247130,3600.648841,9400.615463
1002.037987,518.144159,3753.867940,9844.739029
1002.038316,2886.803174,4519.963438,10658.965565
1002.038646,3775.050304,4596.572988,8882.471304
1002.038975,3849.070898,3064.381992,7994.224174
1002.039304,3034.844362,2528.115143,9030.512492
1002.039633,1406.391290,4596.572988,10510.924376
1002.039963,-1332.370696,4213.525239,11399.171507
1002.040292,-3478.967927,2911.162892,10658.965565
1002.040621,-4811.338623,1225.752797,9696.697840
1002.040951,-3849.070898,306.438199,9548.656652
1002.041280,-2146.597232,-612.876398,9104.533087
1002.041609,-1480.411884,-995.924147,7476.080014
1002.041938,-1110.308913,-1149.143247,6809.894666
1002.042268,-1554.432478,-1302.362347,7179.997637
1002.042597,-1924.535449,153.219100,8882.471304
1002.042926,-2664.741391,766.095498,9252.574275
1002.043256,-3108.864956,766.095498,9622.677246
1002.043585,-2664.741391,536.266849,10658.965565
1002.043914,-1702.473667,306.438199,11029.068536
1002.044243,0.000000,-153.219100,9696.697840
1002.044573,962.267725,0.000000,8586.388927
1002.044902,2146.597232,-459.657299,9400.615463
1002.045231,1110.308913,0.000000,11843.295072
1002.045561,-1924.535449,1225.752797,12583.501014
1002.045890,-4885.359217,1225.752797,12065.356855
1002.046219,-5329.482782,689.485948,12065.356855
1002.046548,-3775.050304,0.000000,12213.398043
1002.046878,-1554.432478,-1838.629195,11103.089130
1002.047207,-518.144159,-3907.087040,8142.265362
1002.047536,-592.164754,-4136.915689,6143.709319
1002.047866,-962.267725,-2834.553343,7105.977043
1002.048195,-1850.514855,-1762.019645,9770.718434
1002.048528,-3256.906145,689.485948,10436.903782
1002.048857,-4219.173869,2145.067394,9696.697840
1002.049187,-2368.659014,612.876398,9474.636058
1002.049516,74.020594,0.000000,9844.739029
1002.049846,1554.432478,536.266849,9400.615463
1002.050175,2146.597232,-153.219100,8512.368333
1002.050504,1406.391290,842.705048,9326.594869
1002.050834,148.041188,2451.505594,11177.109724
1002.051163,-1702.473667,3140.991542,11843.295072
1002.051493,-3256.906145,2451.505594,10658.965565
1002.051822,-3552.988522,2298.286494,9326.594869
1002.052152,-1554.432478,1991.848295,9474.636058
1002.052481,444.123565,995.924147,8512.368333
1002.052811,1776.494261,-153.219100,7105.977043
1002.053140,1480.411884,-459.657299,6143.709319
1002.053470,1110.308913,842.705048,7179.997637
1002.053799,222.061783,2757.943793,8956.491898
1002.054128,-1258.350101,3753.867940,9844.739029
1002.054458,-1924.535449,3524.039291,9326.594869
1002.054787,-962.267725,2604.724693,9474.636058
1002.055117,1036.288319,2451.505594,10436.903782
1002.055446,2442.679609,2604.724693,9844.739029
1002.055776,2812.782580,2528.115143,8586.388927
1002.056105,2220.617826,2374.896044,8660.409521
1002.056435,1036.288319,2757.943793,10807.006753
1002.056764,-1110.308913,4443.353888,11843.295072
1002.057094,-3108.864956,4596.572988,10881.027347
1002.057423,-3108.864956,3370.820191,10214.842000
1002.057752,-2220.617826,2068.457845,9918.759623
1002.058082,-1258.350101,842.705048,9252.574275
1002.058411,-962.267725,-612.876398,7254.018232
1002.058741,-1184.329507,-1455.581446,5699.585753
1002.059070,-888.247130,-459.657299,6661.853478
1002.059400,-1480.411884,689.485948,9252.574275
1002.059729,-2442.679609,1762.019645,9474.636058
1002.060059,-3627.009116,1072.533697,9178.553681
1002.060388,-3404.947333,689.485948,10214.842000
1002.060718,-2442.679609,1762.019645,11843.295072
1002.061047,-962.267725,2221.676944,12065.356855
1002.061376,-592.164754,1072.533697,10066.800811
1002.061706,0.000000,-383.047749,9178.553681
1002.062035,0.000000,-1225.752797,9696.697840
1002.062365,-1480.411884,-995.924147,10362.883188
1002.062694,-3330.926739,76.609550,10288.862594
1002.063024,-3849.070898,153.219100,10066.800811
1002.063353,-3108.864956,-689.485948,10288.862594
1002.063683,-1406.391290,-1455.581446,9770.718434
1002.064012,-296.082377,-2528.115143,7994.224174
1002.064342,592.164754,-2068.457845,7179.997637
1002.064671,0.000000,-1532.190996,8512.368333
1002.065000,-1406.391290,-612.876398,10510.924376
1002.065330,-2960.823768,689.485948,11177.109724
1002.065659,-4071.132681,229.828649,10510.924376
1002.065989,-2738.761985,-383.047749,10362.883188
1002.066318,-444.123565,-842.705048,11177.109724
1002.066648,1406.391290,-459.657299,10214.842000
1002.066977,2072.576638,-766.095498,8512.368333
1002.067307,1184.329507,-153.219100,8882.471304
1002.067636,-888.247130,1685.410096,10510.924376
1002.067966,-2664.741391,3447.429741,11251.130318
1002.068295,-4589.276840,2834.553343,10732.986159
1002.068624,-4293.194464,919.314598,10362.883188
1002.068954,-2368.659014,0.000000,10140.821405
1002.069283,-518.144159,-1225.752797,9104.533087
1002.069613,1332.370696,-2451.505594,7550.100608
1002.069942,2220.617826,-1915.238745,6587.832884
1002.070272,2220.617826,-383.047749,8068.244768
1002.070601,1110.308913,1762.019645,11103.089130
1002.070931,-296.082377,4519.963438,11695.253884
1002.071260,-814.226536,5745.716235,10066.800811
1002.071590,740.205942,4060.306139,9474.636058
1002.071919,2664.741391,2757.943793,9400.615463
1002.072248,3923.091493,2604.724693,8142.265362
1002.072578,3849.070898,1838.629195,7105.977043
1002.072907,2812.782580,2221.676944,8216.285956
1002.073237,222.061783,4213.525239,10214.842000
1002.073566,-2516.700203,4366.744339,11177.109724
1002.073896,-4145.153275,3830.477490,10436.903782
1002.074225,-4293.194464,2987.772442,9844.739029
1002.074555,-3256.906145,2374.896044,9474.636058
1002.074884,-1998.556043,1455.581446,8438.347739
1002.075214,-1332.370696,-306.438199,6957.935855
1002.075543,-962.267725,-612.876398,6291.750507
1002.075872,-888.247130,689.485948,7402.059420
1002.076202,-1480.411884,1685.410096,8956.491898
1002.076531,-2368.659014,2221.676944,10140.821405
1002.076861,-2664.741391,2145.067394,10066.800811
1002.077190,-1850.514855,2068.457845,10214.842000
1002.077520,74.020594,1685.410096,10510.924376
1002.077849,1036.288319,1378.971896,10362.883188
1002.078179,1258.350101,689.485948,9104.533087
1002.078508,1036.288319,0.000000,9400.615463
1002.078838,444.123565,153.219100,11325.150913
1002.079167,-1850.514855,1915.238745,11843.295072
1002.079496,-4219.173869,1915.238745,10584.944971
1002.079826,-4515.256246,-383.047749,9548.656652
1002.080155,-3552.988522,-2221.676944,10066.800811
1002.080485,-2220.617826,-1838.629195,10584.944971
1002.080814,-1998.556043,-1532.190996,8956.491898
1002.081144,-2220.617826,-1532.190996,6661.853478
1002.081473,-1702.473667,-2298.286494,7105.977043
1002.081803,-1554.432478,-1991.848295,9918.759623
1002.082132,-2738.761985,-306.438199,11029.068536
1002.082462,-4293.194464,995.924147,10584.944971
1002.082791,-4071.132681,536.266849,10658.965565
1002.083120,-2368.659014,-229.828649,10732.986159
1002.083450,-1184.329507,0.000000,10214.842000
1002.083779,592.164754,-1838.629195,9474.636058
1002.084109,1406.391290,-1225.752797,9474.636058
1002.084438,666.185348,459.657299,10436.903782
1002.084768,-740.205942,2145.067394,10732.986159
1002.085097,-1850.514855,1762.019645,10140.821405
1002.085427,-1776.494261,459.657299,9030.512492
1002.085756,-666.185348,383.047749,9474.636058
1002.086086,888.247130,1149.143247,9918.759623
1002.086415,1628.453072,76.609550,8734.430116
1002.086744,1406.391290,-919.314598,7476.080014
1002.087074,444.123565,536.266849,8364.327145
1002.087403,-370.102971,1302.362347,10288.862594
1002.087733,-1628.453072,1991.848295,10955.047942
1002.088062,-2664.741391,2911.162892,9918.759623
1002.088392,-1776.494261,2528.115143,9622.677246
1002.088721,370.102971,1225.752797,9918.759623
1002.089051,1628.453072,1225.752797,8734.430116
1002.089380,2220.617826,1838.629195,7105.977043
1002.089710,2442.679609,1991.848295,7254.018232
1002.090039,1998.556043,3524.039291,9474.636058
1002.090368,222.061783,5209.449386,10732.986159
1002.090698,-1924.535449,4903.011187,9918.759623
1002.091027,-2368.659014,3753.867940,9030.512492
1002.091357,-1924.535449,2604.724693,9474.636058
1002.091686,-666.185348,1762.019645,9992.780217
1002.092016,74.020594,536.266849,9104.533087
1002.092345,518.144159,229.828649,7105.977043
1002.092675,666.185348,306.438199,7846.182985
1002.093004,-370.102971,1225.752797,9474.636058
1002.093334,-1924.535449,2604.724693,10362.883188
1002.093663,-3182.885551,2987.772442,10214.842000
1002.093992,-1850.514855,2911.162892,10140.821405
1002.094322,-370.102971,2604.724693,10584.944971
1002.094651,444.123565,1915.238745,9326.594869
1002.094981,1036.288319,-229.828649,7550.100608
1002.095310,1110.308913,-842.705048,7698.141797
1002.095640,518.144159,766.095498,10066.800811
1002.095969,-1184.329507,2604.724693,11843.295072
1002.096299,-4071.132681,2068.457845,11103.089130
1002.096628,-5255.462188,995.924147,10140.821405
1002.096958,-4589.276840,-995.924147,9696.697840
1002.097287,-2960.823768,-1608.800546,9992.780217
1002.097616,-1332.370696,-2221.676944,9622.677246
1002.097946,-1258.350101,-2298.286494,8364.327145
1002.098275,-1776.494261,-1685.410096,8882.471304
1002.098605,-1924.535449,-612.876398,10288.862594
1002.098934,-2516.700203,0.000000,10510.924376
1002.099264,-2590.720797,0.000000,10214.842000
1002.099593,-2516.700203,1072.533697,10140.821405
1002.099923,-2294.638420,1072.533697,9918.759623
1002.100252,-1628.453072,-153.219100,9104.533087
1002.100582,-1036.288319,-1762.019645,8364.327145
1002.100911,-370.102971,-689.485948,8882.471304
1002.101240,-1406.391290,-766.095498,10140.821405
1002.101570,-1850.514855,-306.438199,11843.295072
1002.101899,-2960.823768,0.000000,11621.233289
1002.102229,-3182.885551,383.047749,11251.130318
1002.102558,-2294.638420,536.266849,10288.862594
1002.102888,-148.041188,536.266849,10140.821405
1002.103217,1406.391290,0.000000,9252.574275
1002.103547,2516.700203,0.000000,8512.368333
1002.103876,2220.617826,153.219100,9178.553681
1002.104206,592.164754,995.924147,10584.944971
1002.104535,-1702.473667,1608.800546,10584.944971
1002.104864,-2960.823768,2451.505594,9548.656652
1002.105194,-1628.453072,1302.362347,9400.615463
1002.105523,370.102971,612.876398,9474.636058
1002.105853,1998.556043,1072.533697,8364.327145
1002.106182,2738.761985,1762.019645,6587.832884
1002.106512,3034.844362,2604.724693,6809.894666
1002.106841,2590.720797,4136.915689,8734.430116
1002.107171,518.144159,5822.325785,10807.006753
1002.107500,-1924.535449,5745.716235,10658.965565
1002.107830,-3108.864956,4596.572988,9918.759623
1002.108159,-2442.679609,3370.820191,9844.739029
1002.108488,-1258.350101,2221.676944,9622.677246
1002.108818,-444.123565,612.876398,7994.224174
1002.109147,148.041188,-1072.533697,6809.894666
1002.109477,-148.041188,-306.438199,7031.956449
1002.109806,-666.185348,1685.410096,8660.409521
1002.110136,-1554.432478,2451.505594,9622.677246
1002.110465,-2146.597232,3524.039291,9548.656652
1002.110795,-1480.411884,3447.429741,9400.615463
1002.111124,296.082377,2451.505594,9844.739029
1002.111454,2294.638420,2911.162892,9696.697840
1002.111783,2886.803174,1991.848295,8586.388927
1002.112112,1924.535449,689.485948,8882.471304
1002.112442,518.144159,842.705048,10881.027347
1002.112771,-1702.473667,1915.238745,11843.295072
1002.113101,-3849.070898,1225.752797,11177.109724
1002.113430,-4293.194464,459.657299,11103.089130
1002.113760,-3849.070898,0.000000,11029.068536
1002.114089,-2738.761985,-766.095498,11177.109724
1002.114419,-1924.535449,-1685.410096,9178.553681
1002.114748,-1406.391290,-2221.676944,7179.997637
1002.115078,-1110.308913,-1302.362347,7550.100608
1002.115407,-2072.576638,-1608.800546,9622.677246
1002.115736,-3552.988522,-229.828649,10436.903782
1002.116066,-4959.379811,76.609550,9622.677246
1002.116395,-4441.235652,-919.314598,9400.615463
1002.116725,-2664.741391,-919.314598,10436.903782
1002.117054,-1184.329507,-919.314598,9770.718434
1002.117384,74.020594,-612.876398,8290.306550
1002.117713,1258.350101,-612.876398,7772.162391
1002.118043,1776.494261,-689.485948,9030.512492
1002.118372,222.061783,0.000000,10955.047942
1002.118702,-1776.494261,1302.362347,11621.233289
1002.119031,-3849.070898,1608.800546,11843.295072
1002.119360,-3775.050304,1762.019645,11917.315666
1002.119690,-2220.617826,842.705048,11621.233289
1002.120019,-740.205942,-1072.533697,9252.574275
1002.120349,0.000000,-3140.991542,7179.997637
1002.120678,-296.082377,-2451.505594,7328.038826
1002.121008,-1184.329507,-842.705048,9030.512492
1002.121337,-2516.700203,842.705048,9622.677246
1002.121667,-3775.050304,1838.629195,10140.821405
1002.121996,-3849.070898,1838.629195,10362.883188
1002.122326,-2072.576638,1149.143247,10881.027347
1002.122655,666.185348,1608.800546,10066.800811
1002.122984,2590.720797,2374.896044,8142.265362
1002.123314,3256.906145,1532.190996,7772.162391
1002.123643,3182.885551,2068.457845,9400.615463
1002.123973,1480.411884,4673.182538,10362.883188
1002.124302,-518.144159,4979.620737,10362.883188
1002.124632,-1628.453072,4519.963438,9474.636058
1002.124961,-814.226536,3524.039291,10066.800811
1002.125291,518.144159,2757.943793,9770.718434
1002.125620,2146.597232,1225.752797,8216.285956
1002.125950,1702.473667,612.876398,5921.647536
1002.126279,1184.329507,1455.581446,5773.606348
1002.126608,518.144159,2145.067394,8438.347739
1002.126938,-1110.308913,2604.724693,9992.780217
1002.127267,-3552.988522,3753.867940,9474.636058
1002.127597,-3034.844362,3907.087040,9178.553681
1002.127926,-1184.329507,2298.286494,9992.780217
1002.128256,444.123565,1608.800546,9474.636058
1002.128585,814.226536,995.924147,7476.080014
1002.128915,2072.576638,76.609550,7402.059420
1002.129244,1702.473667,919.314598,9104.533087
1002.129574,0.000000,2987.772442,10881.027347
1002.129903,-2664.741391,2834.553343,11177.109724
1002.130232,-3997.112087,1455.581446,10732.986159
1002.130562,-3404.947333,995.924147,10881.027347
1002.130891,-1332.370696,306.438199,11843.295072
1002.131221,0.000000,-689.485948,10436.903782
1002.131550,296.082377,-1302.362347,7994.224174
1002.131880,-1332.370696,-2298.286494,6587.832884
1002.132209,-2738.761985,-1915.238745,8068.244768
1002.132539,-4737.318029,-995.924147,9770.718434
1002.132868,-5551.544565,0.000000,11103.089130
1002.133198,-5921.647536,-919.314598,11473.192101
1002.133527,-5403.503377,-1378.971896,11621.233289
1002.133856,-3552.988522,-2145.067394,10658.965565
1002.134186,-1036.288319,-2528.115143,8882.471304
1002.134515,666.185348,-1608.800546,7550.100608
1002.134845,1258.350101,-229.828649,8956.491898
1002.135174,0.000000,766.095498,10881.027347
1002.135504,-1480.411884,2374.896044,11917.315666
1002.135833,-2960.823768,3217.601092,12065.356855
1002.136163,-3478.967927,1991.848295,11695.253884
1002.136492,-2738.761985,536.266849,11251.130318
1002.136822,-1554.432478,-1378.971896,10140.821405
1002.137151,-370.102971,-3370.820191,8438.347739
1002.137480,-666.185348,-3217.601092,7476.080014
1002.137810,-2294.638420,-1302.362347,7254.018232
1002.138139,-3330.926739,-766.095498,8068.244768
1002.138469,-3478.967927,-383.047749,9918.759623
1002.138798,-2590.720797,995.924147,11103.089130
1002.139128,-1110.308913,2221.676944,11103.089130
1002.139457,0.000000,1915.238745,9104.533087
1002.139787,1554.432478,2374.896044,7698.141797
1002.140116,3552.988522,1149.143247,7772.162391
1002.140446,4071.132681,1685.410096,9548.656652
1002.140775,1702.473667,3677.258390,10362.883188
1002.141104,-1332.370696,4903.011187,10436.903782
1002.141434,-2368.659014,4596.572988,9696.697840
1002.141763,-1406.391290,3064.381992,9030.512492
1002.142093,592.164754,1532.190996,8586.388927
1002.142422,1998.556043,1072.533697,7624.121203
1002.142752,2442.679609,1149.143247,6883.915261
1002.143081,1480.411884,2528.115143,7179.997637
1002.143411,222.061783,2451.505594,9178.553681
1002.143740,-1850.514855,3907.087040,10066.800811
1002.144070,-2960.823768,3983.696590,9770.718434
1002.144399,-2146.597232,2757.943793,9770.718434
1002.144728,-518.144159,2221.676944,10140.821405
1002.145058,1406.391290,1072.533697,9178.553681
1002.145387,1554.432478,-229.828649,7698.141797
1002.145717,1258.350101,229.828649,8142.265362
1002.146046,1036.288319,2298.286494,10214.842000
1002.146376,-592.164754,3677.258390,11769.274478
1002.146705,-2664.741391,4443.353888,11843.295072
1002.147035,-3997.112087,3677.258390,10140.821405
1002.147364,-3182.885551,1149.143247,10140.821405
1002.147693,-1628.453072,0.000000,10066.800811
1002.148023,-1110.308913,-612.876398,9178.553681
1002.148352,-2072.576638,-1149.143247,7698.141797
1002.148682,-2220.617826,-2451.505594,7772.162391
1002.149011,-2516.700203,-1762.019645,9474.636058
1002.149341,-3404.947333,-689.485948,10510.924376
1002.149670,-4515.256246,-459.657299,9622.677246
1002.149999,-4293.194464,-536.266849,9252.574275
1002.150329,-2442.679609,-612.876398,10362.883188
1002.150658,-592.164754,-995.924147,10955.047942
1002.150988,370.102971,-383.047749,10066.800811
1002.151317,444.123565,-919.314598,9030.512492
1002.151647,148.041188,-842.705048,10066.800811
1002.151976,-444.123565,766.095498,11177.109724
1002.152305,-1850.514855,1072.533697,11547.212695
1002.152635,-2664.741391,76.609550,10807.006753
1002.152964,-3034.844362,-153.219100,10066.800811
1002.153294,-2738.761985,-689.485948,10436.903782
1002.153623,-1480.411884,-1302.362347,9992.780217
1002.153952,-1554.432478,-2451.505594,8364.327145
1002.154282,-1554.432478,-1685.410096,7994.224174
1002.154611,-1702.473667,-919.314598,8956.491898
1002.154941,-2516.700203,-306.438199,9400.615463
1002.155270,-3330.926739,229.828649,10066.800811
1002.155600,-3627.009116,1072.533697,9844.739029
1002.155929,-2886.803174,1302.362347,9918.759623
1002.156258,-444.123565,1455.581446,9770.718434
1002.156588,1850.514855,766.095498,8956.491898
1002.156917,2960.823768,-229.828649,8438.347739
1002.157247,2590.720797,0.000000,9326.594869
1002.157576,814.226536,2374.896044,11399.171507
1002.157905,-1258.350101,4443.353888,12065.356855
1002.158235,-2516.700203,4979.620737,11251.130318
1002.158564,-1332.370696,3983.696590,9992.780217
1002.158894,888.247130,2068.457845,8734.430116
1002.159223,3108.864956,536.266849,6735.874072
1002.159553,3552.988522,76.609550,5477.523971
1002.159882,2368.659014,1991.848295,5773.606348
1002.160211,518.144159,3370.820191,8438.347739
1002.160541,-1924.535449,5286.058936,10584.944971
1002.160870,-3849.070898,6128.763984,10140.821405
1002.161200,-3330.926739,4060.306139,8808.450710
1002.161529,-1332.370696,1991.848295,8956.491898
1002.161859,592.164754,766.095498,8956.491898
1002.162188,370.102971,459.657299,8438.347739
1002.162517,74.020594,919.314598,8142.265362
1002.162847,-444.123565,1991.848295,9696.697840
1002.163176,-1850.514855,3447.429741,11399.171507
1002.163506,-2516.700203,4213.525239,12139.377449
1002.163835,-2442.679609,3064.381992,11103.089130
1002.164164,-1924.535449,1762.019645,9104.533087
1002.164494,-962.267725,2145.067394,7920.203579
1002.164823,74.020594,536.266849,7254.018232
1002.165153,148.041188,-1455.581446,7031.956449
1002.165482,-888.247130,-612.876398,8068.244768
1002.165812,-2664.741391,76.609550,9992.780217
1002.166141,-4441.235652,995.924147,11029.068536
1002.166470,-4811.338623,229.828649,11029.068536
1002.166800,-4441.235652,-766.095498,10658.965565
1002.167129,-2664.741391,-1225.752797,10658.965565
1002.167459,-1332.370696,-1838.629195,9770.718434
1002.167788,0.000000,-612.876398,9326.594869
1002.168118,-148.041188,-229.828649,9326.594869
1002.168447,0.000000,-229.828649,10658.965565
1002.168776,-1406.391290,919.314598,11325.150913
1002.169106,-2886.803174,995.924147,10658.965565
1002.169435,-3256.906145,0.000000,9696.697840
1002.169765,-2738.761985,-1149.143247,9844.739029
1002.170094,-2072.576638,-1915.238745,9992.780217
1002.170423,-1554.432478,-2374.896044,8808.450710
1002.170753,-888.247130,-3294.210641,7920.203579
1002.171082,-296.082377,-3064.381992,8290.306550
1002.171412,-518.144159,-1225.752797,9918.759623
1002.171741,-2146.597232,-229.828649,11177.109724
1002.172071,-3256.906145,995.924147,11177.109724
1002.172400,-3034.844362,1455.581446,10807.006753
1002.172729,-1554.432478,766.095498,10732.986159
1002.173059,0.000000,842.705048,9992.780217
1002.173388,1554.432478,229.828649,9104.533087
1002.173718,2590.720797,-306.438199,8142.265362
1002.174047,1850.514855,689.485948,8956.491898
1002.174377,148.041188,2068.457845,10066.800811
1002.174706,-1628.453072,4136.915689,10955.047942
1002.175035,-1850.514855,3294.210641,9622.677246
1002.175365,-1406.391290,2528.115143,9400.615463
1002.175694,-518.144159,2145.067394,8956.491898
1002.176024,1036.288319,842.705048,8216.285956
1002.176353,1406.391290,1072.533697,7105.977043
1002.176682,592.164754,153.219100,7031.956449
1002.177012,74.020594,2451.505594,9474.636058
1002.177341,-888.247130,2834.553343,10436.903782
1002.177671,-2294.638420,3907.087040,9252.574275
1002.178000,-2442.679609,3677.258390,7920.203579
1002.178330,-740.205942,2298.286494,8586.388927
1002.178659,1406.391290,2528.115143,9474.636058
1002.178988,1998.556043,2911.162892,8660.409521
1002.179318,1258.350101,3447.429741,7550.100608
1002.179647,814.226536,3217.601092,8586.388927
1002.179977,-296.082377,3524.039291,10066.800811
1002.180306,-2220.617826,4443.353888,11695.253884
1002.180636,-4071.132681,3983.696590,10807.006753
1002.180965,-4515.256246,2604.724693,10214.842000
1002.181294,-3627.009116,1838.629195,10436.903782
1002.181624,-2738.761985,383.047749,9030.512492
1002.181953,-1850.514855,-612.876398,7550.100608
1002.182283,-1480.411884,-1149.143247,6809.894666
1002.182612,-1554.432478,-459.657299,7994.224174
1002.182941,-2368.659014,306.438199,9474.636058
1002.183271,-3701.029710,1608.800546,9400.615463
1002.183600,-4071.132681,1302.362347,9844.739029
1002.183930,-2664.741391,919.314598,10584.944971
1002.184259,-1332.370696,919.314598,11325.150913
1002.184589,0.000000,306.438199,10066.800811
1002.184918,518.144159,-459.657299,9030.512492
1002.185247,370.102971,-1072.533697,9178.553681
1002.185577,-370.102971,-459.657299,10140.821405
1002.185906,-1924.535449,153.219100,11103.089130
1002.186236,-3478.967927,-229.828649,10955.047942
1002.186565,-3923.091493,0.000000,10955.047942
1002.186894,-3182.885551,-842.705048,10807.006753
1002.187224,-1776.494261,-1762.019645,10288.862594
1002.187553,-666.185348,-2681.334243,8438.347739
1002.187883,0.000000,-2451.505594,7624.121203
1002.188212,-296.082377,-2451.505594,8956.491898
1002.188542,-1258.350101,-1915.238745,10955.047942
1002.188871,-3256.906145,153.219100,11325.150913
1002.189200,-4071.132681,689.485948,10807.006753
1002.189530,-1998.556043,-306.438199,10955.047942
1002.189859,592.164754,-536.266849,10658.965565
1002.190189,2590.720797,-383.047749,8956.491898
1002.190518,4293.194464,-612.876398,7624.121203
1002.190848,4441.235652,-229.828649,8364.327145
1002.191177,2738.761985,2451.505594,10362.883188
1002.191506,592.164754,3600.648841,11621.233289
1002.191836,-1628.453072,3524.039291,11325.150913
1002.192165,-2072.576638,3294.210641,10362.883188
1002.192495,-518.144159,1991.848295,9770.718434
1002.192824,1110.308913,0.000000,8808.450710
1002.193153,1554.432478,-383.047749,7254.018232
1002.193483,592.164754,-383.047749,7254.018232
1002.193812,-444.123565,842.705048,8882.471304
1002.194142,-2146.597232,3294.210641,9992.780217
1002.194471,-3182.885551,4290.134789,9326.594869
1002.194801,-2590.720797,3294.210641,8290.306550
1002.195130,-1258.350101,2834.553343,8438.347739
1002.195459,1258.350101,2374.896044,8660.409521
1002.195789,2072.576638,2298.286494,7994.224174
1002.196118,1332.370696,2451.505594,7402.059420
1002.196448,814.226536,3600.648841,9326.594869
1002.196777,444.123565,3140.991542,11991.336260
1002.197107,-1036.288319,4060.306139,12213.398043
1002.197436,-2590.720797,4979.620737,10510.924376
1002.197765,-2516.700203,3524.039291,9400.615463
1002.198095,-1406.391290,2757.943793,8956.491898
1002.198424,-666.185348,1302.362347,8734.430116
1002.198754,-740.205942,229.828649,7550.100608
1002.199083,-1406.391290,995.924147,7402.059420
1002.199412,-2368.659014,1762.019645,8216.285956
1002.199742,-2738.761985,1455.581446,10140.821405
1002.200071,-3775.050304,1072.533697,9548.656652
1002.200401,-3923.091493,766.095498,8882.471304
1002.200730,-2886.803174,459.657299,9178.553681
1002.201060,-1702.473667,842.705048,9918.759623
1002.201389,-666.185348,1302.362347,9474.636058
1002.201718,-222.061783,-306.438199,8734.430116
1002.202048,0.000000,-689.485948,9252.574275
1002.202377,-1184.329507,383.047749,10510.924376
1002.202707,-2516.700203,536.266849,10732.986159
1002.203036,-3256.906145,153.219100,10732.986159
1002.203366,-3923.091493,-612.876398,10807.006753
1002.203695,-3108.864956,-1225.752797,11177.109724
1002.204024,-2072.576638,-1455.581446,10510.924376
1002.204354,-296.082377,-2068.457845,8512.368333
1002.204683,592.164754,-2681.334243,7550.100608
1002.205013,74.020594,-2374.896044,9252.574275
1002.205342,-888.247130,-995.924147,10881.027347
1002.205671,-2220.617826,383.047749,10807.006753
1002.206001,-3182.885551,536.266849,10362.883188
1002.206330,-2442.679609,766.095498,10732.986159
1002.206660,-296.082377,-612.876398,11251.130318
1002.206989,1850.514855,-1532.190996,10140.821405
1002.207319,2146.597232,-1378.971896,8142.265362
1002.207648,2220.617826,-919.314598,8660.409521
1002.207977,1850.514855,383.047749,10510.924376
1002.208307,-296.082377,1685.410096,11547.212695
1002.208636,-2294.638420,2374.896044,11621.233289
1002.208966,-2294.638420,2374.896044,10881.027347
1002.209295,-962.267725,1991.848295,10732.986159
1002.209624,888.247130,919.314598,9918.759623
1002.209954,1258.350101,-536.266849,7550.100608
1002.210283,1036.288319,-919.314598,6661.853478
1002.210613,518.144159,-383.047749,7994.224174
1002.210942,-666.185348,1302.362347,9770.718434
1002.211272,-2368.659014,3524.039291,9622.677246
1002.211601,-2516.700203,3294.210641,8364.327145
1002.211930,-666.185348,2528.115143,8364.327145
1002.212260,1480.411884,2451.505594,8586.388927
1002.212589,2442.679609,2987.772442,7698.141797
1002.212919,2368.659014,2757.943793,6957.935855
1002.213248,1702.473667,2911.162892,8068.244768
1002.213578,148.041188,4903.011187,10584.944971
1002.213907,-1702.473667,4519.963438,11621.233289
1002.214236,-3552.988522,3983.696590,10584.944971
1002.214566,-3923.091493,2987.772442,10510.924376
1002.214895,-2960.823768,1915.238745,10807.006753
1002.215225,-1332.370696,1149.143247,9326.594869
1002.215554,-296.082377,153.219100,7179.997637
1002.215883,0.000000,-306.438199,5699.585753
1002.216213,0.000000,383.047749,6661.853478
1002.216542,-814.226536,1915.238745,9326.594869
1002.216872,-2442.679609,3140.991542,9992.780217
1002.217201,-3701.029710,3753.867940,10362.883188
1002.217531,-3330.926739,3140.991542,10436.903782
1002.217860,-1998.556043,2068.457845,9992.780217
1002.218189,-518.144159,306.438199,9030.512492
1002.218519,444.123565,-1455.581446,7994.224174
1002.218848,0.000000,-1455.581446,9030.512492
1002.219178,-1406.391290,459.657299,11473.192101
1002.219507,-3478.967927,1838.629195,12509.480420
1002.219837,-5181.441594,1455.581446,11843.295072
1002.220166,-5107.421000,459.657299,10584.944971
1002.220495,-3330.926739,-1149.143247,10066.800811
1002.220825,-888.247130,-1762.019645,9770.718434
1002.221154,592.164754,-2451.505594,8438.347739
1002.221484,222.061783,-2374.896044,7254.018232
1002.221813,-444.123565,-1072.533697,7698.141797
1002.222142,-962.267725,-1072.533697,10140.821405
1002.222472,-2590.720797,153.219100,10658.965565
1002.222801,-3108.864956,995.924147,10510.924376
1002.223131,-2146.597232,306.438199,10584.944971
1002.223460,-370.102971,-689.485948,10510.924376
1002.223790,962.267725,-1302.362347,9474.636058
1002.224119,2146.597232,-1302.362347,8068.244768
1002.224448,1998.556043,-919.314598,9474.636058
1002.224778,740.205942,383.047749,11325.150913
1002.225107,-2072.576638,2298.286494,12065.356855
1002.225437,-3478.967927,1532.190996,11399.171507
1002.225766,-2590.720797,612.876398,10658.965565
1002.226096,-1850.514855,-306.438199,10510.924376
1002.226425,-148.041188,-919.314598,9918.759623
1002.226754,814.226536,-1302.362347,8364.327145
1002.227084,1628.453072,-842.705048,6809.894666
1002.227413,1480.411884,0.000000,7550.100608
1002.227743,666.185348,1838.629195,9252.574275
1002.228072,-444.123565,2987.772442,9400.615463
1002.228401,-1184.329507,3907.087040,8882.471304
1002.228731,-296.082377,3677.258390,8808.450710
1002.229060,1406.391290,3140.991542,9030.512492
1002.229390,2442.679609,2298.286494,9178.553681
1002.229719,1998.556043,1225.752797,7994.224174
1002.230049,1628.453072,1455.581446,9252.574275
1002.230378,222.061783,2681.334243,11399.171507
1002.230707,-1776.494261,4979.620737,12139.377449
1002.231037,-3330.926739,4826.401637,10288.862594
1002.231366,-3849.070898,3830.477490,8364.327145
1002.231696,-2516.700203,2911.162892,7105.977043
1002.232025,0.000000,689.485948,7624.121203
1002.232354,740.205942,-459.657299,7402.059420
1002.232684,0.000000,383.047749,7254.018232
1002.233013,-1850.514855,1838.629195,8660.409521
1002.233343,-2442.679609,1532.190996,10584.944971
1002.233672,-3552.988522,2528.115143,10807.006753
1002.234002,-3923.091493,2528.115143,9474.636058
1002.234331,-2368.659014,1225.752797,10066.800811
1002.234660,-222.061783,1991.848295,10436.903782
1002.234990,592.164754,2604.724693,9770.718434
1002.235319,740.205942,842.705048,8364.327145
1002.235649,666.185348,536.266849,8882.471304
1002.235978,-370.102971,2451.505594,10140.821405
1002.236308,-1924.535449,2451.505594,11547.212695
1002.236637,-3478.967927,1915.238745,11251.130318
1002.236966,-4737.318029,1072.533697,9770.718434
1002.237296,-4367.215058,-459.657299,9474.636058
1002.237625,-2442.679609,-2528.115143,9474.636058
1002.237955,-1110.308913,-2681.334243,8808.450710
1002.238284,-518.144159,-2604.724693,7698.141797
1002.238613,-1406.391290,-2834.553343,8290.306550
1002.238943,-2220.617826,-612.876398,10066.800811
1002.239272,-2960.823768,306.438199,11029.068536
1002.239602,-2886.803174,1225.752797,10436.903782
1002.239931,-2442.679609,1378.971896,9992.780217
1002.240261,-592.164754,536.266849,10436.903782
1002.240590,1332.370696,-766.095498,9770.718434
1002.240919,1998.556043,-1225.752797,8364.327145
1002.241249,2072.576638,-229.828649,8438.347739
1002.241578,1702.473667,229.828649,9696.697840
1002.241908,-444.123565,459.657299,11177.109724
1002.242237,-2516.700203,1302.362347,11769.274478
1002.242567,-3404.947333,612.876398,11547.212695
1002.242896,-2886.803174,0.000000,11177.109724
1002.243225,-1184.329507,0.000000,10807.006753
1002.243555,0.000000,-1532.190996,9178.553681
1002.243884,1258.350101,-2145.067394,7624.121203
1002.244214,1480.411884,-1838.629195,7698.141797
1002.244543,814.226536,76.609550,8512.368333
1002.244872,-962.267725,2451.505594,8660.409521
1002.245202,-1406.391290,3064.381992,9400.615463
1002.245531,-666.185348,3524.039291,9474.636058
1002.245861,518.144159,3294.210641,9400.615463
1002.246190,1998.556043,2834.553343,8438.347739
1002.246520,3034.844362,1302.362347,7105.977043
1002.246849,2590.720797,919.314598,8956.491898
1002.247178,0.000000,2068.457845,11177.109724
1002.247508,-3034.844362,3600.648841,12583.501014
1002.247837,-4737.318029,3983.696590,11843.295072
1002.248167,-4441.235652,3217.601092,10807.006753
1002.248496,-3034.844362,1838.629195,9326.594869
1002.248826,-518.144159,919.314598,8364.327145
1002.249155,1036.288319,-306.438199,5847.626942
1002.249485,1258.350101,76.609550,4959.379811
1002.249814,592.164754,1991.848295,6661.853478
1002.250144,-148.041188,2374.896044,9622.677246
1002.250473,-2442.679609,3830.477490,10436.903782
1002.250803,-4293.194464,4443.353888,9548.656652
1002.251133,-3552.988522,2834.553343,9400.615463
1002.251462,-1554.432478,1225.752797,10214.842000
1002.251792,-296.082377,1072.533697,10140.821405
1002.252121,0.000000,842.705048,9696.697840
1002.252451,-814.226536,689.485948,9030.512492
1002.252781,-1554.432478,842.705048,10214.842000
1002.253110,-3256.906145,1762.019645,11547.212695
1002.253440,-4589.276840,2374.896044,11399.171507
1002.253770,-4663.297435,2221.676944,10362.883188
1002.254099,-3182.885551,229.828649,10140.821405
1002.254429,-1480.411884,-995.924147,9252.574275
1002.254758,-740.205942,-1608.800546,7254.018232
1002.255088,-222.061783,-2604.724693,6735.874072
1002.255418,148.041188,-2068.457845,8068.244768
1002.255747,-1332.370696,-229.828649,10214.842000
1002.256077,-2368.659014,1072.533697,10807.006753
1002.256407,-2516.700203,1149.143247,10436.903782
1002.256736,-1628.453072,0.000000,10732.986159
1002.257066,-222.061783,383.047749,10732.986159
1002.257395,1776.494261,0.000000,10288.862594
1002.257725,2146.597232,-536.266849,9252.574275
1002.258055,1702.473667,-383.047749,9474.636058
1002.258384,444.123565,-229.828649,11325.150913
1002.258714,-814.226536,306.438199,11917.315666
1002.259043,-2368.659014,842.705048,11695.253884
1002.259373,-2960.823768,-383.047749,10881.027347
1002.259703,-2664.741391,0.000000,11251.130318
1002.260032,-1332.370696,-612.876398,10436.903782
1002.260362,222.061783,-1455.581446,8216.285956
1002.260692,1628.453072,-1378.971896,5847.626942
1002.261021,2146.597232,-1149.143247,6069.688724
1002.261351,1776.494261,0.000000,8586.388927
1002.261680,0.000000,1532.190996,9770.718434
1002.262010,-2368.659014,2987.772442,10066.800811
1002.262340,-2516.700203,2911.162892,10362.883188
1002.262669,-1184.329507,2911.162892,11029.068536
1002.262999,888.247130,1838.629195,10510.924376
1002.263328,2368.659014,76.609550,9104.533087
1002.263658,2590.720797,536.266849,8216.285956
1002.263988,1406.391290,2604.724693,9030.512492
1002.264317,-1110.308913,4290.134789,9770.718434
1002.264647,-3330.926739,5132.839837,9178.553681
1002.264977,-3997.112087,2987.772442,8364.327145
1002.265306,-2960.823768,1685.410096,9622.677246
1002.265636,-1776.494261,1608.800546,9696.697840
1002.265965,-1184.329507,1302.362347,7846.182985
1002.266295,-666.185348,-689.485948,6661.853478
1002.266625,-444.123565,-306.438199,7476.080014
1002.266954,-1110.308913,1302.362347,8956.491898
1002.267284,-1998.556043,2068.457845,9622.677246
1002.267614,-2368.659014,2911.162892,9548.656652
1002.267943,-2368.659014,4213.525239,9696.697840
1002.268273,-666.185348,2987.772442,10510.924376
1002.268602,1036.288319,1915.238745,9918.759623
1002.268932,1110.308913,1991.848295,8512.368333
1002.269262,962.267725,1838.629195,8734.430116
1002.269591,-592.164754,2298.286494,10214.842000
1002.269921,-2368.659014,2528.115143,11621.233289
1002.270250,-4367.215058,1762.019645,10955.047942
1002.270580,-5107.421000,612.876398,10140.821405
1002.270910,-4071.132681,229.828649,10510.924376
1002.271239,-2442.679609,-536.266849,10140.821405
1002.271569,-1332.370696,-1838.629195,8364.327145
1002.271899,-1110.308913,-1915.238745,6809.894666
1002.272228,-592.164754,-1915.238745,7476.080014
1002.272558,-1110.308913,-995.924147,9474.636058
1002.272887,-2220.617826,612.876398,9622.677246
1002.273217,-3256.906145,1608.800546,9030.512492
1002.273547,-2294.638420,383.047749,9474.636058
1002.273876,-666.185348,306.438199,10140.821405
1002.274206,740.205942,0.000000,10436.903782
1002.274535,1480.411884,0.000000,9474.636058
1002.274865,2072.576638,-306.438199,9474.636058
1002.275195,1036.288319,383.047749,10881.027347
1002.275524,-518.144159,1378.971896,11769.274478
1002.275854,-1998.556043,306.438199,12065.356855
1002.276184,-3256.906145,0.000000,12139.377449
1002.276513,-3627.009116,-536.266849,11843.295072
1002.276843,-2664.741391,-995.924147,11103.089130
1002.277172,-666.185348,-2451.505594,9400.615463
1002.277502,814.226536,-3600.648841,7031.956449
1002.277832,1332.370696,-2757.943793,6809.894666
1002.278161,1036.288319,-1608.800546,7698.141797
1002.278491,74.020594,1991.848295,9326.594869
1002.278821,-1332.370696,3753.867940,9474.636058
1002.279150,-1036.288319,3753.867940,9770.718434
1002.279480,296.082377,3294.210641,10288.862594
1002.279809,1850.514855,1838.629195,9770.718434
1002.280139,2072.576638,1685.410096,8660.409521
1002.280469,1332.370696,766.095498,8438.347739
1002.280798,0.000000,1149.143247,10807.006753
1002.281128,-2442.679609,2451.505594,12583.501014
1002.281457,-4811.338623,3294.210641,11695.253884
1002.281787,-5033.400406,2911.162892,9844.739029
1002.282117,-3182.885551,1455.581446,8660.409521
1002.282446,-592.164754,153.219100,7994.224174
1002.282776,1480.411884,-459.657299,6735.874072
1002.283106,1776.494261,229.828649,5255.462188
1002.283435,1776.494261,1991.848295,6735.874072
1002.283765,296.082377,2987.772442,8290.306550
1002.284094,-2072.576638,3907.087040,9844.739029
1002.284424,-3256.906145,4749.792088,9770.718434
1002.284754,-2812.782580,3524.039291,9844.739029
1002.285083,-1480.411884,2298.286494,10807.006753
1002.285413,148.041188,2374.896044,10584.944971
1002.285742,0.000000,1072.533697,8808.450710
1002.286072,-592.164754,153.219100,8438.347739
1002.286402,-962.267725,1455.581446,10510.924376
1002.286731,-2442.679609,3753.867940,12435.459826
1002.287061,-4441.235652,3217.601092,11621.233289
1002.287391,-5255.462188,1838.629195,9770.718434
1002.287720,-4145.153275,306.438199,9400.615463
1002.288050,-2368.659014,-842.705048,9400.615463
1002.288379,-888.247130,-1378.971896,7994.224174
1002.288709,-148.041188,-1455.581446,6365.771101
1002.289039,296.082377,-1838.629195,7254.018232
1002.289368,-740.205942,-1149.143247,8956.491898
1002.289698,-2590.720797,1072.533697,10288.862594
1002.290028,-3034.844362,1991.848295,10584.944971
1002.290357,-1850.514855,1378.971896,10584.944971
1002.290687,-962.267725,1685.410096,10955.047942
1002.291016,666.185348,612.876398,10362.883188
1002.291346,1406.391290,-1378.971896,8956.491898
1002.291676,1184.329507,-1762.019645,8660.409521
1002.292005,-148.041188,-612.876398,11177.109724
1002.292335,-2294.638420,459.657299,13249.686362
1002.292664,-4441.235652,995.924147,12805.562797
1002.292994,-4885.359217,-229.828649,10807.006753
1002.293324,-3330.926739,-1685.410096,9548.656652
1002.293653,-592.164754,-2221.676944,9030.512492
1002.293983,1628.453072,-2298.286494,7846.182985
1002.294313,2516.700203,-2604.724693,7105.977043
1002.294642,1702.473667,-1149.143247,6957.935855
1002.294972,666.185348,995.924147,9030.512492
1002.295301,-888.247130,2145.067394,10436.903782
1002.295631,-1628.453072,2757.943793,10288.862594
1002.295961,-1628.453072,2374.896044,10066.800811
1002.296290,0.000000,1685.410096,10362.883188
1002.296620,666.185348,1072.533697,9622.677246
1002.296949,666.185348,153.219100,8142.265362
1002.297279,444.123565,0.000000,8142.265362
1002.297609,-444.123565,919.314598,10140.821405
1002.297938,-2294.638420,2068.457845,12065.356855
1002.298268,-3997.112087,3217.601092,11251.130318
1002.298598,-4071.132681,2451.505594,9844.739029
1002.298927,-2368.659014,766.095498,9622.677246
1002.299257,-518.144159,1302.362347,8734.430116
1002.299586,1702.473667,1072.533697,7402.059420
1002.299916,2812.782580,612.876398,6291.750507
1002.300246,2368.659014,1455.581446,6365.771101
1002.300575,1184.329507,2528.115143,8364.327145
1002.300905,-148.041188,2911.162892,10066.800811
1002.301235,-2072.576638,4519.963438,9918.759623
1002.301564,-2738.761985,4443.353888,9992.780217
1002.301894,-1554.432478,2987.772442,10510.924376
1002.302223,74.020594,1915.238745,10658.965565
1002.302553,518.144159,842.705048,8734.430116
1002.302883,-148.041188,995.924147,8290.306550
1002.303212,-1110.308913,1685.410096,9770.718434
1002.303542,-2516.700203,2911.162892,11325.150913
1002.303871,-4145.153275,2757.943793,11251.130318
1002.304201,-4885.359217,1685.410096,10288.862594
1002.304531,-3775.050304,1838.629195,9918.759623
1002.304860,-2664.741391,383.047749,9104.533087
1002.305190,-1036.288319,-766.095498,8068.244768
1002.305520,-592.164754,-1072.533697,6957.935855
1002.305849,-518.144159,-1225.752797,6809.894666
1002.306179,-370.102971,-459.657299,8734.430116
1002.306508,-1998.556043,995.924147,9548.656652
1002.306838,-3034.844362,2528.115143,9474.636058
1002.307168,-2812.782580,1072.533697,9548.656652
1002.307497,-1184.329507,383.047749,10214.842000
1002.307827,0.000000,1072.533697,10510.924376
1002.308156,1332.370696,-383.047749,9252.574275
1002.308486,1036.288319,-306.438199,8956.491898
1002.308816,222.061783,153.219100,10066.800811
1002.309145,-1110.308913,-536.266849,11843.295072
1002.309475,-3034.844362,-306.438199,12065.356855
1002.309805,-4071.132681,-383.047749,11177.109724
1002.310134,-3997.112087,-536.266849,10807.006753
1002.310464,-2294.638420,-1838.629195,10658.965565
1002.310793,-444.123565,-2145.067394,9252.574275
1002.311123,888.247130,-2221.676944,7105.977043
1002.311453,1406.391290,-1991.848295,6809.894666
1002.311782,1184.329507,-229.828649,8216.285956
1002.312112,-296.082377,1532.190996,10362.883188
1002.312441,-1850.514855,2451.505594,11103.089130
1002.312771,-2812.782580,2451.505594,11177.109724
1002.313101,-1776.494261,2374.896044,11177.109724
1002.313430,-296.082377,1302.362347,10510.924376
1002.313760,740.205942,153.219100,9400.615463
1002.314090,1776.494261,-766.095498,8586.388927
1002.314419,1184.329507,0.000000,9770.718434
1002.314749,-444.123565,1991.848295,10881.027347
1002.315078,-2516.700203,2681.334243,10658.965565
1002.315408,-3701.029710,2221.676944,10066.800811
1002.315738,-2368.659014,2221.676944,10140.821405
1002.316067,-518.144159,2298.286494,9474.636058
1002.316397,1406.391290,459.657299,7550.100608
1002.316727,2886.803174,-306.438199,5033.400406
1002.317056,2368.659014,0.000000,5181.441594
1002.317386,1332.370696,766.095498,7846.182985
1002.317715,-962.267725,3217.601092,9918.759623
1002.318045,-2886.803174,4979.620737,10066.800811
1002.318375,-2664.741391,5132.839837,10066.800811
1002.318704,-1406.391290,2987.772442,9770.718434
1002.319034,222.061783,2374.896044,9770.718434
1002.319363,1406.391290,1991.848295,8438.347739
1002.319693,1332.370696,1149.143247,7698.141797
1002.320023,518.144159,2068.457845,9474.636058
1002.320352,-1776.494261,3064.381992,11473.192101
1002.320682,-4071.132681,2374.896044,10955.047942
1002.321012,-4885.359217,1838.629195,10066.800811
1002.321341,-3923.091493,919.314598,9844.739029
1002.321671,-1554.432478,459.657299,10288.862594
1002.322000,-518.144159,-306.438199,9178.553681
1002.322330,0.000000,-1302.362347,6957.935855
1002.322660,0.000000,-536.266849,7105.977043
1002.322989,-518.144159,612.876398,8882.471304
1002.323319,-1480.411884,2298.286494,10214.842000
1002.323648,-2294.638420,2451.505594,10288.862594
1002.323978,-2368.659014,1532.190996,9844.739029
1002.324308,-1702.473667,536.266849,9918.759623
1002.324637,-740.205942,459.657299,9992.780217
1002.324967,0.000000,0.000000,9696.697840
1002.325297,-592.164754,-229.828649,9992.780217
1002.325626,-1628.453072,0.000000,10807.006753
1002.325956,-2442.679609,-229.828649,11547.212695
1002.326285,-3478.967927,-1149.143247,11769.274478
1002.326615,-4737.318029,-995.924147,11325.150913
1002.326945,-4885.359217,-612.876398,10955.047942
1002.327274,-2886.803174,-842.705048,10066.800811
1002.327604,148.041188,-1991.848295,8808.450710
1002.327934,2442.679609,-2221.676944,6735.874072
1002.328263,3182.885551,-1685.410096,6217.729913
1002.328593,2590.720797,-766.095498,7105.977043
1002.328922,0.000000,1072.533697,8586.388927
1002.329252,-1924.535449,3983.696590,9104.533087
1002.329582,-3330.926739,3294.210641,10066.800811
1002.329911,-2664.741391,459.657299,11325.150913
1002.330241,-2072.576638,153.219100,11917.315666
1002.330570,-1406.391290,-459.657299,10584.944971
1002.330900,-444.123565,-1762.019645,9474.636058
1002.331230,-148.041188,-1685.410096,9992.780217
1002.331559,-518.144159,0.000000,11325.150913
1002.331889,-1924.535449,1072.533697,11251.130318
1002.332219,-2664.741391,2451.505594,10214.842000
1002.332548,-1850.514855,3294.210641,10140.821405
1002.332878,444.123565,2834.553343,9326.594869
1002.333207,2072.576638,1378.971896,7846.182985
1002.333537,3330.926739,0.000000,5995.668130
1002.333867,3552.988522,0.000000,6217.729913
1002.334196,1776.494261,1991.848295,8068.244768
1002.334526,-1110.308913,3064.381992,9622.677246
1002.334855,-3256.906145,3600.648841,10214.842000
1002.335185,-3701.029710,3907.087040,10584.944971
1002.335515,-2146.597232,2757.943793,11547.212695
1002.335844,-518.144159,2451.505594,10881.027347
1002.336174,74.020594,2221.676944,8734.430116
1002.336504,444.123565,612.876398,7402.059420
1002.336833,222.061783,1072.533697,8734.430116
1002.337163,-1110.308913,3370.820191,10658.965565
1002.337492,-3034.844362,3830.477490,10436.903782
1002.337822,-4145.153275,3140.991542,9474.636058
1002.338152,-3478.967927,2451.505594,9178.553681
1002.338481,-1850.514855,1072.533697,9622.677246
1002.338811,0.000000,-459.657299,8586.388927
1002.339141,296.082377,-536.266849,6587.832884
1002.339470,740.205942,306.438199,6143.709319
1002.339800,666.185348,0.000000,8734.430116
1002.340129,-1184.329507,1532.190996,9992.780217
1002.340459,-2664.741391,2834.553343,10140.821405
1002.340789,-3034.844362,2604.724693,10140.821405
1002.341118,-2220.617826,1762.019645,10732.986159
1002.341448,-962.267725,1302.362347,10881.027347
1002.341777,-444.123565,-229.828649,9474.636058
1002.342107,0.000000,-1608.800546,8290.306550
1002.342437,-444.123565,-1072.533697,9474.636058
1002.342766,-1628.453072,0.000000,11473.192101
1002.343096,-3552.988522,229.828649,11621.233289
1002.343426,-4515.256246,0.000000,10584.944971
1002.343755,-3849.070898,-229.828649,10288.862594
1002.344085,-2442.679609,-842.705048,9918.759623
1002.344414,-888.247130,-1302.362347,9030.512492
1002.344744,740.205942,-2451.505594,7476.080014
1002.345074,1332.370696,-2145.067394,7254.018232
1002.345403,444.123565,-1149.143247,9474.636058
1002.345733,-1554.432478,153.219100,11103.089130
1002.346062,-3330.926739,1378.971896,11399.171507
1002.346392,-3775.050304,1762.019645,11251.130318
1002.346722,-2442.679609,919.314598,11251.130318
1002.347051,-518.144159,383.047749,10732.986159
1002.347381,1480.411884,-306.438199,9178.553681
1002.347711,2072.576638,-1072.533697,8364.327145
1002.348040,1258.350101,76.609550,8956.491898
1002.348370,-296.082377,1302.362347,10658.965565
1002.348699,-2294.638420,2221.676944,10955.047942
1002.349029,-3552.988522,2681.334243,10807.006753
1002.349359,-3404.947333,2068.457845,9992.780217
1002.349688,-1332.370696,612.876398,9252.574275
1002.350018,888.247130,-1072.533697,7624.121203
1002.350348,2146.597232,-1608.800546,6439.791695
1002.350677,1924.535449,-689.485948,6661.853478
1002.351007,1036.288319,1072.533697,8660.409521
1002.351336,-740.205942,3753.867940,10288.862594
1002.351666,-2072.576638,4749.792088,9992.780217
1002.351996,-1998.556043,4673.182538,9474.636058
1002.352325,-370.102971,3524.039291,9992.780217
1002.352655,888.247130,2987.772442,9770.718434
1002.352985,1406.391290,1915.238745,8290.306550
1002.353314,888.247130,1302.362347,7550.100608
1002.353644,444.123565,1685.410096,9252.574275
1002.353974,-518.144159,2298.286494,11251.130318
1002.354303,-2442.679609,2987.772442,11029.068536
1002.354633,-3552.988522,1915.238745,9696.697840
1002.354962,-3034.844362,1302.362347,9696.697840
1002.355292,-1332.370696,1762.019645,10214.842000
1002.355622,222.061783,1455.581446,9252.574275
1002.355951,592.164754,766.095498,6957.935855
1002.356281,1036.288319,76.609550,6291.750507
1002.356611,1036.288319,306.438199,8364.327145
1002.356940,-370.102971,1532.190996,10658.965565
1002.357270,-2590.720797,3217.601092,10288.862594
1002.357600,-3701.029710,2911.162892,9992.780217
1002.357929,-2664.741391,1685.410096,10288.862594
1002.358259,-1554.432478,689.485948,10658.965565
1002.358589,-888.247130,0.000000,9770.718434
1002.358918,-296.082377,-766.095498,8734.430116
1002.359248,-518.144159,0.000000,9400.615463
1002.359577,-1480.411884,153.219100,11029.068536
1002.359907,-3330.926739,459.657299,11251.130318
1002.360237,-4515.256246,76.609550,10807.006753
1002.360566,-4071.132681,0.000000,9770.718434
1002.360896,-2146.597232,-383.047749,10066.800811
1002.361226,0.000000,-1378.971896,9252.574275
1002.361555,1036.288319,-2068.457845,6957.935855
1002.361885,518.144159,-1838.629195,5477.523971
1002.362215,74.020594,-536.266849,6883.915261
1002.362544,-592.164754,459.657299,10140.821405
1002.362874,-2664.741391,1838.629195,11843.295072
1002.363204,-4663.297435,2911.162892,12065.356855
1002.363533,-4441.235652,1838.629195,11843.295072
1002.363863,-2294.638420,-383.047749,11473.192101
1002.364192,666.185348,-1608.800546,9770.718434
1002.364522,1850.514855,-2757.943793,8068.244768
1002.364852,1776.494261,-2068.457845,8512.368333
1002.365181,74.020594,229.828649,10732.986159
1002.365511,-1776.494261,2528.115143,11695.253884
1002.365841,-3256.906145,2757.943793,10584.944971
1002.366170,-2516.700203,1915.238745,9326.594869
1002.366500,-296.082377,995.924147,9252.574275
1002.366830,1998.556043,-612.876398,8438.347739
1002.367159,2886.803174,-1378.971896,7179.997637
1002.367489,2220.617826,-229.828649,7105.977043
1002.367819,1110.308913,1455.581446,8734.430116
1002.368148,-962.267725,2374.896044,11177.109724
1002.368478,-2442.679609,4060.306139,11473.192101
1002.368807,-2738.761985,4443.353888,10288.862594
1002.369137,-1406.391290,2681.334243,9844.739029
1002.369467,222.061783,919.314598,9770.718434
1002.369796,1628.453072,1991.848295,8512.368333
1002.370126,1110.308913,1685.410096,7254.018232
1002.370456,592.164754,1378.971896,8290.306550
1002.370785,-592.164754,2834.553343,10140.821405
1002.371115,-2368.659014,3447.429741,10732.986159
1002.371445,-3552.988522,2604.724693,9770.718434
1002.371774,-3627.009116,1991.848295,9696.697840
1002.372104,-2368.659014,2145.067394,9548.656652
1002.372434,-222.061783,1302.362347,8808.450710
1002.372763,1332.370696,-229.828649,6809.894666
1002.373093,1776.494261,0.000000,6143.709319
1002.373422,1554.432478,842.705048,7550.100608
1002.373752,0.000000,2374.896044,10066.800811
1002.374082,-1998.556043,3753.867940,10881.027347
1002.374411,-3404.947333,4136.915689,10955.047942
1002.374741,-2516.700203,2528.115143,10881.027347
1002.375071,-1702.473667,1378.971896,10807.006753
1002.375400,-740.205942,153.219100,9992.780217
1002.375730,-518.144159,-766.095498,8216.285956
1002.376060,-444.123565,-1378.971896,8512.368333
1002.376389,-1554.432478,0.000000,11029.068536
1002.376719,-2960.823768,1072.533697,11399.171507
1002.377049,-5107.421000,1149.143247,9548.656652
1002.377378,-4737.318029,-229.828649,9178.553681
1002.377708,-2886.803174,-459.657299,9326.594869
1002.378037,-888.247130,-612.876398,9474.636058
1002.378367,444.123565,-1225.752797,8142.265362
1002.378697,888.247130,-2298.286494,7179.997637
1002.379026,0.000000,-1225.752797,9104.533087
1002.379356,-1998.556043,-153.219100,11177.109724
1002.379686,-3627.009116,766.095498,11843.295072
1002.380015,-3849.070898,1455.581446,11547.212695
1002.380345,-2664.741391,689.485948,10955.047942
1002.380675,-592.164754,153.219100,10658.965565
1002.381004,814.226536,-842.705048,9178.553681
1002.381334,1924.535449,-1838.629195,7846.182985
1002.381664,2294.638420,-612.876398,8438.347739
1002.381993,444.123565,1455.581446,10066.800811
1002.382323,-1776.494261,1762.019645,11325.150913
1002.382653,-3627.009116,1378.971896,10658.965565
1002.382982,-4071.132681,459.657299,10436.903782
1002.383312,-2516.700203,0.000000,10288.862594
1002.383641,-222.061783,-459.657299,9622.677246
1002.383971,888.247130,-1302.362347,7920.203579
1002.384301,1258.350101,-1455.581446,7179.997637
1002.384630,814.226536,-153.219100,8216.285956
1002.384960,0.000000,1685.410096,9918.759623
1002.385290,-1036.288319,3907.087040,10732.986159
1002.385619,-1924.535449,4443.353888,9770.718434
1002.385949,-814.226536,3830.477490,9992.780217
1002.386279,592.164754,2451.505594,9918.759623
1002.386608,1628.453072,1302.362347,8808.450710
1002.386938,1776.494261,995.924147,7105.977043
1002.387268,1554.432478,1455.581446,8068.244768
1002.387597,222.061783,2528.115143,10362.883188
1002.387927,-1554.432478,3524.039291,10955.047942
1002.388256,-2886.803174,2681.334243,9696.697840
1002.388586,-2664.741391,2604.724693,9252.574275
1002.388916,-1480.411884,1532.190996,9400.615463
1002.389245,222.061783,1149.143247,9474.636058
1002.389575,740.205942,689.485948,7550.100608
1002.389905,888.247130,766.095498,6513.812290
1002.390234,888.247130,919.314598,7772.162391
1002.390564,0.000000,1915.238745,9770.718434
1002.390894,-1924.535449,3217.601092,10214.842000
1002.391223,-3478.967927,2911.162892,9992.780217
1002.391553,-3108.864956,2145.067394,11029.068536
1002.391883,-1702.473667,2451.505594,11769.274478
1002.392212,-296.082377,1378.971896,10288.862594
1002.392542,148.041188,-306.438199,8068.244768
1002.392871,222.061783,0.000000,7550.100608
1002.393201,0.000000,306.438199,9474.636058
1002.393531,-1776.494261,459.657299,10510.924376
1002.393860,-3997.112087,842.705048,10362.883188
1002.394190,-4515.256246,1302.362347,9992.780217
1002.394520,-3552.988522,-612.876398,10436.903782
1002.394849,-1850.514855,-1149.143247,10140.821405
1002.395179,-370.102971,-1915.238745,8512.368333
1002.395509,888.247130,-2757.943793,7624.121203
1002.395838,888.247130,-1302.362347,8142.265362
1002.396168,-444.123565,459.657299,9918.759623
1002.396498,-2738.761985,2604.724693,9474.636058
1002.396827,-3923.091493,1915.238745,8882.471304
1002.397157,-2812.782580,153.219100,10658.965565
1002.397486,-1554.432478,842.705048,12805.562797
1002.397816,-1406.391290,1149.143247,11473.192101
1002.398146,-1258.350101,-383.047749,8438.347739
1002.398475,-444.123565,-1685.410096,7698.141797
1002.398805,-370.102971,-2374.896044,9696.697840
1002.399135,-1406.391290,-1072.533697,11991.336260
1002.399464,-4219.173869,0.000000,11399.171507
1002.399794,-5329.482782,1532.190996,11325.150913
1002.400124,-4071.132681,1838.629195,10955.047942
1002.400453,-888.247130,-229.828649,10066.800811
1002.400783,2146.597232,-1608.800546,7476.080014
1002.401113,4145.153275,-2528.115143,5255.462188
1002.401442,3775.050304,-383.047749,6735.874072
1002.401772,1776.494261,2298.286494,9178.553681
1002.402101,-1110.308913,3753.867940,10436.903782
1002.402431,-2738.761985,4443.353888,10881.027347
1002.402761,-2368.659014,4213.525239,11473.192101
1002.403090,-296.082377,3294.210641,11103.089130
1002.403420,1036.288319,2221.676944,9770.718434
1002.403750,1406.391290,306.438199,7698.141797
1002.404079,666.185348,0.000000,8142.265362
1002.404409,-518.144159,1762.019645,10510.924376
1002.404739,-2368.659014,4136.915689,10510.924376
1002.405068,-3997.112087,3677.258390,9474.636058
1002.405398,-3775.050304,1915.238745,7920.203579
1002.405728,-1776.494261,1532.190996,8364.327145
1002.406057,666.185348,689.485948,8364.327145
1002.406387,2368.659014,612.876398,6809.894666
1002.406716,1924.535449,1762.019645,5107.421000
1002.407046,1628.453072,1072.533697,7254.018232
1002.407376,370.102971,1455.581446,10066.800811
1002.407705,-1480.411884,3907.087040,11177.109724
1002.408035,-2368.659014,4366.744339,10362.883188
1002.408365,-1554.432478,3294.210641,11177.109724
1002.408694,-1184.329507,2145.067394,11843.295072
1002.409024,-222.061783,1608.800546,11029.068536
1002.409354,296.082377,0.000000,8660.409521
1002.409683,814.226536,0.000000,7624.121203
1002.410013,-666.185348,1838.629195,9104.533087
1002.410343,-2886.803174,1532.190996,10584.944971
1002.410672,-4441.235652,1072.533697,10066.800811
1002.411002,-4219.173869,842.705048,9622.677246
1002.411332,-3256.906145,612.876398,9548.656652
1002.411661,-2294.638420,-383.047749,8956.491898
1002.411991,-814.226536,-2068.457845,8290.306550
1002.412320,-518.144159,-2681.334243,7772.162391
1002.412650,-814.226536,-1455.581446,9400.615463
1002.412980,-1924.535449,612.876398,11399.171507
1002.413309,-2960.823768,1532.190996,11695.253884
1002.413639,-4071.132681,919.314598,10881.027347
1002.413969,-3478.967927,383.047749,10584.944971
1002.414298,-1776.494261,-536.266849,10881.027347
1002.414628,0.000000,-536.266849,9770.718434
1002.414958,888.247130,0.000000,7920.203579
1002.415287,888.247130,-1225.752797,8216.285956
1002.415617,444.123565,-229.828649,9622.677246
1002.415947,-1554.432478,383.047749,10214.842000
1002.416276,-3404.947333,306.438199,10362.883188
1002.416606,-4145.153275,995.924147,11029.068536
1002.416935,-3330.926739,1302.362347,11547.212695
1002.417265,-1776.494261,-306.438199,10510.924376
1002.417595,-148.041188,-2298.286494,8216.285956
1002.417924,592.164754,-2911.162892,6587.832884
1002.418254,740.205942,-1762.019645,8142.265362
1002.418584,0.000000,689.485948,10584.944971
1002.418913,-1628.453072,3447.429741,10807.006753
1002.419243,-2590.720797,3753.867940,9844.739029
1002.419573,-1110.308913,2834.553343,9474.636058
1002.419902,1258.350101,2068.457845,9992.780217
1002.420232,2368.659014,2221.676944,9474.636058
1002.420562,2368.659014,2145.067394,7698.141797
1002.420891,1480.411884,1838.629195,7698.141797
1002.421221,814.226536,1991.848295,9918.759623
1002.421550,-740.205942,2757.943793,11547.212695
1002.421880,-3034.844362,2757.943793,10658.965565
1002.422210,-3923.091493,1149.143247,9770.718434
1002.422539,-3182.885551,1991.848295,10140.821405
1002.422869,-1998.556043,1991.848295,10066.800811
1002.423199,-1554.432478,842.705048,8068.244768
1002.423528,-1332.370696,0.000000,6291.750507
1002.423858,-666.185348,689.485948,7254.018232
1002.424188,-1110.308913,2374.896044,9104.533087
1002.424517,-2812.782580,3524.039291,9696.697840
1002.424847,-3997.112087,3907.087040,8956.491898
1002.425177,-3627.009116,3370.820191,8660.409521
1002.425506,-2072.576638,2298.286494,9696.697840
1002.425836,-814.226536,1991.848295,9548.656652
1002.426165,-1480.411884,1608.800546,8586.388927
1002.426495,-2146.597232,1378.971896,8216.285956
1002.426825,-2812.782580,1302.362347,10214.842000
1002.427154,-4441.235652,1991.848295,11473.192101
1002.427484,-6883.915261,1532.190996,10807.006753
1002.427814,-8068.244768,-229.828649,10288.862594
1002.428143,-7402.059420,-995.924147,11547.212695
1002.428473,-6143.709319,0.000000,11843.295072
1002.428803,-4885.359217,-919.314598,9326.594869
1002.429132,-3330.926739,-1532.190996,5255.462188
1002.429462,-2146.597232,-2528.115143,4515.256246
1002.429792,-814.226536,-1915.238745,7624.121203
1002.430121,-1850.514855,-383.047749,11103.089130
1002.430451,-5921.647536,2528.115143,12065.356855
1002.430780,-8512.368333,4060.306139,11621.233289
1002.431110,-8512.368333,1302.362347,11399.171507
1002.431440,-5773.606348,-383.047749,12509.480420
1002.431769,-3478.967927,-1455.581446,10807.006753
1002.432099,-2220.617826,-2451.505594,7254.018232
1002.432429,-1184.329507,-1685.410096,5181.441594
1002.432758,0.000000,-383.047749,7031.956449
1002.433088,0.000000,-383.047749,9992.780217
1002.433418,-2146.597232,1072.533697,11843.295072
1002.433747,-5921.647536,2987.772442,11843.295072
1002.434077,-7624.121203,3983.696590,11177.109724
1002.434407,-7476.080014,2221.676944,10732.986159
1002.434736,-6365.771101,-1455.581446,10288.862594
1002.435066,-3923.091493,-4290.134789,9622.677246
1002.435395,-3034.844362,-4060.306139,8142.265362
1002.435725,-3034.844362,-2528.115143,7698.141797
1002.436055,-2072.576638,-1378.971896,8512.368333
1002.436384,-1110.308913,0.000000,10436.903782
1002.436714,-1258.350101,2528.115143,11695.253884
1002.437044,-1702.473667,3830.477490,11769.274478
1002.437373,-2590.720797,4443.353888,11251.130318
1002.437703,-4293.194464,4443.353888,10584.944971
1002.438033,-5847.626942,2911.162892,9844.739029
1002.438362,-5995.668130,1762.019645,8512.368333
1002.438692,-4515.256246,383.047749,7031.956449
1002.439022,-2294.638420,-995.924147,6365.771101
1002.439351,-740.205942,-459.657299,5995.668130
1002.439681,-518.144159,459.657299,5847.626942
1002.440011,222.061783,2221.676944,6809.894666
1002.440340,370.102971,4519.963438,8734.430116
1002.440670,-1036.288319,7048.078582,10658.965565
1002.440999,-3404.947333,7354.516781,12139.377449
1002.441329,-7105.977043,4903.011187,12065.356855
1002.441659,-10214.842000,2604.724693,12731.542202
1002.441988,-11621.233289,536.266849,13471.748144
1002.442318,-11177.109724,-919.314598,12657.521608
1002.442648,-9992.780217,-2068.457845,9400.615463
1002.442977,-7105.977043,-3217.601092,5995.668130
1002.443307,-1998.556043,-4060.306139,4293.194464
1002.443637,2886.803174,-2145.067394,4071.132681
1002.443966,5033.400406,2298.286494,4885.359217
1002.444296,4293.194464,5975.544884,6439.791695
1002.444626,2442.679609,8427.050478,9178.553681
1002.444955,222.061783,9422.974625,12213.398043
1002.445285,-2886.803174,7890.783629,14211.954086
1002.445614,-6069.688724,4443.353888,13989.892304
1002.445944,-8438.347739,229.828649,12657.521608
1002.446274,-10288.862594,-4136.915689,12805.562797
1002.446603,-11399.171507,-6358.592633,11843.295072
1002.446933,-11621.233289,-6281.983084,9474.636058
1002.447263,-9696.697840,-6052.154434,7031.956449
1002.447592,-5773.606348,-3677.258390,5551.544565
1002.447922,-1924.535449,-1532.190996,5921.647536
1002.448252,444.123565,1378.971896,7105.977043
1002.448581,1554.432478,4290.134789,8068.244768
1002.448911,148.041188,6358.592633,8660.409521
1002.449241,-1554.432478,7277.907231,10584.944971
1002.449570,-3923.091493,4290.134789,12139.377449
1002.449900,-6661.853478,842.705048,11843.295072
1002.450229,-8734.430116,-1762.019645,10658.965565
1002.450559,-8216.285956,-4213.525239,10214.842000
1002.450889,-6735.874072,-5745.716235,10066.800811
1002.451218,-4811.338623,-5439.278036,9548.656652
1002.451548,-3404.947333,-4290.134789,8512.368333
1002.451877,-1332.370696,-1991.848295,7624.121203
1002.452207,148.041188,1225.752797,8808.450710
1002.452537,814.226536,4213.525239,11029.068536
1002.452866,0.000000,6358.592633,11843.295072
1002.453196,-2072.576638,5056.230287,12065.356855
1002.453525,-3552.988522,2757.943793,12953.603985
1002.453855,-5477.523971,1532.190996,12657.521608
1002.454185,-6661.853478,153.219100,10955.047942
1002.454514,-7105.977043,-2221.676944,8142.265362
1002.454844,-5847.626942,-4673.182538,5921.647536
1002.455173,-3552.988522,-4519.963438,5255.462188
1002.455503,-1628.453072,-1762.019645,6069.688724
1002.455832,-740.205942,919.314598,7031.956449
1002.456162,-1480.411884,4596.572988,7920.203579
1002.456492,-2516.700203,7354.516781,9770.718434
1002.456821,-2812.782580,7890.783629,11177.109724
1002.457151,-3701.029710,6894.859482,12435.459826
1002.457480,-5033.400406,3600.648841,12435.459826
1002.457810,-6143.709319,2528.115143,12435.459826
1002.458140,-6365.771101,1302.362347,11695.253884
1002.458469,-6069.688724,-229.828649,10214.842000
1002.458799,-5329.482782,-1072.533697,7920.203579
1002.459128,-3627.009116,-536.266849,6513.812290
1002.459458,-1258.350101,1838.629195,6439.791695
1002.459787,740.205942,3600.648841,6883.915261
1002.460117,962.267725,4749.792088,7179.997637
1002.460447,-296.082377,6128.763984,7846.182985
1002.460776,-1406.391290,6741.640382,9326.594869
1002.461106,-2960.823768,5898.935335,10362.883188
1002.461435,-4071.132681,4519.963438,10807.006753
1002.461765,-4441.235652,2528.115143,10066.800811
1002.462095,-4219.173869,229.828649,9326.594869
1002.462424,-3552.988522,-1302.362347,8290.306550
1002.462754,-2590.720797,0.000000,8364.327145
1002.463083,-1850.514855,1302.362347,9104.533087
1002.463413,-2072.576638,3677.258390,9400.615463
1002.463743,-2590.720797,4749.792088,9992.780217
1002.464072,-2516.700203,4903.011187,10658.965565
1002.464402,-2294.638420,6052.154434,11177.109724
1002.464731,-1998.556043,4903.011187,11177.109724
1002.465061,-2220.617826,3830.477490,10362.883188
1002.465390,-1702.473667,1685.410096,9918.759623
1002.465720,-1332.370696,689.485948,9326.594869
1002.466050,-962.267725,1608.800546,9326.594869
1002.466379,-740.205942,1685.410096,9178.553681
1002.466709,-740.205942,2757.943793,9770.718434
1002.467038,-222.061783,4596.572988,10658.965565
1002.467368,-740.205942,5669.106685,11251.130318
1002.467698,-1702.473667,6894.859482,11399.171507
1002.468027,-2738.761985,6358.592633,10362.883188
1002.468357,-3034.844362,5745.716235,9770.718434
1002.468686,-3330.926739,4136.915689,8364.327145
1002.469016,-2442.679609,2145.067394,6957.935855
1002.469346,-1110.308913,689.485948,5847.626942
1002.469675,0.000000,0.000000,5403.503377
1002.470005,-370.102971,612.876398,6513.812290
1002.470334,-1036.288319,2528.115143,7698.141797
1002.470664,-1776.494261,4290.134789,9104.533087
1002.470993,-2294.638420,6128.763984,10510.924376
1002.471323,-2590.720797,6971.469032,11177.109724
1002.471653,-2294.638420,6511.811733,11473.192101
1002.471982,-1554.432478,5515.887586,10955.047942
1002.472312,-1036.288319,3983.696590,10584.944971
1002.472641,-888.247130,2987.772442,9992.780217
1002.472971,-1036.288319,2681.334243,9252.574275
1002.473301,-1036.288319,2681.334243,8438.347739
1002.473630,-444.123565,2834.553343,8364.327145
1002.473960,666.185348,3370.820191,8512.368333
1002.474289,1554.432478,3447.429741,8956.491898
1002.474619,888.247130,3524.039291,9400.615463
1002.474949,-888.247130,4903.011187,9992.780217
1002.475278,-2072.576638,5898.935335,11177.109724
1002.475608,-2220.617826,5822.325785,11917.315666
1002.475937,-2072.576638,5286.058936,11917.315666
1002.476267,-1850.514855,4443.353888,10955.047942
1002.476596,-1258.350101,4443.353888,10066.800811
1002.476926,-740.205942,3983.696590,9326.594869
1002.477256,-444.123565,5286.058936,9474.636058
1002.477585,148.041188,5592.497135,8660.409521
1002.477915,370.102971,5132.839837,7254.018232
1002.478244,518.144159,4903.011187,5699.585753
1002.478574,666.185348,2911.162892,6069.688724
1002.478904,-148.041188,1991.848295,7179.997637
1002.479233,-1776.494261,2298.286494,9030.512492
1002.479563,-3775.050304,3064.381992,9844.739029
1002.479892,-4367.215058,2911.162892,10955.047942
1002.480222,-3034.844362,3907.087040,11917.315666
1002.480551,-2368.659014,4826.401637,11843.295072
1002.480881,-1480.411884,5822.325785,10881.027347
1002.481211,-518.144159,6052.154434,9400.615463
1002.481540,1110.308913,6205.373534,9178.553681
1002.481870,1480.411884,5898.935335,8956.491898
1002.482199,296.082377,6205.373534,8068.244768
1002.482529,-222.061783,4903.011187,6883.915261
1002.482859,-518.144159,2681.334243,6069.688724
1002.483188,-888.247130,306.438199,5847.626942
1002.483518,-1258.350101,-1455.581446,7105.977043
1002.483847,-2072.576638,-1149.143247,9104.533087
1002.484177,-2738.761985,-229.828649,10510.924376
1002.484507,-3034.844362,1838.629195,11621.233289
1002.484836,-2368.659014,3677.258390,12657.521608
1002.485166,-444.123565,3907.087040,12583.501014
1002.485495,74.020594,5286.058936,13323.706956
1002.485825,74.020594,7201.297681,13101.645173
1002.486154,148.041188,7354.516781,11547.212695
1002.486484,222.061783,5209.449386,9696.697840
1002.486814,222.061783,3140.991542,9030.512492
1002.487143,-888.247130,1838.629195,8438.347739
1002.487473,-2072.576638,2298.286494,8512.368333
1002.487802,-2960.823768,2145.067394,7994.224174
1002.488132,-2664.741391,766.095498,7698.141797
1002.488462,-1850.514855,536.266849,8290.306550
1002.488791,-888.247130,2451.505594,9400.615463
1002.489121,74.020594,2374.896044,9474.636058
1002.489450,74.020594,3294.210641,9844.739029
1002.489780,-518.144159,5132.839837,10214.842000
1002.490110,-962.267725,6741.640382,11473.192101
1002.490439,-370.102971,7354.516781,12657.521608
1002.490769,-666.185348,7584.345430,11843.295072
1002.491098,-1332.370696,7354.516781,10510.924376
1002.491428,-1850.514855,5975.544884,7772.162391
1002.491757,-1110.308913,4519.963438,5699.585753
1002.492087,444.123565,3217.601092,4885.359217
1002.492417,2368.659014,2834.553343,4885.359217
1002.492746,2516.700203,2604.724693,5033.400406
1002.493076,1184.329507,2834.553343,6587.832884
1002.493405,-1332.370696,3447.429741,8882.471304
1002.493735,-3923.091493,5056.230287,11177.109724
1002.494065,-5181.441594,5592.497135,12731.542202
1002.494394,-5403.503377,5669.106685,14211.954086
1002.494724,-5403.503377,4749.792088,13471.748144
1002.495053,-5255.462188,3677.258390,11473.192101
1002.495383,-3923.091493,2834.553343,9326.594869
1002.495713,-814.226536,2757.943793,6809.894666
1002.496042,2516.700203,2528.115143,4441.235652
1002.496372,5033.400406,2298.286494,4367.215058
1002.496701,5847.626942,2528.115143,5625.565159
1002.497031,4219.173869,3907.087040,7624.121203
1002.497360,1258.350101,4903.011187,9992.780217
1002.497690,-2220.617826,6741.640382,12287.418637
1002.498020,-4589.276840,7277.907231,14730.098246
1002.498349,-5181.441594,4673.182538,14878.139434
1002.498679,-4219.173869,1149.143247,12583.501014
1002.499008,-2368.659014,-1762.019645,9104.533087
1002.499338,0.000000,-3064.381992,7179.997637
1002.499668,962.267725,-2528.115143,6217.729913
1002.499997,222.061783,153.219100,6809.894666
1002.500327,222.061783,2068.457845,8438.347739
1002.500656,74.020594,2757.943793,9474.636058
1002.500986,-1036.288319,4136.915689,9770.718434
1002.501315,-2368.659014,2911.162892,9844.739029
1002.501645,-2664.741391,689.485948,11251.130318
1002.501975,-2664.741391,0.000000,12361.439231
1002.502304,-2516.700203,0.000000,13027.624579
1002.502634,-2590.720797,229.828649,12139.377449
1002.502963,-1776.494261,-459.657299,10362.883188
1002.503293,-592.164754,0.000000,10288.862594
1002.503623,370.102971,766.095498,9400.615463
1002.503952,444.123565,1455.581446,7105.977043
1002.504282,1184.329507,306.438199,5255.462188
1002.504611,2368.659014,-1838.629195,5625.565159
1002.504941,2146.597232,-1608.800546,7698.141797
1002.505271,148.041188,-612.876398,10362.883188
1002.505600,-2220.617826,76.609550,11843.295072
1002.505930,-3849.070898,766.095498,12879.583391
1002.506259,-3997.112087,2145.067394,14508.036463
1002.506589,-3775.050304,2604.724693,13767.830521
1002.506918,-2812.782580,1302.362347,10807.006753
1002.507248,-962.267725,0.000000,7105.977043
1002.507578,1258.350101,-842.705048,5477.523971
1002.507907,2516.700203,0.000000,6809.894666
1002.508237,1924.535449,2298.286494,8068.244768
1002.508566,592.164754,2757.943793,8734.430116
1002.508896,-1258.350101,3370.820191,9400.615463
1002.509226,-2368.659014,3370.820191,10732.986159
1002.509555,-3404.947333,2451.505594,11177.109724
1002.509885,-2960.823768,689.485948,10140.821405
1002.510214,-1924.535449,-689.485948,9104.533087
1002.510544,-814.226536,-919.314598,9326.594869
1002.510874,-222.061783,76.609550,9474.636058
1002.511203,0.000000,1838.629195,9252.574275
1002.511533,-370.102971,3983.696590,9474.636058
1002.511862,-518.144159,6281.983084,9326.594869
1002.512192,-444.123565,6128.763984,8438.347739
1002.512521,74.020594,3907.087040,7402.059420
1002.512851,-222.061783,1302.362347,7179.997637
1002.513181,-888.247130,612.876398,7920.203579
1002.513510,-1776.494261,919.314598,8808.450710
1002.513840,-2590.720797,1685.410096,9326.594869
1002.514169,-3256.906145,1378.971896,10362.883188
1002.514499,-2812.782580,2145.067394,11621.233289
1002.514829,-2664.741391,2451.505594,11621.233289
1002.515158,-1776.494261,2374.896044,9474.636058
1002.515488,-592.164754,689.485948,7254.018232
1002.515817,814.226536,-766.095498,7105.977043
1002.516147,1406.391290,-383.047749,8586.388927
1002.516476,888.247130,1378.971896,9622.677246
1002.516806,370.102971,2298.286494,9622.677246
1002.517136,-222.061783,2451.505594,9992.780217
1002.517465,-444.123565,1762.019645,12213.398043
1002.517795,-1702.473667,1991.848295,13323.706956
1002.518124,-2886.803174,1378.971896,11325.150913
1002.518454,-2442.679609,-383.047749,9104.533087
1002.518784,-1184.329507,-2221.676944,8808.450710
1002.519113,-222.061783,-2451.505594,9770.718434
1002.519443,-666.185348,-1302.362347,10066.800811
1002.519772,-1480.411884,76.609550,9030.512492
1002.520102,-1406.391290,612.876398,9326.594869
1002.520432,-666.185348,383.047749,9548.656652
1002.520761,-1258.350101,459.657299,9622.677246
1002.521091,-444.123565,-1149.143247,8438.347739
1002.521420,222.061783,-2451.505594,8290.306550
1002.521750,222.061783,-1685.410096,8882.471304
1002.522079,-296.082377,-1225.752797,10436.903782
1002.522409,-1110.308913,153.219100,11621.233289
1002.522739,-2146.597232,1302.362347,12139.377449
1002.523068,-2146.597232,1762.019645,12139.377449
1002.523398,-1702.473667,1455.581446,10584.944971
1002.523727,-1184.329507,-229.828649,8438.347739
1002.524057,-814.226536,-1685.410096,6809.894666
1002.524387,148.041188,-2681.334243,7402.059420
1002.524716,222.061783,-919.314598,8734.430116
1002.525046,-518.144159,919.314598,9252.574275
1002.525375,-1628.453072,995.924147,9326.594869
1002.525705,-1776.494261,1685.410096,10732.986159
1002.526035,-1850.514855,1608.800546,11325.150913
1002.526364,-1628.453072,1685.410096,10658.965565
1002.526694,-1184.329507,766.095498,8808.450710
1002.527023,-222.061783,-229.828649,8882.471304
1002.527353,0.000000,76.609550,9696.697840
1002.527682,0.000000,1838.629195,10510.924376
1002.528012,-370.102971,2834.553343,10288.862594
1002.528342,-592.164754,3370.820191,9918.759623
1002.528671,-666.185348,3677.258390,10955.047942
1002.529001,-1110.308913,3983.696590,11325.150913
1002.529330,-1924.535449,3370.820191,9400.615463
1002.529660,-1850.514855,2374.896044,7698.141797
1002.529990,-1184.329507,995.924147,7994.224174
1002.530319,-1332.370696,1225.752797,8882.471304
1002.530649,-1998.556043,2145.067394,9030.512492
1002.530978,-2146.597232,2757.943793,7846.182985
1002.531308,-1924.535449,2681.334243,7698.141797
1002.531638,-962.267725,3370.820191,8512.368333
1002.531967,-1554.432478,3524.039291,8586.388927
1002.532297,-1258.350101,2451.505594,7550.100608
1002.532626,-814.226536,1225.752797,6883.915261
1002.532956,370.102971,1455.581446,7698.141797
1002.533285,518.144159,1762.019645,8734.430116
1002.533615,148.041188,1685.410096,9178.553681
1002.533945,-148.041188,2298.286494,9548.656652
1002.534274,-444.123565,2451.505594,10436.903782
1002.534604,-1332.370696,3830.477490,10732.986159
1002.534933,-2516.700203,2987.772442,9474.636058
1002.535263,-1776.494261,1072.533697,8882.471304
1002.535593,-518.144159,-842.705048,9030.512492
1002.535922,-148.041188,-1991.848295,8956.491898
1002.536252,-814.226536,-689.485948,8660.409521
1002.536581,-1332.370696,-995.924147,9104.533087
1002.536911,-2072.576638,-612.876398,10436.903782
1002.537240,-2590.720797,383.047749,12139.377449
1002.537570,-2442.679609,383.047749,11991.336260
1002.537900,-1998.556043,-766.095498,9844.739029
1002.538229,-1036.288319,-2451.505594,9252.574275
1002.538559,0.000000,-2987.772442,10140.821405
1002.538888,740.205942,-2451.505594,11473.192101
1002.539218,0.000000,-1072.533697,11251.130318
1002.539548,0.000000,459.657299,11473.192101
1002.539877,-666.185348,0.000000,11843.295072
1002.540207,-888.247130,306.438199,12139.377449
1002.540536,-1184.329507,0.000000,10881.027347
1002.540866,-1036.288319,-1532.190996,8956.491898
1002.541196,-370.102971,-2911.162892,8068.244768
1002.541525,148.041188,-2987.772442,8142.265362
1002.541855,-370.102971,-2604.724693,9104.533087
1002.542184,-1184.329507,-842.705048,9104.533087
1002.542514,-1702.473667,459.657299,9400.615463
1002.542843,-1554.432478,919.314598,9918.759623
1002.543173,-1554.432478,919.314598,9992.780217
1002.543503,-1480.411884,383.047749,8586.388927
1002.543832,-814.226536,0.000000,7846.182985
1002.544162,-222.061783,-919.314598,8216.285956
1002.544491,0.000000,-536.266849,9326.594869
1002.544821,-962.267725,1685.410096,9992.780217
1002.545151,-1924.535449,1762.019645,10436.903782
1002.545480,-2146.597232,3524.039291,11547.212695
1002.545810,-2590.720797,4213.525239,11103.089130
1002.546139,-2294.638420,3064.381992,9400.615463
1002.546469,-1480.411884,1072.533697,7772.162391
1002.546799,-740.205942,76.609550,7105.977043
1002.547128,0.000000,766.095498,7550.100608
1002.547458,-370.102971,1378.971896,7476.080014
1002.547787,-444.123565,1915.238745,7698.141797
1002.548117,-444.123565,2757.943793,9474.636058
1002.548446,-666.185348,3983.696590,10584.944971
1002.548776,-1628.453072,4749.792088,10288.862594
1002.549106,-1184.329507,2451.505594,7994.224174
1002.549435,0.000000,153.219100,7920.203579
1002.549765,592.164754,229.828649,9770.718434
1002.550094,296.082377,2068.457845,11325.150913
1002.550424,-592.164754,3370.820191,11029.068536
1002.550753,-1480.411884,3677.258390,10732.986159
1002.551083,-1776.494261,4060.306139,11769.274478
1002.551413,-1924.535449,4366.744339,11917.315666
1002.551742,-2294.638420,3294.210641,9770.718434
1002.552072,-1924.535449,1149.143247,7179.997637
1002.552401,-1036.288319,-1072.533697,6439.791695
1002.552731,-518.144159,-1302.362347,7698.141797
1002.553060,-1406.391290,76.609550,9030.512492
1002.553390,-1998.556043,995.924147,8364.327145
1002.553719,-2146.597232,1455.581446,8660.409521
1002.554049,-1480.411884,689.485948,10140.821405
1002.554379,-1554.432478,1225.752797,10732.986159
1002.554708,-1554.432478,0.000000,8956.491898
1002.555038,-740.205942,-1838.629195,8142.265362
1002.555367,74.020594,-1685.410096,8364.327145
1002.555697,296.082377,-766.095498,10362.883188
1002.556026,0.000000,612.876398,11177.109724
1002.556356,0.000000,689.485948,10140.821405
1002.556685,222.061783,459.657299,10658.965565
1002.557015,370.102971,689.485948,11177.109724
1002.557345,-666.185348,842.705048,10066.800811
1002.557674,-1332.370696,-689.485948,8364.327145
1002.558004,-1406.391290,-2757.943793,8364.327145
1002.558333,-814.226536,-3294.210641,9252.574275
1002.558663,-1036.288319,-2451.505594,10214.842000
1002.558992,-1998.556043,-2145.067394,10066.800811
1002.559322,-2886.803174,-1149.143247,9918.759623
1002.559652,-2368.659014,-689.485948,10881.027347
1002.559981,-1998.556043,0.000000,10807.006753
1002.560311,-1406.391290,-689.485948,9548.656652
1002.560640,-1110.308913,-1915.238745,8660.409521
1002.560970,-592.164754,-1072.533697,9844.739029
1002.561299,148.041188,-383.047749,11251.130318
1002.561629,-222.061783,689.485948,11325.150913
1002.561958,-444.123565,1302.362347,11399.171507
1002.562288,-1110.308913,1532.190996,11843.295072
1002.562618,-1776.494261,2145.067394,12213.398043
1002.562947,-2072.576638,2451.505594,10807.006753
1002.563277,-1776.494261,1149.143247,8808.450710
1002.563606,-518.144159,-229.828649,7624.121203
1002.563936,222.061783,76.609550,7994.224174
1002.564265,296.082377,1685.410096,8068.244768
1002.564595,-370.102971,2145.067394,7179.997637
1002.564924,-666.185348,2757.943793,7550.100608
1002.565254,-814.226536,3753.867940,8808.450710
1002.565584,-1554.432478,3677.258390,8586.388927
1002.565913,-2072.576638,2298.286494,7179.997637
1002.566243,-962.267725,689.485948,6957.935855
1002.566572,-740.205942,536.266849,7920.203579
1002.566902,-888.247130,1762.019645,9622.677246
1002.567231,-1332.370696,2987.772442,10362.883188
1002.567561,-1110.308913,3524.039291,10658.965565
1002.567890,-1110.308913,3983.696590,10732.986159
1002.568220,-1480.411884,5209.449386,11325.150913
1002.568550,-2072.576638,4596.572988,9770.718434
1002.568879,-1258.350101,2528.115143,8142.265362
1002.569209,-296.082377,995.924147,7402.059420
1002.569538,-370.102971,766.095498,7550.100608
1002.569868,-740.205942,306.438199,8364.327145
1002.570197,-1554.432478,1302.362347,8438.347739
1002.570527,-1628.453072,689.485948,8882.471304
1002.570857,-1332.370696,536.266849,10436.903782
1002.571186,-1480.411884,1072.533697,10436.903782
1002.571516,-2146.597232,1378.971896,9844.739029
1002.571845,-1924.535449,-689.485948,8956.491898
1002.572175,-888.247130,-1149.143247,9474.636058
1002.572504,74.020594,0.000000,10732.986159
1002.572834,296.082377,229.828649,10732.986159
1002.573163,296.082377,689.485948,10510.924376
1002.573493,0.000000,612.876398,11177.109724
1002.573823,-296.082377,1149.143247,12139.377449
1002.574152,-1554.432478,1072.533697,11769.274478
1002.574482,-2368.659014,612.876398,10066.800811
1002.574811,-1702.473667,-1072.533697,9622.677246
1002.575141,-962.267725,-2834.553343,9770.718434
1002.575470,-740.205942,-2145.067394,9622.677246
1002.575800,-1184.329507,-1455.581446,8882.471304
1002.576129,-1258.350101,-612.876398,8438.347739
1002.576459,-1332.370696,536.266849,9400.615463
1002.576789,-1110.308913,842.705048,9992.780217
1002.577118,-1110.308913,229.828649,8660.409521
1002.577448,-666.185348,-919.314598,7846.182985
1002.577777,0.000000,-1302.362347,8290.306550
1002.578107,296.082377,-229.828649,9770.718434
1002.578436,-148.041188,383.047749,10658.965565
1002.578766,-1110.308913,1532.190996,10732.986159
1002.579095,-1776.494261,2604.724693,11547.212695
1002.579425,-2368.659014,3140.991542,11695.253884
1002.579755,-2442.679609,2604.724693,10658.965565
1002.580084,-1628.453072,1762.019645,8512.368333
1002.580414,-814.226536,-153.219100,7550.100608
1002.580743,0.000000,-229.828649,7624.121203
1002.581073,-222.061783,842.705048,7550.100608
1002.581402,-296.082377,1915.238745,7846.182985
1002.581732,-740.205942,2451.505594,8216.285956
1002.582062,-1184.329507,3677.258390,9992.780217
1002.582391,-1258.350101,4213.525239,9992.780217
1002.582721,-1184.329507,2987.772442,8438.347739
1002.583050,-666.185348,1072.533697,7254.018232
1002.583380,0.000000,229.828649,7698.141797
1002.583709,370.102971,842.705048,9992.780217
1002.584039,-592.164754,2604.724693,11103.089130
1002.584368,-2072.576638,3907.087040,10955.047942
1002.584698,-2368.659014,3907.087040,11325.150913
1002.585028,-2368.659014,3983.696590,12583.501014
1002.585357,-2664.741391,3983.696590,12065.356855
1002.585687,-2664.741391,2911.162892,9178.553681
1002.586016,-1702.473667,995.924147,7920.203579
1002.586346,-518.144159,536.266849,8216.285956
1002.586675,-444.123565,842.705048,8438.347739
1002.587005,-518.144159,1685.410096,8290.306550
1002.587334,-296.082377,1685.410096,8808.450710
1002.587664,-814.226536,2451.505594,9992.780217
1002.587994,-1406.391290,2451.505594,10066.800811
1002.588323,-1554.432478,1072.533697,9252.574275
1002.588653,-444.123565,0.000000,8734.430116
1002.588982,0.000000,-383.047749,8660.409521
1002.589312,0.000000,0.000000,9548.656652
1002.589641,-296.082377,306.438199,9844.739029
1002.589971,-296.082377,1225.752797,9918.759623
1002.590300,-444.123565,1685.410096,10510.924376
1002.590630,-1258.350101,1838.629195,10807.006753
1002.590960,-1998.556043,1378.971896,10066.800811
1002.591289,-2442.679609,76.609550,8438.347739
1002.591619,-1924.535449,-1225.752797,8586.388927
1002.591948,-1332.370696,-1991.848295,9400.615463
1002.592278,-962.267725,-1608.800546,9474.636058
1002.592607,-1480.411884,-689.485948,9474.636058
1002.592937,-1628.453072,-459.657299,8956.491898
1002.593267,-1554.432478,0.000000,9770.718434
1002.593596,-888.247130,306.438199,10584.944971
1002.593926,-444.123565,0.000000,9474.636058
1002.594255,148.041188,-612.876398,8142.265362
1002.594585,592.164754,-1608.800546,9030.512492
1002.594914,888.247130,-1072.533697,10362.883188
1002.595244,740.205942,229.828649,10955.047942
1002.595573,74.020594,1378.971896,11399.171507
1002.595903,-296.082377,1991.848295,12139.377449
1002.596233,-1332.370696,2528.115143,13175.665768
1002.596562,-2664.741391,2528.115143,11843.295072
1002.596892,-2960.823768,1378.971896,9770.718434
1002.597221,-1924.535449,76.609550,8660.409521
1002.597551,-888.247130,76.609550,8808.450710
1002.597880,-666.185348,383.047749,9104.533087
1002.598210,-1924.535449,1915.238745,7994.224174
1002.598539,-2220.617826,1838.629195,7476.080014
1002.598869,-1998.556043,2068.457845,8734.430116
1002.599199,-2294.638420,4443.353888,9548.656652
1002.599528,-2516.700203,4060.306139,8142.265362
1002.599858,-1702.473667,1915.238745,6809.894666
1002.600187,-370.102971,383.047749,7105.977043
1002.600517,148.041188,1149.143247,8882.471304
1002.600846,0.000000,2911.162892,9918.759623
1002.601176,-592.164754,4136.915689,9474.636058
1002.601505,-666.185348,4443.353888,9918.759623
1002.601835,-666.185348,4596.572988,11029.068536
1002.602165,-1480.411884,4979.620737,10584.944971
1002.602494,-1480.411884,3753.867940,8438.347739
1002.602824,-740.205942,2068.457845,6735.874072
1002.603153,-148.041188,689.485948,7254.018232
1002.603483,-444.123565,1225.752797,8290.306550
1002.603812,-1554.432478,1608.800546,8290.306550
1002.604142,-2294.638420,1915.238745,8438.347739
1002.604471,-2294.638420,1532.190996,9252.574275
1002.604801,-2294.638420,1838.629195,10066.800811
1002.605131,-2294.638420,919.314598,9622.677246
1002.605460,-2072.576638,0.000000,8734.430116
1002.605790,-814.226536,-612.876398,9252.574275
1002.606119,74.020594,0.000000,9400.615463
1002.606449,74.020594,306.438199,9770.718434
1002.606778,518.144159,459.657299,10510.924376
1002.607108,296.082377,1608.800546,11695.253884
1002.607438,-370.102971,2451.505594,12435.459826
1002.607767,-1110.308913,1838.629195,11473.192101
1002.608097,-1036.288319,-229.828649,9622.677246
1002.608426,-740.205942,-1378.971896,9474.636058
1002.608756,-592.164754,-2451.505594,10214.842000
1002.609085,-888.247130,-2374.896044,10066.800811
1002.609415,-1776.494261,-1378.971896,9474.636058
1002.609744,-2294.638420,-689.485948,9326.594869
1002.610074,-1776.494261,-229.828649,10658.965565
1002.610404,-1998.556043,459.657299,10807.006753
1002.610733,-1628.453072,0.000000,9178.553681
1002.611063,-888.247130,-1378.971896,7624.121203
1002.611392,-370.102971,-2451.505594,7994.224174
1002.611722,222.061783,-1915.238745,10140.821405
1002.612051,-296.082377,-153.219100,11399.171507
1002.612381,-1480.411884,766.095498,11103.089130
1002.612710,-1702.473667,1838.629195,11473.192101
1002.613040,-1406.391290,1685.410096,12213.398043
1002.613370,-1480.411884,1455.581446,10955.047942
1002.613699,-1258.350101,689.485948,8438.347739
1002.614029,-592.164754,-229.828649,7550.100608
1002.614358,296.082377,-689.485948,8438.347739
1002.614688,-296.082377,842.705048,9030.512492
1002.615017,-1184.329507,1991.848295,8882.471304
1002.615347,-2368.659014,2298.286494,8068.244768
1002.615676,-2072.576638,2221.676944,9104.533087
1002.616006,-1924.535449,2681.334243,9918.759623
1002.616336,-1998.556043,2374.896044,8882.471304
1002.616665,-1332.370696,766.095498,7179.997637
1002.616995,0.000000,-383.047749,7105.977043
1002.617324,814.226536,153.219100,8660.409521
1002.617654,74.020594,2451.505594,10362.883188
1002.617983,-814.226536,4060.306139,10732.986159
1002.618313,-1036.288319,4979.620737,11251.130318
1002.618643,-740.205942,5286.058936,11473.192101
1002.618972,-1110.308913,4519.963438,10510.924376
1002.619302,-962.267725,2911.162892,8956.491898
1002.619631,-444.123565,995.924147,7624.121203
1002.619961,-370.102971,-153.219100,7994.224174
1002.620290,-592.164754,919.314598,8956.491898
1002.620620,-1850.514855,2374.896044,8586.388927
1002.620949,-2368.659014,1762.019645,8660.409521
1002.621279,-1998.556043,1991.848295,9844.739029
1002.621609,-2368.659014,3064.381992,10066.800811
1002.621938,-1998.556043,2221.676944,8438.347739
1002.622268,-1258.350101,-306.438199,6587.832884
1002.622597,-296.082377,-1072.533697,8068.244768
1002.622927,-148.041188,153.219100,10214.842000
1002.623256,-962.267725,1225.752797,10955.047942
1002.623586,-1776.494261,1608.800546,10362.883188
1002.623915,-1702.473667,2451.505594,11029.068536
1002.624245,-1258.350101,1685.410096,12065.356855
1002.624575,-1184.329507,2068.457845,11621.233289
1002.624904,-962.267725,459.657299,8808.450710
1002.625234,-518.144159,-1532.190996,7254.018232
1002.625563,518.144159,-2604.724693,8660.409521
1002.625893,0.000000,-1532.190996,10066.800811
1002.626222,-1184.329507,306.438199,10436.903782
1002.626552,-2294.638420,459.657299,9548.656652
1002.626881,-1776.494261,153.219100,9548.656652
1002.627211,-1184.329507,-306.438199,10658.965565
1002.627541,-962.267725,-689.485948,9622.677246
1002.627870,-962.267725,-1991.848295,8068.244768
1002.628200,-370.102971,-2221.676944,8216.285956
1002.628529,0.000000,-1838.629195,9548.656652
1002.628859,-888.247130,-919.314598,10881.027347
1002.629188,-1258.350101,229.828649,11399.171507
1002.629518,-1554.432478,919.314598,11251.130318
1002.629848,-1554.432478,1991.848295,11991.336260
1002.630177,-1554.432478,2298.286494,11547.212695
1002.630507,-1480.411884,229.828649,9400.615463
1002.630836,-1258.350101,-1838.629195,7846.182985
1002.631166,-444.123565,-1915.238745,8512.368333
1002.631495,-444.123565,-229.828649,9474.636058
1002.631825,-888.247130,1455.581446,9844.739029
1002.632154,-1480.411884,1762.019645,9252.574275
1002.632484,-1480.411884,1378.971896,9844.739029
1002.632814,-962.267725,1302.362347,9992.780217
1002.633143,-1258.350101,2298.286494,8956.491898
1002.633473,-444.123565,1838.629195,7402.059420
1002.633802,0.000000,76.609550,7624.121203
1002.634132,148.041188,0.000000,9326.594869
1002.634461,-222.061783,2145.067394,10288.862594
1002.634791,-1480.411884,3140.991542,9844.739029
1002.635120,-1702.473667,3677.258390,9992.780217
1002.635450,-1406.391290,4060.306139,10955.047942
1002.635780,-1110.308913,3600.648841,10510.924376
1002.636109,-888.247130,2298.286494,7994.224174
1002.636439,-518.144159,612.876398,6143.709319
1002.636768,0.000000,766.095498,7254.018232
1002.637098,-370.102971,2681.334243,8734.430116
1002.637427,-1184.329507,3294.210641,9178.553681
1002.637757,-1776.494261,3140.991542,8512.368333
1002.638086,-2368.659014,2604.724693,8364.327145
1002.638416,-2146.597232,2757.943793,9622.677246
1002.638746,-2072.576638,995.924147,9030.512492
1002.639075,-1776.494261,-536.266849,7624.121203
1002.639405,-1258.350101,-1225.752797,7698.141797
1002.639734,-962.267725,-1149.143247,9252.574275
1002.640064,-888.247130,383.047749,10955.047942
1002.640393,-1480.411884,2221.676944,11399.171507
1002.640723,-1332.370696,2145.067394,11399.171507
1002.641053,-518.144159,1685.410096,11769.274478
1002.641382,0.000000,1378.971896,11695.253884
1002.641712,0.000000,383.047749,9770.718434
1002.642041,-148.041188,-1302.362347,8956.491898
1002.642371,296.082377,-1991.848295,9770.718434
1002.642700,0.000000,-1072.533697,10955.047942
1002.643030,-962.267725,229.828649,10732.986159
1002.643359,-1480.411884,153.219100,9918.759623
1002.643689,-1406.391290,-689.485948,10140.821405
1002.644019,-1480.411884,-842.705048,10436.903782
1002.644348,-1776.494261,-536.266849,8882.471304
1002.644678,-1554.432478,-2757.943793,7624.121203
1002.645007,-592.164754,-3753.867940,8216.285956
1002.645337,-1110.308913,-2221.676944,10066.800811
1002.645666,-1850.514855,-229.828649,10658.965565
1002.645996,-2368.659014,0.000000,9992.780217
1002.646325,-1850.514855,-306.438199,10288.862594
1002.646655,-1480.411884,306.438199,11621.233289
1002.646985,-1036.288319,1378.971896,11473.192101
1002.647314,-1924.535449,612.876398,9104.533087
1002.647644,-1332.370696,-612.876398,7550.100608
1002.647973,0.000000,-1532.190996,8364.327145
1002.648303,296.082377,-536.266849,9844.739029
1002.648632,-222.061783,1685.410096,9474.636058
1002.648962,-1110.308913,1991.848295,8660.409521
1002.649291,-814.226536,2221.676944,9030.512492
1002.649621,-592.164754,1685.410096,9918.759623
1002.649951,-370.102971,1225.752797,8956.491898
1002.650280,-444.123565,0.000000,7698.141797
1002.650610,-666.185348,229.828649,8068.244768
1002.650939,-370.102971,1685.410096,9770.718434
1002.651269,-592.164754,2451.505594,10510.924376
1002.651598,-1184.329507,2451.505594,10362.883188
1002.651928,-1406.391290,2834.553343,10362.883188
1002.652258,-1480.411884,3907.087040,11473.192101
1002.652587,-2072.576638,4596.572988,11547.212695
1002.652917,-2368.659014,3064.381992,9030.512492
1002.653247,-1628.453072,1302.362347,7772.162391
1002.653576,-666.185348,612.876398,8660.409521
1002.653906,-148.041188,2451.505594,9548.656652
1002.654236,-1184.329507,3370.820191,8586.388927
1002.654565,-1406.391290,2298.286494,7846.182985
1002.654895,-1036.288319,1991.848295,8586.388927
1002.655225,-888.247130,2757.943793,10214.842000
1002.655554,-1184.329507,2451.505594,9030.512492
1002.655884,-1332.370696,995.924147,6809.894666
1002.656214,-444.123565,0.000000,7254.018232
1002.656543,0.000000,536.266849,8808.450710
1002.656873,0.000000,1608.800546,9992.780217
1002.657203,-148.041188,2221.676944,9474.636058
1002.657532,-592.164754,2528.115143,9178.553681
1002.657862,-740.205942,2528.115143,10807.006753
1002.658192,-1480.411884,2451.505594,10807.006753
1002.658521,-1776.494261,1149.143247,9104.533087
1002.658851,-1110.308913,0.000000,8734.430116
1002.659181,-814.226536,-766.095498,9326.594869
1002.659510,-962.267725,-459.657299,9622.677246
1002.659840,-1332.370696,-1225.752797,9474.636058
1002.660170,-1628.453072,-1072.533697,9178.553681
1002.660499,-1702.473667,306.438199,9992.780217
1002.660829,-1702.473667,995.924147,10732.986159
1002.661158,-1628.453072,-76.609550,9548.656652
1002.661488,-1702.473667,-1455.581446,8216.285956
1002.661818,-962.267725,-2911.162892,8290.306550
1002.662147,0.000000,-2451.505594,9770.718434
1002.662477,296.082377,-1225.752797,11399.171507
1002.662807,-370.102971,306.438199,11177.109724
1002.663136,-1036.288319,76.609550,11695.253884
1002.663466,-1184.329507,459.657299,12953.603985
1002.663796,-1480.411884,1455.581446,13101.645173
1002.664125,-1776.494261,766.095498,11103.089130
1002.664455,-1110.308913,-306.438199,9474.636058
1002.664785,-148.041188,-2374.896044,9400.615463
1002.665114,444.123565,-2221.676944,9474.636058
1002.665444,0.000000,-766.095498,9252.574275
1002.665774,-666.185348,842.705048,9104.533087
1002.666103,-962.267725,1455.581446,9474.636058
1002.666433,-1184.329507,2221.676944,10066.800811
1002.666763,-1110.308913,1762.019645,9178.553681
1002.667092,-444.123565,-153.219100,7920.203579
1002.667422,0.000000,0.000000,8216.285956
1002.667752,0.000000,995.924147,8956.491898
1002.668081,-1480.411884,1532.190996,9252.574275
1002.668411,-2294.638420,2298.286494,9252.574275
1002.668741,-2220.617826,2604.724693,9622.677246
1002.669070,-1998.556043,2911.162892,10732.986159
1002.669400,-2220.617826,4443.353888,10658.965565
1002.669729,-2220.617826,3907.087040,7920.203579
1002.670059,-1332.370696,1685.410096,6291.750507
1002.670389,-592.164754,689.485948,6735.874072
1002.670718,0.000000,2068.457845,8290.306550
1002.671048,-370.102971,3370.820191,8512.368333
1002.671378,-666.185348,3600.648841,7994.224174
1002.671707,-370.102971,3370.820191,8956.491898
1002.672037,-666.185348,3370.820191,10140.821405
1002.672367,-666.185348,3447.429741,9770.718434
1002.672696,-666.185348,2451.505594,8586.388927
1002.673026,74.020594,1072.533697,8068.244768
1002.673356,518.144159,306.438199,8882.471304
1002.673685,-222.061783,1225.752797,10510.924376
1002.674015,-1110.308913,2145.067394,11029.068536
1002.674345,-1258.350101,3294.210641,11177.109724
1002.674674,-1480.411884,3140.991542,11473.192101
1002.675004,-1702.473667,2145.067394,10955.047942
1002.675334,-1850.514855,1302.362347,9400.615463
1002.675663,-1776.494261,-383.047749,8438.347739
1002.675993,-1110.308913,-1149.143247,8438.347739
1002.676323,-1036.288319,-383.047749,9622.677246
1002.676652,-1258.350101,306.438199,9696.697840
1002.676982,-1628.453072,459.657299,9548.656652
1002.677312,-1776.494261,76.609550,9474.636058
1002.677641,-1110.308913,306.438199,10510.924376
1002.677971,-814.226536,383.047749,10066.800811
1002.678301,-518.144159,76.609550,8438.347739
1002.678630,0.000000,-1532.190996,7994.224174
1002.678960,666.185348,-2221.676944,9474.636058
1002.679289,444.123565,-766.095498,10658.965565
1002.679619,-518.144159,995.924147,10807.006753
1002.679949,-962.267725,1762.019645,10807.006753
1002.680278,-1110.308913,1302.362347,10955.047942
1002.680608,-1332.370696,995.924147,11251.130318
1002.680938,-1702.473667,153.219100,9548.656652
1002.681267,-1924.535449,-766.095498,8438.347739
1002.681597,-1480.411884,-1608.800546,8364.327145
1002.681927,-1628.453072,-1838.629195,8660.409521
1002.682256,-1850.514855,-842.705048,9030.512492
1002.682586,-1702.473667,0.000000,8956.491898
1002.682916,-1776.494261,842.705048,9548.656652
1002.683245,-1480.411884,1532.190996,10955.047942
1002.683575,-1258.350101,2528.115143,9992.780217
1002.683905,-740.205942,995.924147,8734.430116
1002.684234,0.000000,-229.828649,8438.347739
1002.684564,666.185348,0.000000,9622.677246
1002.684894,592.164754,1149.143247,10510.924376
1002.685223,-296.082377,2451.505594,10584.944971
1002.685553,-888.247130,3447.429741,10658.965565
1002.685883,-740.205942,3524.039291,11177.109724
1002.686212,-1036.288319,3600.648841,10584.944971
1002.686542,-962.267725,2834.553343,8956.491898
1002.686872,-740.205942,1455.581446,7624.121203
1002.687201,-592.164754,1455.581446,7402.059420
1002.687531,-814.226536,2374.896044,8290.306550
1002.687861,-1258.350101,2681.334243,8290.306550
1002.688190,-1998.556043,2145.067394,7994.224174
1002.688520,-1924.535449,2834.553343,8882.471304
1002.688849,-1332.370696,3447.429741,10066.800811
1002.689179,-1850.514855,2681.334243,8956.491898
1002.689509,-1924.535449,1455.581446,7624.121203
1002.689838,-740.205942,153.219100,7772.162391
1002.690168,0.000000,536.266849,9400.615463
1002.690498,-370.102971,2298.286494,10510.924376
1002.690827,-1258.350101,3447.429741,10510.924376
1002.691157,-1406.391290,3524.039291,10584.944971
