#time,accel_x,accel_y,accel_z
992.117218,-888.247130,919.314598,9696.697840
992.117548,-962.267725,842.705048,9696.697840
992.117877,-1258.350101,689.485948,9548.656652
992.118206,-1036.288319,766.095498,9548.656652
992.118536,-814.226536,612.876398,9474.636058
992.118865,-740.205942,842.705048,9770.718434
992.119195,-1184.329507,842.705048,9696.697840
992.119524,-1110.308913,766.095498,9696.697840
992.119853,-1036.288319,919.314598,9622.677246
992.120183,-1480.411884,842.705048,9474.636058
992.120512,-1036.288319,1149.143247,9622.677246
992.120842,-1184.329507,842.705048,9326.594869
992.121171,-1036.288319,842.705048,9178.553681
992.121500,-1036.288319,919.314598,9474.636058
992.121830,-888.247130,995.924147,9178.553681
992.122159,-518.144159,1455.581446,9474.636058
992.122489,-1110.308913,766.095498,9252.574275
992.122818,-888.247130,1072.533697,9548.656652
992.123147,-962.267725,842.705048,9548.656652
992.123477,-1036.288319,842.705048,9474.636058
992.123806,-1036.288319,1149.143247,9326.594869
992.124136,-1110.308913,766.095498,9252.574275
992.124465,-1110.308913,842.705048,9474.636058
992.124795,-1110.308913,995.924147,9400.615463
992.125124,-1036.288319,842.705048,9622.677246
992.125453,-666.185348,1149.143247,9696.697840
992.125783,-592.164754,536.266849,9474.636058
992.126112,-1110.308913,1072.533697,9474.636058
992.126442,-962.267725,842.705048,9918.759623
992.126771,-1184.329507,766.095498,9548.656652
992.127100,-1184.329507,766.095498,9622.677246
992.127430,-888.247130,1072.533697,9474.636058
992.127759,-814.226536,995.924147,9844.739029
992.128089,-1184.329507,689.485948,9696.697840
992.128418,-1184.329507,689.485948,9696.697840
992.128747,-1110.308913,919.314598,9548.656652
992.129077,-814.226536,1455.581446,9918.759623
992.129406,-1184.329507,766.095498,9400.615463
992.129736,-1110.308913,995.924147,9770.718434
992.130065,-1110.308913,919.314598,9622.677246
992.130394,-1110.308913,1072.533697,9548.656652
992.130724,-962.267725,995.924147,9474.636058
992.131053,-814.226536,842.705048,9622.677246
992.131383,-1036.288319,842.705048,9474.636058
992.131712,-1110.308913,919.314598,9548.656652
992.132041,-888.247130,842.705048,9548.656652
992.132371,-740.205942,306.438199,9548.656652
992.132700,-592.164754,1378.971896,9400.615463
992.133030,-1036.288319,1225.752797,9400.615463
992.133359,-1110.308913,1072.533697,9474.636058
992.133689,-962.267725,1072.533697,9474.636058
992.134018,-1110.308913,1072.533697,9400.615463
992.134347,-1184.329507,612.876398,9474.636058
992.134677,-962.267725,459.657299,9326.594869
992.135006,-1184.329507,612.876398,9326.594869
992.135336,-1110.308913,919.314598,9474.636058
992.135665,-1110.308913,766.095498,9400.615463
992.135994,-1184.329507,1149.143247,9326.594869
992.136324,-1110.308913,1225.752797,9474.636058
992.136653,-1258.350101,1072.533697,9474.636058
992.136983,-1036.288319,689.485948,9770.718434
992.137312,-1036.288319,995.924147,9696.697840
992.137641,-962.267725,842.705048,9400.615463
992.137971,-740.205942,1149.143247,9696.697840
992.138300,-888.247130,842.705048,9252.574275
992.138630,-296.082377,842.705048,9252.574275
992.138959,370.102971,229.828649,9178.553681
992.139288,1036.288319,383.047749,9474.636058
992.139618,740.205942,766.095498,9548.656652
992.139947,666.185348,306.438199,9696.697840
992.140277,0.000000,536.266849,10288.862594
992.140606,-296.082377,1072.533697,10732.986159
992.140935,-592.164754,842.705048,10881.027347
992.141265,-518.144159,383.047749,10436.903782
992.141594,148.041188,842.705048,9770.718434
992.141924,740.205942,0.000000,9400.615463
992.142253,1998.556043,0.000000,9252.574275
992.142582,2516.700203,689.485948,8660.409521
992.142912,3182.885551,995.924147,8438.347739
992.143241,3775.050304,1838.629195,8808.450710
992.143571,3552.988522,2068.457845,9326.594869
992.143900,3404.947333,1608.800546,9696.697840
992.144230,2812.782580,1149.143247,10140.821405
992.144559,1924.535449,1072.533697,10288.862594
992.144888,1036.288319,153.219100,10510.924376
992.145218,962.267725,0.000000,10807.006753
992.145547,1406.391290,0.000000,10288.862594
992.145877,2146.597232,-459.657299,9474.636058
992.146206,2886.803174,-153.219100,8808.450710
992.146535,4293.194464,383.047749,8586.388927
992.146865,4441.235652,1532.190996,8882.471304
992.147194,4293.194464,2604.724693,9400.615463
992.147524,3478.967927,3064.381992,10066.800811
992.147853,1998.556043,3217.601092,10584.944971
992.148182,148.041188,3064.381992,10214.842000
992.148512,-1998.556043,2298.286494,9548.656652
992.148841,-2072.576638,536.266849,8808.450710
992.149171,-1036.288319,-766.095498,7994.224174
992.149500,888.247130,-1608.800546,7402.059420
992.149829,2368.659014,-1455.581446,6809.894666
992.150159,3404.947333,-842.705048,6365.771101
992.150488,3997.112087,536.266849,7920.203579
992.150818,3404.947333,2757.943793,9622.677246
992.151147,1924.535449,4366.744339,11547.212695
992.151476,1184.329507,4290.134789,12435.459826
992.151806,148.041188,3370.820191,12583.501014
992.152135,-444.123565,1225.752797,12213.398043
992.152465,-1184.329507,-536.266849,11695.253884
992.152794,-1110.308913,-1915.238745,10807.006753
992.153123,-518.144159,-2374.896044,9400.615463
992.153453,814.226536,-2221.676944,8290.306550
992.153782,2442.679609,-842.705048,7772.162391
992.154112,3997.112087,-383.047749,7476.080014
992.154441,4737.318029,1455.581446,7402.059420
992.154771,4737.318029,2757.943793,8068.244768
992.155100,4441.235652,3830.477490,9178.553681
992.155429,3997.112087,4290.134789,10214.842000
992.155759,2664.741391,3677.258390,10807.006753
992.156088,2072.576638,2374.896044,11399.171507
992.156418,1184.329507,919.314598,11103.089130
992.156747,0.000000,-383.047749,10510.924376
992.157076,-296.082377,-995.924147,10362.883188
992.157406,-518.144159,-1225.752797,10140.821405
992.157735,-592.164754,-766.095498,10066.800811
992.158065,-148.041188,-229.828649,9474.636058
992.158394,222.061783,153.219100,9030.512492
992.158723,1184.329507,229.828649,7994.224174
992.159053,1998.556043,0.000000,7846.182985
992.159382,2960.823768,459.657299,8364.327145
992.159712,3923.091493,459.657299,8586.388927
992.160041,3997.112087,229.828649,8660.409521
992.160370,3923.091493,76.609550,9474.636058
992.160700,3404.947333,1225.752797,10362.883188
992.161029,2368.659014,1149.143247,10510.924376
992.161359,2960.823768,1762.019645,11177.109724
992.161688,2812.782580,2374.896044,10955.047942
992.162017,3108.864956,2145.067394,10362.883188
992.162347,3552.988522,2451.505594,9474.636058
992.162676,3701.029710,1378.971896,8216.285956
992.163006,3775.050304,383.047749,8068.244768
992.163335,3404.947333,612.876398,8290.306550
992.163664,1924.535449,1149.143247,9104.533087
992.163994,592.164754,1225.752797,9548.656652
992.164323,-888.247130,383.047749,9326.594869
992.164653,-2072.576638,-306.438199,10066.800811
992.164982,-1998.556043,-383.047749,11251.130318
992.165312,-2368.659014,-306.438199,11621.233289
992.165641,-2738.761985,0.000000,11325.150913
992.165970,-2516.700203,459.657299,10066.800811
992.166300,-740.205942,306.438199,8882.471304
992.166629,2442.679609,76.609550,8364.327145
992.166959,5181.441594,766.095498,8068.244768
992.167288,7105.977043,2834.553343,7254.018232
992.167617,8586.388927,3753.867940,7179.997637
992.167947,9104.533087,4366.744339,8438.347739
992.168276,7624.121203,5592.497135,10066.800811
992.168606,5625.565159,5745.716235,11399.171507
992.168935,3404.947333,3983.696590,12509.480420
992.169264,444.123565,2604.724693,13323.706956
992.169594,-2738.761985,383.047749,13545.768739
992.169923,-6069.688724,-1225.752797,12731.542202
992.170253,-7254.018232,-2298.286494,10658.965565
992.170582,-5921.647536,-2145.067394,7105.977043
992.170911,-1554.432478,-3294.210641,3997.112087
992.171241,3923.091493,-5209.449386,1998.556043
992.171570,7994.224174,-2911.162892,2442.679609
992.171900,8660.409521,1378.971896,4515.256246
992.172229,7254.018232,5822.325785,7328.038826
992.172558,5773.606348,8580.269578,10807.006753
992.172888,3108.864956,9116.536426,13175.665768
992.173217,0.000000,7660.954980,15174.221811
992.173547,-4145.153275,2834.553343,16210.510130
992.173876,-6439.791695,-536.266849,15692.365970
992.174205,-7105.977043,-2528.115143,13545.768739
992.174535,-5625.565159,-5669.106685,10436.903782
992.174864,-1998.556043,-6665.030833,8068.244768
992.175194,2442.679609,-6588.421283,4885.359217
992.175523,6587.832884,-3677.258390,2664.741391
992.175853,10362.883188,-1149.143247,3404.947333
992.176182,10955.047942,2681.334243,6439.791695
992.176511,8438.347739,7354.516781,10066.800811
992.176841,3108.864956,8580.269578,12731.542202
992.177170,-1554.432478,8197.221829,14730.098246
992.177500,-4515.256246,4826.401637,14730.098246
992.177829,-4737.318029,229.828649,14285.974681
992.178158,-5033.400406,-3753.867940,11843.295072
992.178488,-4663.297435,-7124.688131,7772.162391
992.178817,-1776.494261,-7890.783629,5329.482782
992.179147,1776.494261,-6281.983084,5329.482782
992.179476,3108.864956,-2834.553343,6883.915261
992.179805,2220.617826,919.314598,8290.306550
992.180135,-148.041188,4519.963438,9696.697840
992.180464,-1480.411884,7890.783629,11843.295072
992.180794,-2590.720797,7354.516781,13471.748144
992.181123,-3256.906145,4673.182538,13323.706956
992.181452,-3478.967927,766.095498,11695.253884
992.181782,-3182.885551,-3907.087040,9104.533087
992.182111,-2368.659014,-4519.963438,7920.203579
992.182441,-1332.370696,-4979.620737,6957.935855
992.182770,-518.144159,-5515.887586,6513.812290
992.183099,0.000000,-2451.505594,7328.038826
992.183429,888.247130,1225.752797,8882.471304
992.183758,2294.638420,4443.353888,10066.800811
992.184088,2886.803174,6971.469032,9252.574275
992.184417,2590.720797,5745.716235,8734.430116
992.184747,2072.576638,3677.258390,10288.862594
992.185076,296.082377,2987.772442,12213.398043
992.185405,-1924.535449,3294.210641,13767.830521
992.185735,-5403.503377,1838.629195,13027.624579
992.186064,-8290.306550,-536.266849,11029.068536
992.186394,-7920.203579,-2987.772442,9030.512492
992.186723,-4737.318029,-4366.744339,8364.327145
992.187053,-666.185348,-2604.724693,7254.018232
992.187382,1110.308913,-383.047749,5403.503377
992.187712,1924.535449,1072.533697,5773.606348
992.188042,2590.720797,3600.648841,8068.244768
992.188371,1776.494261,5439.278036,10140.821405
992.188701,-148.041188,6358.592633,11843.295072
992.189030,-3182.885551,6971.469032,12139.377449
992.189360,-4663.297435,4366.744339,11621.233289
992.189690,-3256.906145,383.047749,11621.233289
992.190019,-1110.308913,-2221.676944,10214.842000
992.190349,74.020594,-2068.457845,7328.038826
992.190679,1036.288319,-1378.971896,6217.729913
992.191008,2516.700203,536.266849,7105.977043
992.191338,2812.782580,2834.553343,8882.471304
992.191667,1702.473667,4213.525239,9548.656652
992.191997,-296.082377,5592.497135,9770.718434
992.192327,-1258.350101,6741.640382,9992.780217
992.192656,-1184.329507,4749.792088,10807.006753
992.192986,-1332.370696,2374.896044,10288.862594
992.193315,-1702.473667,-536.266849,9104.533087
992.193645,-2146.597232,-2451.505594,7624.121203
992.193975,-1776.494261,-2528.115143,8142.265362
992.194304,-1776.494261,-1685.410096,9400.615463
992.194634,-2664.741391,-1072.533697,9548.656652
992.194963,-3108.864956,0.000000,8586.388927
992.195293,-2960.823768,1149.143247,8512.368333
992.195623,-222.061783,2681.334243,10288.862594
992.195952,2220.617826,2911.162892,11177.109724
992.196282,2516.700203,3140.991542,10066.800811
992.196612,2590.720797,1762.019645,8512.368333
992.196941,3404.947333,0.000000,8882.471304
992.197271,2812.782580,229.828649,10658.965565
992.197600,-1110.308913,1149.143247,11251.130318
992.197930,-5329.482782,612.876398,10881.027347
992.198260,-6809.894666,-306.438199,10658.965565
992.198589,-5477.523971,-2068.457845,11547.212695
992.198919,-2664.741391,-2528.115143,11325.150913
992.199248,-740.205942,-3294.210641,9326.594869
992.199578,74.020594,-3600.648841,7105.977043
992.199908,1258.350101,-2145.067394,7402.059420
992.200237,1776.494261,-306.438199,9474.636058
992.200567,74.020594,1225.752797,10955.047942
992.200897,-2220.617826,1838.629195,11399.171507
992.201226,-2812.782580,3064.381992,11769.274478
992.201556,-1924.535449,1762.019645,12065.356855
992.201885,0.000000,-536.266849,10732.986159
992.202215,592.164754,-1762.019645,7994.224174
992.202545,518.144159,-1225.752797,6291.750507
992.202874,1480.411884,-995.924147,7550.100608
992.203204,1258.350101,306.438199,10288.862594
992.203533,-1332.370696,2145.067394,10807.006753
992.203863,-4441.235652,3600.648841,9696.697840
992.204193,-4737.318029,3370.820191,9770.718434
992.204522,-3256.906145,2451.505594,10658.965565
992.204852,-1554.432478,1225.752797,9696.697840
992.205182,-1628.453072,-536.266849,8142.265362
992.205511,-1924.535449,-766.095498,6809.894666
992.205841,-1406.391290,-306.438199,7772.162391
992.206170,-1480.411884,383.047749,9844.739029
992.206500,-2368.659014,1685.410096,11473.192101
992.206830,-4071.132681,2834.553343,10140.821405
992.207159,-3923.091493,3140.991542,9474.636058
992.207489,-1184.329507,2987.772442,9918.759623
992.207818,1776.494261,2604.724693,9400.615463
992.208148,2886.803174,2298.286494,7254.018232
992.208478,2664.741391,1915.238745,6957.935855
992.208807,2442.679609,2834.553343,8216.285956
992.209137,2812.782580,3447.429741,10807.006753
992.209467,592.164754,3600.648841,11473.192101
992.209796,-2368.659014,4290.134789,9474.636058
992.210126,-3108.864956,3140.991542,9326.594869
992.210455,-1776.494261,1608.800546,10214.842000
992.210785,-296.082377,995.924147,10066.800811
992.211115,74.020594,536.266849,7994.224174
992.211444,444.123565,-229.828649,6661.853478
992.211774,1036.288319,383.047749,7476.080014
992.212103,1110.308913,1072.533697,9252.574275
992.212433,-296.082377,1762.019645,10510.924376
992.212763,-2294.638420,2145.067394,9770.718434
992.213092,-2738.761985,2451.505594,9992.780217
992.213422,-1258.350101,1455.581446,10436.903782
992.213751,0.000000,536.266849,10510.924376
992.214081,1036.288319,-383.047749,8216.285956
992.214411,1554.432478,-1455.581446,7031.956449
992.214740,2146.597232,-995.924147,8512.368333
992.215070,2072.576638,919.314598,10732.986159
992.215400,148.041188,1302.362347,11251.130318
992.215729,-2072.576638,1532.190996,10881.027347
992.216059,-3108.864956,1685.410096,10881.027347
992.216388,-2072.576638,689.485948,11769.274478
992.216718,-1184.329507,-995.924147,11251.130318
992.217048,-740.205942,-1838.629195,9400.615463
992.217377,-1702.473667,-2221.676944,8216.285956
992.217707,-1258.350101,-2374.896044,8956.491898
992.218036,-1406.391290,-1762.019645,10510.924376
992.218366,-2738.761985,-612.876398,10436.903782
992.218696,-4367.215058,0.000000,9474.636058
992.219025,-4219.173869,766.095498,9178.553681
992.219355,-3182.885551,0.000000,9622.677246
992.219685,-1554.432478,-842.705048,10066.800811
992.220014,-962.267725,-995.924147,8956.491898
992.220344,-1110.308913,383.047749,8364.327145
992.220673,0.000000,459.657299,9178.553681
992.221003,74.020594,0.000000,11399.171507
992.221333,-1628.453072,689.485948,12213.398043
992.221662,-3701.029710,1685.410096,11399.171507
992.221992,-4663.297435,1838.629195,10510.924376
992.222321,-3627.009116,1608.800546,10732.986159
992.222651,-1924.535449,459.657299,10066.800811
992.222981,-888.247130,-995.924147,7994.224174
992.223310,-222.061783,-1455.581446,6735.874072
992.223640,148.041188,229.828649,7179.997637
992.223970,296.082377,1685.410096,9326.594869
992.224299,-1480.411884,2528.115143,10510.924376
992.224629,-3330.926739,3217.601092,10658.965565
992.224958,-3701.029710,3524.039291,9918.759623
992.225288,-1998.556043,2987.772442,9992.780217
992.225618,370.102971,2604.724693,9326.594869
992.225947,1776.494261,1532.190996,7698.141797
992.226277,1554.432478,689.485948,6365.771101
992.226606,1998.556043,1685.410096,7179.997637
992.226936,2220.617826,3217.601092,9474.636058
992.227266,740.205942,4136.915689,10436.903782
992.227595,-1480.411884,4596.572988,9622.677246
992.227925,-2590.720797,4136.915689,8956.491898
992.228254,-1184.329507,2834.553343,9326.594869
992.228584,1036.288319,1685.410096,9622.677246
992.228914,1554.432478,536.266849,8882.471304
992.229243,444.123565,842.705048,7402.059420
992.229573,0.000000,995.924147,8216.285956
992.229903,370.102971,536.266849,9992.780217
992.230232,-444.123565,766.095498,10881.027347
992.230562,-2146.597232,1915.238745,10584.944971
992.230891,-1702.473667,2681.334243,10362.883188
992.231221,0.000000,2298.286494,10436.903782
992.231551,1628.453072,919.314598,9178.553681
992.231880,1702.473667,383.047749,7105.977043
992.232210,814.226536,0.000000,6883.915261
992.232539,296.082377,229.828649,9104.533087
992.232869,-1184.329507,1455.581446,11991.336260
992.233199,-2590.720797,2068.457845,12435.459826
992.233528,-3997.112087,229.828649,10881.027347
992.233858,-4293.194464,-995.924147,9992.780217
992.234188,-2960.823768,-1532.190996,10436.903782
992.234517,-1406.391290,-2068.457845,9992.780217
992.234847,-296.082377,-2911.162892,9030.512492
992.235176,-1036.288319,-1378.971896,8512.368333
992.235506,-1258.350101,0.000000,9474.636058
992.235836,-962.267725,-229.828649,10362.883188
992.236165,-1480.411884,-229.828649,9992.780217
992.236495,-2664.741391,0.000000,8956.491898
992.236824,-3404.947333,689.485948,9030.512492
992.237154,-2664.741391,-306.438199,10288.862594
992.237484,-1554.432478,-919.314598,10436.903782
992.237813,-1480.411884,-766.095498,8882.471304
992.238143,-1628.453072,-1149.143247,7328.038826
992.238473,-444.123565,-1225.752797,9474.636058
992.238802,0.000000,-229.828649,12435.459826
992.239132,-2220.617826,919.314598,12879.583391
992.239461,-5255.462188,1838.629195,11177.109724
992.239791,-5995.668130,2145.067394,9992.780217
992.240121,-4293.194464,1302.362347,10584.944971
992.240450,-2368.659014,-536.266849,10066.800811
992.240780,-814.226536,-1608.800546,7994.224174
992.241109,-370.102971,-689.485948,6217.729913
992.241439,222.061783,153.219100,6809.894666
992.241769,444.123565,766.095498,9326.594869
992.242098,-592.164754,2068.457845,10807.006753
992.242428,-2368.659014,3830.477490,10140.821405
992.242757,-2516.700203,3524.039291,9844.739029
992.243087,-888.247130,3600.648841,10584.944971
992.243417,814.226536,2757.943793,10140.821405
992.243746,1258.350101,1149.143247,8364.327145
992.244076,1480.411884,612.876398,7031.956449
992.244406,1924.535449,2298.286494,7550.100608
992.244735,2220.617826,3524.039291,9696.697840
992.245065,666.185348,2911.162892,9918.759623
992.245394,-1776.494261,4060.306139,9474.636058
992.245724,-2220.617826,4290.134789,9252.574275
992.246054,-1036.288319,3677.258390,9918.759623
992.246383,148.041188,2528.115143,9326.594869
992.246713,518.144159,1532.190996,7624.121203
992.247042,148.041188,-459.657299,7179.997637
992.247372,222.061783,76.609550,8438.347739
992.247702,0.000000,1378.971896,10066.800811
992.248031,-1480.411884,1838.629195,10584.944971
992.248361,-2886.803174,2451.505594,9992.780217
992.248691,-2664.741391,2145.067394,9400.615463
992.249020,-592.164754,1915.238745,9326.594869
992.249350,1332.370696,1302.362347,8734.430116
992.249679,2220.617826,306.438199,7624.121203
992.250009,2146.597232,536.266849,8290.306550
992.250339,1924.535449,919.314598,9696.697840
992.250668,814.226536,2451.505594,11473.192101
992.250998,-1332.370696,1991.848295,11621.233289
992.251327,-3552.988522,1302.362347,10807.006753
992.251657,-4515.256246,229.828649,10658.965565
992.251987,-3849.070898,-383.047749,11325.150913
992.252316,-3478.967927,-1608.800546,10584.944971
992.252646,-2960.823768,-2528.115143,8956.491898
992.252976,-2368.659014,-2528.115143,7550.100608
992.253305,-1776.494261,-2068.457845,8216.285956
992.253635,-1628.453072,-2145.067394,9252.574275
992.253964,-2886.803174,-689.485948,9992.780217
992.254294,-4515.256246,612.876398,9844.739029
992.254624,-4811.338623,919.314598,10510.924376
992.254953,-3478.967927,842.705048,11399.171507
992.255283,-1702.473667,-383.047749,10436.903782
992.255612,-370.102971,-1915.238745,8438.347739
992.255942,-222.061783,-2451.505594,7846.182985
992.256272,0.000000,-995.924147,9918.759623
992.256601,-592.164754,-153.219100,12213.398043
992.256931,-2368.659014,459.657299,12583.501014
992.257261,-4367.215058,1838.629195,11399.171507
992.257590,-4219.173869,1532.190996,10214.842000
992.257920,-2146.597232,0.000000,10066.800811
992.258249,-444.123565,-842.705048,10214.842000
992.258579,-296.082377,-459.657299,8290.306550
992.258909,-518.144159,0.000000,7105.977043
992.259238,0.000000,766.095498,7550.100608
992.259568,0.000000,995.924147,9696.697840
992.259897,-1480.411884,2145.067394,10140.821405
992.260227,-2738.761985,2681.334243,9104.533087
992.260557,-2368.659014,2911.162892,8586.388927
992.260886,-740.205942,2298.286494,9030.512492
992.261216,518.144159,2374.896044,9400.615463
992.261545,1480.411884,1838.629195,8216.285956
992.261875,1628.453072,1838.629195,7105.977043
992.262205,2294.638420,3217.601092,7920.203579
992.262534,2146.597232,3907.087040,9548.656652
992.262864,814.226536,3907.087040,10510.924376
992.263194,-1554.432478,4519.963438,9770.718434
992.263523,-1924.535449,4213.525239,9844.739029
992.263853,-1258.350101,3370.820191,10510.924376
992.264182,-888.247130,2451.505594,9696.697840
992.264512,-148.041188,306.438199,8438.347739
992.264842,0.000000,-536.266849,7772.162391
992.265171,814.226536,689.485948,8956.491898
992.265501,1110.308913,1608.800546,9918.759623
992.265830,-148.041188,2834.553343,9474.636058
992.266160,-2442.679609,3983.696590,7550.100608
992.266490,-2886.803174,3753.867940,7846.182985
992.266819,-888.247130,2681.334243,9400.615463
992.267149,592.164754,1302.362347,9992.780217
992.267479,148.041188,459.657299,9252.574275
992.267808,0.000000,153.219100,8808.450710
992.268138,0.000000,612.876398,9844.739029
992.268467,-222.061783,1149.143247,10584.944971
992.268797,-1554.432478,1225.752797,10807.006753
992.269127,-2812.782580,1455.581446,10732.986159
992.269456,-3478.967927,1225.752797,11325.150913
992.269786,-2812.782580,995.924147,11547.212695
992.270115,-2368.659014,306.438199,10584.944971
992.270445,-1332.370696,-1532.190996,8068.244768
992.270775,-888.247130,-2834.553343,6957.935855
992.271104,-666.185348,-2298.286494,8142.265362
992.271434,-888.247130,-1302.362347,9548.656652
992.271764,-2590.720797,-1378.971896,10436.903782
992.272093,-4811.338623,-306.438199,10288.862594
992.272423,-5699.585753,689.485948,9992.780217
992.272752,-3923.091493,-766.095498,10288.862594
992.273082,-1480.411884,-1838.629195,8956.491898
992.273412,-370.102971,-1532.190996,7846.182985
992.273741,0.000000,-1532.190996,7328.038826
992.274071,148.041188,-536.266849,9252.574275
992.274400,-666.185348,919.314598,11621.233289
992.274730,-2294.638420,919.314598,11991.336260
992.275060,-4515.256246,1149.143247,12287.418637
992.275389,-5107.421000,995.924147,12731.542202
992.275719,-3849.070898,766.095498,12065.356855
992.276048,-2072.576638,-1608.800546,9918.759623
992.276378,-518.144159,-2374.896044,7476.080014
992.276708,296.082377,-2374.896044,7031.956449
992.277037,740.205942,-1225.752797,7920.203579
992.277367,0.000000,995.924147,9178.553681
992.277697,-1406.391290,2451.505594,9622.677246
992.278026,-2146.597232,2451.505594,9696.697840
992.278356,-1554.432478,2451.505594,10214.842000
992.278685,-518.144159,2987.772442,10732.986159
992.279015,888.247130,2757.943793,9770.718434
992.279345,1554.432478,1455.581446,7772.162391
992.279674,1776.494261,2068.457845,7402.059420
992.280004,2368.659014,2604.724693,9326.594869
992.280333,1554.432478,3370.820191,10807.006753
992.280663,-592.164754,4749.792088,10436.903782
992.280993,-2590.720797,4596.572988,9178.553681
992.281322,-2294.638420,3677.258390,9030.512492
992.281652,-1480.411884,2528.115143,9474.636058
992.281982,-296.082377,2911.162892,9178.553681
992.282311,-370.102971,1838.629195,7179.997637
992.282641,-444.123565,1072.533697,6143.709319
992.282970,74.020594,842.705048,7476.080014
992.283300,444.123565,1149.143247,9844.739029
992.283630,-1184.329507,2298.286494,10140.821405
992.283959,-2886.803174,3217.601092,8956.491898
992.284289,-2442.679609,3677.258390,8512.368333
992.284618,-296.082377,2528.115143,9326.594869
992.284948,1554.432478,1378.971896,9474.636058
992.285278,2072.576638,1455.581446,7920.203579
992.285607,1776.494261,1378.971896,7920.203579
992.285937,1480.411884,2221.676944,9400.615463
992.286267,740.205942,2681.334243,11547.212695
992.286596,-1554.432478,2834.553343,11991.336260
992.286926,-3256.906145,1915.238745,10881.027347
992.287255,-3775.050304,1532.190996,10288.862594
992.287585,-2442.679609,536.266849,10732.986159
992.287915,-2072.576638,-612.876398,10436.903782
992.288244,-2368.659014,-1915.238745,8660.409521
992.288574,-2812.782580,-1915.238745,7328.038826
992.288904,-2072.576638,-1838.629195,8142.265362
992.289233,-1628.453072,-1838.629195,9844.739029
992.289563,-2886.803174,-1915.238745,10658.965565
992.289892,-4737.318029,-612.876398,9844.739029
992.290222,-4293.194464,-306.438199,9474.636058
992.290552,-2368.659014,-153.219100,10584.944971
992.290881,-814.226536,-1072.533697,10658.965565
992.291211,-1110.308913,-1072.533697,9252.574275
992.291541,-888.247130,-1455.581446,8216.285956
992.291870,296.082377,-536.266849,9696.697840
992.292200,1258.350101,383.047749,11695.253884
992.292529,-814.226536,-306.438199,11769.274478
992.292859,-4219.173869,689.485948,10807.006753
992.293189,-4737.318029,306.438199,10881.027347
992.293518,-3404.947333,-383.047749,11769.274478
992.293848,-1702.473667,-766.095498,11177.109724
992.294178,-666.185348,-2298.286494,8068.244768
992.294507,0.000000,-3217.601092,6587.832884
992.294837,814.226536,-2374.896044,7476.080014
992.295167,962.267725,0.000000,9104.533087
992.295496,-592.164754,1225.752797,9770.718434
992.295826,-2368.659014,2374.896044,9622.677246
992.296155,-2442.679609,3064.381992,10066.800811
992.296485,-740.205942,2374.896044,11177.109724
992.296815,444.123565,1608.800546,10214.842000
992.297144,370.102971,1455.581446,7698.141797
992.297474,814.226536,842.705048,7105.977043
992.297804,2146.597232,1302.362347,9030.512492
992.298133,1924.535449,2987.772442,11177.109724
992.298463,-296.082377,3217.601092,10807.006753
992.298792,-2812.782580,3294.210641,9400.615463
992.299122,-2664.741391,4136.915689,8956.491898
992.299452,-222.061783,3524.039291,10288.862594
992.299781,1332.370696,1455.581446,10140.821405
992.300111,1258.350101,995.924147,8808.450710
992.300441,-148.041188,1762.019645,6439.791695
992.300770,-148.041188,1762.019645,6883.915261
992.301100,444.123565,689.485948,8734.430116
992.301429,-592.164754,1532.190996,9918.759623
992.301759,-2368.659014,2681.334243,9326.594869
992.302089,-2294.638420,2911.162892,9326.594869
992.302418,0.000000,2451.505594,10066.800811
992.302748,1628.453072,2145.067394,9474.636058
992.303078,2368.659014,1991.848295,7772.162391
992.303407,2294.638420,1762.019645,7920.203579
992.303737,2368.659014,3370.820191,9474.636058
992.304066,1480.411884,4136.915689,11325.150913
992.304396,-888.247130,3753.867940,10955.047942
992.304726,-3034.844362,2604.724693,9770.718434
992.305055,-3997.112087,1149.143247,9696.697840
992.305385,-3108.864956,76.609550,10807.006753
992.305715,-2886.803174,-612.876398,10066.800811
992.306044,-3330.926739,-2068.457845,7846.182985
992.306374,-3330.926739,-2451.505594,7179.997637
992.306703,-2072.576638,-1991.848295,8586.388927
992.307033,-1258.350101,-612.876398,10658.965565
992.307363,-2368.659014,0.000000,10807.006753
992.307692,-3997.112087,383.047749,9844.739029
992.308022,-4071.132681,1685.410096,10288.862594
992.308352,-2072.576638,229.828649,10658.965565
992.308681,74.020594,459.657299,9844.739029
992.309011,370.102971,0.000000,7476.080014
992.309341,370.102971,-995.924147,6661.853478
992.309670,962.267725,-1149.143247,8660.409521
992.310000,0.000000,-995.924147,11843.295072
992.310329,-2738.761985,153.219100,13101.645173
992.310659,-5921.647536,1685.410096,12287.418637
992.310989,-5995.668130,76.609550,11843.295072
992.311318,-3404.947333,-1302.362347,12065.356855
992.311648,-1258.350101,-2068.457845,9844.739029
992.311978,-296.082377,-2911.162892,7254.018232
992.312307,370.102971,-2911.162892,6735.874072
992.312637,592.164754,-1455.581446,8512.368333
992.312966,0.000000,76.609550,10140.821405
992.313296,-1258.350101,689.485948,10140.821405
992.313626,-2072.576638,1532.190996,9178.553681
992.313955,-1850.514855,2068.457845,9178.553681
992.314285,444.123565,536.266849,10362.883188
992.314615,2072.576638,459.657299,10066.800811
992.314944,1702.473667,536.266849,8216.285956
992.315274,1110.308913,459.657299,7328.038826
992.315603,1702.473667,1455.581446,9622.677246
992.315933,1036.288319,3370.820191,11399.171507
992.316263,-1036.288319,3983.696590,11251.130318
992.316592,-2886.803174,3447.429741,9696.697840
992.316922,-2738.761985,3524.039291,9622.677246
992.317252,-1628.453072,2451.505594,10066.800811
992.317581,0.000000,842.705048,9696.697840
992.317911,0.000000,-306.438199,7179.997637
992.318240,0.000000,-459.657299,6217.729913
992.318570,1258.350101,383.047749,7402.059420
992.318900,1702.473667,1762.019645,9326.594869
992.319229,592.164754,2911.162892,9844.739029
992.319559,-1184.329507,3753.867940,9326.594869
992.319889,-1258.350101,4443.353888,9474.636058
992.320218,222.061783,3524.039291,10436.903782
992.320548,1406.391290,3830.477490,9770.718434
992.320877,1036.288319,2681.334243,8438.347739
992.321207,814.226536,1685.410096,7550.100608
992.321537,1036.288319,2221.676944,8882.471304
992.321866,666.185348,2757.943793,10881.027347
992.322196,-1110.308913,3140.991542,10362.883188
992.322526,-3997.112087,2528.115143,8808.450710
992.322855,-3849.070898,2221.676944,8956.491898
992.323185,-2368.659014,842.705048,10066.800811
992.323514,-1480.411884,76.609550,9696.697840
992.323844,-1480.411884,-459.657299,7624.121203
992.324174,-1184.329507,-766.095498,7698.141797
992.324503,-888.247130,-383.047749,8660.409521
992.324833,-1036.288319,0.000000,10288.862594
992.325163,-2368.659014,76.609550,10881.027347
992.325492,-4071.132681,842.705048,10362.883188
992.325822,-4219.173869,1225.752797,10510.924376
992.326152,-2072.576638,459.657299,10807.006753
992.326481,222.061783,-766.095498,9844.739029
992.326811,814.226536,-1838.629195,8438.347739
992.327140,148.041188,-766.095498,7476.080014
992.327470,518.144159,1225.752797,8956.491898
992.327800,0.000000,842.705048,11251.130318
992.328129,-2442.679609,229.828649,12065.356855
992.328459,-5107.421000,766.095498,11547.212695
992.328789,-5847.626942,0.000000,11325.150913
992.329118,-4367.215058,-1225.752797,11029.068536
992.329448,-2738.761985,-2221.676944,9696.697840
992.329777,-1776.494261,-3524.039291,7476.080014
992.330107,-740.205942,-4290.134789,6809.894666
992.330437,444.123565,-2451.505594,8142.265362
992.330766,296.082377,-383.047749,10214.842000
992.331096,-1110.308913,1532.190996,10436.903782
992.331426,-3108.864956,2374.896044,9622.677246
992.331755,-2220.617826,1532.190996,9696.697840
992.332085,296.082377,229.828649,11399.171507
992.332414,1332.370696,459.657299,11621.233289
992.332744,740.205942,995.924147,9474.636058
992.333074,370.102971,459.657299,8142.265362
992.333403,1036.288319,536.266849,9400.615463
992.333733,1776.494261,2298.286494,10881.027347
992.334063,444.123565,2298.286494,10807.006753
992.334392,-1406.391290,2911.162892,10066.800811
992.334722,-3034.844362,3983.696590,8956.491898
992.335051,-2516.700203,2987.772442,9252.574275
992.335381,-1406.391290,919.314598,9104.533087
992.335711,-1480.411884,-766.095498,7624.121203
992.336040,-1110.308913,-842.705048,7031.956449
992.336370,-222.061783,0.000000,8438.347739
992.336700,0.000000,689.485948,9770.718434
992.337029,-592.164754,995.924147,9918.759623
992.337359,-1480.411884,2298.286494,8734.430116
992.337688,-814.226536,4136.915689,9696.697840
992.338018,1850.514855,4903.011187,10584.944971
992.338348,3478.967927,4903.011187,10362.883188
992.338677,3775.050304,4596.572988,7402.059420
992.339007,3701.029710,2681.334243,6291.750507
992.339337,3923.091493,2528.115143,8512.368333
992.339666,2368.659014,3140.991542,10436.903782
992.339996,-1036.288319,3447.429741,10436.903782
992.340326,-4293.194464,2757.943793,10066.800811
992.340655,-5107.421000,1838.629195,9918.759623
992.340985,-3552.988522,842.705048,10510.924376
992.341314,-1850.514855,-1302.362347,9400.615463
992.341644,-1110.308913,-1685.410096,7772.162391
992.341974,-962.267725,-689.485948,7402.059420
992.342303,-740.205942,-459.657299,8586.388927
992.342633,-962.267725,842.705048,10140.821405
992.342963,-2294.638420,2681.334243,10584.944971
992.343292,-3552.988522,2298.286494,9474.636058
992.343622,-2442.679609,1302.362347,9474.636058
992.343951,-888.247130,306.438199,10436.903782
992.344281,740.205942,-536.266849,10288.862594
992.344611,666.185348,-1149.143247,9548.656652
992.344940,-518.144159,76.609550,8882.471304
992.345270,-592.164754,766.095498,9992.780217
992.345600,-444.123565,766.095498,11473.192101
992.345929,-1628.453072,76.609550,11473.192101
992.346259,-3330.926739,536.266849,10584.944971
992.346588,-3775.050304,0.000000,10288.862594
992.346918,-2960.823768,-689.485948,10732.986159
992.347248,-2886.803174,-1608.800546,9918.759623
992.347577,-2368.659014,-2757.943793,8142.265362
992.347907,-1554.432478,-3677.258390,7254.018232
992.348237,-888.247130,-2604.724693,8586.388927
992.348566,-666.185348,-842.705048,10214.842000
992.348896,-2368.659014,-306.438199,10658.965565
992.349225,-3627.009116,689.485948,10362.883188
992.349555,-3701.029710,1532.190996,10288.862594
992.349885,-1332.370696,612.876398,11177.109724
992.350214,296.082377,229.828649,10066.800811
992.350544,1110.308913,-229.828649,9400.615463
992.350874,1110.308913,0.000000,8216.285956
992.351203,1480.411884,919.314598,9474.636058
992.351533,962.267725,2298.286494,11103.089130
992.351862,-814.226536,2757.943793,10955.047942
992.352192,-2812.782580,2681.334243,9474.636058
992.352522,-3256.906145,2068.457845,9252.574275
992.352851,-1628.453072,1608.800546,10140.821405
992.353181,0.000000,842.705048,9326.594869
992.353511,148.041188,0.000000,7402.059420
992.353840,0.000000,689.485948,6883.915261
992.354170,222.061783,1149.143247,7772.162391
992.354499,222.061783,1149.143247,10732.986159
992.354829,-1332.370696,2911.162892,11325.150913
992.355159,-2960.823768,4519.963438,10288.862594
992.355488,-2516.700203,4366.744339,9400.615463
992.355818,0.000000,2528.115143,9844.739029
992.356148,1628.453072,2298.286494,8956.491898
992.356477,2368.659014,1915.238745,6883.915261
992.356807,2368.659014,1915.238745,6587.832884
992.357137,3404.947333,3677.258390,8882.471304
992.357466,1998.556043,4826.401637,10881.027347
992.357796,-592.164754,4596.572988,10436.903782
992.358125,-3108.864956,4443.353888,8882.471304
992.358455,-2442.679609,3370.820191,9474.636058
992.358785,-1184.329507,2068.457845,10881.027347
992.359114,-518.144159,1762.019645,10436.903782
992.359444,-1406.391290,306.438199,7994.224174
992.359774,-1554.432478,-842.705048,6735.874072
992.360103,-1110.308913,-153.219100,7698.141797
992.360433,-370.102971,612.876398,10288.862594
992.360762,-962.267725,1302.362347,10362.883188
992.361092,-2220.617826,1302.362347,9104.533087
992.361422,-2368.659014,2068.457845,9178.553681
992.361751,-814.226536,1915.238745,10362.883188
992.362081,740.205942,1149.143247,10510.924376
992.362411,296.082377,0.000000,9548.656652
992.362740,0.000000,842.705048,9844.739029
992.363070,296.082377,536.266849,11103.089130
992.363399,-222.061783,153.219100,11843.295072
992.363729,-2368.659014,-842.705048,11399.171507
992.364059,-4663.297435,-1072.533697,10288.862594
992.364388,-4367.215058,-536.266849,10584.944971
992.364718,-2886.803174,-1608.800546,11251.130318
992.365048,-1628.453072,-1532.190996,10066.800811
992.365377,-1554.432478,-2145.067394,7476.080014
992.365707,-1258.350101,-2451.505594,6513.812290
992.366036,-518.144159,-2451.505594,7772.162391
992.366366,-444.123565,-612.876398,9696.697840
992.366696,-2368.659014,153.219100,9548.656652
992.367025,-4293.194464,0.000000,10066.800811
992.367355,-4515.256246,153.219100,11029.068536
992.367685,-2368.659014,536.266849,11399.171507
992.368014,-370.102971,459.657299,9844.739029
992.368344,666.185348,-919.314598,7698.141797
992.368673,1184.329507,-995.924147,7550.100608
992.369003,1110.308913,306.438199,9400.615463
992.369333,74.020594,2145.067394,11473.192101
992.369662,-2812.782580,2834.553343,11029.068536
992.369992,-5773.606348,3140.991542,10066.800811
992.370322,-5477.523971,1762.019645,10510.924376
992.370651,-2886.803174,-612.876398,10807.006753
992.370981,-740.205942,-2374.896044,9474.636058
992.371311,-148.041188,-2834.553343,7179.997637
992.371640,0.000000,-1762.019645,7254.018232
992.371970,888.247130,0.000000,10066.800811
992.372299,296.082377,2451.505594,12139.377449
992.372629,-962.267725,4519.963438,11917.315666
992.372959,-1776.494261,5209.449386,10066.800811
992.373288,370.102971,4596.572988,9474.636058
992.373618,2368.659014,3217.601092,9474.636058
992.373948,3404.947333,2528.115143,7994.224174
992.374277,2812.782580,1762.019645,6217.729913
992.374607,1924.535449,2145.067394,6587.832884
992.374936,1480.411884,4136.915689,8808.450710
992.375266,222.061783,4213.525239,10955.047942
992.375596,-2072.576638,3983.696590,11029.068536
992.375925,-3775.050304,3753.867940,9474.636058
992.376255,-3701.029710,2987.772442,9548.656652
992.376585,-2220.617826,1532.190996,10436.903782
992.376914,-1628.453072,1302.362347,9696.697840
992.377244,-1480.411884,1072.533697,7254.018232
992.377573,-740.205942,0.000000,5995.668130
992.377903,666.185348,689.485948,6883.915261
992.378233,1332.370696,1762.019645,7550.100608
992.378562,666.185348,1991.848295,8142.265362
992.378892,-1110.308913,2528.115143,8142.265362
992.379222,-888.247130,4213.525239,9178.553681
992.379551,444.123565,2757.943793,10807.006753
992.379881,888.247130,1915.238745,11177.109724
992.380210,148.041188,2068.457845,9326.594869
992.380540,370.102971,459.657299,9030.512492
992.380870,740.205942,-536.266849,10436.903782
992.381199,-740.205942,229.828649,11621.233289
992.381529,-3256.906145,-612.876398,11769.274478
992.381859,-5107.421000,-1302.362347,11251.130318
992.382188,-5477.523971,-229.828649,11473.192101
992.382518,-4367.215058,-766.095498,11399.171507
992.382847,-2368.659014,-2221.676944,9844.739029
992.383177,-1628.453072,-3217.601092,7550.100608
992.383507,-1036.288319,-2528.115143,7254.018232
992.383836,-740.205942,-1838.629195,8142.265362
992.384166,-1628.453072,-995.924147,10436.903782
992.384496,-3552.988522,153.219100,10807.006753
992.384825,-5403.503377,-383.047749,10955.047942
992.385155,-4589.276840,229.828649,12361.439231
992.385485,-2738.761985,689.485948,11325.150913
992.385814,-1258.350101,0.000000,8808.450710
992.386144,0.000000,-1762.019645,6217.729913
992.386473,1036.288319,-2068.457845,7328.038826
992.386803,1480.411884,-612.876398,10214.842000
992.387133,-370.102971,766.095498,11843.295072
992.387462,-3330.926739,2451.505594,11843.295072
992.387792,-5107.421000,2451.505594,11177.109724
992.388121,-4293.194464,1225.752797,10732.986159
992.388451,-1850.514855,0.000000,10288.862594
992.388781,0.000000,-612.876398,8216.285956
992.389110,148.041188,-2068.457845,6365.771101
992.389440,296.082377,-1532.190996,6439.791695
992.389769,444.123565,-612.876398,9474.636058
992.390099,-888.247130,995.924147,11843.295072
992.390428,-2738.761985,3907.087040,11399.171507
992.390758,-3552.988522,4673.182538,10510.924376
992.391088,-1406.391290,3370.820191,9474.636058
992.391417,1036.288319,2374.896044,9622.677246
992.391747,2516.700203,1378.971896,8068.244768
992.392076,2738.761985,1685.410096,5921.647536
992.392406,2886.803174,3140.991542,6217.729913
992.392735,2886.803174,3524.039291,8808.450710
992.393065,1480.411884,3830.477490,11029.068536
992.393395,-1554.432478,4673.182538,11399.171507
992.393724,-3478.967927,5209.449386,10362.883188
992.394054,-2960.823768,4519.963438,10658.965565
992.394383,-1184.329507,2528.115143,10510.924376
992.394713,-518.144159,1378.971896,9030.512492
992.395043,-222.061783,-919.314598,6587.832884
992.395372,370.102971,-766.095498,5625.565159
992.395702,1406.391290,1072.533697,7920.203579
992.396031,370.102971,2068.457845,9770.718434
992.396361,-1406.391290,3524.039291,9770.718434
992.396690,-3256.906145,4136.915689,8808.450710
992.397020,-1628.453072,3983.696590,9104.533087
992.397350,592.164754,2681.334243,10140.821405
992.397679,1184.329507,1225.752797,9474.636058
992.398009,148.041188,459.657299,8808.450710
992.398338,-888.247130,0.000000,9104.533087
992.398668,-962.267725,306.438199,11547.212695
992.398997,-1924.535449,383.047749,12805.562797
992.399327,-4219.173869,1072.533697,11769.274478
992.399657,-4737.318029,-536.266849,10066.800811
992.399986,-3997.112087,-1072.533697,9918.759623
992.400316,-1702.473667,-689.485948,10066.800811
992.400645,-592.164754,-1225.752797,8290.306550
992.400975,-814.226536,-2145.067394,6365.771101
992.401304,-888.247130,-2298.286494,6661.853478
992.401634,0.000000,-995.924147,9474.636058
992.401964,-296.082377,-612.876398,11029.068536
992.402293,-2516.700203,76.609550,11029.068536
992.402623,-4959.379811,536.266849,10214.842000
992.402952,-5181.441594,0.000000,10362.883188
992.403282,-3849.070898,-1762.019645,10362.883188
992.403612,-2516.700203,-2528.115143,9622.677246
992.403941,-2368.659014,-3064.381992,8882.471304
992.404271,-1332.370696,-2298.286494,9770.718434
992.404600,148.041188,-689.485948,11177.109724
992.404930,-222.061783,-229.828649,11843.295072
992.405259,-1850.514855,766.095498,10066.800811
992.405589,-2516.700203,766.095498,8660.409521
992.405919,-814.226536,0.000000,9622.677246
992.406248,1110.308913,-995.924147,11547.212695
992.406578,296.082377,-689.485948,11103.089130
992.406907,-888.247130,76.609550,8882.471304
992.407237,-518.144159,-1302.362347,8438.347739
992.407566,888.247130,-1455.581446,10362.883188
992.407896,740.205942,-153.219100,11843.295072
992.408226,-814.226536,1302.362347,10881.027347
992.408555,-2368.659014,2298.286494,9844.739029
992.408885,-2442.679609,3447.429741,9252.574275
992.409214,-592.164754,2757.943793,9178.553681
992.409544,962.267725,2068.457845,8068.244768
992.409873,1628.453072,2528.115143,5477.523971
992.410203,2294.638420,2528.115143,6365.771101
992.410533,2442.679609,2681.334243,8438.347739
992.410862,962.267725,3753.867940,10584.944971
992.411192,-2738.761985,4060.306139,10807.006753
992.411521,-4737.318029,4519.963438,10510.924376
992.411851,-4293.194464,5056.230287,11177.109724
992.412181,-1406.391290,2757.943793,11473.192101
992.412510,370.102971,1149.143247,9104.533087
992.412840,1184.329507,459.657299,5995.668130
992.413169,1924.535449,689.485948,4959.379811
992.413499,2146.597232,2298.286494,6883.915261
992.413828,1702.473667,3907.087040,8956.491898
992.414158,-666.185348,5669.106685,8882.471304
992.414488,-1998.556043,4903.011187,8364.327145
992.414817,-962.267725,4060.306139,8808.450710
992.415147,444.123565,3524.039291,9770.718434
992.415476,592.164754,1455.581446,9030.512492
992.415806,-666.185348,766.095498,7994.224174
992.416135,-1036.288319,383.047749,9400.615463
992.416465,-1110.308913,766.095498,12287.418637
992.416795,-2368.659014,1685.410096,12805.562797
992.417124,-4811.338623,1149.143247,12213.398043
992.417454,-5551.544565,1225.752797,11843.295072
992.417783,-4515.256246,383.047749,11843.295072
992.418113,-2812.782580,306.438199,10584.944971
992.418442,-1110.308913,-1225.752797,8364.327145
992.418772,-296.082377,-2911.162892,5551.544565
992.419102,148.041188,-2145.067394,5625.565159
992.419431,740.205942,-1455.581446,8142.265362
992.419761,-222.061783,-689.485948,10584.944971
992.420090,-3108.864956,1072.533697,10955.047942
992.420420,-4811.338623,1072.533697,10807.006753
992.420750,-3849.070898,229.828649,11473.192101
992.421079,-2368.659014,-995.924147,11917.315666
992.421409,-1554.432478,-1302.362347,9918.759623
992.421738,-1332.370696,-2604.724693,7698.141797
992.422068,0.000000,-2451.505594,8290.306550
992.422397,148.041188,-612.876398,10214.842000
992.422727,-888.247130,-383.047749,11621.233289
992.423057,-2812.782580,306.438199,10436.903782
992.423386,-3997.112087,842.705048,9030.512492
992.423716,-2442.679609,-153.219100,9326.594869
992.424045,-888.247130,-153.219100,10288.862594
992.424375,-444.123565,-919.314598,9474.636058
992.424704,-444.123565,-1762.019645,7846.182985
992.425034,-222.061783,-2221.676944,8660.409521
992.425364,-296.082377,-919.314598,11251.130318
992.425693,-1480.411884,229.828649,12583.501014
992.426023,-3034.844362,842.705048,12287.418637
992.426352,-3256.906145,1915.238745,10955.047942
992.426682,-1554.432478,1455.581446,9844.739029
992.427011,1184.329507,919.314598,9326.594869
992.427341,2886.803174,1072.533697,7550.100608
992.427671,3034.844362,1302.362347,6069.688724
992.428000,2812.782580,3140.991542,6735.874072
992.428330,2960.823768,4290.134789,9178.553681
992.428659,1702.473667,4366.744339,11177.109724
992.428989,-1332.370696,4060.306139,11399.171507
992.429319,-3552.988522,4903.011187,10214.842000
992.429648,-3182.885551,3983.696590,10658.965565
992.429978,-1776.494261,2145.067394,10584.944971
992.430307,-1036.288319,766.095498,9178.553681
992.430637,-962.267725,459.657299,6513.812290
992.430966,74.020594,306.438199,5847.626942
992.431296,1184.329507,1532.190996,7402.059420
992.431626,888.247130,4060.306139,8734.430116
992.431955,-1258.350101,4596.572988,8216.285956
992.432285,-2664.741391,4673.182538,7328.038826
992.432614,-1998.556043,4903.011187,8216.285956
992.432944,-370.102971,3907.087040,10066.800811
992.433273,370.102971,3294.210641,9992.780217
992.433603,-370.102971,2374.896044,8364.327145
992.433933,-962.267725,1302.362347,8068.244768
992.434262,-666.185348,536.266849,9696.697840
992.434592,-1332.370696,1378.971896,11621.233289
992.434921,-3182.885551,1991.848295,11843.295072
992.435251,-4737.318029,2374.896044,10510.924376
992.435580,-4293.194464,1302.362347,10214.842000
992.435910,-2220.617826,383.047749,10955.047942
992.436240,-814.226536,-1149.143247,8586.388927
992.436569,-592.164754,-1072.533697,6883.915261
992.436899,74.020594,-1302.362347,7031.956449
992.437228,740.205942,-306.438199,9474.636058
992.437558,-222.061783,76.609550,10510.924376
992.437887,-3108.864956,919.314598,9474.636058
992.438217,-5625.565159,1149.143247,9030.512492
992.438547,-4811.338623,-306.438199,10955.047942
992.438876,-3182.885551,-1455.581446,12435.459826
992.439206,-2516.700203,-1302.362347,10881.027347
992.439535,-2294.638420,-2604.724693,8586.388927
992.439865,-962.267725,-2681.334243,8586.388927
992.440195,518.144159,-1608.800546,9696.697840
992.440524,518.144159,-842.705048,10436.903782
992.440854,-888.247130,-383.047749,9844.739029
992.441183,-2368.659014,612.876398,9622.677246
992.441513,-1776.494261,459.657299,11843.295072
992.441842,-1184.329507,-1685.410096,12731.542202
992.442172,-666.185348,-1685.410096,11769.274478
992.442502,-370.102971,-2145.067394,8956.491898
992.442831,1036.288319,-2911.162892,8216.285956
992.443161,1924.535449,-2451.505594,9400.615463
992.443490,1924.535449,-1608.800546,10732.986159
992.443820,0.000000,153.219100,10436.903782
992.444149,-1924.535449,2834.553343,9326.594869
992.444479,-1480.411884,3830.477490,8956.491898
992.444809,1480.411884,1455.581446,9548.656652
992.445138,2368.659014,459.657299,8882.471304
992.445468,1998.556043,1685.410096,7254.018232
992.445797,1554.432478,1455.581446,7698.141797
992.446127,666.185348,1685.410096,10066.800811
992.446456,-1258.350101,2298.286494,12065.356855
992.446786,-3775.050304,2451.505594,11473.192101
992.447116,-4515.256246,1915.238745,10362.883188
992.447445,-3108.864956,2068.457845,9918.759623
992.447775,-518.144159,1302.362347,9400.615463
992.448104,1406.391290,383.047749,7698.141797
992.448434,1850.514855,766.095498,5329.482782
992.448764,2220.617826,2068.457845,5329.482782
992.449093,2960.823768,3830.477490,7772.162391
992.449423,2220.617826,5439.278036,9622.677246
992.449752,-296.082377,5515.887586,9474.636058
992.450082,-1998.556043,5132.839837,9178.553681
992.450411,-1776.494261,3753.867940,9474.636058
992.450741,-740.205942,2757.943793,10584.944971
992.451071,-296.082377,2298.286494,10214.842000
992.451400,-1110.308913,1608.800546,8438.347739
992.451730,-1110.308913,1225.752797,8438.347739
992.452059,-296.082377,1149.143247,9918.759623
992.452389,-888.247130,2374.896044,11399.171507
992.452718,-3182.885551,3447.429741,10807.006753
992.453048,-4663.297435,3140.991542,10066.800811
992.453378,-3775.050304,2451.505594,9548.656652
992.453707,-1850.514855,1762.019645,9622.677246
992.454037,-222.061783,-153.219100,8290.306550
992.454366,-296.082377,-842.705048,6513.812290
992.454696,-296.082377,-459.657299,7031.956449
992.455025,0.000000,-306.438199,8956.491898
992.455355,-518.144159,612.876398,10955.047942
992.455685,-2664.741391,1225.752797,10955.047942
992.456014,-4663.297435,1915.238745,10584.944971
992.456344,-3552.988522,1225.752797,11177.109724
992.456673,-1850.514855,612.876398,11103.089130
992.457003,-666.185348,-1378.971896,9400.615463
992.457333,-148.041188,-1991.848295,8068.244768
992.457662,-814.226536,-2145.067394,7550.100608
992.457992,0.000000,-1685.410096,9770.718434
992.458321,-1184.329507,-842.705048,10436.903782
992.458651,-2960.823768,-689.485948,9918.759623
992.458980,-3552.988522,-1302.362347,9844.739029
992.459310,-3478.967927,-842.705048,11325.150913
992.459640,-1850.514855,-1072.533697,11695.253884
992.459969,-1110.308913,-1991.848295,10362.883188
992.460299,-370.102971,-2528.115143,8290.306550
992.460628,370.102971,-1991.848295,8290.306550
992.460958,1036.288319,-1915.238745,9918.759623
992.461287,444.123565,-459.657299,11843.295072
992.461617,-1776.494261,1378.971896,11547.212695
992.461947,-2960.823768,1685.410096,10584.944971
992.462276,-1776.494261,842.705048,10732.986159
992.462606,444.123565,229.828649,10807.006753
992.462935,1406.391290,-383.047749,9326.594869
992.463265,1554.432478,-612.876398,6883.915261
992.463594,1850.514855,-383.047749,7105.977043
992.463924,2294.638420,766.095498,9992.780217
992.464254,1258.350101,1532.190996,12213.398043
992.464583,-2072.576638,3294.210641,11325.150913
992.464913,-3701.029710,3907.087040,10214.842000
992.465242,-2590.720797,2757.943793,10066.800811
992.465572,-296.082377,1532.190996,9844.739029
992.465902,1258.350101,612.876398,8438.347739
992.466231,1554.432478,76.609550,6069.688724
992.466561,1110.308913,1532.190996,5625.565159
992.466890,1480.411884,2834.553343,8068.244768
992.467220,296.082377,3983.696590,9696.697840
992.467549,-2220.617826,4979.620737,9104.533087
992.467879,-3849.070898,5209.449386,8290.306550
992.468209,-2072.576638,4136.915689,9992.780217
992.468538,-740.205942,3830.477490,10436.903782
992.468868,0.000000,2681.334243,8660.409521
992.469197,-444.123565,536.266849,6069.688724
992.469527,148.041188,612.876398,6513.812290
992.469856,814.226536,2451.505594,9178.553681
992.470186,-222.061783,3064.381992,10658.965565
992.470516,-2590.720797,3447.429741,10436.903782
992.470845,-3849.070898,3830.477490,10140.821405
992.471175,-2738.761985,2068.457845,10362.883188
992.471504,-592.164754,1455.581446,11029.068536
992.471834,148.041188,995.924147,9252.574275
992.472163,296.082377,-306.438199,7254.018232
992.472493,740.205942,-766.095498,7698.141797
992.472823,1258.350101,919.314598,9770.718434
992.473152,0.000000,1915.238745,11251.130318
992.473482,-2960.823768,2451.505594,9918.759623
992.473811,-5329.482782,2528.115143,9474.636058
992.474141,-4367.215058,1225.752797,10955.047942
992.474471,-2664.741391,-229.828649,11843.295072
992.474800,-2072.576638,-1072.533697,9844.739029
992.475130,-2072.576638,-1608.800546,7698.141797
992.475459,-1850.514855,-2911.162892,7402.059420
992.475789,-444.123565,-2374.896044,9548.656652
992.476118,-962.267725,-2145.067394,11547.212695
992.476448,-3404.947333,-919.314598,11251.130318
992.476778,-5181.441594,1149.143247,10584.944971
992.477107,-3552.988522,536.266849,11547.212695
992.477437,-666.185348,-1378.971896,11177.109724
992.477766,592.164754,-2374.896044,8808.450710
992.478096,1406.391290,-2834.553343,6809.894666
992.478425,2516.700203,-1991.848295,7105.977043
992.478755,2072.576638,-995.924147,9474.636058
992.479085,222.061783,0.000000,11325.150913
992.479414,-2516.700203,919.314598,11029.068536
992.479744,-4071.132681,1685.410096,9696.697840
992.480073,-2368.659014,995.924147,10510.924376
992.480403,0.000000,-612.876398,11473.192101
992.480732,148.041188,-1072.533697,9770.718434
992.481062,-296.082377,-1915.238745,7772.162391
992.481392,-222.061783,-536.266849,8586.388927
992.481721,444.123565,1072.533697,10510.924376
992.482051,-666.185348,1149.143247,12065.356855
992.482380,-2738.761985,1532.190996,11177.109724
992.482710,-3552.988522,2374.896044,9992.780217
992.483039,-2146.597232,1532.190996,9474.636058
992.483369,592.164754,842.705048,9548.656652
992.483699,1628.453072,1378.971896,7698.141797
992.484028,1480.411884,612.876398,5921.647536
992.484358,2294.638420,995.924147,6809.894666
992.484687,2738.761985,2528.115143,9696.697840
992.485017,1406.391290,4443.353888,11843.295072
992.485347,-1776.494261,5362.668486,10658.965565
992.485676,-3627.009116,4903.011187,9474.636058
992.486006,-2368.659014,3600.648841,10214.842000
992.486335,-148.041188,2298.286494,10436.903782
992.486665,814.226536,1685.410096,8290.306550
992.486994,148.041188,1149.143247,5551.544565
992.487324,592.164754,919.314598,5921.647536
992.487654,888.247130,2451.505594,9030.512492
992.487983,-148.041188,3677.258390,10658.965565
992.488313,-2294.638420,4213.525239,9696.697840
992.488642,-3330.926739,4213.525239,9178.553681
992.488972,-2664.741391,3830.477490,9474.636058
992.489301,-370.102971,2145.067394,10214.842000
992.489631,74.020594,766.095498,8364.327145
992.489960,-444.123565,76.609550,6513.812290
992.490290,-592.164754,0.000000,7476.080014
992.490619,-666.185348,919.314598,10510.924376
992.490949,-1258.350101,1302.362347,12139.377449
992.491278,-3404.947333,1991.848295,11251.130318
992.491608,-4885.359217,2911.162892,9770.718434
992.491937,-3182.885551,1991.848295,10066.800811
992.492266,-962.267725,383.047749,10510.924376
992.492596,-148.041188,-842.705048,8512.368333
992.492925,-888.247130,-995.924147,7105.977043
992.493255,-666.185348,-612.876398,7920.203579
992.493584,-296.082377,229.828649,10214.842000
992.493914,-1480.411884,-383.047749,11621.233289
992.494243,-3404.947333,-153.219100,10955.047942
992.494572,-4367.215058,-1072.533697,10288.862594
992.494902,-3404.947333,-919.314598,11251.130318
992.495231,-1480.411884,-1455.581446,11621.233289
992.495561,-814.226536,-2221.676944,9992.780217
992.495890,-444.123565,-2068.457845,8216.285956
992.496220,0.000000,-2298.286494,8216.285956
992.496549,74.020594,-919.314598,10510.924376
992.496878,-740.205942,229.828649,11695.253884
992.497208,-2442.679609,689.485948,11029.068536
992.497537,-3330.926739,1149.143247,9770.718434
992.497867,-2368.659014,383.047749,9918.759623
992.498196,-592.164754,-995.924147,9992.780217
992.498526,666.185348,-1915.238745,8660.409521
992.498855,148.041188,-919.314598,7402.059420
992.499184,74.020594,-306.438199,8068.244768
992.499514,814.226536,229.828649,10362.883188
992.499843,74.020594,766.095498,11917.315666
992.500173,-2146.597232,1608.800546,11695.253884
992.500502,-3627.009116,2221.676944,10807.006753
992.500832,-2516.700203,1072.533697,11029.068536
992.501161,-444.123565,306.438199,10732.986159
992.501491,740.205942,-383.047749,8734.430116
992.501820,1184.329507,153.219100,6587.832884
992.502149,2146.597232,919.314598,6809.894666
992.502479,2368.659014,1915.238745,8956.491898
992.502808,1110.308913,3600.648841,10584.944971
992.503138,-1628.453072,4903.011187,10362.883188
992.503467,-2960.823768,5286.058936,9548.656652
992.503797,-2220.617826,3983.696590,9992.780217
992.504126,-814.226536,3140.991542,10140.821405
992.504455,222.061783,2145.067394,7772.162391
992.504785,444.123565,229.828649,5255.462188
992.505114,1110.308913,459.657299,5921.647536
992.505444,888.247130,2145.067394,8660.409521
992.505773,-518.144159,2911.162892,10881.027347
992.506103,-2960.823768,4060.306139,11103.089130
992.506432,-3997.112087,4903.011187,10362.883188
992.506761,-2442.679609,3524.039291,10436.903782
992.507091,-296.082377,2298.286494,11325.150913
992.507420,814.226536,1455.581446,9918.759623
992.507750,222.061783,842.705048,7254.018232
992.508079,0.000000,1149.143247,6735.874072
992.508409,0.000000,1685.410096,7994.224174
992.508738,-888.247130,2374.896044,8660.409521
992.509067,-3034.844362,1072.533697,9030.512492
992.509397,-4737.318029,1302.362347,9992.780217
992.509726,-4737.318029,2604.724693,11251.130318
992.510056,-3701.029710,2145.067394,11177.109724
992.510385,-2664.741391,-153.219100,9696.697840
992.510715,-2072.576638,-1072.533697,7846.182985
992.511044,-814.226536,-1838.629195,8142.265362
992.511373,0.000000,-1608.800546,9918.759623
992.511703,-1406.391290,612.876398,11325.150913
992.512032,-3330.926739,1072.533697,11177.109724
992.512362,-4589.276840,459.657299,11251.130318
992.512691,-3256.906145,-919.314598,11473.192101
992.513021,-1406.391290,-1302.362347,11325.150913
992.513350,444.123565,-1762.019645,9104.533087
992.513679,444.123565,-2681.334243,6291.750507
992.514009,1036.288319,-2298.286494,7254.018232
992.514338,1480.411884,-2145.067394,9770.718434
992.514668,0.000000,-612.876398,11029.068536
992.514997,-2368.659014,1455.581446,10807.006753
992.515327,-3182.885551,1455.581446,10584.944971
992.515656,-2516.700203,229.828649,11103.089130
992.515985,-1036.288319,-229.828649,11177.109724
992.516315,222.061783,-1149.143247,9474.636058
992.516644,222.061783,-1455.581446,7698.141797
992.516974,74.020594,-1455.581446,8808.450710
992.517303,296.082377,-536.266849,10881.027347
992.517633,-1332.370696,306.438199,11843.295072
992.517962,-2738.761985,1302.362347,10732.986159
992.518291,-3330.926739,1532.190996,9770.718434
992.518621,-1702.473667,919.314598,10436.903782
992.518950,222.061783,0.000000,10658.965565
992.519280,962.267725,76.609550,8882.471304
992.519609,1332.370696,919.314598,6883.915261
992.519939,2072.576638,2068.457845,7476.080014
992.520268,2516.700203,2298.286494,9474.636058
992.520597,962.267725,2604.724693,10436.903782
992.520927,-1554.432478,3140.991542,9770.718434
992.521256,-2886.803174,3294.210641,9548.656652
992.521586,-1850.514855,3447.429741,10510.924376
992.521915,-518.144159,2604.724693,10658.965565
992.522245,0.000000,2374.896044,7994.224174
992.522574,296.082377,766.095498,6143.709319
992.522903,1406.391290,1532.190996,6587.832884
992.523233,1776.494261,2681.334243,9252.574275
992.523562,-444.123565,3983.696590,10955.047942
992.523892,-3404.947333,4903.011187,10510.924376
992.524221,-4959.379811,5209.449386,9326.594869
992.524551,-3701.029710,3524.039291,9992.780217
992.524880,-1480.411884,1762.019645,9696.697840
992.525209,-814.226536,536.266849,7846.182985
992.525539,-444.123565,-766.095498,6291.750507
992.525868,0.000000,153.219100,7550.100608
992.526198,-296.082377,1302.362347,9474.636058
992.526527,-1258.350101,2834.553343,10436.903782
992.526857,-2886.803174,3140.991542,9918.759623
992.527186,-3182.885551,2911.162892,9326.594869
992.527515,-1998.556043,2681.334243,10732.986159
992.527845,-518.144159,1532.190996,10658.965565
992.528174,0.000000,1072.533697,9474.636058
992.528504,-814.226536,842.705048,7920.203579
992.528833,-814.226536,0.000000,8142.265362
992.529163,-592.164754,-229.828649,9844.739029
992.529492,-1406.391290,-459.657299,11325.150913
992.529821,-3330.926739,153.219100,11029.068536
992.530151,-4441.235652,459.657299,10732.986159
992.530480,-4145.153275,0.000000,10881.027347
992.530810,-2516.700203,-1608.800546,10881.027347
992.531139,-1406.391290,-1685.410096,9400.615463
992.531469,-518.144159,-1685.410096,7624.121203
992.531798,444.123565,-2221.676944,8142.265362
992.532127,814.226536,-1225.752797,9844.739029
992.532457,-592.164754,-459.657299,10436.903782
992.532786,-2590.720797,229.828649,9474.636058
992.533116,-3256.906145,0.000000,9622.677246
992.533445,-2294.638420,229.828649,11029.068536
992.533775,-962.267725,-536.266849,11251.130318
992.534104,-222.061783,-1838.629195,9252.574275
992.534433,370.102971,-2145.067394,7772.162391
992.534763,1628.453072,-995.924147,8364.327145
992.535092,1628.453072,-459.657299,10807.006753
992.535422,518.144159,153.219100,11843.295072
992.535751,-2368.659014,1149.143247,11103.089130
992.536081,-3923.091493,1378.971896,10584.944971
992.536410,-2812.782580,766.095498,11029.068536
992.536740,-518.144159,229.828649,11473.192101
992.537069,518.144159,-766.095498,8956.491898
992.537398,814.226536,-1302.362347,6735.874072
992.537728,1184.329507,-766.095498,7402.059420
992.538057,1036.288319,1608.800546,10362.883188
992.538387,-592.164754,2374.896044,11251.130318
992.538716,-2664.741391,4596.572988,9992.780217
992.539046,-2960.823768,4443.353888,8808.450710
992.539375,-592.164754,2911.162892,9104.533087
992.539704,1258.350101,1915.238745,8882.471304
992.540034,1702.473667,1838.629195,7254.018232
992.540363,592.164754,1532.190996,6513.812290
992.540693,592.164754,2145.067394,8142.265362
992.541022,74.020594,3294.210641,10807.006753
992.541352,-1850.514855,3830.477490,11769.274478
992.541681,-2886.803174,3140.991542,10955.047942
992.542010,-3404.947333,3447.429741,9622.677246
992.542340,-2072.576638,2911.162892,9696.697840
992.542669,-740.205942,2451.505594,8734.430116
992.542999,370.102971,2145.067394,5921.647536
992.543328,592.164754,536.266849,4367.215058
992.543658,370.102971,229.828649,6143.709319
992.543987,0.000000,2528.115143,9918.759623
992.544316,-2294.638420,4213.525239,11547.212695
992.544646,-4515.256246,3753.867940,10955.047942
992.544975,-5033.400406,2681.334243,10436.903782
992.545305,-2960.823768,2451.505594,10881.027347
992.545634,-518.144159,76.609550,10658.965565
992.545964,-222.061783,-612.876398,8142.265362
992.546293,-518.144159,-153.219100,7328.038826
992.546622,-148.041188,383.047749,8808.450710
992.546952,1110.308913,689.485948,11399.171507
992.547281,-888.247130,1532.190996,11917.315666
992.547611,-3256.906145,2221.676944,10658.965565
992.547940,-3182.885551,1532.190996,9770.718434
992.548270,-2220.617826,306.438199,10584.944971
992.548599,-740.205942,-919.314598,10584.944971
992.548928,-1258.350101,-1225.752797,8734.430116
992.549258,-1110.308913,-2298.286494,7105.977043
992.549587,0.000000,-2451.505594,8512.368333
992.549917,-444.123565,-1225.752797,11029.068536
992.550246,-2516.700203,0.000000,11769.274478
992.550576,-4293.194464,76.609550,10436.903782
992.550905,-4367.215058,0.000000,10288.862594
992.551234,-2368.659014,76.609550,11177.109724
992.551564,-962.267725,-766.095498,10807.006753
992.551893,0.000000,-2145.067394,8290.306550
992.552223,0.000000,-1991.848295,6069.688724
992.552552,814.226536,-1455.581446,7994.224174
992.552882,1480.411884,-459.657299,10436.903782
992.553211,-370.102971,919.314598,11621.233289
992.553540,-2294.638420,1378.971896,10658.965565
992.553870,-2738.761985,1378.971896,9770.718434
992.554199,-1184.329507,306.438199,10658.965565
992.554529,148.041188,-459.657299,11399.171507
992.554858,222.061783,-766.095498,9326.594869
992.555188,0.000000,-842.705048,7624.121203
992.555517,1184.329507,-766.095498,8512.368333
992.555846,1776.494261,153.219100,10955.047942
992.556176,0.000000,1532.190996,11473.192101
992.556505,-3108.864956,2834.553343,9992.780217
992.556835,-3478.967927,3217.601092,9400.615463
992.557164,-1406.391290,2834.553343,10140.821405
992.557494,0.000000,2068.457845,9104.533087
992.557823,444.123565,919.314598,6883.915261
992.558152,1036.288319,766.095498,5551.544565
992.558482,1554.432478,1532.190996,7179.997637
992.558811,1258.350101,2451.505594,9844.739029
992.559141,-740.205942,3217.601092,11399.171507
992.559470,-3701.029710,4290.134789,10955.047942
992.559800,-4663.297435,4443.353888,10510.924376
992.560129,-2516.700203,3294.210641,11103.089130
992.560458,0.000000,2298.286494,10140.821405
992.560788,1184.329507,459.657299,7254.018232
992.561117,1628.453072,-153.219100,5107.421000
992.561447,1480.411884,1149.143247,6809.894666
992.561776,814.226536,2374.896044,9326.594869
992.562106,-814.226536,3524.039291,10732.986159
992.562435,-3108.864956,4596.572988,10066.800811
992.562764,-3627.009116,4596.572988,9030.512492
992.563094,-2368.659014,2681.334243,9400.615463
992.563423,148.041188,919.314598,9326.594869
992.563753,148.041188,0.000000,7624.121203
992.564082,-592.164754,-459.657299,7031.956449
992.564412,-222.061783,306.438199,8882.471304
992.564741,-518.144159,1532.190996,11103.089130
992.565070,-1998.556043,1685.410096,12287.418637
992.565400,-4219.173869,1532.190996,11695.253884
992.565729,-4811.338623,1378.971896,11251.130318
992.566059,-2886.803174,383.047749,11695.253884
992.566388,-592.164754,-459.657299,10807.006753
992.566718,74.020594,-612.876398,8882.471304
992.567047,74.020594,-1378.971896,6439.791695
992.567376,444.123565,-1455.581446,6883.915261
992.567706,222.061783,-919.314598,9622.677246
992.568035,-1258.350101,153.219100,11103.089130
992.568365,-4219.173869,1225.752797,10881.027347
992.568694,-4885.359217,995.924147,10288.862594
992.569024,-3034.844362,-459.657299,10584.944971
992.569353,-1184.329507,-1991.848295,10140.821405
992.569682,-592.164754,-2987.772442,7920.203579
992.570012,148.041188,-2451.505594,7254.018232
992.570341,666.185348,-1532.190996,9178.553681
992.570671,666.185348,153.219100,11843.295072
992.571000,-1036.288319,995.924147,11695.253884
992.571330,-2220.617826,612.876398,10362.883188
992.571659,-2220.617826,689.485948,9696.697840
992.571989,-814.226536,0.000000,10881.027347
992.572318,592.164754,-536.266849,11399.171507
992.572647,518.144159,-919.314598,9326.594869
992.572977,0.000000,-612.876398,8068.244768
992.573306,518.144159,0.000000,8808.450710
992.573636,666.185348,229.828649,10881.027347
992.573965,-814.226536,1378.971896,11473.192101
992.574295,-3256.906145,2145.067394,10066.800811
992.574624,-3923.091493,2221.676944,9548.656652
992.574953,-1850.514855,2221.676944,9918.759623
992.575283,-518.144159,1991.848295,9030.512492
992.575612,666.185348,766.095498,7179.997637
992.575942,1554.432478,229.828649,6291.750507
992.576271,2590.720797,1685.410096,7550.100608
992.576601,1850.514855,3294.210641,9474.636058
992.576930,-370.102971,4443.353888,10288.862594
992.577259,-2886.803174,5132.839837,9474.636058
992.577589,-3552.988522,4213.525239,9548.656652
992.577918,-2442.679609,2451.505594,11029.068536
992.578248,-1184.329507,1838.629195,11103.089130
992.578577,-888.247130,995.924147,8734.430116
992.578907,-444.123565,-306.438199,7254.018232
992.579236,888.247130,-153.219100,8142.265362
992.579565,1332.370696,1302.362347,9548.656652
992.579895,296.082377,2604.724693,9474.636058
992.580224,-1628.453072,3064.381992,8512.368333
992.580554,-2146.597232,4903.011187,8438.347739
992.580883,-666.185348,4903.011187,9326.594869
992.581213,1184.329507,2451.505594,9178.553681
992.581542,1332.370696,1455.581446,7179.997637
992.581871,888.247130,766.095498,6069.688724
992.582201,962.267725,76.609550,8734.430116
992.582530,0.000000,689.485948,11473.192101
992.582860,-2442.679609,1762.019645,12583.501014
992.583189,-4737.318029,1532.190996,11843.295072
992.583519,-4737.318029,1302.362347,11547.212695
992.583848,-2960.823768,153.219100,11695.253884
992.584177,-1628.453072,-766.095498,10807.006753
992.584507,-518.144159,-1685.410096,8438.347739
992.584836,-148.041188,-1302.362347,7031.956449
992.585166,592.164754,-612.876398,7994.224174
992.585495,222.061783,0.000000,9844.739029
992.585825,-1702.473667,306.438199,9918.759623
992.586154,-3478.967927,459.657299,9548.656652
992.586483,-3627.009116,612.876398,9918.759623
992.586813,-2368.659014,153.219100,11103.089130
992.587142,-1406.391290,-689.485948,10362.883188
992.587472,-814.226536,-2145.067394,7994.224174
992.587801,-592.164754,-2374.896044,7624.121203
992.588131,444.123565,-1378.971896,9030.512492
992.588460,518.144159,-153.219100,10881.027347
992.588789,-1110.308913,0.000000,11695.253884
992.589119,-3701.029710,1455.581446,10288.862594
992.589448,-3775.050304,229.828649,10807.006753
992.589778,-2220.617826,-306.438199,11991.336260
992.590107,-370.102971,-306.438199,11547.212695
992.590437,0.000000,-1149.143247,8512.368333
992.590766,1036.288319,-1991.848295,7031.956449
992.591096,1850.514855,-1915.238745,8660.409521
992.591425,1702.473667,0.000000,10881.027347
992.591755,-1184.329507,1915.238745,10955.047942
992.592084,-3256.906145,2987.772442,10140.821405
992.592414,-2886.803174,3524.039291,9474.636058
992.592743,-1332.370696,1838.629195,9696.697840
992.593073,148.041188,612.876398,9178.553681
992.593402,370.102971,76.609550,7031.956449
992.593732,148.041188,306.438199,6143.709319
992.594061,888.247130,1532.190996,8068.244768
992.594390,518.144159,2298.286494,10955.047942
992.594720,-1628.453072,3217.601092,11399.171507
992.595049,-3552.988522,3600.648841,10214.842000
992.595379,-2738.761985,3140.991542,9622.677246
992.595708,-592.164754,2681.334243,10436.903782
992.596038,518.144159,995.924147,9992.780217
992.596367,518.144159,1072.533697,7846.182985
992.596697,592.164754,1072.533697,6291.750507
992.597026,1406.391290,1455.581446,7772.162391
992.597356,1850.514855,2987.772442,9992.780217
992.597685,-296.082377,3677.258390,9548.656652
992.598015,-2220.617826,3830.477490,8660.409521
992.598344,-2886.803174,4213.525239,8586.388927
992.598674,-1628.453072,2987.772442,9770.718434
992.599003,-592.164754,2834.553343,10066.800811
992.599333,-1184.329507,1762.019645,7920.203579
992.599662,-592.164754,919.314598,6661.853478
992.599992,0.000000,612.876398,8438.347739
992.600321,0.000000,1225.752797,10732.986159
992.600650,-2220.617826,1608.800546,11177.109724
992.600980,-4145.153275,1378.971896,10510.924376
992.601309,-3997.112087,2221.676944,9992.780217
992.601639,-2368.659014,1072.533697,10955.047942
992.601968,-592.164754,-459.657299,11029.068536
992.602298,-666.185348,-995.924147,8512.368333
992.602627,-666.185348,-842.705048,6883.915261
992.602957,962.267725,-1302.362347,7994.224174
992.603286,1332.370696,306.438199,9918.759623
992.603616,-518.144159,1072.533697,10955.047942
992.603945,-3330.926739,1762.019645,9844.739029
992.604275,-3923.091493,919.314598,9474.636058
992.604604,-2590.720797,383.047749,10584.944971
992.604934,-666.185348,-536.266849,10955.047942
992.605263,-296.082377,-1608.800546,8808.450710
992.605593,-296.082377,-2068.457845,7402.059420
992.605922,0.000000,-1915.238745,8364.327145
992.606251,-370.102971,-1378.971896,10584.944971
992.606581,-2146.597232,76.609550,11547.212695
992.606910,-4145.153275,689.485948,11325.150913
992.607240,-5033.400406,919.314598,11695.253884
992.607569,-3256.906145,229.828649,11843.295072
992.607899,-1110.308913,-1455.581446,11103.089130
992.608228,0.000000,-3064.381992,8808.450710
992.608558,296.082377,-2145.067394,7105.977043
992.608887,740.205942,-1149.143247,8216.285956
992.609217,1110.308913,-459.657299,10732.986159
992.609546,-444.123565,1685.410096,11621.233289
992.609876,-2516.700203,2834.553343,10288.862594
992.610205,-2368.659014,2451.505594,9548.656652
992.610535,0.000000,1532.190996,10436.903782
992.610864,666.185348,1455.581446,9622.677246
992.611194,296.082377,1149.143247,7476.080014
992.611523,0.000000,842.705048,6069.688724
992.611852,74.020594,1455.581446,7402.059420
992.612182,-444.123565,1225.752797,10288.862594
992.612511,-2146.597232,1915.238745,11547.212695
992.612841,-4367.215058,2528.115143,11029.068536
992.613170,-4293.194464,2528.115143,10658.965565
992.613500,-2442.679609,1378.971896,10584.944971
992.613829,-148.041188,689.485948,9474.636058
992.614159,1406.391290,229.828649,7402.059420
992.614488,1776.494261,229.828649,5921.647536
992.614818,2294.638420,1915.238745,7179.997637
992.615147,1924.535449,3830.477490,9326.594869
992.615477,1184.329507,4979.620737,9918.759623
992.615806,-1110.308913,4443.353888,8808.450710
992.616136,-1554.432478,4213.525239,8660.409521
992.616465,-296.082377,2987.772442,9474.636058
992.616795,444.123565,2298.286494,9548.656652
992.617124,-296.082377,1685.410096,7698.141797
992.617454,-296.082377,1149.143247,7328.038826
992.617783,74.020594,1455.581446,9178.553681
992.618112,74.020594,1608.800546,11399.171507
992.618442,-2442.679609,1762.019645,11399.171507
992.618771,-4885.359217,2298.286494,10214.842000
992.619101,-4367.215058,1915.238745,10436.903782
992.619430,-2516.700203,612.876398,11251.130318
992.619760,-962.267725,76.609550,10362.883188
992.620089,-814.226536,-536.266849,7846.182985
992.620419,0.000000,-1378.971896,6217.729913
992.620748,1702.473667,-1838.629195,7698.141797
992.621078,1628.453072,153.219100,10732.986159
992.621407,-592.164754,1838.629195,11547.212695
992.621737,-3330.926739,2451.505594,10658.965565
992.622066,-4071.132681,2145.067394,9918.759623
992.622396,-2368.659014,689.485948,10658.965565
992.622725,-370.102971,-459.657299,10436.903782
992.623055,-444.123565,-1455.581446,8142.265362
992.623384,-666.185348,-2374.896044,6957.935855
992.623713,-296.082377,-1838.629195,8364.327145
992.624043,-666.185348,-995.924147,10510.924376
992.624372,-2146.597232,-459.657299,11251.130318
992.624702,-4441.235652,306.438199,10955.047942
992.625031,-4737.318029,689.485948,10881.027347
992.625361,-2960.823768,-306.438199,11325.150913
992.625690,-814.226536,-1072.533697,10732.986159
992.626020,-222.061783,-1302.362347,8438.347739
992.626349,0.000000,-2068.457845,7179.997637
992.626679,814.226536,-1455.581446,8734.430116
992.627008,814.226536,0.000000,10881.027347
992.627338,-1184.329507,1608.800546,11399.171507
992.627667,-2590.720797,2604.724693,10140.821405
992.627997,-2960.823768,2068.457845,9696.697840
992.628326,-1184.329507,1378.971896,10288.862594
992.628656,370.102971,842.705048,9770.718434
992.628985,222.061783,0.000000,7698.141797
992.629314,222.061783,306.438199,6957.935855
992.629644,740.205942,919.314598,8586.388927
992.629973,148.041188,1685.410096,11325.150913
992.630303,-1924.535449,2681.334243,11177.109724
992.630632,-3627.009116,2757.943793,10140.821405
992.630962,-3330.926739,1991.848295,9622.677246
992.631291,-1184.329507,1685.410096,10362.883188
992.631621,222.061783,1532.190996,9622.677246
992.631950,814.226536,153.219100,7402.059420
992.632280,1036.288319,689.485948,6365.771101
992.632609,1554.432478,2451.505594,7402.059420
992.632939,1850.514855,2834.553343,10214.842000
992.633268,592.164754,3753.867940,10658.965565
992.633598,-2368.659014,5209.449386,9622.677246
992.633927,-2886.803174,4443.353888,9252.574275
992.634257,-1036.288319,2681.334243,10140.821405
992.634586,148.041188,2451.505594,9326.594869
992.634915,296.082377,1149.143247,7254.018232
992.635245,0.000000,612.876398,7031.956449
992.635574,0.000000,1838.629195,8808.450710
992.635904,-296.082377,2374.896044,11177.109724
992.636233,-2368.659014,2221.676944,11251.130318
992.636563,-3478.967927,2911.162892,9770.718434
992.636892,-3627.009116,2374.896044,9474.636058
992.637222,-1554.432478,612.876398,10510.924376
992.637551,-740.205942,0.000000,9770.718434
992.637881,-296.082377,-306.438199,7920.203579
992.638210,148.041188,-689.485948,7105.977043
992.638540,1406.391290,306.438199,9252.574275
992.638869,962.267725,1302.362347,10881.027347
992.639199,-1184.329507,1072.533697,10881.027347
992.639528,-3404.947333,1225.752797,9918.759623
992.639858,-3997.112087,1532.190996,10214.842000
992.640187,-2664.741391,1455.581446,11325.150913
992.640517,-1036.288319,0.000000,10732.986159
992.640846,-1036.288319,-1225.752797,7550.100608
992.641175,-962.267725,-2451.505594,6143.709319
992.641505,-222.061783,-1532.190996,8660.409521
992.641834,-296.082377,-612.876398,11843.295072
992.642164,-3182.885551,153.219100,12509.480420
992.642493,-5625.565159,919.314598,11621.233289
992.642823,-5995.668130,536.266849,10955.047942
992.643152,-4441.235652,-919.314598,11399.171507
992.643482,-1406.391290,-1915.238745,10066.800811
992.643811,0.000000,-2451.505594,7698.141797
992.644141,814.226536,-2221.676944,6069.688724
992.644470,1850.514855,-1532.190996,7402.059420
992.644800,1628.453072,-306.438199,10140.821405
992.645129,0.000000,1915.238745,11251.130318
992.645459,-2294.638420,2604.724693,11103.089130
992.645788,-2738.761985,2987.772442,11103.089130
992.646118,-1702.473667,2374.896044,11843.295072
992.646447,-814.226536,995.924147,10362.883188
992.646776,0.000000,0.000000,7254.018232
992.647106,0.000000,-1608.800546,5995.668130
992.647435,370.102971,-1378.971896,8438.347739
992.647765,-814.226536,1072.533697,11103.089130
992.648094,-3034.844362,2145.067394,11473.192101
992.648424,-4441.235652,2528.115143,10140.821405
992.648753,-3923.091493,2681.334243,9474.636058
992.649083,-962.267725,1302.362347,10288.862594
992.649412,1628.453072,229.828649,9918.759623
992.649742,1702.473667,842.705048,7698.141797
992.650071,1036.288319,2221.676944,6587.832884
992.650401,2072.576638,2374.896044,8290.306550
992.650730,1924.535449,2374.896044,10807.006753
992.651060,74.020594,3830.477490,10658.965565
992.651389,-1998.556043,3600.648841,9030.512492
992.651719,-1998.556043,3064.381992,8734.430116
992.652048,0.000000,2681.334243,10066.800811
992.652377,222.061783,2145.067394,9992.780217
992.652707,0.000000,1762.019645,8216.285956
992.653036,74.020594,2221.676944,6957.935855
992.653366,1036.288319,2451.505594,8216.285956
992.653695,814.226536,2374.896044,9992.780217
992.654025,-1480.411884,2298.286494,10066.800811
992.654354,-3404.947333,2681.334243,10362.883188
992.654684,-4293.194464,2834.553343,10658.965565
992.655013,-3182.885551,2681.334243,11473.192101
992.655343,-1554.432478,842.705048,10362.883188
992.655672,-296.082377,-1455.581446,7624.121203
992.656002,518.144159,-1302.362347,6883.915261
992.656331,962.267725,-306.438199,8068.244768
992.656661,666.185348,383.047749,9622.677246
992.656990,-1184.329507,1532.190996,10362.883188
992.657320,-2812.782580,2757.943793,9992.780217
992.657649,-2960.823768,2374.896044,9252.574275
992.657979,-1258.350101,1072.533697,10510.924376
992.658308,-296.082377,0.000000,9696.697840
992.658637,0.000000,-612.876398,7698.141797
992.658967,296.082377,-1225.752797,7402.059420
992.659296,888.247130,-1608.800546,9548.656652
992.659626,-444.123565,-612.876398,11843.295072
992.659955,-3256.906145,229.828649,12139.377449
992.660285,-5477.523971,766.095498,10955.047942
992.660614,-4811.338623,-459.657299,11251.130318
992.660944,-2590.720797,-1455.581446,12509.480420
992.661273,-1036.288319,-1838.629195,11103.089130
992.661603,-444.123565,-1838.629195,7846.182985
992.661932,222.061783,-2528.115143,6291.750507
992.662262,740.205942,-1991.848295,7698.141797
992.662591,592.164754,0.000000,10140.821405
992.662921,-1110.308913,689.485948,10881.027347
992.663250,-3627.009116,2068.457845,10066.800811
992.663580,-3997.112087,2604.724693,10214.842000
992.663909,-2072.576638,919.314598,11103.089130
992.664238,-518.144159,0.000000,10362.883188
992.664568,-148.041188,-612.876398,8512.368333
992.664897,-296.082377,-229.828649,7328.038826
992.665227,222.061783,153.219100,9400.615463
992.665556,-296.082377,689.485948,11695.253884
992.665886,-2442.679609,1762.019645,11473.192101
992.666215,-3775.050304,1915.238745,9696.697840
992.666545,-2812.782580,2298.286494,9178.553681
992.666874,-518.144159,1455.581446,9918.759623
992.667204,1036.288319,383.047749,9178.553681
992.667533,888.247130,0.000000,7179.997637
992.667863,814.226536,689.485948,6439.791695
992.668192,1184.329507,1762.019645,8512.368333
992.668522,666.185348,2604.724693,11177.109724
992.668851,-1924.535449,3830.477490,11251.130318
992.669181,-3627.009116,3753.867940,10140.821405
992.669510,-3034.844362,2911.162892,9400.615463
992.669839,-1406.391290,3064.381992,9696.697840
992.670169,0.000000,2374.896044,9104.533087
992.670498,74.020594,995.924147,7254.018232
992.670828,0.000000,1225.752797,6735.874072
992.671157,222.061783,2298.286494,8142.265362
992.671487,814.226536,2834.553343,10066.800811
992.671816,-666.185348,3447.429741,10288.862594
992.672146,-2442.679609,3064.381992,9474.636058
992.672475,-2368.659014,2451.505594,9474.636058
992.672805,-666.185348,1455.581446,10510.924376
992.673134,666.185348,1455.581446,10066.800811
992.673464,74.020594,153.219100,7920.203579
992.673793,-370.102971,536.266849,7328.038826
992.674123,888.247130,383.047749,8586.388927
992.674452,1554.432478,153.219100,10362.883188
992.674782,-222.061783,2068.457845,10658.965565
992.675111,-2812.782580,2221.676944,8808.450710
992.675441,-2960.823768,1991.848295,9474.636058
992.675770,-1628.453072,1072.533697,10732.986159
992.676099,-1184.329507,842.705048,10362.883188
992.676429,-1406.391290,229.828649,8808.450710
992.676758,-1110.308913,-919.314598,7920.203579
992.677088,-740.205942,-995.924147,10140.821405
992.677417,-1406.391290,-689.485948,12213.398043
992.677747,-3627.009116,0.000000,11769.274478
992.678076,-5107.421000,0.000000,10140.821405
992.678406,-4293.194464,-153.219100,9770.718434
992.678735,-1924.535449,-766.095498,10510.924376
992.679065,-222.061783,-995.924147,9326.594869
992.679394,666.185348,-1991.848295,7254.018232
992.679724,740.205942,-2068.457845,6809.894666
992.680053,962.267725,-689.485948,8956.491898
992.680383,444.123565,153.219100,11843.295072
992.680712,-2146.597232,919.314598,11843.295072
992.681042,-3997.112087,1302.362347,11177.109724
992.681371,-3552.988522,766.095498,11029.068536
992.681700,-1702.473667,0.000000,11547.212695
992.682030,-296.082377,-536.266849,9474.636058
992.682359,0.000000,-383.047749,6365.771101
992.682689,0.000000,-383.047749,4959.379811
992.683018,1184.329507,-919.314598,7550.100608
992.683348,74.020594,76.609550,10732.986159
992.683677,-2960.823768,3064.381992,11917.315666
992.684007,-5625.565159,2528.115143,10658.965565
992.684336,-4737.318029,1225.752797,11177.109724
992.684666,-2664.741391,306.438199,11843.295072
992.684995,-740.205942,-842.705048,10510.924376
992.685325,74.020594,-1608.800546,7402.059420
992.685654,888.247130,-612.876398,6365.771101
992.685984,2072.576638,1072.533697,8438.347739
992.686313,2072.576638,2298.286494,10732.986159
992.686643,370.102971,4060.306139,10584.944971
992.686972,-1406.391290,4903.011187,9104.533087
992.687301,-740.205942,4673.182538,8734.430116
992.687631,666.185348,3524.039291,9918.759623
992.687961,1258.350101,2681.334243,9400.615463
992.688290,666.185348,842.705048,7698.141797
992.688620,74.020594,766.095498,7105.977043
992.688949,370.102971,1685.410096,8882.471304
992.689279,0.000000,1685.410096,11473.192101
992.689608,-2368.659014,2374.896044,11177.109724
992.689938,-4441.235652,2987.772442,10214.842000
992.690267,-3404.947333,2681.334243,10436.903782
992.690597,-1480.411884,2757.943793,10881.027347
992.690927,0.000000,1608.800546,9696.697840
992.691256,-222.061783,766.095498,6809.894666
992.691586,74.020594,0.000000,5625.565159
992.691915,1036.288319,229.828649,7624.121203
992.692245,666.185348,1378.971896,10584.944971
992.692574,-2368.659014,2681.334243,10362.883188
992.692904,-4811.338623,3907.087040,9326.594869
992.693233,-5107.421000,2298.286494,9474.636058
992.693563,-2960.823768,1455.581446,10584.944971
992.693893,-1850.514855,1302.362347,9992.780217
992.694222,-2220.617826,-153.219100,7550.100608
992.694552,-2368.659014,-1225.752797,7179.997637
992.694881,-2146.597232,229.828649,9030.512492
992.695211,-2220.617826,0.000000,10732.986159
992.695540,-4145.153275,76.609550,10955.047942
992.695870,-6291.750507,919.314598,10066.800811
992.696199,-7031.956449,459.657299,10288.862594
992.696529,-5625.565159,-1149.143247,11843.295072
992.696859,-3997.112087,-1838.629195,11473.192101
992.697188,-3478.967927,-1838.629195,8956.491898
992.697518,-2960.823768,-2451.505594,7179.997637
992.697847,-740.205942,-1608.800546,8512.368333
992.698177,814.226536,-1378.971896,10436.903782
992.698506,-962.267725,383.047749,11103.089130
992.698836,-4145.153275,1302.362347,10658.965565
992.699165,-6217.729913,1915.238745,11399.171507
992.699495,-6365.771101,1838.629195,11917.315666
992.699825,-5477.523971,919.314598,11843.295072
992.700154,-4737.318029,-1455.581446,9178.553681
992.700484,-3923.091493,-2757.943793,7105.977043
992.700813,-2368.659014,-2528.115143,6439.791695
992.701143,-148.041188,-1149.143247,7624.121203
992.701472,518.144159,229.828649,8882.471304
992.701802,-1554.432478,2068.457845,9326.594869
992.702131,-3997.112087,3370.820191,9992.780217
992.702461,-5847.626942,3830.477490,10881.027347
992.702790,-5773.606348,3600.648841,11695.253884
992.703120,-5255.462188,1915.238745,11103.089130
992.703450,-5107.421000,0.000000,9622.677246
992.703779,-4367.215058,-1225.752797,8808.450710
992.704109,-2590.720797,-1915.238745,8068.244768
992.704438,-592.164754,-1149.143247,7846.182985
992.704768,222.061783,536.266849,8290.306550
992.705097,74.020594,1991.848295,9178.553681
992.705427,-1480.411884,3524.039291,10510.924376
992.705756,-3775.050304,4366.744339,11991.336260
992.706086,-6069.688724,5515.887586,12509.480420
992.706416,-7772.162391,5592.497135,11843.295072
992.706745,-7846.182985,4060.306139,9400.615463
992.707075,-5107.421000,383.047749,7105.977043
992.707404,-1998.556043,-2374.896044,5329.482782
992.707734,222.061783,-2221.676944,4737.318029
992.708063,518.144159,-766.095498,4885.359217
992.708393,666.185348,2451.505594,6365.771101
992.708722,-222.061783,5745.716235,8734.430116
992.709052,-1924.535449,7507.735880,10584.944971
992.709382,-3478.967927,6741.640382,12139.377449
992.709711,-6513.812290,4826.401637,13619.789333
992.710041,-9770.718434,4443.353888,13915.871710
992.710370,-11547.212695,2298.286494,13397.727550
992.710700,-11251.130318,-1685.410096,11917.315666
992.711029,-10140.821405,-3600.648841,9548.656652
992.711359,-7031.956449,-5056.230287,6957.935855
992.711688,-2368.659014,-5515.887586,5033.400406
992.712018,1702.473667,-2374.896044,5033.400406
992.712348,3627.009116,1532.190996,5181.441594
992.712677,3997.112087,4443.353888,6883.915261
992.713007,2812.782580,6358.592633,9770.718434
992.713336,148.041188,8197.221829,12361.439231
992.713666,-3108.864956,8733.488677,13175.665768
992.713995,-6143.709319,4290.134789,13323.706956
992.714325,-8364.327145,0.000000,12361.439231
992.714654,-9474.636058,-4136.915689,12065.356855
992.714984,-9844.739029,-7124.688131,10732.986159
992.715314,-9400.615463,-6741.640382,8808.450710
992.715643,-7402.059420,-6128.763984,7105.977043
992.715973,-4515.256246,-4136.915689,5773.606348
992.716302,-1628.453072,-1532.190996,6439.791695
992.716632,444.123565,1838.629195,8364.327145
992.716961,740.205942,5362.668486,9474.636058
992.717291,-1036.288319,7354.516781,10288.862594
992.717620,-3256.906145,6588.421283,11251.130318
992.717950,-5477.523971,3064.381992,13027.624579
992.718280,-7476.080014,153.219100,12805.562797
992.718609,-9104.533087,-2221.676944,10807.006753
992.718939,-8808.450710,-5439.278036,9474.636058
992.719268,-6365.771101,-6588.421283,8734.430116
992.719598,-3923.091493,-5592.497135,8142.265362
992.719927,-1406.391290,-2987.772442,7179.997637
992.720257,592.164754,0.000000,7031.956449
992.720586,1776.494261,2451.505594,8660.409521
992.720916,2072.576638,6281.983084,10584.944971
992.721245,592.164754,6741.640382,12583.501014
992.721575,-1776.494261,5362.668486,13693.809927
992.721905,-4589.276840,4290.134789,13841.851115
992.722234,-6809.894666,2528.115143,12435.459826
992.722564,-7328.038826,0.000000,10066.800811
992.722893,-7105.977043,-3217.601092,6439.791695
992.723223,-4441.235652,-5439.278036,4737.318029
992.723552,-2146.597232,-4060.306139,4737.318029
992.723882,-740.205942,-229.828649,5773.606348
992.724211,-1406.391290,4060.306139,6513.812290
992.724541,-2294.638420,5975.544884,7698.141797
992.724871,-2664.741391,8273.831378,9844.739029
992.725200,-3627.009116,8810.098227,11621.233289
992.725530,-5033.400406,5898.935335,13101.645173
992.725859,-7031.956449,3753.867940,13175.665768
992.726189,-8438.347739,1838.629195,12805.562797
992.726518,-8512.368333,-459.657299,11399.171507
992.726848,-6957.935855,-2451.505594,9400.615463
992.727177,-4145.153275,-2451.505594,7179.997637
992.727507,-1850.514855,-842.705048,5921.647536
992.727837,814.226536,1915.238745,5773.606348
992.728166,2368.659014,3907.087040,6809.894666
992.728496,2442.679609,6971.469032,8216.285956
992.728825,1036.288319,7660.954980,9400.615463
992.729155,-888.247130,7967.393179,10732.986159
992.729484,-2960.823768,6205.373534,11399.171507
992.729814,-4441.235652,3064.381992,11843.295072
992.730143,-4959.379811,1225.752797,10732.986159
992.730473,-5551.544565,-766.095498,9474.636058
992.730803,-4663.297435,-2221.676944,8660.409521
992.731132,-3552.988522,-2145.067394,7994.224174
992.731462,-2960.823768,306.438199,8068.244768
992.731791,-2442.679609,2681.334243,8142.265362
992.732121,-2368.659014,3677.258390,9104.533087
992.732450,-2294.638420,5362.668486,10362.883188
992.732780,-2368.659014,6358.592633,11251.130318
992.733109,-2590.720797,5822.325785,10955.047942
992.733439,-2738.761985,3447.429741,10807.006753
992.733769,-2146.597232,1532.190996,10288.862594
992.734098,-962.267725,689.485948,9844.739029
992.734428,-518.144159,612.876398,9400.615463
992.734757,148.041188,612.876398,9326.594869
992.735087,666.185348,2604.724693,9696.697840
992.735416,814.226536,4903.011187,10510.924376
992.735746,-296.082377,6741.640382,11029.068536
992.736075,-888.247130,7507.735880,11177.109724
992.736405,-2368.659014,7277.907231,10214.842000
992.736735,-2812.782580,6281.983084,9770.718434
992.737064,-3182.885551,3907.087040,8586.388927
992.737394,-2516.700203,2221.676944,6809.894666
992.737723,-1554.432478,612.876398,5551.544565
992.738053,-888.247130,-383.047749,5181.441594
992.738382,-962.267725,459.657299,6217.729913
992.738712,-1480.411884,2145.067394,7254.018232
992.739041,-2072.576638,4903.011187,9030.512492
992.739371,-2368.659014,6894.859482,10658.965565
992.739700,-2590.720797,7507.735880,11399.171507
992.740030,-1850.514855,7431.126331,11029.068536
992.740360,-1258.350101,6052.154434,10658.965565
992.740689,-666.185348,4596.572988,10214.842000
992.741019,-296.082377,3753.867940,10214.842000
992.741348,-814.226536,3140.991542,9622.677246
992.741678,-666.185348,2911.162892,9252.574275
992.742007,-814.226536,2681.334243,8586.388927
992.742337,148.041188,3370.820191,8660.409521
992.742666,1036.288319,3677.258390,9030.512492
992.742996,518.144159,3677.258390,9474.636058
992.743326,-888.247130,5592.497135,10140.821405
992.743655,-1776.494261,6128.763984,10807.006753
992.743985,-1480.411884,5975.544884,11695.253884
992.744314,-1332.370696,5592.497135,11621.233289
992.744644,-1332.370696,4749.792088,10436.903782
992.744973,-1332.370696,3524.039291,9474.636058
992.745303,-592.164754,3600.648841,9474.636058
992.745632,-444.123565,5132.839837,9548.656652
992.745962,-148.041188,5669.106685,8808.450710
992.746292,0.000000,5132.839837,7846.182985
992.746621,74.020594,4060.306139,6883.915261
992.746951,-296.082377,2451.505594,6587.832884
992.747280,-740.205942,1838.629195,7179.997637
992.747610,-2220.617826,2068.457845,8068.244768
992.747939,-3330.926739,2374.896044,9030.512492
992.748269,-3849.070898,2987.772442,10288.862594
992.748598,-3108.864956,3217.601092,10881.027347
992.748928,-2220.617826,4290.134789,11103.089130
992.749258,-1480.411884,5362.668486,10140.821405
992.749587,-222.061783,5669.106685,9548.656652
992.749917,962.267725,5592.497135,9622.677246
992.750246,1406.391290,5822.325785,9992.780217
992.750576,518.144159,5898.935335,8808.450710
992.750905,-518.144159,5209.449386,7550.100608
992.751235,-740.205942,2911.162892,6809.894666
992.751564,-1036.288319,919.314598,6587.832884
992.751894,-1406.391290,-612.876398,7105.977043
992.752224,-1628.453072,-1455.581446,7772.162391
992.752553,-2220.617826,-1302.362347,9548.656652
992.752883,-2516.700203,689.485948,10881.027347
992.753212,-1998.556043,2604.724693,12361.439231
992.753542,-1406.391290,4749.792088,13693.809927
992.753871,-1480.411884,5975.544884,13693.809927
992.754201,-592.164754,7354.516781,13101.645173
992.754530,-148.041188,6741.640382,11769.274478
992.754860,148.041188,4596.572988,10584.944971
992.755190,0.000000,3217.601092,9844.739029
992.755519,-814.226536,2987.772442,9104.533087
992.755849,-2072.576638,2451.505594,7846.182985
992.756178,-2368.659014,1762.019645,7624.121203
992.756508,-1998.556043,919.314598,7698.141797
992.756837,-1258.350101,1608.800546,8068.244768
992.757167,-296.082377,2374.896044,8734.430116
992.757496,-148.041188,2987.772442,8734.430116
992.757826,-222.061783,3983.696590,9400.615463
992.758155,-666.185348,5515.887586,10436.903782
992.758485,-1332.370696,7507.735880,11325.150913
992.758815,-1184.329507,7660.954980,11843.295072
992.759144,-1036.288319,7201.297681,11103.089130
992.759474,-1850.514855,6741.640382,10362.883188
992.759803,-2368.659014,6205.373534,7846.182985
992.760133,-1702.473667,4290.134789,5329.482782
992.760462,740.205942,2681.334243,3923.091493
992.760792,2738.761985,1685.410096,3478.967927
992.761121,2442.679609,1915.238745,4663.297435
992.761451,666.185348,2221.676944,6217.729913
992.761781,-2072.576638,3217.601092,8290.306550
992.762110,-3701.029710,4979.620737,10807.006753
992.762440,-4811.338623,5439.278036,13471.748144
992.762769,-5033.400406,5515.887586,14582.057057
992.763099,-5033.400406,3983.696590,14063.912898
992.763428,-4663.297435,3447.429741,11917.315666
992.763758,-2812.782580,3064.381992,9548.656652
992.764087,222.061783,1838.629195,7402.059420
992.764417,3404.947333,1455.581446,6513.812290
992.764747,4441.235652,2068.457845,6439.791695
992.765076,3775.050304,2911.162892,6513.812290
992.765406,2368.659014,2757.943793,7920.203579
992.765735,74.020594,2757.943793,11029.068536
992.766065,-2738.761985,4903.011187,13915.871710
992.766394,-5181.441594,5515.887586,15100.201217
992.766724,-5551.544565,3677.258390,14359.995275
992.767053,-4145.153275,1149.143247,11843.295072
992.767383,-1850.514855,-1685.410096,8882.471304
992.767713,444.123565,-3294.210641,7105.977043
992.768042,1258.350101,-1991.848295,6587.832884
992.768372,1184.329507,919.314598,7105.977043
992.768701,1036.288319,2451.505594,7031.956449
992.769031,518.144159,1838.629195,7994.224174
992.769360,-814.226536,2145.067394,9696.697840
992.769690,-2516.700203,1991.848295,10362.883188
992.770019,-3701.029710,612.876398,10881.027347
992.770349,-3923.091493,-306.438199,11177.109724
992.770679,-2960.823768,-2068.457845,11325.150913
992.771008,-2220.617826,-1915.238745,11399.171507
992.771338,-1628.453072,-1072.533697,9992.780217
992.771667,-592.164754,153.219100,9474.636058
992.771997,444.123565,1608.800546,8586.388927
992.772326,518.144159,1685.410096,8142.265362
992.772656,888.247130,1072.533697,7402.059420
992.772985,1258.350101,-766.095498,6809.894666
992.773315,1110.308913,-1302.362347,6809.894666
992.773644,74.020594,-1378.971896,8956.491898
992.773974,-1184.329507,-1838.629195,11029.068536
992.774304,-2590.720797,-1302.362347,13027.624579
992.774633,-3775.050304,919.314598,14137.933492
992.774963,-3330.926739,2528.115143,14878.139434
992.775292,-2516.700203,2604.724693,14137.933492
992.775622,-2294.638420,2528.115143,11325.150913
992.775951,-1258.350101,1762.019645,7994.224174
992.776281,592.164754,229.828649,6883.915261
992.776610,2442.679609,306.438199,7179.997637
992.776940,1776.494261,1991.848295,7550.100608
992.777270,0.000000,1455.581446,6957.935855
992.777599,-1628.453072,766.095498,7550.100608
992.777929,-2368.659014,1378.971896,10066.800811
992.778258,-2738.761985,2911.162892,11621.233289
992.778588,-3330.926739,3064.381992,10955.047942
992.778917,-3256.906145,2068.457845,9474.636058
992.779247,-1776.494261,766.095498,9178.553681
992.779576,518.144159,766.095498,9326.594869
992.779906,1184.329507,2068.457845,8586.388927
992.780236,666.185348,2757.943793,7105.977043
992.780565,74.020594,4290.134789,7624.121203
992.780895,0.000000,4673.182538,9178.553681
992.781224,-962.267725,4903.011187,9400.615463
992.781554,-1776.494261,3140.991542,8364.327145
992.781883,-2590.720797,1608.800546,7624.121203
992.782213,-2664.741391,1072.533697,8068.244768
992.782542,-2220.617826,306.438199,9844.739029
992.782872,-2220.617826,0.000000,10288.862594
992.783202,-2220.617826,1149.143247,10288.862594
992.783531,-1998.556043,2911.162892,10658.965565
992.783861,-1184.329507,2987.772442,10732.986159
992.784190,-962.267725,2528.115143,10362.883188
992.784520,-370.102971,1762.019645,7920.203579
992.784849,0.000000,459.657299,6661.853478
992.785179,962.267725,-612.876398,7624.121203
992.785508,1776.494261,-1532.190996,8808.450710
992.785838,888.247130,-766.095498,9104.533087
992.786168,-296.082377,-153.219100,9770.718434
992.786497,-1332.370696,76.609550,11843.295072
992.786827,-2294.638420,1532.190996,14211.954086
992.787156,-3330.926739,2911.162892,14211.954086
992.787486,-3849.070898,2221.676944,11843.295072
992.787815,-2442.679609,153.219100,9622.677246
992.788145,-148.041188,-2145.067394,8956.491898
992.788474,666.185348,-2604.724693,8660.409521
992.788804,74.020594,-1149.143247,8142.265362
992.789134,-666.185348,153.219100,7550.100608
992.789463,-1110.308913,383.047749,8142.265362
992.789793,-962.267725,153.219100,9252.574275
992.790122,-1554.432478,0.000000,9844.739029
992.790451,-2072.576638,-536.266849,9252.574275
992.790781,-2072.576638,-842.705048,8586.388927
992.791110,-1184.329507,-1915.238745,8956.491898
992.791440,-370.102971,-2068.457845,10140.821405
992.791769,-222.061783,-1302.362347,10732.986159
992.792099,-592.164754,-306.438199,9918.759623
992.792428,0.000000,1225.752797,10140.821405
992.792758,222.061783,1838.629195,10362.883188
992.793087,74.020594,1302.362347,10658.965565
992.793417,-888.247130,1685.410096,9770.718434
992.793746,-1332.370696,1149.143247,8808.450710
992.794076,-740.205942,383.047749,8734.430116
992.794405,-518.144159,-766.095498,9178.553681
992.794734,-1554.432478,-766.095498,9474.636058
992.795064,-2368.659014,0.000000,10510.924376
992.795393,-2812.782580,1225.752797,11103.089130
992.795723,-2960.823768,1225.752797,11547.212695
992.796052,-2294.638420,1685.410096,11103.089130
992.796382,-2294.638420,1608.800546,9770.718434
992.796711,-888.247130,1455.581446,8142.265362
992.797041,814.226536,536.266849,7772.162391
992.797370,1554.432478,1072.533697,7994.224174
992.797700,1184.329507,1838.629195,8142.265362
992.798029,518.144159,2681.334243,8808.450710
992.798359,-148.041188,3677.258390,10584.944971
992.798688,-962.267725,4366.744339,11547.212695
992.799017,-2146.597232,4290.134789,10955.047942
992.799347,-3034.844362,3140.991542,9474.636058
992.799676,-2738.761985,2068.457845,8734.430116
992.800006,-1406.391290,766.095498,8512.368333
992.800335,-370.102971,689.485948,7920.203579
992.800665,-666.185348,1685.410096,7624.121203
992.800994,-962.267725,2911.162892,7402.059420
992.801324,-962.267725,3830.477490,7994.224174
992.801653,-666.185348,3294.210641,8882.471304
992.801983,-1258.350101,3524.039291,8660.409521
992.802312,-1776.494261,2987.772442,7254.018232
992.802642,-1184.329507,1762.019645,7254.018232
992.802971,-444.123565,229.828649,7772.162391
992.803300,-296.082377,0.000000,8068.244768
992.803630,0.000000,306.438199,9400.615463
992.803959,-592.164754,919.314598,9696.697840
992.804289,-962.267725,1378.971896,10807.006753
992.804618,-1184.329507,1532.190996,11917.315666
992.804948,-1702.473667,2145.067394,11991.336260
992.805277,-1998.556043,1608.800546,10288.862594
992.805607,-1480.411884,306.438199,9622.677246
992.805936,-444.123565,-842.705048,9548.656652
992.806266,0.000000,-2068.457845,9844.739029
992.806595,-740.205942,-2068.457845,9326.594869
992.806925,-1924.535449,-1762.019645,9548.656652
992.807254,-1924.535449,-1149.143247,11103.089130
992.807584,-2146.597232,-459.657299,12361.439231
992.807913,-2516.700203,-459.657299,11843.295072
992.808242,-2368.659014,-995.924147,10658.965565
992.808572,-1480.411884,-1991.848295,9178.553681
992.808901,0.000000,-3140.991542,9474.636058
992.809231,666.185348,-2681.334243,9992.780217
992.809560,666.185348,-1532.190996,9696.697840
992.809890,222.061783,-1302.362347,9104.533087
992.810219,-222.061783,-612.876398,10214.842000
992.810549,0.000000,0.000000,11991.336260
992.810878,-1406.391290,766.095498,11547.212695
992.811208,-2516.700203,0.000000,9474.636058
992.811537,-2220.617826,-919.314598,8216.285956
992.811867,-296.082377,-2451.505594,8142.265362
992.812196,296.082377,-2911.162892,8734.430116
992.812525,-148.041188,-1838.629195,8956.491898
992.812855,-1184.329507,0.000000,8734.430116
992.813184,-1480.411884,1302.362347,9178.553681
992.813514,-814.226536,1225.752797,10510.924376
992.813843,-1036.288319,2681.334243,11251.130318
992.814173,-1924.535449,2451.505594,9548.656652
992.814502,-1480.411884,1838.629195,7994.224174
992.814832,0.000000,0.000000,7698.141797
992.815161,740.205942,-536.266849,8364.327145
992.815491,-222.061783,766.095498,8512.368333
992.815820,-1480.411884,1608.800546,9178.553681
992.816150,-1850.514855,2757.943793,10362.883188
992.816479,-1702.473667,3677.258390,11103.089130
992.816808,-2072.576638,3983.696590,10881.027347
992.817138,-2516.700203,3677.258390,8364.327145
992.817467,-1184.329507,2451.505594,7994.224174
992.817797,0.000000,1838.629195,7772.162391
992.818126,666.185348,1302.362347,7994.224174
992.818456,74.020594,1455.581446,8364.327145
992.818785,-814.226536,3217.601092,9178.553681
992.819115,-1480.411884,4366.744339,10658.965565
992.819444,-1998.556043,4903.011187,11621.233289
992.819774,-2516.700203,4213.525239,10658.965565
992.820103,-2294.638420,1838.629195,8808.450710
992.820433,-1184.329507,459.657299,8142.265362
992.820762,-296.082377,153.219100,8290.306550
992.821091,592.164754,1072.533697,8734.430116
992.821421,222.061783,1455.581446,8364.327145
992.821750,-370.102971,2298.286494,8882.471304
992.822080,-518.144159,2987.772442,10584.944971
992.822409,-444.123565,3064.381992,11251.130318
992.822739,-1258.350101,3140.991542,10807.006753
992.823068,-2072.576638,1685.410096,8512.368333
992.823398,-1554.432478,0.000000,7402.059420
992.823727,0.000000,-2374.896044,8586.388927
992.824057,222.061783,-2068.457845,8956.491898
992.824386,-1480.411884,-689.485948,9104.533087
992.824716,-2072.576638,306.438199,9400.615463
992.825045,-1850.514855,612.876398,10881.027347
992.825374,-1702.473667,995.924147,11843.295072
992.825704,-1702.473667,383.047749,11325.150913
992.826033,-1924.535449,-76.609550,8882.471304
992.826363,-1628.453072,-1532.190996,7994.224174
992.826692,-518.144159,-2604.724693,8660.409521
992.827022,148.041188,-3217.601092,9548.656652
992.827351,-370.102971,-2451.505594,9844.739029
992.827681,-888.247130,-383.047749,10140.821405
992.828010,-222.061783,229.828649,11103.089130
992.828340,-296.082377,0.000000,11695.253884
992.828669,-666.185348,-229.828649,11325.150913
992.828999,-1480.411884,-153.219100,9548.656652
992.829328,-1184.329507,-229.828649,8512.368333
992.829657,0.000000,-766.095498,9178.553681
992.829987,814.226536,-2145.067394,9548.656652
992.830316,0.000000,-2068.457845,9030.512492
992.830646,-1332.370696,-1532.190996,8808.450710
992.830975,-1258.350101,0.000000,10732.986159
992.831305,-1924.535449,1225.752797,11843.295072
992.831634,-2738.761985,1838.629195,11399.171507
992.831964,-3034.844362,1149.143247,9992.780217
992.832293,-1776.494261,0.000000,9326.594869
992.832623,-296.082377,-153.219100,9696.697840
992.832952,296.082377,689.485948,9474.636058
992.833282,222.061783,842.705048,8734.430116
992.833611,-518.144159,1685.410096,8586.388927
992.833941,-518.144159,1762.019645,10140.821405
992.834270,-888.247130,2681.334243,11843.295072
992.834599,-2072.576638,4213.525239,11251.130318
992.834929,-2664.741391,4366.744339,9252.574275
992.835258,-1924.535449,2068.457845,7624.121203
992.835588,74.020594,383.047749,7624.121203
992.835917,1332.370696,612.876398,7920.203579
992.836247,814.226536,2451.505594,7402.059420
992.836576,-148.041188,3600.648841,7031.956449
992.836906,-444.123565,3907.087040,8660.409521
992.837235,-592.164754,4903.011187,10584.944971
992.837565,-1850.514855,5209.449386,10140.821405
992.837894,-2368.659014,3907.087040,8586.388927
992.838224,-1110.308913,1532.190996,7624.121203
992.838553,-444.123565,459.657299,8068.244768
992.838882,-222.061783,766.095498,8586.388927
992.839212,-814.226536,1455.581446,8808.450710
992.839541,-1480.411884,2834.553343,9474.636058
992.839871,-1628.453072,3217.601092,10807.006753
992.840200,-2072.576638,3677.258390,11621.233289
992.840530,-2442.679609,3753.867940,10955.047942
992.840859,-2368.659014,2528.115143,8586.388927
992.841189,-1258.350101,1149.143247,7179.997637
992.841518,370.102971,-459.657299,7846.182985
992.841848,814.226536,-995.924147,8364.327145
992.842177,-518.144159,76.609550,9030.512492
992.842507,-1702.473667,842.705048,9030.512492
992.842836,-1406.391290,459.657299,10732.986159
992.843165,-1036.288319,766.095498,12287.418637
992.843495,-1998.556043,842.705048,11103.089130
992.843824,-2516.700203,-153.219100,9252.574275
992.844154,-1480.411884,-1838.629195,8586.388927
992.844483,148.041188,-2528.115143,9326.594869
992.844813,518.144159,-2298.286494,10214.842000
992.845142,-370.102971,-1225.752797,10436.903782
992.845472,-1110.308913,-306.438199,9030.512492
992.845801,74.020594,-306.438199,10362.883188
992.846131,740.205942,-1149.143247,12065.356855
992.846460,-1036.288319,-536.266849,12213.398043
992.846790,-2738.761985,383.047749,11103.089130
992.847119,-3330.926739,-383.047749,10066.800811
992.847448,-1850.514855,-1608.800546,9844.739029
992.847778,-74.020594,-2834.553343,9992.780217
992.848107,0.000000,-2757.943793,9770.718434
992.848437,-592.164754,-689.485948,9104.533087
992.848766,-1110.308913,689.485948,8734.430116
992.849096,-888.247130,842.705048,9696.697840
992.849425,-1036.288319,1302.362347,10140.821405
992.849755,-1554.432478,1915.238745,9918.759623
992.850084,-962.267725,1149.143247,8586.388927
992.850414,518.144159,-383.047749,7846.182985
992.850743,1036.288319,-1225.752797,8364.327145
992.851073,296.082377,383.047749,9400.615463
992.851402,-1184.329507,2145.067394,10288.862594
992.851731,-1776.494261,2911.162892,11325.150913
992.852061,-1406.391290,3524.039291,11991.336260
992.852390,-2590.720797,4060.306139,11029.068536
992.852720,-3034.844362,3753.867940,9178.553681
992.853049,-1480.411884,2374.896044,7031.956449
992.853379,518.144159,842.705048,6513.812290
992.853708,1554.432478,1532.190996,7031.956449
992.854038,148.041188,3140.991542,7254.018232
992.854367,-1110.308913,4060.306139,7624.121203
992.854697,-1332.370696,3907.087040,8660.409521
992.855026,-1628.453072,4519.963438,10140.821405
992.855356,-2368.659014,4826.401637,10288.862594
992.855685,-2664.741391,2987.772442,8882.471304
992.856015,-1776.494261,1455.581446,8290.306550
992.856344,-1110.308913,536.266849,8586.388927
992.856673,-740.205942,1225.752797,9548.656652
992.857003,-814.226536,2681.334243,9918.759623
992.857332,-1184.329507,3524.039291,9548.656652
992.857662,-962.267725,4213.525239,10732.986159
992.857991,-666.185348,3753.867940,11769.274478
992.858321,-1110.308913,3524.039291,11251.130318
992.858650,-2072.576638,3217.601092,9474.636058
992.858980,-1924.535449,1915.238745,8586.388927
992.859309,-888.247130,383.047749,9030.512492
992.859639,296.082377,-306.438199,9400.615463
992.859968,-148.041188,-153.219100,8956.491898
992.860298,-888.247130,76.609550,8734.430116
992.860627,-1036.288319,612.876398,9696.697840
992.860956,-888.247130,842.705048,11473.192101
992.861286,-1554.432478,766.095498,10658.965565
992.861615,-2368.659014,536.266849,9252.574275
992.861945,-1924.535449,-689.485948,8142.265362
992.862274,-740.205942,-1915.238745,8734.430116
992.862604,222.061783,-2068.457845,9622.677246
992.862933,-740.205942,-1532.190996,9104.533087
992.863263,-888.247130,-383.047749,9030.512492
992.863592,-444.123565,-153.219100,10362.883188
992.863922,-888.247130,153.219100,11843.295072
992.864251,-1924.535449,612.876398,11843.295072
992.864581,-2960.823768,459.657299,10732.986159
992.864910,-2146.597232,-842.705048,9548.656652
992.865239,-296.082377,-1991.848295,9696.697840
992.865569,814.226536,-2834.553343,9400.615463
992.865898,370.102971,-2528.115143,8734.430116
992.866228,-666.185348,-842.705048,8734.430116
992.866557,-444.123565,459.657299,9696.697840
992.866887,-814.226536,1072.533697,10881.027347
992.867216,-962.267725,995.924147,11103.089130
992.867546,-1258.350101,306.438199,9696.697840
992.867875,-814.226536,-306.438199,8512.368333
992.868205,0.000000,-1225.752797,8586.388927
992.868534,370.102971,-1378.971896,9622.677246
992.868864,-222.061783,306.438199,9770.718434
992.869193,-962.267725,1378.971896,10436.903782
992.869522,-1480.411884,1838.629195,11473.192101
992.869852,-1924.535449,2068.457845,12213.398043
992.870181,-2590.720797,2528.115143,11399.171507
992.870511,-2960.823768,2681.334243,9770.718434
992.870840,-2220.617826,1532.190996,8734.430116
992.871170,-666.185348,842.705048,8882.471304
992.871499,370.102971,1838.629195,9178.553681
992.871829,-296.082377,2451.505594,8290.306550
992.872158,-888.247130,3064.381992,8068.244768
992.872488,-888.247130,3447.429741,9252.574275
992.872817,-592.164754,4749.792088,10510.924376
992.873147,-1110.308913,5209.449386,9622.677246
992.873476,-1850.514855,3983.696590,7698.141797
992.873805,-1184.329507,2528.115143,6957.935855
992.874135,-222.061783,1532.190996,7698.141797
992.874464,0.000000,2451.505594,8808.450710
992.874794,-888.247130,3677.258390,8512.368333
992.875123,-1776.494261,3447.429741,7624.121203
992.875453,-1554.432478,2987.772442,8956.491898
992.875782,-1628.453072,3753.867940,10510.924376
992.876112,-2146.597232,4443.353888,10214.842000
992.876441,-2368.659014,3830.477490,8216.285956
992.876771,-1332.370696,1991.848295,7105.977043
992.877100,222.061783,1149.143247,8142.265362
992.877430,592.164754,536.266849,8734.430116
992.877759,0.000000,1455.581446,8586.388927
992.878088,-666.185348,2221.676944,8734.430116
992.878418,-1110.308913,1532.190996,9548.656652
992.878747,-1036.288319,2528.115143,11843.295072
992.879077,-2220.617826,1685.410096,11695.253884
992.879406,-2664.741391,689.485948,9622.677246
992.879736,-2072.576638,-919.314598,8364.327145
992.880065,-444.123565,-2757.943793,9030.512492
992.880395,296.082377,-2298.286494,9844.739029
992.880724,-814.226536,-1762.019645,9400.615463
992.881054,-1554.432478,-689.485948,9326.594869
992.881383,-1036.288319,76.609550,11547.212695
992.881713,-888.247130,689.485948,13175.665768
992.882042,-2294.638420,919.314598,11843.295072
992.882372,-2516.700203,-919.314598,9992.780217
992.882701,-1406.391290,-2451.505594,9548.656652
992.883030,-370.102971,-2528.115143,9992.780217
992.883360,-148.041188,-2987.772442,10362.883188
992.883689,-296.082377,-2757.943793,9992.780217
992.884019,-1184.329507,-2221.676944,10066.800811
992.884348,-1258.350101,-459.657299,10807.006753
992.884678,-1110.308913,612.876398,11769.274478
992.885007,-1332.370696,229.828649,10510.924376
992.885337,-1628.453072,-306.438199,8142.265362
992.885666,-222.061783,-1762.019645,7698.141797
992.885996,666.185348,-2451.505594,8438.347739
992.886325,592.164754,-1378.971896,8882.471304
992.886655,-1184.329507,-306.438199,8734.430116
992.886984,-1850.514855,153.219100,9474.636058
992.887313,-1628.453072,1455.581446,11769.274478
992.887643,-1628.453072,2221.676944,11843.295072
992.887972,-2960.823768,2145.067394,10288.862594
992.888302,-2664.741391,1225.752797,8956.491898
992.888631,-1924.535449,1302.362347,8438.347739
992.888961,-370.102971,1225.752797,8438.347739
992.889290,222.061783,689.485948,8364.327145
992.889620,0.000000,2145.067394,8216.285956
992.889949,-888.247130,3370.820191,8660.409521
992.890279,-814.226536,3830.477490,9770.718434
992.890608,-962.267725,4136.915689,10362.883188
992.890938,-1332.370696,4290.134789,9326.594869
992.891267,-1850.514855,3600.648841,8142.265362
992.891596,-888.247130,2221.676944,7994.224174
992.891926,74.020594,919.314598,8290.306550
992.892256,74.020594,1378.971896,8586.388927
992.892585,-740.205942,2834.553343,8660.409521
992.892915,-814.226536,4136.915689,8734.430116
992.893244,-1258.350101,4366.744339,10510.924376
992.893574,-1480.411884,4443.353888,11177.109724
992.893903,-2294.638420,4060.306139,10214.842000
992.894233,-2368.659014,2911.162892,8586.388927
992.894562,-1480.411884,1991.848295,7920.203579
992.894892,-444.123565,229.828649,8142.265362
992.895221,0.000000,0.000000,9104.533087
992.895551,-1036.288319,995.924147,8882.471304
992.895881,-1702.473667,1838.629195,9178.553681
992.896210,-1184.329507,1532.190996,10584.944971
992.896540,-1554.432478,2298.286494,11991.336260
992.896869,-1850.514855,3294.210641,11177.109724
992.897199,-1776.494261,1532.190996,8512.368333
992.897528,-444.123565,-919.314598,7698.141797
992.897858,740.205942,-2374.896044,7994.224174
992.898187,444.123565,-1532.190996,9400.615463
992.898517,-592.164754,-383.047749,9252.574275
992.898847,-1998.556043,-153.219100,8956.491898
992.899176,-1850.514855,-306.438199,10732.986159
992.899506,-1998.556043,0.000000,12213.398043
992.899835,-2664.741391,-153.219100,11399.171507
992.900165,-2738.761985,-995.924147,8882.471304
992.900494,-1776.494261,-2528.115143,7698.141797
992.900824,-222.061783,-3064.381992,8660.409521
992.901153,444.123565,-3064.381992,10066.800811
992.901483,148.041188,-1685.410096,10214.842000
992.901812,-1036.288319,-229.828649,10214.842000
992.902142,-1110.308913,76.609550,11251.130318
992.902472,-888.247130,383.047749,12139.377449
992.902801,-1628.453072,153.219100,11473.192101
992.903131,-1554.432478,-995.924147,9400.615463
992.903460,-592.164754,-2451.505594,8512.368333
992.903790,592.164754,-3140.991542,9326.594869
992.904119,222.061783,-2298.286494,9622.677246
992.904449,-888.247130,-1532.190996,9400.615463
992.904778,-1480.411884,536.266849,10066.800811
992.905108,-1332.370696,919.314598,11473.192101
992.905438,-1554.432478,2374.896044,12213.398043
992.905767,-2368.659014,2604.724693,10807.006753
992.906097,-2368.659014,842.705048,8808.450710
992.906426,-1258.350101,0.000000,8142.265362
992.906756,0.000000,-229.828649,8290.306550
992.907085,74.020594,0.000000,8956.491898
992.907415,-888.247130,1225.752797,9104.533087
992.907744,-1702.473667,3064.381992,9326.594869
992.908074,-1776.494261,3370.820191,10436.903782
992.908403,-1406.391290,3447.429741,10807.006753
992.908733,-1480.411884,3600.648841,9992.780217
992.909063,-1776.494261,2987.772442,8290.306550
992.909392,-962.267725,2145.067394,7179.997637
992.909722,148.041188,1072.533697,7328.038826
992.910051,518.144159,1455.581446,8068.244768
992.910381,-592.164754,2987.772442,8438.347739
992.910710,-1628.453072,4213.525239,9030.512492
992.911040,-1480.411884,4290.134789,10140.821405
992.911369,-1406.391290,3830.477490,10584.944971
992.911699,-1998.556043,4060.306139,9548.656652
992.912028,-2442.679609,2834.553343,8216.285956
992.912358,-1036.288319,2145.067394,7624.121203
992.912688,148.041188,1378.971896,7698.141797
992.913017,740.205942,1225.752797,8734.430116
992.913347,-222.061783,2528.115143,8882.471304
992.913676,-1110.308913,3907.087040,9030.512492
992.914006,-1480.411884,3753.867940,9992.780217
992.914335,-1480.411884,3524.039291,10584.944971
992.914665,-1924.535449,2145.067394,9400.615463
992.914994,-2368.659014,612.876398,8068.244768
992.915324,-1110.308913,-1532.190996,8216.285956
992.915654,-370.102971,-2145.067394,8142.265362
992.915983,-666.185348,-1302.362347,9252.574275
992.916313,-1554.432478,-612.876398,9548.656652
992.916642,-1850.514855,0.000000,10955.047942
992.916972,-1628.453072,1072.533697,12583.501014
992.917301,-1480.411884,1608.800546,12509.480420
992.917631,-2220.617826,842.705048,11029.068536
992.917960,-2146.597232,-1302.362347,9252.574275
992.918290,-740.205942,-2451.505594,8808.450710
992.918619,444.123565,-3140.991542,9622.677246
992.918949,1110.308913,-2451.505594,9548.656652
992.919279,-296.082377,-2451.505594,9548.656652
992.919608,-740.205942,-1608.800546,10436.903782
992.919938,-888.247130,-612.876398,12287.418637
992.920267,-1036.288319,0.000000,12509.480420
992.920597,-1184.329507,383.047749,10807.006753
992.920926,-1110.308913,-1762.019645,8586.388927
992.921256,-444.123565,-3140.991542,8734.430116
992.921585,296.082377,-3447.429741,9548.656652
992.921915,-222.061783,-2145.067394,9622.677246
992.922244,-1258.350101,-612.876398,8808.450710
992.922574,-1776.494261,-153.219100,9326.594869
992.922904,-1406.391290,-229.828649,10955.047942
992.923233,-1702.473667,536.266849,11621.233289
992.923563,-2590.720797,1072.533697,10066.800811
992.923892,-3108.864956,919.314598,7994.224174
992.924222,-2072.576638,459.657299,7846.182985
992.924551,0.000000,-919.314598,8734.430116
992.924881,74.020594,-229.828649,9326.594869
992.925210,-666.185348,1762.019645,8956.491898
992.925540,-888.247130,2451.505594,8808.450710
992.925870,-740.205942,3600.648841,10066.800811
992.926199,-666.185348,3677.258390,10955.047942
992.926529,-1554.432478,3217.601092,10066.800811
992.926858,-1480.411884,2911.162892,8586.388927
992.927188,-444.123565,2451.505594,8216.285956
992.927517,74.020594,1532.190996,8586.388927
992.927847,814.226536,1685.410096,8438.347739
992.928176,0.000000,2604.724693,8660.409521
992.928506,-518.144159,3600.648841,9104.533087
992.928835,-592.164754,4826.401637,10955.047942
992.929165,-1480.411884,5592.497135,11621.233289
992.929495,-2368.659014,5362.668486,10140.821405
992.929824,-2442.679609,3140.991542,8586.388927
992.930154,-1628.453072,2451.505594,8438.347739
992.930483,-740.205942,1532.190996,8512.368333
992.930813,-444.123565,1302.362347,8734.430116
992.931142,-1332.370696,2298.286494,8364.327145
992.931472,-1406.391290,3140.991542,8882.471304
992.931801,-1406.391290,3064.381992,10066.800811
992.932131,-1480.411884,3677.258390,10955.047942
992.932460,-1850.514855,3983.696590,9770.718434
992.932790,-1702.473667,2451.505594,7624.121203
992.933120,-148.041188,612.876398,6957.935855
992.933449,1184.329507,-1072.533697,7920.203579
992.933779,1110.308913,-153.219100,9030.512492
992.934108,-592.164754,1838.629195,9030.512492
992.934438,-962.267725,1455.581446,9474.636058
992.934767,-740.205942,766.095498,10436.903782
992.935097,-1036.288319,689.485948,11769.274478
992.935426,-2072.576638,1455.581446,11399.171507
992.935756,-2368.659014,229.828649,9548.656652
992.936086,-1332.370696,-1532.190996,8586.388927
992.936415,-296.082377,-2374.896044,9326.594869
992.936745,148.041188,-2068.457845,9918.759623
992.937074,-962.267725,-689.485948,9548.656652
992.937404,-1184.329507,-383.047749,9548.656652
992.937733,-666.185348,-842.705048,10807.006753
992.938063,-888.247130,0.000000,11695.253884
992.938392,-1924.535449,153.219100,10362.883188
992.938722,-2146.597232,-1532.190996,9474.636058
992.939051,-1406.391290,-2298.286494,9400.615463
992.939381,-740.205942,-2298.286494,9770.718434
992.939711,0.000000,-2528.115143,9992.780217
992.940040,-222.061783,-2451.505594,9474.636058
992.940370,-740.205942,-1225.752797,10140.821405
992.940699,-888.247130,306.438199,11917.315666
992.941029,-1036.288319,1762.019645,12435.459826
992.941358,-1924.535449,2068.457845,11029.068536
992.941688,-1776.494261,1072.533697,9326.594869
992.942017,-518.144159,-536.266849,8956.491898
992.942347,444.123565,-1225.752797,9252.574275
992.942676,666.185348,-1072.533697,9030.512492
992.943006,-592.164754,229.828649,8660.409521
992.943336,-1628.453072,1302.362347,8808.450710
992.943665,-1628.453072,1685.410096,10584.944971
992.943995,-962.267725,2757.943793,11843.295072
992.944324,-1924.535449,3907.087040,10436.903782
992.944654,-2146.597232,3294.210641,8068.244768
992.944983,-666.185348,1608.800546,7254.018232
992.945313,888.247130,766.095498,7698.141797
992.945642,1036.288319,1302.362347,8216.285956
992.945972,-518.144159,3294.210641,8290.306550
992.946302,-1628.453072,4290.134789,8882.471304
992.946631,-1924.535449,4136.915689,9844.739029
992.946961,-1332.370696,3447.429741,10140.821405
992.947290,-2442.679609,3447.429741,9474.636058
992.947620,-2516.700203,3294.210641,8216.285956
992.947949,-1554.432478,2681.334243,7846.182985
992.948279,-444.123565,2221.676944,7698.141797
992.948608,0.000000,2145.067394,7994.224174
992.948938,-296.082377,3447.429741,8216.285956
992.949267,-666.185348,4136.915689,8956.491898
992.949597,-518.144159,4290.134789,10510.924376
992.949927,-1258.350101,4443.353888,10807.006753
992.950256,-1702.473667,4060.306139,9622.677246
