#time,accel_x,accel_y,accel_z
932.365980,-1036.288319,1149.143247,9474.636058
932.366309,-1258.350101,919.314598,9104.533087
932.366639,-1332.370696,919.314598,9400.615463
932.366968,-1184.329507,1072.533697,9474.636058
932.367298,-1110.308913,919.314598,9474.636058
932.367627,-1110.308913,919.314598,9548.656652
932.367957,-888.247130,536.266849,9548.656652
932.368286,-814.226536,766.095498,9622.677246
932.368615,-962.267725,919.314598,9548.656652
932.368945,-1184.329507,1072.533697,9474.636058
932.369274,-1036.288319,919.314598,9474.636058
932.369604,-1036.288319,1225.752797,9400.615463
932.369933,-1258.350101,842.705048,9326.594869
932.370263,-1332.370696,766.095498,9326.594869
932.370592,-888.247130,995.924147,9474.636058
932.370921,-962.267725,919.314598,9474.636058
932.371251,-740.205942,1149.143247,9548.656652
932.371580,-888.247130,1072.533697,9622.677246
932.371910,-1110.308913,689.485948,9474.636058
932.372239,-1036.288319,1072.533697,9474.636058
932.372568,-1036.288319,919.314598,9548.656652
932.372898,-962.267725,1072.533697,9548.656652
932.373227,-814.226536,1225.752797,9548.656652
932.373557,-740.205942,1225.752797,9178.553681
932.373886,-1110.308913,1072.533697,9400.615463
932.374216,-1036.288319,536.266849,9474.636058
932.374545,-1184.329507,842.705048,9548.656652
932.374874,-1036.288319,995.924147,9474.636058
932.375204,-814.226536,842.705048,9252.574275
932.375533,-1110.308913,1072.533697,9474.636058
932.375863,-962.267725,766.095498,9474.636058
932.376192,-962.267725,995.924147,9622.677246
932.376522,-1184.329507,919.314598,9400.615463
932.376851,-962.267725,842.705048,9474.636058
932.377180,-1258.350101,1072.533697,9622.677246
932.377510,-888.247130,995.924147,9474.636058
932.377839,-1110.308913,995.924147,9548.656652
932.378169,-1036.288319,919.314598,9474.636058
932.378498,-740.205942,1532.190996,9474.636058
932.378827,-962.267725,612.876398,9178.553681
932.379157,-1036.288319,1149.143247,9474.636058
932.379486,-962.267725,766.095498,9696.697840
932.379816,-962.267725,1072.533697,9474.636058
932.380145,-1184.329507,1302.362347,9696.697840
932.380475,-1110.308913,1149.143247,9474.636058
932.380804,-1036.288319,689.485948,9474.636058
932.381133,-1036.288319,842.705048,9696.697840
932.381463,-1184.329507,612.876398,9622.677246
932.381792,-962.267725,919.314598,9622.677246
932.382122,-1258.350101,1378.971896,9326.594869
932.382451,-962.267725,1072.533697,9326.594869
932.382781,-1110.308913,995.924147,9474.636058
932.383110,-1036.288319,1072.533697,9622.677246
932.383439,-1036.288319,842.705048,9548.656652
932.383769,-888.247130,919.314598,9326.594869
932.384098,-1184.329507,919.314598,9326.594869
932.384428,-1036.288319,689.485948,9770.718434
932.384757,-962.267725,689.485948,9474.636058
932.385086,-962.267725,1072.533697,9622.677246
932.385416,-962.267725,842.705048,9326.594869
932.385745,-1036.288319,1225.752797,9178.553681
932.386075,-296.082377,919.314598,9178.553681
932.386404,518.144159,459.657299,9104.533087
932.386734,962.267725,612.876398,9326.594869
932.387063,370.102971,536.266849,9400.615463
932.387392,592.164754,1149.143247,9326.594869
932.387722,-148.041188,919.314598,9622.677246
932.388051,-666.185348,1302.362347,9918.759623
932.388381,-666.185348,842.705048,10214.842000
932.388710,-370.102971,76.609550,10140.821405
932.389040,0.000000,0.000000,9252.574275
932.389369,444.123565,306.438199,9252.574275
932.389698,1480.411884,0.000000,9400.615463
932.390028,2368.659014,766.095498,8882.471304
932.390357,3108.864956,1072.533697,8808.450710
932.390687,3256.906145,1378.971896,8808.450710
932.391016,3552.988522,1838.629195,9104.533087
932.391345,3552.988522,1762.019645,9844.739029
932.391675,3108.864956,1149.143247,10214.842000
932.392004,2220.617826,1225.752797,10362.883188
932.392334,1554.432478,689.485948,10510.924376
932.392663,1776.494261,153.219100,10658.965565
932.392993,1850.514855,-306.438199,10510.924376
932.393322,2294.638420,0.000000,9770.718434
932.393651,3182.885551,-306.438199,9474.636058
932.393981,3701.029710,153.219100,9400.615463
932.394310,4071.132681,1302.362347,9400.615463
932.394640,4441.235652,2298.286494,9474.636058
932.394969,3256.906145,2681.334243,9992.780217
932.395299,1998.556043,2911.162892,10288.862594
932.395628,296.082377,2451.505594,10140.821405
932.395957,-1406.391290,1991.848295,9474.636058
932.396287,-2368.659014,306.438199,8660.409521
932.396616,-962.267725,-612.876398,8068.244768
932.396946,814.226536,-1225.752797,7105.977043
932.397275,2368.659014,-1225.752797,6587.832884
932.397604,3627.009116,-306.438199,6809.894666
932.397934,4515.256246,689.485948,7476.080014
932.398263,3627.009116,3370.820191,9178.553681
932.398593,2368.659014,4903.011187,10881.027347
932.398922,1258.350101,4443.353888,11843.295072
932.399252,0.000000,3217.601092,12361.439231
932.399581,-1036.288319,1762.019645,12139.377449
932.399910,-1702.473667,-229.828649,11843.295072
932.400240,-2146.597232,-1991.848295,10881.027347
932.400569,-1332.370696,-2757.943793,10140.821405
932.400899,74.020594,-2451.505594,9030.512492
932.401228,1628.453072,-2068.457845,8142.265362
932.401558,4293.194464,-1532.190996,7402.059420
932.401887,4737.318029,612.876398,7328.038826
932.402216,4811.338623,2451.505594,8142.265362
932.402546,4737.318029,3830.477490,8882.471304
932.402875,4219.173869,4443.353888,9844.739029
932.403205,3478.967927,3907.087040,10288.862594
932.403534,2886.803174,2757.943793,11695.253884
932.403863,1406.391290,1302.362347,11399.171507
932.404193,0.000000,306.438199,10658.965565
932.404522,-888.247130,-842.705048,10362.883188
932.404852,-740.205942,-1378.971896,9844.739029
932.405181,-888.247130,-1149.143247,9474.636058
932.405511,-444.123565,-919.314598,9696.697840
932.405840,148.041188,-689.485948,9178.553681
932.406169,1332.370696,0.000000,8438.347739
932.406499,2368.659014,689.485948,8364.327145
932.406828,3552.988522,1378.971896,8586.388927
932.407158,4145.153275,612.876398,8216.285956
932.407487,4441.235652,306.438199,8364.327145
932.407817,4293.194464,229.828649,9400.615463
932.408146,3182.885551,1149.143247,9770.718434
932.408475,2368.659014,1991.848295,9548.656652
932.408805,2294.638420,2068.457845,10362.883188
932.409134,2368.659014,1991.848295,10732.986159
932.409464,2072.576638,2068.457845,10807.006753
932.409793,1776.494261,1991.848295,9844.739029
932.410122,1702.473667,1685.410096,8808.450710
932.410452,1110.308913,919.314598,8734.430116
932.410781,0.000000,842.705048,9178.553681
932.411111,-1110.308913,842.705048,9474.636058
932.411440,-1850.514855,766.095498,9622.677246
932.411770,-1998.556043,459.657299,9770.718434
932.412099,-2812.782580,-459.657299,9622.677246
932.412428,-2368.659014,-612.876398,10510.924376
932.412758,-2072.576638,-536.266849,10658.965565
932.413087,-1850.514855,76.609550,10658.965565
932.413417,-1850.514855,919.314598,9918.759623
932.413746,-740.205942,1455.581446,9252.574275
932.414076,1036.288319,766.095498,9104.533087
932.414405,2368.659014,1608.800546,8364.327145
932.414734,3997.112087,2834.553343,8068.244768
932.415064,5773.606348,2757.943793,8438.347739
932.415393,6143.709319,3907.087040,9030.512492
932.415723,5551.544565,3753.867940,9474.636058
932.416052,3330.926739,3907.087040,10807.006753
932.416381,962.267725,4136.915689,11547.212695
932.416711,-1776.494261,3907.087040,11473.192101
932.417040,-4293.194464,1302.362347,11621.233289
932.417370,-6957.935855,-1608.800546,11769.274478
932.417699,-8512.368333,-2604.724693,11029.068536
932.418029,-9252.574275,-2834.553343,9326.594869
932.418358,-7698.141797,-2834.553343,7402.059420
932.418687,-4367.215058,-2987.772442,5551.544565
932.419017,148.041188,-2528.115143,3997.112087
932.419346,4219.173869,-1608.800546,4071.132681
932.419676,6513.812290,2528.115143,4737.318029
932.420005,6365.771101,5439.278036,6365.771101
932.420335,5033.400406,5822.325785,9474.636058
932.420664,1480.411884,7201.297681,13027.624579
932.420993,-2294.638420,7737.564530,16062.468941
932.421323,-5403.503377,4903.011187,17468.860231
932.421652,-7105.977043,2451.505594,15544.324782
932.421982,-7772.162391,-2068.457845,12287.418637
932.422311,-6365.771101,-7660.954980,9844.739029
932.422640,-4515.256246,-8503.660028,8808.450710
932.422970,-2072.576638,-5132.839837,6587.832884
932.423299,1554.432478,-2451.505594,5033.400406
932.423629,5403.503377,-153.219100,4959.379811
932.423958,7994.224174,2145.067394,5329.482782
932.424288,9548.656652,4749.792088,7105.977043
932.424617,8438.347739,5745.716235,8956.491898
932.424946,5625.565159,8427.050478,11621.233289
932.425276,1332.370696,7890.783629,13989.892304
932.425605,-3404.947333,4060.306139,15470.304188
932.425935,-7179.997637,995.924147,14804.118840
932.426264,-9992.780217,-2451.505594,13027.624579
932.426594,-10807.006753,-4903.011187,10658.965565
932.426923,-9696.697840,-5209.449386,8660.409521
932.427252,-6587.832884,-5822.325785,6439.791695
932.427582,-2442.679609,-4826.401637,4737.318029
932.427911,2220.617826,-1149.143247,1776.494261
932.428241,5551.544565,2451.505594,1850.514855
932.428570,7105.977043,3370.820191,5107.421000
932.428899,5699.585753,5898.935335,9326.594869
932.429229,2220.617826,7354.516781,12731.542202
932.429558,-1628.453072,6818.249932,15618.345376
932.429888,-4737.318029,5745.716235,16728.654289
932.430217,-7550.100608,2834.553343,15026.180623
932.430547,-8512.368333,-4290.134789,12583.501014
932.430876,-7698.141797,-8197.221829,10658.965565
932.431205,-5255.462188,-6128.763984,8068.244768
932.431535,-2368.659014,-4290.134789,6069.688724
932.431864,1776.494261,-2451.505594,5107.421000
932.432194,5625.565159,-229.828649,4071.132681
932.432523,8586.388927,2528.115143,3775.050304
932.432853,9992.780217,4903.011187,5477.523971
932.433182,7550.100608,8733.488677,9474.636058
932.433511,3701.029710,9806.022374,14137.933492
932.433841,-1702.473667,6665.030833,17172.777854
932.434170,-7031.956449,5056.230287,17542.880825
932.434500,-11177.109724,1991.848295,14804.118840
932.434829,-12435.459826,-3447.429741,11843.295072
932.435158,-11695.253884,-7277.907231,9178.553681
932.435488,-8808.450710,-9116.536426,6439.791695
932.435817,-4515.256246,-7967.393179,5107.421000
932.436146,518.144159,-3753.867940,2886.803174
932.436476,5107.421000,919.314598,1110.308913
932.436805,8290.306550,2451.505594,2516.700203
932.437134,9474.636058,4213.525239,8216.285956
932.437464,7031.956449,9806.022374,12583.501014
932.437793,2664.741391,11874.480219,15988.448347
932.438122,-1776.494261,10342.289223,17172.777854
932.438452,-6069.688724,6205.373534,17542.880825
932.438781,-7698.141797,-1685.410096,16358.551318
932.439110,-8512.368333,-5975.544884,12657.521608
932.439440,-7550.100608,-6281.983084,8216.285956
932.439769,-4367.215058,-6128.763984,4737.318029
932.440098,0.000000,-4749.792088,2886.803174
932.440428,5477.523971,-3830.477490,1554.432478
932.440757,9918.759623,-1455.581446,962.267725
932.441086,10881.027347,4060.306139,3330.926739
932.441416,8586.388927,10495.508323,7994.224174
932.441745,5477.523971,11491.432470,14137.933492
932.442074,-518.144159,10878.556072,17542.880825
932.442404,-6217.729913,8886.707777,17320.819043
932.442733,-9622.677246,2911.162892,16580.613101
932.443062,-11251.130318,-2681.334243,15026.180623
932.443392,-12509.480420,-5745.716235,11473.192101
932.443721,-11177.109724,-10265.679673,7105.977043
932.444050,-7105.977043,-9652.803275,4367.215058
932.444380,-1184.329507,-6205.373534,3701.029710
932.444709,5255.462188,-2451.505594,3552.988522
932.445038,8290.306550,2834.553343,2368.659014
932.445368,9400.615463,6588.421283,3923.091493
932.445697,9770.718434,9422.974625,8512.368333
932.446026,6513.812290,10572.117872,14952.160028
932.446356,592.164754,12180.918418,18579.169144
932.446685,-5699.585753,10189.070123,18727.210333
932.447014,-9474.636058,3524.039291,16654.633695
932.447344,-10807.006753,-1302.362347,13397.727550
932.447673,-9474.636058,-9269.755526,9326.594869
932.448002,-6217.729913,-12104.308868,5773.606348
932.448332,-3478.967927,-7967.393179,4145.153275
932.448661,444.123565,-4673.182538,3923.091493
932.448990,5329.482782,0.000000,3404.947333
932.449320,7105.977043,3217.601092,2590.720797
932.449649,8808.450710,6358.592633,4811.338623
932.449979,8364.327145,9422.974625,9770.718434
932.450308,3997.112087,11261.603821,15100.201217
932.450637,-1036.288319,10648.727422,17468.860231
932.450967,-8068.244768,6358.592633,15840.407159
932.451296,-11251.130318,229.828649,14211.954086
932.451625,-11547.212695,-5362.668486,12287.418637
932.451955,-9770.718434,-10035.851024,9770.718434
932.452284,-7105.977043,-9116.536426,5847.626942
932.452613,-3701.029710,-8350.440928,3627.009116
932.452943,1702.473667,-5669.106685,3552.988522
932.453272,7179.997637,919.314598,1850.514855
932.453601,9992.780217,3370.820191,3108.864956
932.453931,11399.171507,6281.983084,7105.977043
932.454260,8512.368333,11261.603821,12879.583391
932.454589,3627.009116,11031.775171,17246.798449
932.454919,-2146.597232,9499.584175,18727.210333
932.455248,-8438.347739,5362.668486,17912.983796
932.455577,-10732.986159,-919.314598,16136.489536
932.455907,-10807.006753,-8120.612279,12953.603985
932.456236,-9178.553681,-11491.432470,8882.471304
932.456565,-6069.688724,-9806.022374,4441.235652
932.456895,-1850.514855,-9116.536426,2368.659014
932.457224,3923.091493,-5439.278036,3034.844362
932.457553,8142.265362,689.485948,3182.885551
932.457883,9622.677246,5439.278036,4145.153275
932.458212,9844.739029,10265.679673,7031.956449
932.458541,7031.956449,11644.651570,12213.398043
932.458871,2368.659014,10342.289223,17024.736666
932.459200,-4219.173869,8350.440928,18875.251521
932.459529,-9770.718434,4903.011187,16950.716072
932.459859,-12509.480420,-842.705048,14211.954086
932.460188,-12953.603985,-7507.735880,11029.068536
932.460517,-10732.986159,-11951.089769,7328.038826
932.460847,-7031.956449,-11184.994271,4737.318029
932.461176,-2368.659014,-7354.516781,3923.091493
932.461505,3775.050304,-1225.752797,1480.411884
932.461835,7550.100608,3830.477490,888.247130
932.462164,9770.718434,4673.182538,4293.194464
932.462493,9992.780217,9499.584175,9696.697840
932.462823,5181.441594,12717.185267,14656.077652
932.463152,-222.061783,13100.233016,17987.004391
932.463481,-6883.915261,10495.508323,18209.066173
932.463811,-10658.965565,3524.039291,16210.510130
932.464140,-10140.821405,-5745.716235,13619.789333
932.464469,-9696.697840,-10495.508323,9326.594869
932.464799,-7105.977043,-8044.002729,4737.318029
932.465128,-3478.967927,-8350.440928,2516.700203
932.465457,1036.288319,-6281.983084,3775.050304
932.465787,5699.585753,1225.752797,2294.638420
932.466116,8734.430116,5286.058936,2294.638420
932.466445,11177.109724,7201.297681,5329.482782
932.466775,9030.512492,12563.966167,11177.109724
932.467104,3849.070898,13176.842566,16876.695478
932.467434,-2368.659014,9959.241474,18949.272115
932.467763,-8734.430116,7277.907231,17098.757260
932.468092,-11399.171507,0.000000,15840.407159
932.468422,-11029.068536,-7431.126331,14508.036463
932.468751,-11103.089130,-10801.946522,9770.718434
932.469080,-7994.224174,-9806.022374,4441.235652
932.469410,-2886.803174,-8120.612279,1036.288319
932.469739,4441.235652,-5286.058936,1258.350101
932.470068,10362.883188,1302.362347,3256.906145
932.470398,11251.130318,5592.497135,4441.235652
932.470727,9770.718434,11031.775171,6661.853478
932.471056,6513.812290,13483.280765,11843.295072
932.471386,2368.659014,12410.747068,17394.839637
932.471715,-3923.091493,10955.165621,18579.169144
932.472044,-9326.594869,3907.087040,17246.798449
932.472374,-11177.109724,-4826.401637,15396.283594
932.472703,-11621.233289,-8656.879127,12065.356855
932.473032,-10510.924376,-11874.480219,8216.285956
932.473362,-7105.977043,-11797.870669,4219.173869
932.473691,-2220.617826,-7967.393179,2146.597232
932.474020,5921.647536,-4213.525239,2516.700203
932.474350,11991.336260,536.266849,3997.112087
932.474679,12731.542202,7048.078582,4959.379811
932.475008,11399.171507,13559.890315,7772.162391
932.475338,7772.162391,13176.842566,13397.727550
932.475667,3701.029710,12257.527968,17690.922014
932.475996,-2146.597232,9499.584175,16654.633695
932.476326,-7772.162391,995.924147,15988.448347
932.476655,-11177.109724,-5515.887586,14878.139434
932.476984,-13545.768739,-8273.831378,11843.295072
932.477314,-12065.356855,-12257.527968,7698.141797
932.477643,-8438.347739,-11414.822920,3849.070898
932.477972,-3701.029710,-8580.269578,2516.700203
932.478302,3701.029710,-4366.744339,3182.885551
932.478631,7402.059420,3217.601092,2368.659014
932.478960,8882.471304,7737.564530,4071.132681
932.479290,9030.512492,10495.508323,8512.368333
932.479619,4959.379811,11874.480219,15026.180623
932.479948,296.082377,12104.308868,19097.313304
932.480278,-5477.523971,8427.050478,19467.416275
932.480607,-9918.759623,3753.867940,15470.304188
932.480936,-10881.027347,-3370.820191,12065.356855
932.481266,-9474.636058,-13636.499864,10066.800811
932.481595,-7698.141797,-13330.061665,7402.059420
932.481924,-5773.606348,-8044.002729,4441.235652
932.482254,-740.205942,-6281.983084,3256.906145
932.482583,4959.379811,-995.924147,3330.926739
932.482912,8364.327145,5515.887586,2812.782580
932.483242,11399.171507,6665.030833,4737.318029
932.483571,11325.150913,9806.022374,9030.512492
932.483901,6661.853478,14785.643111,14656.077652
932.484230,592.164754,12717.185267,17616.901420
932.484559,-7031.956449,6741.640382,17616.901420
932.484889,-12287.418637,1838.629195,15470.304188
932.485218,-13619.789333,-4903.011187,12879.583391
932.485547,-12435.459826,-11414.822920,10066.800811
932.485877,-9770.718434,-10418.898773,6439.791695
932.486206,-6217.729913,-9959.241474,3701.029710
932.486535,-592.164754,-8273.831378,2960.823768
932.486865,5181.441594,0.000000,1924.535449
932.487194,8364.327145,5745.716235,2368.659014
932.487523,10955.047942,7737.564530,5995.668130
932.487853,8882.471304,13023.623466,11399.171507
932.488182,3997.112087,13559.890315,16432.571912
932.488511,-962.267725,10572.117872,18801.230927
932.488841,-7254.018232,7737.564530,17098.757260
932.489170,-10807.006753,1838.629195,15174.221811
932.489499,-11103.089130,-8120.612279,11917.315666
932.489829,-10066.800811,-12180.918418,9548.656652
932.490158,-7105.977043,-9422.974625,4811.338623
932.490487,-2590.720797,-8963.317327,1998.556043
932.490817,3775.050304,-5439.278036,2664.741391
932.491146,8290.306550,1149.143247,3034.844362
932.491475,11029.068536,5362.668486,4737.318029
932.491805,11029.068536,10418.898773,7105.977043
932.492134,7994.224174,15398.519510,11917.315666
932.492463,3701.029710,13866.328514,16950.716072
932.492793,-1628.453072,9882.631924,17542.880825
932.493122,-7920.203579,4519.963438,16210.510130
932.493451,-10955.047942,-3830.477490,14582.057057
932.493781,-12583.501014,-7967.393179,11621.233289
932.494110,-12805.562797,-10265.679673,8216.285956
932.494439,-8956.491898,-11184.994271,4219.173869
932.494769,-3182.885551,-10035.851024,2368.659014
932.495098,4367.215058,-5515.887586,2960.823768
932.495427,9104.533087,2374.896044,2738.761985
932.495757,9918.759623,6971.469032,4885.359217
932.496086,9622.677246,12180.918418,7994.224174
932.496415,5921.647536,14249.376263,13101.645173
932.496745,2294.638420,12180.918418,17542.880825
932.497074,-3256.906145,9882.631924,18653.189738
932.497403,-8734.430116,4596.572988,16580.613101
932.497733,-11251.130318,-2374.896044,12731.542202
932.498062,-10955.047942,-11568.042020,9400.615463
932.498391,-8364.327145,-13636.499864,7105.977043
932.498721,-5773.606348,-10265.679673,4367.215058
932.499050,-1998.556043,-7431.126331,3034.844362
932.499379,4441.235652,-2528.115143,3775.050304
932.499709,8290.306550,2681.334243,5033.400406
932.500038,9992.780217,6818.249932,6661.853478
932.500368,9548.656652,11797.870669,9696.697840
932.500697,6069.688724,13713.109414,14211.954086
932.501026,1924.535449,12563.966167,16728.654289
932.501356,-4219.173869,7354.516781,16062.468941
932.501685,-9030.512492,689.485948,14285.974681
932.502014,-10807.006753,-5592.497135,12583.501014
932.502344,-11769.274478,-9806.022374,10214.842000
932.502673,-10362.883188,-10648.727422,6883.915261
932.503002,-6587.832884,-10648.727422,4219.173869
932.503332,-1036.288319,-8656.879127,3923.091493
932.503661,5033.400406,-2298.286494,3330.926739
932.503990,7994.224174,4903.011187,3997.112087
932.504320,9474.636058,8810.098227,6365.771101
932.504649,8438.347739,11721.261119,10584.944971
932.504978,4219.173869,12104.308868,15322.262999
932.505308,-296.082377,10955.165621,18135.045579
932.505637,-6069.688724,7507.735880,17542.880825
932.505966,-9844.739029,2374.896044,14434.015869
932.506296,-10881.027347,-6511.811733,10807.006753
932.506625,-9548.656652,-13100.233016,7994.224174
932.506954,-6735.874072,-12334.137518,5477.523971
932.507284,-4145.153275,-9269.755526,3478.967927
932.507613,888.247130,-5745.716235,3701.029710
932.507942,5329.482782,459.657299,4515.256246
932.508272,7920.203579,5132.839837,5033.400406
932.508601,9770.718434,8580.269578,7254.018232
932.508930,8660.409521,11797.870669,11547.212695
932.509260,4293.194464,13866.328514,16136.489536
932.509589,-1184.329507,10265.679673,17394.839637
932.509918,-7476.080014,4903.011187,16062.468941
932.510248,-11843.295072,-612.876398,13915.871710
932.510577,-11991.336260,-8120.612279,11769.274478
932.510906,-11547.212695,-10648.727422,9326.594869
932.511236,-9400.615463,-10342.289223,5773.606348
932.511565,-4885.359217,-9652.803275,3701.029710
932.511894,1776.494261,-5592.497135,4071.132681
932.512224,6957.935855,995.924147,3108.864956
932.512553,9548.656652,6052.154434,4737.318029
932.512882,9622.677246,9806.022374,7846.182985
932.513212,6513.812290,12870.404366,12657.521608
932.513541,1850.514855,12640.575717,16358.551318
932.513870,-3034.844362,9499.584175,17690.922014
932.514200,-7994.224174,5209.449386,16136.489536
932.514529,-10584.944971,-2068.457845,13915.871710
932.514858,-10584.944971,-9346.365076,10584.944971
932.515188,-9252.574275,-11644.651570,7254.018232
932.515517,-6291.750507,-10112.460574,3701.029710
932.515846,-1554.432478,-7967.393179,3182.885551
932.516176,3923.091493,-2451.505594,3923.091493
932.516505,8142.265362,3140.991542,4441.235652
932.516835,9918.759623,7584.345430,5921.647536
932.517164,9252.574275,11797.870669,8586.388927
932.517493,6513.812290,13559.890315,12879.583391
932.517823,2220.617826,12410.747068,16062.468941
932.518152,-3330.926739,7814.174080,16284.530724
932.518481,-8586.388927,1378.971896,15840.407159
932.518811,-11473.192101,-5132.839837,13915.871710
932.519140,-12287.418637,-7507.735880,10066.800811
932.519469,-10140.821405,-10035.851024,6069.688724
932.519799,-5255.462188,-9346.365076,3330.926739
932.520128,888.247130,-7354.516781,1702.473667
932.520457,7179.997637,-3294.210641,2664.741391
932.520787,10214.842000,3524.039291,3404.947333
932.521116,9474.636058,10725.336972,6809.894666
932.521445,7402.059420,14402.595362,11695.253884
932.521775,2220.617826,14096.157163,15988.448347
932.522104,-3182.885551,11874.480219,17246.798449
932.522433,-7254.018232,6052.154434,16580.613101
932.522763,-9326.594869,-2374.896044,15766.386565
932.523092,-10955.047942,-6511.811733,12731.542202
932.523421,-11103.089130,-11031.775171,9030.512492
932.523751,-8290.306550,-13176.842566,5403.503377
932.524080,-3478.967927,-9652.803275,3034.844362
932.524409,3404.947333,-4903.011187,3256.906145
932.524739,9548.656652,-459.657299,4293.194464
932.525068,11769.274478,5592.497135,6143.709319
932.525397,11547.212695,12410.747068,7772.162391
932.525727,9178.553681,13942.938064,11917.315666
932.526056,5255.462188,12717.185267,16284.530724
932.526385,-518.144159,10572.117872,17320.819043
932.526715,-6809.894666,5056.230287,16136.489536
932.527044,-10436.903782,-2451.505594,14285.974681
932.527373,-12139.377449,-8503.660028,11843.295072
932.527703,-11843.295072,-11261.603821,8290.306550
932.528032,-10066.800811,-12180.918418,4663.297435
932.528361,-5551.544565,-9959.241474,3552.988522
932.528691,814.226536,-4749.792088,3997.112087
932.529020,5773.606348,2068.457845,2590.720797
932.529349,7920.203579,6128.763984,3701.029710
932.529679,8882.471304,8963.317327,6439.791695
932.530008,6957.935855,12180.918418,12879.583391
932.530337,2294.638420,12180.918418,16876.695478
932.530667,-3330.926739,9269.755526,17764.942608
932.530996,-9104.533087,5669.106685,15840.407159
932.531325,-11325.150913,-1838.629195,12805.562797
932.531655,-9844.739029,-10572.117872,10510.924376
932.531984,-8142.265362,-12640.575717,8068.244768
932.532313,-5773.606348,-9576.193725,5551.544565
932.532643,-2368.659014,-6741.640382,4071.132681
932.532972,3404.947333,-2451.505594,3552.988522
932.533302,7994.224174,2604.724693,3627.009116
932.533631,10658.965565,5515.887586,5255.462188
932.533960,10881.027347,9346.365076,8512.368333
932.534290,7105.977043,12640.575717,13767.830521
932.534619,2294.638420,12334.137518,17024.736666
932.534949,-4145.153275,8656.879127,17024.736666
932.535278,-10066.800811,2451.505594,15322.262999
932.535607,-12065.356855,-4826.401637,13767.830521
932.535937,-12213.398043,-9269.755526,11251.130318
932.536266,-10807.006753,-10648.727422,7698.141797
932.536596,-7254.018232,-11108.384721,4737.318029
932.536925,-2072.576638,-7660.954980,3627.009116
932.537254,3775.050304,-2068.457845,3108.864956
932.537584,7994.224174,3830.477490,2590.720797
932.537913,10214.842000,7354.516781,4811.338623
932.538243,9696.697840,11031.775171,8660.409521
932.538572,4811.338623,11874.480219,14211.954086
932.538902,74.020594,10725.336972,17912.983796
932.539231,-5921.647536,9039.926876,17616.901420
932.539560,-9770.718434,3294.210641,15544.324782
932.539890,-11029.068536,-5592.497135,13471.748144
932.540219,-10955.047942,-11108.384721,10214.842000
932.540549,-8290.306550,-10572.117872,6661.853478
932.540878,-4145.153275,-8350.440928,3849.070898
932.541207,1406.391290,-5286.058936,2960.823768
932.541537,6883.915261,0.000000,3330.926739
932.541866,10066.800811,4673.182538,3627.009116
932.542196,11473.192101,8120.612279,5625.565159
932.542525,9696.697840,13330.061665,9844.739029
932.542854,4737.318029,14249.376263,14656.077652
932.543184,-962.267725,11338.213370,17024.736666
932.543513,-6883.915261,6281.983084,16506.592507
932.543843,-10584.944971,-689.485948,15100.201217
932.544172,-11695.253884,-6128.763984,12879.583391
932.544501,-12287.418637,-9422.974625,9474.636058
932.544831,-9770.718434,-10189.070123,5773.606348
932.545160,-5477.523971,-9346.365076,4071.132681
932.545490,1406.391290,-5745.716235,3182.885551
932.545819,7624.121203,842.705048,3256.906145
932.546148,9992.780217,5439.278036,3478.967927
932.546478,10140.821405,9729.412825,5773.606348
932.546807,7920.203579,11951.089769,11251.130318
932.547137,3034.844362,11874.480219,16358.551318
932.547466,-2590.720797,10878.556072,17394.839637
932.547796,-7772.162391,6894.859482,16950.716072
932.548125,-10140.821405,-919.314598,15026.180623
932.548454,-10362.883188,-8120.612279,12065.356855
932.548784,-9178.553681,-12027.699319,8660.409521
932.549113,-5921.647536,-10342.289223,5181.441594
932.549443,-2220.617826,-6971.469032,3627.009116
932.549772,3775.050304,-2681.334243,3923.091493
932.550101,8586.388927,1225.752797,4293.194464
932.550431,10362.883188,4519.963438,5847.626942
932.550760,10362.883188,10112.460574,7994.224174
932.551090,6439.791695,14019.547613,11843.295072
932.551419,2072.576638,12334.137518,14952.160028
932.551748,-2886.803174,7967.393179,16136.489536
932.552078,-7624.121203,1838.629195,15470.304188
932.552407,-10214.842000,-3983.696590,14211.954086
932.552737,-11991.336260,-7967.393179,11103.089130
932.553066,-11399.171507,-9269.755526,8068.244768
932.553395,-7624.121203,-9729.412825,5255.462188
932.553725,-2146.597232,-8273.831378,3627.009116
932.554054,5107.421000,-3830.477490,3108.864956
932.554384,9474.636058,1225.752797,4071.132681
932.554713,9770.718434,6971.469032,5921.647536
932.555043,8068.244768,11568.042020,8364.327145
932.555372,4515.256246,11491.432470,12953.603985
932.555701,814.226536,10265.679673,16580.613101
932.556031,-4367.215058,8044.002729,17024.736666
932.556360,-8068.244768,2987.772442,15692.365970
932.556690,-10510.924376,-3677.258390,12287.418637
932.557019,-10362.883188,-9346.365076,9326.594869
932.557348,-8068.244768,-11491.432470,6735.874072
932.557678,-4811.338623,-9499.584175,5551.544565
932.558007,-296.082377,-4903.011187,4737.318029
932.558337,4367.215058,-612.876398,4219.173869
932.558666,7846.182985,2604.724693,4737.318029
932.558995,9326.594869,6511.811733,6587.832884
932.559325,8068.244768,10342.289223,9918.759623
932.559654,4367.215058,12104.308868,13989.892304
932.559984,-666.185348,11184.994271,16358.551318
932.560313,-5921.647536,5975.544884,16358.551318
932.560642,-9696.697840,-1685.410096,16136.489536
932.560972,-11769.274478,-5822.325785,14137.933492
932.561301,-12361.439231,-7660.954980,9326.594869
932.561631,-8734.430116,-8886.707777,5403.503377
932.561960,-3404.947333,-9422.974625,3849.070898
932.562290,2368.659014,-6205.373534,3108.864956
932.562619,7105.977043,-842.705048,2516.700203
932.562948,9326.594869,5132.839837,2664.741391
932.563278,9252.574275,10265.679673,6069.688724
932.563607,7031.956449,12334.137518,11251.130318
932.563937,2072.576638,11031.775171,16136.489536
932.564266,-3034.844362,8886.707777,18357.107362
932.564595,-8290.306550,5975.544884,16728.654289
932.564925,-10732.986159,766.095498,14656.077652
932.565254,-11621.233289,-7354.516781,12213.398043
932.565584,-10436.903782,-12563.966167,9104.533087
932.565913,-7254.018232,-11261.603821,5551.544565
932.566242,-2294.638420,-7124.688131,3775.050304
932.566572,3997.112087,-3217.601092,3256.906145
932.566901,8512.368333,1225.752797,3923.091493
932.567231,10584.944971,4213.525239,5255.462188
932.567560,11177.109724,8810.098227,7994.224174
932.567889,8216.285956,13866.328514,12731.542202
932.568219,3478.967927,14632.424012,15248.242405
932.568548,-1702.473667,8886.707777,15988.448347
932.568878,-6883.915261,842.705048,17098.757260
932.569207,-9622.677246,-3907.087040,16728.654289
932.569536,-11843.295072,-5745.716235,12583.501014
932.569866,-11029.068536,-7814.174080,7772.162391
932.570195,-7031.956449,-8197.221829,3404.947333
932.570525,-814.226536,-8120.612279,1776.494261
932.570854,6365.771101,-5132.839837,1776.494261
932.571184,9474.636058,2451.505594,1702.473667
932.571513,8364.327145,9193.145976,4071.132681
932.571842,6661.853478,12793.794817,8956.491898
932.572172,2516.700203,12027.699319,15692.365970
932.572501,-2220.617826,10955.165621,17838.963202
932.572831,-6365.771101,8197.221829,15914.427753
932.573160,-8438.347739,76.609550,15026.180623
932.573489,-9918.759623,-5439.278036,13915.871710
932.573819,-10584.944971,-10265.679673,11473.192101
932.574148,-8956.491898,-11568.042020,7031.956449
932.574478,-5033.400406,-7048.078582,3701.029710
932.574807,1332.370696,-3524.039291,2738.761985
932.575136,9104.533087,-766.095498,3182.885551
932.575466,12435.459826,1685.410096,4145.153275
932.575795,12287.418637,7124.688131,6217.729913
932.576125,9918.759623,14325.985813,10066.800811
932.576454,4811.338623,15168.690860,15322.262999
932.576783,-444.123565,12640.575717,17690.922014
932.577113,-5995.668130,5975.544884,16728.654289
932.577442,-9622.677246,-1532.190996,15026.180623
932.577772,-11547.212695,-5745.716235,12213.398043
932.578101,-12731.542202,-9422.974625,9548.656652
932.578431,-10732.986159,-10265.679673,7105.977043
932.578760,-7402.059420,-10035.851024,4589.276840
932.579089,-2072.576638,-7277.907231,3552.988522
932.579419,4515.256246,-612.876398,2664.741391
932.579748,8290.306550,4903.011187,3627.009116
932.580078,9474.636058,8503.660028,6291.750507
932.580407,7698.141797,10725.336972,10584.944971
932.580736,2812.782580,11644.651570,14804.118840
932.581066,-1184.329507,10495.508323,17320.819043
932.581395,-6217.729913,6818.249932,17172.777854
932.581725,-9252.574275,1532.190996,14952.160028
932.582054,-9622.677246,-6205.373534,11547.212695
932.582383,-8068.244768,-12793.794817,8364.327145
932.582713,-5255.462188,-11414.822920,5847.626942
932.583042,-2516.700203,-7354.516781,4515.256246
932.583372,2442.679609,-3600.648841,3923.091493
932.583701,6883.915261,383.047749,4145.153275
932.584030,9770.718434,3370.820191,5921.647536
932.584360,10362.883188,8733.488677,7920.203579
932.584689,7402.059420,13176.842566,11843.295072
932.585019,2886.803174,13559.890315,14582.057057
932.585348,-1702.473667,9116.536426,15840.407159
932.585678,-5995.668130,1838.629195,16358.551318
932.586007,-9326.594869,-3600.648841,14211.954086
932.586336,-12583.501014,-7201.297681,10658.965565
932.586666,-12657.521608,-9346.365076,7254.018232
932.586995,-8808.450710,-10265.679673,5329.482782
932.587325,-2960.823768,-9499.584175,3997.112087
932.587654,3330.926739,-5898.935335,3330.926739
932.587983,7402.059420,612.876398,2812.782580
932.588313,8586.388927,7277.907231,4589.276840
932.588642,8290.306550,11108.384721,7994.224174
932.588972,5773.606348,11568.042020,13693.809927
932.589301,1406.391290,11491.432470,17320.819043
932.589630,-3478.967927,9193.145976,18431.127956
932.589960,-8142.265362,5286.058936,16580.613101
932.590289,-10214.842000,-1685.410096,13471.748144
932.590619,-10140.821405,-10342.289223,9622.677246
932.590948,-8364.327145,-13713.109414,6735.874072
932.591277,-5181.441594,-11031.775171,5551.544565
932.591607,-1554.432478,-5975.544884,4737.318029
932.591936,3627.009116,-1608.800546,4219.173869
932.592266,7550.100608,1991.848295,4441.235652
932.592595,9770.718434,5592.497135,6217.729913
932.592924,10658.965565,11031.775171,9770.718434
932.593254,6513.812290,14325.985813,13989.892304
932.593583,1332.370696,13866.328514,16432.571912
932.593913,-4737.318029,8580.269578,15988.448347
932.594242,-9178.553681,1302.362347,14582.057057
932.594572,-10362.883188,-5439.278036,12805.562797
932.594901,-11399.171507,-9039.926876,9918.759623
932.595230,-10214.842000,-9729.412825,6957.935855
932.595560,-7179.997637,-9652.803275,4663.297435
932.595889,-2146.597232,-7048.078582,3404.947333
932.596219,4515.256246,-2221.676944,2146.597232
932.596548,9104.533087,3830.477490,2886.803174
932.596877,10214.842000,8427.050478,6365.771101
932.597207,8364.327145,12563.966167,9770.718434
932.597536,3552.988522,13330.061665,14730.098246
932.597866,-518.144159,11644.651570,16876.695478
932.598195,-4885.359217,8886.707777,16506.592507
932.598524,-8364.327145,2298.286494,14582.057057
932.598854,-9474.636058,-5669.106685,11547.212695
932.599183,-9104.533087,-12104.308868,7772.162391
932.599513,-7105.977043,-12793.794817,5329.482782
932.599842,-4071.132681,-7660.954980,4959.379811
932.600171,296.082377,-3447.429741,4219.173869
932.600501,5773.606348,612.876398,4663.297435
932.600830,8882.471304,3370.820191,5773.606348
932.601160,10436.903782,9039.926876,7772.162391
932.601489,8660.409521,12947.013916,11177.109724
932.601819,4441.235652,13559.890315,14952.160028
932.602148,-666.185348,10955.165621,17172.777854
932.602477,-6291.750507,5745.716235,16210.510130
932.602807,-9474.636058,-1378.971896,14434.015869
932.603136,-11251.130318,-7124.688131,11325.150913
932.603466,-11547.212695,-10418.898773,8216.285956
932.603795,-8216.285956,-11414.822920,5699.585753
932.604124,-4293.194464,-9959.241474,4367.215058
932.604454,1554.432478,-5362.668486,3775.050304
932.604783,6809.894666,0.000000,3849.070898
932.605113,9030.512492,5362.668486,4737.318029
932.605442,9326.594869,10725.336972,7846.182985
932.605771,7105.977043,12410.747068,11917.315666
932.606101,2442.679609,11644.651570,16136.489536
932.606430,-2368.659014,10189.070123,17690.922014
932.606760,-6661.853478,6358.592633,15840.407159
932.607089,-9252.574275,-766.095498,12435.459826
932.607418,-9844.739029,-9116.536426,8882.471304
932.607748,-8882.471304,-13559.890315,6883.915261
932.608077,-6735.874072,-12104.308868,5921.647536
932.608407,-3849.070898,-6665.030833,5329.482782
932.608736,1110.308913,-1915.238745,5033.400406
932.609066,5625.565159,1072.533697,5551.544565
932.609395,8364.327145,3983.696590,7179.997637
932.609724,9474.636058,9499.584175,9696.697840
932.610054,7105.977043,12640.575717,11991.336260
932.610383,3775.050304,10878.556072,15026.180623
932.610713,-1258.350101,6741.640382,16876.695478
932.611042,-6291.750507,2298.286494,16580.613101
932.611371,-9918.759623,-2451.505594,12805.562797
932.611701,-10807.006753,-7124.688131,7772.162391
932.612030,-8216.285956,-8963.317327,4515.256246
932.612360,-4515.256246,-9959.241474,3775.050304
932.612689,-222.061783,-8503.660028,3701.029710
932.613018,2812.782580,-2528.115143,4367.215058
932.613348,4367.215058,6358.592633,4071.132681
932.613677,5107.421000,9882.631924,6661.853478
932.614007,5921.647536,10342.289223,10658.965565
932.614336,2960.823768,10035.851024,14952.160028
932.614665,-962.267725,8503.660028,17542.880825
932.614995,-5699.585753,7124.688131,16950.716072
932.615324,-9696.697840,3677.258390,14211.954086
932.615654,-11177.109724,-5592.497135,11177.109724
932.615983,-10288.862594,-14402.595362,9104.533087
932.616312,-7920.203579,-12487.356617,7105.977043
932.616642,-4885.359217,-6665.030833,5033.400406
932.616971,592.164754,-4366.744339,3923.091493
932.617301,5995.668130,-536.266849,3775.050304
932.617630,9548.656652,2911.162892,4219.173869
932.617960,11917.315666,5822.325785,7476.080014
932.618289,10658.965565,12180.918418,11843.295072
932.618618,4959.379811,16700.881856,14804.118840
932.618948,888.247130,12334.137518,16062.468941
932.619277,-3923.091493,3064.381992,16654.633695
932.619607,-7179.997637,-1991.848295,15914.427753
932.619936,-9992.780217,-4826.401637,12583.501014
932.620265,-11769.274478,-6894.859482,8216.285956
932.620595,-10214.842000,-7354.516781,4885.359217
932.620924,-5995.668130,-9576.193725,2812.782580
932.621254,222.061783,-7431.126331,2664.741391
932.621583,4959.379811,-1072.533697,3034.844362
932.621912,7031.956449,6588.421283,4219.173869
932.622242,6735.874072,10495.508323,7402.059420
932.622571,5181.441594,10495.508323,11695.253884
932.622901,2072.576638,10342.289223,14656.077652
932.623230,-1554.432478,9039.926876,14730.098246
932.623559,-4737.318029,4903.011187,14582.057057
932.623889,-7105.977043,-919.314598,14952.160028
932.624218,-9178.553681,-7124.688131,13175.665768
932.624548,-9252.574275,-11261.603821,9622.677246
932.624877,-6661.853478,-8810.098227,6439.791695
932.625207,-2294.638420,-3600.648841,4071.132681
932.625536,4441.235652,-1455.581446,3775.050304
932.625865,10288.862594,-995.924147,4071.132681
932.626195,11547.212695,3140.991542,5107.421000
932.626524,10510.924376,10035.851024,8290.306550
932.626854,7328.038826,14479.204912,13175.665768
932.627183,1776.494261,14172.766713,16136.489536
932.627512,-3552.988522,9499.584175,15988.448347
932.627842,-7254.018232,689.485948,14804.118840
932.628171,-9178.553681,-4903.011187,13471.748144
932.628501,-11473.192101,-6588.421283,10436.903782
932.628830,-12287.418637,-8656.879127,7550.100608
932.629159,-10066.800811,-9193.145976,5921.647536
932.629489,-5255.462188,-7431.126331,3478.967927
932.629818,1554.432478,-4290.134789,3552.988522
932.630148,6883.915261,2145.067394,2738.761985
932.630477,8438.347739,8810.098227,4737.318029
932.630806,8290.306550,10265.679673,7846.182985
932.631136,5477.523971,9729.412825,13693.809927
932.631465,592.164754,10648.727422,16802.674883
932.631795,-3923.091493,9499.584175,17246.798449
932.632124,-8142.265362,4213.525239,16136.489536
932.632454,-10436.903782,-2145.067394,13619.789333
932.632783,-10066.800811,-9806.022374,10436.903782
932.633112,-7254.018232,-13789.718964,6883.915261
932.633442,-3997.112087,-9422.974625,5403.503377
932.633771,-518.144159,-3983.696590,3849.070898
932.634101,4737.318029,-1225.752797,4219.173869
932.634430,8734.430116,1378.971896,4589.276840
932.634759,10510.924376,5056.230287,6069.688724
932.635089,9844.739029,10801.946522,9104.533087
932.635418,5921.647536,13253.452115,13471.748144
932.635748,1702.473667,11797.870669,15766.386565
932.636077,-3182.885551,4213.525239,17468.860231
932.636407,-8364.327145,-2221.676944,16432.571912
932.636737,-12213.398043,-3524.039291,12879.583391
932.637066,-13101.645173,-7277.907231,9696.697840
932.637396,-10510.924376,-8886.707777,7402.059420
932.637725,-6365.771101,-8656.879127,4959.379811
932.638055,0.000000,-7660.954980,2220.617826
932.638384,5921.647536,-4290.134789,2220.617826
932.638714,7698.141797,4519.963438,3108.864956
932.639043,7254.018232,11644.651570,6513.812290
932.639373,5995.668130,11261.603821,9696.697840
932.639703,2812.782580,9806.022374,14434.015869
932.640032,-814.226536,9652.803275,16432.571912
932.640362,-5403.503377,6435.202183,16506.592507
932.640691,-8734.430116,919.314598,14582.057057
932.641021,-11103.089130,-5822.325785,11843.295072
932.641350,-10732.986159,-12104.308868,9474.636058
932.641680,-7846.182985,-11338.213370,7328.038826
932.642009,-3849.070898,-5975.544884,5699.585753
932.642339,1110.308913,-1915.238745,4367.215058
932.642669,6735.874072,306.438199,3923.091493
932.642998,9844.739029,2298.286494,4219.173869
932.643328,11325.150913,6971.469032,6735.874072
932.643657,8956.491898,11568.042020,10658.965565
932.643987,2812.782580,13942.938064,14582.057057
932.644316,-2812.782580,10878.556072,16950.716072
932.644646,-7772.162391,4366.744339,16358.551318
932.644975,-10510.924376,-2681.334243,14582.057057
932.645305,-11251.130318,-7354.516781,11473.192101
932.645634,-11843.295072,-8120.612279,8808.450710
932.645964,-9400.615463,-8580.269578,6513.812290
932.646294,-5181.441594,-7507.735880,3923.091493
932.646623,1406.391290,-5056.230287,2886.803174
932.646953,7550.100608,0.000000,3256.906145
932.647282,9622.677246,6894.859482,4219.173869
932.647612,8734.430116,11261.603821,7254.018232
932.647941,6143.709319,12027.699319,11547.212695
932.648271,1924.535449,10955.165621,15100.201217
932.648600,-2294.638420,9346.365076,16580.613101
932.648930,-6291.750507,4826.401637,15692.365970
932.649260,-9178.553681,-2221.676944,14063.912898
932.649589,-10584.944971,-7048.078582,11547.212695
932.649919,-9178.553681,-11184.994271,8586.388927
932.650248,-5181.441594,-9422.974625,5995.668130
932.650578,-1036.288319,-4213.525239,3330.926739
932.650907,5255.462188,-1225.752797,2442.679609
932.651237,9844.739029,536.266849,3701.029710
932.651566,10955.047942,5056.230287,5995.668130
932.651896,9918.759623,11414.822920,8438.347739
932.652226,5995.668130,13253.452115,12213.398043
932.652555,1332.370696,11874.480219,15026.180623
932.652885,-3849.070898,6588.421283,17394.839637
932.653214,-8364.327145,-1302.362347,17542.880825
932.653544,-12065.356855,-3907.087040,14211.954086
932.653873,-13397.727550,-6511.811733,10140.821405
932.654203,-10214.842000,-9499.584175,6735.874072
932.654532,-5551.544565,-8886.707777,4071.132681
932.654862,740.205942,-8350.440928,1924.535449
932.655192,6883.915261,-3983.696590,2738.761985
932.655521,9030.512492,5592.497135,2590.720797
932.655851,7846.182985,11644.651570,5403.503377
932.656180,6957.935855,11261.603821,9918.759623
932.656510,2368.659014,10572.117872,15322.262999
932.656839,-2368.659014,10035.851024,17838.963202
932.657169,-6439.791695,6281.983084,17394.839637
932.657498,-9844.739029,842.705048,15766.386565
932.657828,-11621.233289,-5822.325785,13323.706956
932.658158,-11547.212695,-13330.061665,10881.027347
932.658487,-8882.471304,-11797.870669,7402.059420
932.658817,-4811.338623,-5132.839837,3997.112087
932.659146,2516.700203,-3294.210641,3108.864956
932.659476,8956.491898,-459.657299,2738.761985
932.659805,11251.130318,2451.505594,3552.988522
932.660135,11843.295072,6281.983084,6365.771101
932.660464,9104.533087,12717.185267,10658.965565
932.660794,3182.885551,15934.786358,14211.954086
932.661123,-1628.453072,10035.851024,16580.613101
932.661453,-5995.668130,306.438199,17987.004391
932.661783,-9992.780217,-2757.943793,15840.407159
932.662112,-11843.295072,-5132.839837,11473.192101
932.662442,-11473.192101,-8963.317327,8290.306550
932.662771,-8660.409521,-8427.050478,5033.400406
932.663101,-3849.070898,-7354.516781,2886.803174
932.663430,3108.864956,-7431.126331,1850.514855
932.663760,7624.121203,-536.266849,3552.988522
932.664089,7550.100608,8810.098227,5699.585753
932.664419,6439.791695,12334.137518,8216.285956
932.664749,4367.215058,10572.117872,11843.295072
932.665078,1480.411884,9652.803275,14508.036463
932.665408,-1850.514855,7354.516781,15248.242405
932.665737,-6069.688724,1302.362347,15396.283594
932.666067,-10288.862594,-3600.648841,15544.324782
932.666396,-12731.542202,-7277.907231,13323.706956
932.666726,-11547.212695,-10418.898773,9548.656652
932.667055,-6661.853478,-8963.317327,5995.668130
932.667385,-296.082377,-4749.792088,3478.967927
932.667715,6661.853478,-3140.991542,2368.659014
932.668044,11103.089130,-459.657299,3182.885551
932.668374,11991.336260,5515.887586,5995.668130
932.668703,10214.842000,12104.308868,9030.512492
932.669033,5921.647536,14709.033562,13249.686362
932.669362,740.205942,12180.918418,16728.654289
932.669692,-4219.173869,6588.421283,18875.251521
932.670021,-8660.409521,-842.705048,16950.716072
932.670351,-12287.418637,-3140.991542,12953.603985
932.670681,-13767.830521,-6205.373534,8364.327145
932.671010,-11547.212695,-9959.241474,5699.585753
932.671340,-7254.018232,-10725.336972,4071.132681
932.671669,-1776.494261,-9422.974625,3034.844362
932.671999,4219.173869,-3064.381992,3182.885551
932.672328,6957.935855,5822.325785,3034.844362
932.672658,7846.182985,9652.803275,5699.585753
932.672987,8660.409521,9576.193725,9918.759623
932.673317,4959.379811,11261.603821,15322.262999
932.673647,666.185348,12027.699319,16580.613101
932.673976,-4219.173869,8580.269578,16580.613101
932.674306,-8364.327145,1838.629195,16284.530724
932.674635,-10362.883188,-4060.306139,14582.057057
932.674965,-10362.883188,-10648.727422,11029.068536
932.675294,-7179.997637,-10495.508323,7031.956449
932.675624,-3775.050304,-5132.839837,3627.009116
932.675953,2590.720797,-3830.477490,1554.432478
932.676283,9252.574275,-2298.286494,1776.494261
932.676613,11547.212695,1532.190996,3034.844362
932.676942,11177.109724,8044.002729,6661.853478
932.677272,8142.265362,14632.424012,10955.047942
932.677601,2886.803174,15858.176809,14804.118840
932.677931,-1702.473667,10495.508323,16950.716072
932.678260,-6365.771101,1608.800546,17468.860231
932.678590,-9622.677246,-2298.286494,15248.242405
932.678919,-12139.377449,-4213.525239,12065.356855
932.679249,-12583.501014,-7890.783629,9474.636058
932.679578,-9844.739029,-8656.879127,5477.523971
932.679908,-4515.256246,-8503.660028,1850.514855
932.680238,4219.173869,-8350.440928,888.247130
932.680567,9844.739029,-1532.190996,4293.194464
932.680897,9548.656652,9576.193725,5625.565159
932.681226,7105.977043,13330.061665,7328.038826
932.681556,5107.421000,11491.432470,11695.253884
932.681885,1850.514855,11874.480219,16062.468941
932.682215,-1998.556043,10495.508323,17764.942608
932.682544,-6143.709319,2451.505594,16654.633695
932.682874,-9918.759623,-2681.334243,14359.995275
932.683204,-11991.336260,-8044.002729,11251.130318
932.683533,-9992.780217,-13253.452115,9178.553681
932.683863,-5847.626942,-11031.775171,6883.915261
932.684192,-1406.391290,-4673.182538,3330.926739
932.684522,4589.276840,-2604.724693,2072.576638
932.684851,10584.944971,-1149.143247,2960.823768
932.685181,12509.480420,4596.572988,6143.709319
932.685510,10955.047942,11491.432470,9622.677246
932.685840,5551.544565,15015.471761,13619.789333
932.686170,444.123565,14249.376263,16506.592507
932.686499,-3330.926739,6818.249932,18357.107362
932.686829,-7179.997637,-1762.019645,16580.613101
932.687158,-10658.965565,-4979.620737,13175.665768
932.687488,-12731.542202,-7737.564530,8586.388927
932.687817,-11029.068536,-10035.851024,6217.729913
932.688147,-7476.080014,-9576.193725,3552.988522
932.688476,-1406.391290,-8733.488677,1480.411884
932.688806,5181.441594,-6435.202183,3404.947333
932.689136,7994.224174,3370.820191,4441.235652
932.689465,7254.018232,12027.699319,6439.791695
932.689795,7105.977043,11491.432470,9252.574275
932.690124,4219.173869,10878.556072,14359.995275
932.690454,444.123565,11108.384721,16728.654289
932.690783,-3701.029710,6971.469032,16432.571912
932.691113,-7328.038826,995.924147,14952.160028
932.691442,-10807.006753,-4519.963438,13323.706956
932.691772,-11769.274478,-11108.384721,10955.047942
932.692102,-9622.677246,-13100.233016,8068.244768
932.692431,-5625.565159,-7048.078582,4885.359217
932.692761,962.267725,-3677.258390,2294.638420
932.693090,8068.244768,-3753.867940,1998.556043
932.693420,10584.944971,919.314598,3997.112087
932.693749,10288.862594,7431.126331,7772.162391
932.694079,8216.285956,13406.671215,11843.295072
932.694408,3108.864956,16164.615008,15174.221811
932.694738,-1554.432478,12334.137518,16950.716072
932.695067,-5773.606348,3370.820191,17838.963202
932.695397,-9326.594869,-3983.696590,15396.283594
932.695727,-11621.233289,-5515.887586,11325.150913
932.696056,-11843.295072,-8273.831378,7476.080014
932.696386,-9104.533087,-9499.584175,4811.338623
932.696715,-4737.318029,-9039.926876,3108.864956
932.697045,1776.494261,-8120.612279,3034.844362
932.697374,6883.915261,-842.705048,4737.318029
932.697704,7698.141797,9039.926876,5403.503377
932.698033,7179.997637,13100.233016,7105.977043
932.698363,6291.750507,12410.747068,12287.418637
932.698693,2664.741391,11568.042020,16062.468941
932.699022,-1554.432478,10035.851024,16358.551318
932.699352,-5847.626942,4903.011187,14656.077652
932.699681,-9252.574275,-1149.143247,12805.562797
932.700011,-11325.150913,-7737.564530,11251.130318
932.700340,-10510.924376,-13789.718964,9400.615463
932.700670,-7328.038826,-10725.336972,6809.894666
932.700999,-3256.906145,-4290.134789,3478.967927
932.701329,3182.885551,-2451.505594,2294.638420
932.701659,9474.636058,-919.314598,2960.823768
932.701988,11621.233289,3830.477490,5847.626942
932.702318,11103.089130,10495.508323,9178.553681
932.702647,7105.977043,15628.348159,12953.603985
932.702977,1850.514855,15704.957709,16432.571912
932.703306,-2294.638420,8733.488677,18505.148550
932.703636,-6291.750507,229.828649,17246.798449
932.703965,-9400.615463,-3983.696590,13323.706956
932.704295,-10510.924376,-7354.516781,8734.430116
932.704625,-9400.615463,-9806.022374,5477.523971
932.704954,-6513.812290,-9346.365076,2664.741391
932.705284,-1554.432478,-8886.707777,1110.308913
932.705613,5329.482782,-5745.716235,3034.844362
932.705943,7846.182985,3677.258390,5477.523971
932.706272,6661.853478,11874.480219,7920.203579
932.706602,5699.585753,13330.061665,9844.739029
932.706931,3552.988522,12334.137518,14582.057057
932.707261,592.164754,11414.822920,16358.551318
932.707591,-2812.782580,6894.859482,15396.283594
932.707920,-6661.853478,-536.266849,14804.118840
932.708250,-10436.903782,-5286.058936,14359.995275
932.708579,-12583.501014,-9882.631924,11399.171507
932.708909,-11103.089130,-12027.699319,7402.059420
932.709238,-5921.647536,-7967.393179,4589.276840
932.709568,1406.391290,-4060.306139,1554.432478
932.709897,8882.471304,-3370.820191,1850.514855
932.710227,12953.603985,-383.047749,3775.050304
932.710557,11843.295072,8120.612279,7772.162391
932.710886,8586.388927,15321.909960,11769.274478
932.711216,3478.967927,16624.272307,15840.407159
932.711545,-592.164754,13023.623466,18135.045579
932.711875,-4293.194464,4290.134789,18653.189738
932.712204,-7920.203579,-3753.867940,15544.324782
932.712534,-10584.944971,-6128.763984,10584.944971
932.712863,-11325.150913,-9116.536426,6587.832884
932.713193,-9696.697840,-11108.384721,4219.173869
932.713522,-5773.606348,-9882.631924,1998.556043
932.713852,444.123565,-8656.879127,1702.473667
932.714182,5773.606348,-2451.505594,4885.359217
932.714511,6883.915261,7048.078582,7624.121203
932.714841,5921.647536,13713.109414,9696.697840
932.715170,5255.462188,13253.452115,12583.501014
932.715500,2886.803174,12027.699319,14434.015869
932.715829,-444.123565,9499.584175,14063.912898
932.716159,-3256.906145,2145.067394,14211.954086
932.716488,-7105.977043,-3830.477490,14285.974681
932.716818,-11473.192101,-6665.030833,12731.542202
932.717148,-12435.459826,-10495.508323,9992.780217
932.717477,-9400.615463,-10878.556072,6957.935855
932.717807,-3478.967927,-6128.763984,3627.009116
932.718136,3849.070898,-4443.353888,1776.494261
932.718466,10436.903782,-2451.505594,2072.576638
932.718795,11843.295072,3983.696590,5255.462188
932.719125,10362.883188,11261.603821,9844.739029
932.719454,5699.585753,14862.252661,13915.871710
932.719784,0.000000,14709.033562,17394.839637
932.720114,-4737.318029,9729.412825,18727.210333
932.720443,-7846.182985,536.266849,16506.592507
932.720773,-10066.800811,-4903.011187,12065.356855
932.721102,-10881.027347,-8810.098227,7550.100608
932.721432,-10140.821405,-11874.480219,4737.318029
932.721761,-7476.080014,-11338.213370,2664.741391
932.722091,-2442.679609,-9116.536426,3182.885551
932.722420,2812.782580,-4213.525239,5847.626942
932.722750,5625.565159,4903.011187,6809.894666
932.723080,6513.812290,12104.308868,7105.977043
932.723409,8068.244768,12257.527968,9696.697840
932.723739,6365.771101,11338.213370,14434.015869
932.724068,2516.700203,11261.603821,15840.407159
932.724398,-2368.659014,7124.688131,14285.974681
932.724727,-7476.080014,1149.143247,13841.851115
932.725057,-11029.068536,-4290.134789,14211.954086
932.725386,-12213.398043,-10112.460574,12287.418637
932.725716,-10807.006753,-11951.089769,8290.306550
932.726046,-7031.956449,-7354.516781,4219.173869
932.726375,-148.041188,-4290.134789,1850.514855
932.726705,7846.182985,-3524.039291,1924.535449
932.727034,11769.274478,459.657299,3478.967927
932.727364,11251.130318,7354.516781,7624.121203
932.727693,8586.388927,15015.471761,11473.192101
932.728023,3552.988522,17160.539155,15026.180623
932.728352,666.185348,12334.137518,18283.086767
932.728682,-3701.029710,4443.353888,18135.045579
932.729011,-7402.059420,-1838.629195,15100.201217
932.729341,-9474.636058,-5362.668486,10807.006753
932.729671,-10658.965565,-8120.612279,7550.100608
932.730000,-9474.636058,-9346.365076,4219.173869
932.730330,-5477.523971,-8503.660028,2146.597232
932.730659,1480.411884,-8350.440928,2146.597232
932.730989,6883.915261,-1149.143247,5847.626942
932.731318,7105.977043,9193.145976,7105.977043
932.731648,6365.771101,13253.452115,7328.038826
932.731977,5477.523971,12180.918418,9992.780217
932.732307,3256.906145,11644.651570,13471.748144
932.732637,518.144159,9729.412825,14359.995275
932.732966,-3182.885551,1455.581446,15248.242405
932.733296,-7550.100608,-3140.991542,15544.324782
932.733625,-12583.501014,-4673.182538,13619.789333
932.733955,-13545.768739,-9806.022374,10362.883188
932.734284,-8660.409521,-10265.679673,7105.977043
932.734614,-2886.803174,-5439.278036,3701.029710
932.734943,4663.297435,-3677.258390,1776.494261
932.735272,11399.171507,-3294.210641,2812.782580
932.735602,12509.480420,3983.696590,5625.565159
932.735931,10288.862594,12410.747068,9104.533087
932.736261,5625.565159,14709.033562,12879.583391
932.736590,740.205942,14325.985813,15840.407159
932.736919,-2368.659014,8733.488677,18061.024985
932.737249,-5921.647536,-1302.362347,17912.983796
932.737578,-9992.780217,-4519.963438,13841.851115
932.737907,-12435.459826,-6894.859482,9474.636058
932.738237,-11621.233289,-10572.117872,7105.977043
932.738566,-8216.285956,-10035.851024,4219.173869
932.738896,-2664.741391,-8120.612279,2072.576638
932.739225,3849.070898,-6588.421283,3478.967927
932.739554,7254.018232,1378.971896,5847.626942
932.739884,6661.853478,10955.165621,7105.977043
932.740213,6513.812290,12947.013916,8068.244768
932.740543,5403.503377,10648.727422,11991.336260
932.740872,2590.720797,10418.898773,15174.221811
932.741201,-1554.432478,7124.688131,14952.160028
932.741531,-5995.668130,-536.266849,14656.077652
932.741860,-10140.821405,-4366.744339,14730.098246
932.742190,-13249.686362,-8044.002729,12953.603985
932.742519,-12509.480420,-10342.289223,9474.636058
932.742848,-7698.141797,-8044.002729,5847.626942
932.743178,-1332.370696,-4136.915689,1924.535449
932.743507,6365.771101,-4366.744339,1110.308913
932.743837,11177.109724,-1685.410096,2516.700203
932.744166,11103.089130,5975.544884,6735.874072
932.744495,8068.244768,12870.404366,10436.903782
932.744825,3775.050304,14709.033562,13471.748144
932.745154,148.041188,12257.527968,16062.468941
932.745483,-3404.947333,3677.258390,17542.880825
932.745813,-7031.956449,-3294.210641,16062.468941
932.746142,-11177.109724,-4596.572988,13027.624579
932.746472,-12509.480420,-6588.421283,9770.718434
932.746801,-10288.862594,-8580.269578,7402.059420
932.747130,-6587.832884,-8044.002729,4293.194464
932.747460,0.000000,-7584.345430,2368.659014
932.747789,6217.729913,-4596.572988,3849.070898
932.748119,8290.306550,4903.011187,5921.647536
932.748448,7031.956449,12410.747068,7328.038826
932.748777,5995.668130,12027.699319,9844.739029
932.749107,3108.864956,10955.165621,13101.645173
932.749436,814.226536,9576.193725,15174.221811
932.749766,-3256.906145,4443.353888,14730.098246
932.750095,-7179.997637,-2298.286494,14952.160028
932.750424,-11547.212695,-4979.620737,14359.995275
932.750754,-13397.727550,-7967.393179,12139.377449
932.751083,-10214.842000,-9039.926876,8808.450710
932.751413,-4441.235652,-5056.230287,4589.276840
932.751742,3034.844362,-3370.820191,1406.391290
932.752071,10510.924376,-2987.772442,1406.391290
932.752401,13101.645173,1378.971896,3182.885551
932.752730,11399.171507,8963.317327,6809.894666
932.753059,7550.100608,14862.252661,11029.068536
932.753389,2590.720797,14172.766713,15396.283594
932.753718,-1776.494261,10035.851024,18431.127956
932.754048,-5995.668130,2451.505594,18061.024985
932.754377,-9178.553681,-3600.648841,14285.974681
932.754706,-11473.192101,-5669.106685,10881.027347
932.755036,-11473.192101,-7584.345430,7846.182985
932.755365,-8586.388927,-7814.174080,4737.318029
932.755695,-3627.009116,-7737.564530,1554.432478
932.756024,4071.132681,-6205.373534,1554.432478
932.756353,7846.182985,995.924147,4145.153275
932.756683,7328.038826,9116.536426,5847.626942
932.757012,5921.647536,12180.918418,8068.244768
932.757342,3849.070898,11721.261119,12509.480420
932.757671,1110.308913,11721.261119,15470.304188
932.758000,-1702.473667,7890.783629,15396.283594
932.758330,-5255.462188,-1762.019645,17172.777854
932.758659,-9770.718434,-4290.134789,16802.674883
932.758989,-13915.871710,-5132.839837,13545.768739
932.759318,-12139.377449,-9806.022374,9252.574275
932.759647,-5699.585753,-6741.640382,5477.523971
932.759977,666.185348,-2911.162892,666.185348
932.760306,9178.553681,-4290.134789,-296.082377
932.760635,13619.789333,-2451.505594,1480.411884
932.760965,11917.315666,7201.297681,6069.688724
932.761294,8068.244768,14709.033562,10510.924376
932.761624,2960.823768,14785.643111,14656.077652
932.761953,-1258.350101,13789.718964,16580.613101
932.762282,-4515.256246,5132.839837,18357.107362
932.762612,-7031.956449,-5515.887586,17542.880825
932.762941,-11325.150913,-5132.839837,13767.830521
932.763271,-14137.933492,-5898.935335,9400.615463
932.763600,-12139.377449,-9193.145976,6809.894666
932.763929,-7402.059420,-8197.221829,3256.906145
932.764259,0.000000,-7584.345430,666.185348
932.764588,7624.121203,-5592.497135,2812.782580
932.764918,9622.677246,3524.039291,5403.503377
932.765247,7105.977043,13023.623466,7105.977043
932.765576,5773.606348,12563.966167,9696.697840
932.765906,2812.782580,10725.336972,13545.768739
932.766235,0.000000,11261.603821,14804.118840
932.766564,-2812.782580,3140.991542,14952.160028
932.766894,-6143.709319,-4443.353888,16432.571912
932.767223,-10510.924376,-4979.620737,15914.427753
932.767553,-13027.624579,-7737.564530,12805.562797
932.767882,-10288.862594,-9499.584175,8142.265362
932.768211,-4441.235652,-5056.230287,4515.256246
932.768541,3997.112087,-3447.429741,740.205942
932.768870,11695.253884,-3370.820191,-0.000000
932.769200,13471.748144,919.314598,2664.741391
932.769529,10584.944971,10265.679673,7624.121203
932.769858,5329.482782,14709.033562,12435.459826
932.770188,-296.082377,14862.252661,15248.242405
932.770517,-3997.112087,10572.117872,18579.169144
932.770847,-7550.100608,0.000000,19245.354492
932.771176,-10732.986159,-5286.058936,15766.386565
932.771505,-13619.789333,-7507.735880,10955.047942
932.771835,-12731.542202,-9499.584175,7624.121203
932.772164,-8734.430116,-8810.098227,4589.276840
932.772494,-3256.906145,-8120.612279,1554.432478
932.772823,4367.215058,-6894.859482,1258.350101
932.773152,8882.471304,-766.095498,4219.173869
932.773482,9104.533087,9729.412825,6957.935855
932.773811,7550.100608,14402.595362,8142.265362
932.774140,5477.523971,12870.404366,12287.418637
932.774470,2738.761985,12104.308868,15100.201217
932.774799,-1036.288319,8733.488677,16210.510130
932.775129,-4737.318029,766.095498,14582.057057
932.775458,-9622.677246,-3907.087040,14063.912898
932.775787,-13915.871710,-7967.393179,13767.830521
932.776117,-13915.871710,-10342.289223,11843.295072
932.776446,-9992.780217,-8733.488677,7624.121203
932.776776,-3256.906145,-4903.011187,2886.803174
932.777105,4959.379811,-3447.429741,222.061783
932.777434,11399.171507,-2681.334243,962.267725
932.777764,12509.480420,4136.915689,4589.276840
932.778093,10140.821405,11874.480219,8438.347739
932.778423,5551.544565,15551.738609,12879.583391
932.778752,592.164754,13559.890315,17320.819043
932.779081,-4071.132681,7814.174080,19541.436869
932.779411,-7772.162391,689.485948,17912.983796
932.779740,-10214.842000,-4290.134789,13175.665768
932.780070,-10807.006753,-6971.469032,9104.533087
932.780399,-9474.636058,-8350.440928,6513.812290
932.780728,-5551.544565,-8427.050478,3256.906145
932.781058,74.020594,-7507.735880,1184.329507
932.781387,6365.771101,-4060.306139,2442.679609
932.781716,8660.409521,3907.087040,5329.482782
932.782046,7254.018232,11261.603821,8216.285956
932.782375,6217.729913,14325.985813,10214.842000
932.782705,3256.906145,13406.671215,12583.501014
932.783034,1110.308913,11108.384721,13915.871710
932.783363,-1850.514855,4060.306139,14730.098246
932.783693,-5995.668130,-3907.087040,16358.551318
932.784022,-11695.253884,-3830.477490,14804.118840
932.784352,-15396.283594,-6894.859482,10881.027347
932.784681,-11695.253884,-9116.536426,7550.100608
932.785010,-5329.482782,-6205.373534,4071.132681
932.785340,2886.803174,-4979.620737,592.164754
932.785669,10510.924376,-4903.011187,222.061783
932.785999,13175.665768,689.485948,3034.844362
932.786328,10510.924376,10112.460574,7698.141797
932.786657,6143.709319,15628.348159,11917.315666
932.786987,1184.329507,14862.252661,15692.365970
932.787316,-1998.556043,11797.870669,18727.210333
932.787646,-4737.318029,2834.553343,19763.498651
932.787975,-7920.203579,-3753.867940,16654.633695
932.788304,-11695.253884,-5286.058936,11103.089130
932.788634,-11991.336260,-9729.412825,7254.018232
932.788963,-8956.491898,-10112.460574,4367.215058
932.789292,-3849.070898,-8503.660028,1628.453072
932.789622,3330.926739,-8273.831378,1480.411884
932.789951,7476.080014,-1532.190996,5255.462188
932.790281,7179.997637,8810.098227,7105.977043
932.790610,6365.771101,13636.499864,8734.430116
932.790939,4959.379811,11491.432470,12213.398043
932.791269,1776.494261,12257.527968,14285.974681
932.791598,-2146.597232,9729.412825,15026.180623
932.791928,-5107.421000,766.095498,14508.036463
932.792257,-8586.388927,-4136.915689,15026.180623
932.792586,-12953.603985,-6665.030833,13323.706956
932.792916,-13693.809927,-10265.679673,10288.862594
932.793245,-9844.739029,-9269.755526,6809.894666
932.793575,-3627.009116,-4979.620737,3627.009116
932.793904,4367.215058,-4443.353888,1258.350101
932.794233,10510.924376,-2604.724693,1776.494261
932.794563,11843.295072,4519.963438,4589.276840
932.794892,9992.780217,11874.480219,9104.533087
932.795222,5625.565159,14709.033562,13101.645173
932.795551,1554.432478,13942.938064,17172.777854
932.795880,-2590.720797,8427.050478,18949.272115
932.796210,-6809.894666,306.438199,16876.695478
932.796539,-9622.677246,-4673.182538,12731.542202
932.796868,-10807.006753,-8044.002729,8068.244768
932.797198,-9326.594869,-9882.631924,5847.626942
932.797527,-6661.853478,-9652.803275,3256.906145
932.797857,-1850.514855,-8273.831378,2146.597232
932.798186,4145.153275,-4979.620737,3923.091493
932.798515,6291.750507,3830.477490,6513.812290
932.798845,5773.606348,11031.775171,8438.347739
932.799174,5773.606348,12640.575717,10288.862594
932.799504,3627.009116,12104.308868,13101.645173
932.799833,1258.350101,10495.508323,14656.077652
932.800162,-2220.617826,5132.839837,14137.933492
932.800492,-5995.668130,-1455.581446,14656.077652
932.800821,-10214.842000,-5056.230287,14656.077652
932.801151,-13101.645173,-7967.393179,12213.398043
932.801480,-11325.150913,-9806.022374,8142.265362
932.801809,-5625.565159,-7737.564530,4663.297435
932.802139,1554.432478,-5669.106685,2146.597232
932.802468,8956.491898,-4136.915689,2146.597232
932.802797,12213.398043,612.876398,4145.153275
932.803127,11399.171507,8273.831378,8068.244768
932.803456,8142.265362,14555.814462,11547.212695
932.803786,3701.029710,14325.985813,16506.592507
932.804115,0.000000,11031.775171,19541.436869
932.804444,-3997.112087,5209.449386,18949.272115
932.804774,-7328.038826,-1685.410096,15100.201217
932.805103,-9770.718434,-5056.230287,9992.780217
932.805433,-10732.986159,-8656.879127,5847.626942
932.805762,-8364.327145,-9729.412825,4071.132681
932.806091,-4367.215058,-8963.317327,2072.576638
932.806421,666.185348,-6281.983084,2294.638420
932.806750,4737.318029,229.828649,4959.379811
932.807080,5477.523971,6894.859482,6957.935855
932.807409,4959.379811,12104.308868,8882.471304
932.807738,3923.091493,13176.842566,11325.150913
932.808068,2146.597232,12180.918418,13101.645173
932.808397,518.144159,8044.002729,13989.892304
932.808727,-2738.761985,-689.485948,15914.427753
932.809056,-7624.121203,-2834.553343,16136.489536
932.809385,-12879.583391,-3524.039291,12287.418637
932.809715,-12435.459826,-8044.002729,8364.327145
932.810044,-6735.874072,-7967.393179,4737.318029
932.810373,-148.041188,-5056.230287,1110.308913
932.810703,7550.100608,-5669.106685,-0.000000
932.811032,11917.315666,-2374.896044,2294.638420
932.811362,10881.027347,7737.564530,6735.874072
932.811691,7550.100608,14479.204912,11103.089130
932.812020,4219.173869,14479.204912,14730.098246
932.812350,888.247130,13636.499864,16950.716072
932.812679,-2072.576638,6128.763984,19541.436869
932.813009,-5181.441594,-1762.019645,18727.210333
932.813338,-10214.842000,-3064.381992,14211.954086
932.813667,-13545.768739,-6665.030833,9474.636058
932.813997,-12213.398043,-10035.851024,6069.688724
932.814326,-7624.121203,-9346.365076,2368.659014
932.814656,-962.267725,-9039.926876,592.164754
932.814985,5255.462188,-6818.249932,2590.720797
932.815314,7402.059420,2528.115143,5699.585753
932.815644,6069.688724,11568.042020,8068.244768
932.815973,6143.709319,12487.356617,10955.047942
932.816303,3404.947333,13559.890315,13841.851115
932.816632,888.247130,12870.404366,14656.077652
932.816961,-740.205942,4060.306139,15618.345376
932.817291,-3404.947333,-3907.087040,16654.633695
932.817620,-8290.306550,-3677.258390,15174.221811
932.817949,-12805.562797,-6818.249932,11325.150913
932.818279,-10955.047942,-9346.365076,7031.956449
932.818608,-5329.482782,-6511.811733,3775.050304
932.818938,2220.617826,-4903.011187,148.041188
932.819267,9252.574275,-4749.792088,-814.226536
932.819596,11843.295072,153.219100,2664.741391
932.819926,9844.739029,9576.193725,8364.327145
932.820255,5033.400406,14938.862211,12509.480420
932.820585,1036.288319,15475.129060,15322.262999
932.820914,-1110.308913,10955.165621,17542.880825
932.821243,-3997.112087,2068.457845,17616.901420
932.821573,-7698.141797,-3830.477490,14804.118840
932.821902,-11251.130318,-6205.373534,11325.150913
932.822232,-11621.233289,-9193.145976,8660.409521
932.822561,-10436.903782,-9269.755526,5625.565159
932.822890,-6291.750507,-7967.393179,2146.597232
932.823220,1258.350101,-7277.907231,518.144159
932.823549,7254.018232,-3447.429741,4293.194464
932.823879,7920.203579,6435.202183,7105.977043
932.824208,6809.894666,13483.280765,8512.368333
932.824537,6661.853478,11797.870669,11325.150913
932.824867,3997.112087,12257.527968,14730.098246
932.825196,518.144159,10648.727422,16136.489536
932.825525,-3478.967927,2757.943793,14804.118840
932.825855,-7402.059420,-4366.744339,14211.954086
932.826184,-11843.295072,-6665.030833,13767.830521
932.826514,-14063.912898,-8656.879127,11251.130318
932.826843,-10881.027347,-10112.460574,7994.224174
932.827172,-5773.606348,-6741.640382,3627.009116
932.827502,1628.453072,-4979.620737,1184.329507
932.827831,8586.388927,-4290.134789,1776.494261
932.828161,11695.253884,2604.724693,4737.318029
932.828490,10288.862594,10725.336972,9178.553681
932.828819,6069.688724,14938.862211,12731.542202
932.829149,2294.638420,15551.738609,15322.262999
932.829478,-148.041188,10035.851024,17616.901420
932.829808,-3330.926739,383.047749,17542.880825
932.830137,-8216.285956,-4136.915689,14804.118840
932.830466,-12435.459826,-5209.449386,10510.924376
932.830796,-11843.295072,-8350.440928,8586.388927
932.831125,-8586.388927,-8810.098227,6069.688724
932.831454,-3775.050304,-7201.297681,2072.576638
932.831784,4219.173869,-6665.030833,814.226536
932.832113,9252.574275,-1991.848295,3701.029710
932.832443,8808.450710,8503.660028,7254.018232
932.832772,6809.894666,14402.595362,9474.636058
932.833101,4959.379811,14555.814462,12065.356855
932.833431,2812.782580,13406.671215,12879.583391
932.833760,592.164754,6358.592633,16432.571912
932.834090,-4071.132681,-2221.676944,17320.819043
932.834419,-10362.883188,-2374.896044,14804.118840
932.834748,-14063.912898,-5362.668486,11177.109724
932.835078,-11843.295072,-9806.022374,9104.533087
932.835407,-7105.977043,-8197.221829,4959.379811
932.835737,-222.061783,-6128.763984,518.144159
932.836066,7846.182985,-6435.202183,-0.000000
932.836395,11621.233289,-153.219100,2442.679609
932.836725,10066.800811,10878.556072,7698.141797
932.837054,7920.203579,14785.643111,11399.171507
932.837384,3775.050304,15015.471761,14063.912898
932.837713,74.020594,13866.328514,16580.613101
932.838042,-2368.659014,4749.792088,19467.416275
932.838372,-5921.647536,-2604.724693,17468.860231
932.838701,-11029.068536,-4060.306139,12361.439231
932.839031,-13323.706956,-8120.612279,8882.471304
932.839360,-11769.274478,-9806.022374,6291.750507
932.839689,-6957.935855,-8273.831378,2960.823768
932.840019,666.185348,-7584.345430,814.226536
932.840348,7105.977043,-5056.230287,2368.659014
932.840678,8808.450710,4903.011187,4885.359217
932.841007,7476.080014,11797.870669,7698.141797
932.841336,6365.771101,12947.013916,10214.842000
932.841666,2812.782580,14325.985813,13915.871710
932.841995,-222.061783,12870.404366,15396.283594
932.842325,-3034.844362,3983.696590,15544.324782
932.842654,-6809.894666,-3447.429741,15470.304188
932.842984,-11843.295072,-6205.373534,14211.954086
932.843313,-14656.077652,-9039.926876,11103.089130
932.843642,-12435.459826,-10418.898773,8660.409521
932.843972,-6143.709319,-7048.078582,5107.421000
932.844301,1776.494261,-4749.792088,1628.453072
932.844631,9474.636058,-4060.306139,1184.329507
932.844960,13027.624579,1149.143247,3330.926739
932.845289,11251.130318,9652.803275,7772.162391
932.845619,7328.038826,15398.519510,11399.171507
932.845948,2886.803174,14709.033562,15248.242405
932.846278,-370.102971,9882.631924,18727.210333
932.846607,-4811.338623,2451.505594,18505.148550
932.846936,-8438.347739,-3830.477490,14656.077652
932.847266,-10362.883188,-7737.564530,10881.027347
932.847595,-11029.068536,-9652.803275,7994.224174
932.847925,-9178.553681,-9193.145976,5477.523971
932.848254,-4441.235652,-7737.564530,1850.514855
932.848583,2960.823768,-6741.640382,1554.432478
932.848913,8142.265362,-995.924147,4589.276840
932.849242,7698.141797,8120.612279,7254.018232
932.849572,6365.771101,13176.842566,8290.306550
932.849901,4663.297435,13023.623466,11029.068536
932.850230,2368.659014,11644.651570,14063.912898
932.850560,-518.144159,8350.440928,15470.304188
932.850889,-3775.050304,-766.095498,15544.324782
932.851219,-8956.491898,-6205.373534,14359.995275
932.851548,-14359.995275,-6511.811733,12213.398043
932.851877,-14582.057057,-8810.098227,10362.883188
932.852207,-9178.553681,-8427.050478,7698.141797
932.852536,-2516.700203,-4826.401637,3775.050304
932.852866,5329.482782,-4290.134789,-74.020594
932.853195,11325.150913,-2374.896044,1110.308913
932.853525,12657.521608,4443.353888,4663.297435
932.853854,10214.842000,12640.575717,9326.594869
932.854183,5033.400406,14402.595362,13175.665768
932.854513,666.185348,13483.280765,17098.757260
932.854842,-2664.741391,7354.516781,19393.395680
932.855172,-6513.812290,-995.924147,18579.169144
932.855501,-11029.068536,-4443.353888,13767.830521
932.855830,-12953.603985,-7201.297681,9992.780217
932.856160,-11103.089130,-8503.660028,7920.203579
932.856489,-6809.894666,-7890.783629,4737.318029
932.856819,-962.267725,-6971.469032,1110.308913
932.857148,5551.544565,-4366.744339,1554.432478
932.857477,8808.450710,2451.505594,4885.359217
932.857807,7772.162391,10878.556072,7994.224174
932.858136,6291.750507,13942.938064,9474.636058
932.858466,2960.823768,12793.794817,12139.377449
932.858795,0.000000,10878.556072,13915.871710
932.859124,-2812.782580,2298.286494,17246.798449
932.859454,-6439.791695,-3600.648841,17394.839637
932.859783,-11917.315666,-3140.991542,13619.789333
932.860113,-13989.892304,-7124.688131,9770.718434
932.860442,-10214.842000,-9116.536426,7772.162391
932.860771,-4737.318029,-5898.935335,4145.153275
932.861101,3627.009116,-4290.134789,-0.000000
932.861430,11399.171507,-3524.039291,-296.082377
932.861760,13545.768739,3294.210641,2960.823768
932.862089,11695.253884,12334.137518,7920.203579
932.862418,7772.162391,13789.718964,11399.171507
932.862748,2368.659014,13253.452115,14730.098246
932.863077,-1480.411884,10189.070123,18949.272115
932.863407,-5551.544565,2681.334243,19763.498651
932.863736,-9178.553681,-2834.553343,16580.613101
932.864066,-12287.418637,-6511.811733,11621.233289
932.864395,-12287.418637,-9729.412825,8142.265362
932.864724,-9696.697840,-9116.536426,4885.359217
932.865054,-4219.173869,-7584.345430,296.082377
932.865383,3330.926739,-5745.716235,-74.020594
932.865713,8734.430116,-1378.971896,3923.091493
932.866042,9178.553681,7354.516781,7402.059420
932.866371,6957.935855,13023.623466,8586.388927
932.866701,4589.276840,13636.499864,10140.821405
932.867030,1406.391290,12793.794817,13545.768739
932.867360,-888.247130,7890.783629,17468.860231
932.867689,-3330.926739,-2681.334243,19837.519246
932.868018,-8734.430116,-4443.353888,17394.839637
932.868348,-14211.954086,-4136.915689,12139.377449
932.868677,-13471.748144,-7814.174080,8512.368333
932.869007,-7328.038826,-8656.879127,6883.915261
932.869336,-814.226536,-5439.278036,2072.576638
932.869665,6957.935855,-4673.182538,-592.164754
932.869995,11695.253884,-2528.115143,1702.473667
932.870324,10214.842000,7737.564530,5995.668130
932.870654,6291.750507,13483.280765,10288.862594
932.870983,2368.659014,12487.356617,13027.624579
932.871312,-814.226536,12257.527968,14211.954086
932.871642,-2146.597232,4903.011187,17764.942608
932.871971,-4367.215058,-4903.011187,18801.230927
932.872301,-10881.027347,-4903.011187,14508.036463
932.872630,-14434.015869,-6128.763984,10658.965565
932.872959,-11917.315666,-9269.755526,8882.471304
932.873289,-7328.038826,-6741.640382,5403.503377
932.873618,74.020594,-4443.353888,444.123565
932.873948,8216.285956,-5898.935335,-0.000000
932.874277,11991.336260,0.000000,3849.070898
932.874607,9696.697840,11568.042020,7476.080014
932.874936,6513.812290,13789.718964,9696.697840
932.875265,2812.782580,12947.013916,12583.501014
932.875595,-666.185348,12487.356617,14211.954086
932.875924,-3404.947333,4290.134789,16210.510130
932.876254,-5921.647536,-5439.278036,16432.571912
932.876583,-10807.006753,-5898.935335,13915.871710
932.876912,-14730.098246,-6818.249932,10584.944971
932.877242,-12731.542202,-9652.803275,8882.471304
932.877571,-7624.121203,-7354.516781,5995.668130
932.877901,148.041188,-4443.353888,2072.576638
932.878230,7846.182985,-4136.915689,740.205942
932.878559,12139.377449,919.314598,2368.659014
932.878889,11399.171507,9806.022374,6217.729913
932.879218,8660.409521,12870.404366,10732.986159
932.879548,3849.070898,13176.842566,14211.954086
932.879877,-296.082377,11874.480219,17542.880825
932.880206,-3478.967927,3370.820191,19541.436869
932.880536,-8216.285956,-2681.334243,17172.777854
932.880865,-12657.521608,-5439.278036,13027.624579
932.881195,-13323.706956,-8733.488677,10214.842000
932.881524,-9474.636058,-9652.803275,7328.038826
932.881853,-4885.359217,-7048.078582,3404.947333
932.882183,2368.659014,-5898.935335,296.082377
932.882512,8364.327145,-3907.087040,1628.453072
932.882842,10140.821405,4826.401637,5255.462188
932.883171,7920.203579,12717.185267,8586.388927
932.883500,5403.503377,13713.109414,11843.295072
932.883830,1628.453072,14249.376263,13841.851115
932.884159,-1554.432478,10801.946522,15174.221811
932.884489,-4589.276840,-459.657299,16580.613101
932.884818,-8216.285956,-4673.182538,15692.365970
932.885148,-13175.665768,-4903.011187,12583.501014
932.885477,-13841.851115,-8350.440928,9474.636058
932.885806,-9696.697840,-8273.831378,6661.853478
932.886136,-3330.926739,-5286.058936,2664.741391
932.886465,5551.544565,-5132.839837,148.041188
932.886795,11917.315666,-2604.724693,962.267725
932.887124,12731.542202,6741.640382,4367.215058
932.887453,10140.821405,13636.499864,8956.491898
932.887783,6439.791695,14479.204912,12361.439231
932.888112,2072.576638,13176.842566,15988.448347
932.888442,-2072.576638,7584.345430,19615.457463
932.888771,-6365.771101,842.705048,18431.127956
932.889100,-10881.027347,-2834.553343,13915.871710
932.889430,-12953.603985,-7660.954980,10140.821405
932.889759,-11177.109724,-9959.241474,7920.203579
932.890089,-7994.224174,-8733.488677,4071.132681
932.890418,-1184.329507,-7354.516781,-0.000000
932.890747,6513.812290,-5669.106685,1036.288319
932.891077,9622.677246,1991.848295,4515.256246
932.891406,7846.182985,10112.460574,7994.224174
932.891736,6217.729913,13023.623466,9548.656652
932.892065,3108.864956,14325.985813,13397.727550
932.892394,222.061783,14249.376263,16062.468941
932.892724,-2812.782580,6741.640382,16432.571912
932.893053,-5921.647536,-3677.258390,16284.530724
932.893383,-10436.903782,-6741.640382,14285.974681
932.893712,-14656.077652,-7431.126331,11399.171507
932.894041,-13249.686362,-9729.412825,9252.574275
932.894371,-7698.141797,-7967.393179,6809.894666
932.894700,-370.102971,-4673.182538,2664.741391
932.895030,7402.059420,-4136.915689,296.082377
932.895359,13101.645173,-919.314598,1850.514855
932.895689,13397.727550,8044.002729,6735.874072
932.896018,8882.471304,15245.300410,10436.903782
932.896347,3552.988522,15168.690860,13619.789333
932.896677,0.000000,11797.870669,17542.880825
932.897006,-3404.947333,5056.230287,19467.416275
932.897336,-7920.203579,-1762.019645,16654.633695
932.897665,-11991.336260,-5898.935335,11843.295072
932.897994,-12657.521608,-9882.631924,8364.327145
932.898324,-9918.759623,-10955.165621,5847.626942
932.898653,-5921.647536,-8963.317327,2960.823768
932.898983,1036.288319,-7584.345430,962.267725
932.899312,6217.729913,-2757.943793,3256.906145
932.899641,7254.018232,5439.278036,7031.956449
932.899971,6291.750507,12640.575717,9030.512492
932.900300,5107.421000,14096.157163,10955.047942
932.900630,2738.761985,13406.671215,13101.645173
932.900959,74.020594,10418.898773,14656.077652
932.901288,-3627.009116,1685.410096,14434.015869
932.901618,-7698.141797,-4826.401637,14063.912898
932.901947,-12287.418637,-6971.469032,12435.459826
932.902277,-14730.098246,-8656.879127,10584.944971
932.902606,-11029.068536,-9269.755526,7994.224174
932.902935,-4663.297435,-6665.030833,5107.421000
932.903265,3256.906145,-4596.572988,2146.597232
932.903594,10214.842000,-3064.381992,1332.370696
932.903924,12361.439231,2757.943793,3849.070898
932.904253,11029.068536,11644.651570,9030.512492
932.904582,6883.915261,15321.909960,13471.748144
932.904912,2294.638420,13253.452115,17172.777854
932.905241,-1702.473667,8733.488677,19171.333898
932.905571,-6291.750507,2298.286494,18505.148550
932.905900,-9696.697840,-3907.087040,14359.995275
932.906230,-11695.253884,-7584.345430,9770.718434
932.906559,-11029.068536,-10342.289223,6587.832884
932.906888,-7031.956449,-9806.022374,3627.009116
932.907218,-1998.556043,-8733.488677,370.102971
932.907547,4589.276840,-5209.449386,1332.370696
932.907877,7994.224174,2068.457845,4515.256246
932.908206,7179.997637,9346.365076,8512.368333
932.908535,6069.688724,14785.643111,10510.924376
932.908865,3923.091493,14709.033562,12435.459826
932.909194,1628.453072,12180.918418,14063.912898
932.909524,-1110.308913,3677.258390,16950.716072
932.909853,-4885.359217,-2834.553343,17690.922014
932.910182,-11103.089130,-2834.553343,14211.954086
932.910512,-13693.809927,-6971.469032,9992.780217
932.910841,-10881.027347,-10035.851024,7698.141797
932.911171,-5847.626942,-7354.516781,4737.318029
932.911500,1110.308913,-5209.449386,444.123565
932.911829,9178.553681,-4443.353888,-370.102971
932.912159,12953.603985,1762.019645,2368.659014
932.912488,11325.150913,11031.775171,8068.244768
932.912818,8142.265362,14555.814462,11917.315666
932.913147,3108.864956,15015.471761,14878.139434
932.913476,-296.082377,11874.480219,17987.004391
932.913806,-3627.009116,3983.696590,19541.436869
932.914135,-7698.141797,-1302.362347,16802.674883
932.914465,-11769.274478,-5592.497135,12139.377449
932.914794,-12879.583391,-9346.365076,8808.450710
932.915123,-11177.109724,-9652.803275,5255.462188
932.915453,-6513.812290,-7967.393179,1036.288319
932.915782,1480.411884,-7814.174080,148.041188
932.916112,7105.977043,-3140.991542,3775.050304
932.916441,7994.224174,6818.249932,7105.977043
932.916771,6809.894666,12717.185267,8660.409521
932.917100,5477.523971,14325.985813,10214.842000
932.917429,2960.823768,14862.252661,12435.459826
932.917759,888.247130,9806.022374,15914.427753
932.918088,-2738.761985,-229.828649,17912.983796
932.918418,-7920.203579,-2451.505594,16062.468941
932.918747,-13693.809927,-2911.162892,11547.212695
932.919076,-14211.954086,-9269.755526,8364.327145
932.919406,-9844.739029,-11338.213370,6143.709319
932.919735,-4515.256246,-7507.735880,3330.926739
932.920065,2960.823768,-6665.030833,814.226536
932.920394,8364.327145,-2528.115143,1998.556043
932.920723,9918.759623,6128.763984,6069.688724
932.921053,9030.512492,11031.775171,9918.759623
932.921382,6069.688724,12793.794817,12657.521608
932.921712,3034.844362,13100.233016,15396.283594
932.922041,740.205942,8120.612279,18505.148550
932.922370,-3256.906145,995.924147,17912.983796
932.922700,-7920.203579,-2221.676944,14137.933492
932.923029,-11473.192101,-7048.078582,10658.965565
932.923359,-11177.109724,-10418.898773,8142.265362
932.923688,-8364.327145,-8733.488677,4959.379811
932.924017,-3256.906145,-7277.907231,888.247130
932.924347,4145.153275,-6435.202183,888.247130
932.924676,8438.347739,-383.047749,4145.153275
932.925006,8512.368333,7890.783629,8216.285956
932.925335,6143.709319,12640.575717,9326.594869
932.925664,3404.947333,14096.157163,11621.233289
932.925994,740.205942,12487.356617,14359.995275
932.926323,-1776.494261,6052.154434,17320.819043
932.926653,-4663.297435,-2145.067394,17394.839637
932.926982,-9992.780217,-4366.744339,13767.830521
932.927312,-13693.809927,-6665.030833,9918.759623
932.927641,-12361.439231,-9652.803275,8290.306550
932.927970,-7254.018232,-8963.317327,6513.812290
932.928300,-888.247130,-5822.325785,2812.782580
932.928629,5699.585753,-4213.525239,444.123565
932.928959,10436.903782,306.438199,2294.638420
932.929288,11103.089130,7967.393179,7698.141797
932.929617,9030.512492,13100.233016,11547.212695
932.929947,4441.235652,14862.252661,13619.789333
932.930276,1406.391290,12334.137518,16506.592507
932.930606,-1776.494261,5056.230287,18505.148550
932.930935,-6439.791695,-919.314598,17246.798449
932.931264,-11473.192101,-4979.620737,12805.562797
932.931594,-12805.562797,-9346.365076,8438.347739
932.931923,-10436.903782,-9806.022374,6143.709319
932.932253,-6957.935855,-8733.488677,3034.844362
932.932582,-592.164754,-7277.907231,888.247130
932.932911,5181.441594,-4290.134789,2886.803174
932.933241,7550.100608,3140.991542,6291.750507
932.933570,6883.915261,11491.432470,9030.512492
932.933900,5773.606348,14019.547613,10214.842000
932.934229,2960.823768,13789.718964,12879.583391
932.934558,592.164754,10955.165621,14656.077652
932.934888,-2590.720797,3524.039291,15174.221811
932.935222,-5551.544565,-4673.182538,15396.283594
932.935552,-10955.047942,-5439.278036,13767.830521
932.935881,-14656.077652,-6971.469032,10881.027347
932.936211,-12361.439231,-9193.145976,8956.491898
932.936540,-6513.812290,-6971.469032,5847.626942
932.936870,1702.473667,-4290.134789,1776.494261
932.937199,9548.656652,-3294.210641,296.082377
932.937529,13619.789333,1532.190996,2886.803174
932.937858,12287.418637,10495.508323,8068.244768
932.938188,8734.430116,14709.033562,12287.418637
932.938517,3923.091493,13866.328514,15914.427753
932.938847,-666.185348,11874.480219,17987.004391
932.939176,-4737.318029,4749.792088,17542.880825
932.939505,-7402.059420,-2987.772442,14730.098246
932.939835,-10214.842000,-7354.516781,11029.068536
932.940164,-11399.171507,-9422.974625,8142.265362
932.940494,-10066.800811,-9116.536426,5181.441594
932.940823,-5551.544565,-7277.907231,1480.411884
932.941153,1406.391290,-5056.230287,888.247130
932.941482,7550.100608,-1072.533697,3849.070898
932.941812,8734.430116,5975.544884,7105.977043
932.942141,7402.059420,12334.137518,7698.141797
932.942471,4885.359217,14709.033562,10066.800811
932.942800,2072.576638,13483.280765,12953.603985
932.943130,-1036.288319,8656.879127,16506.592507
932.943459,-4811.338623,-1455.581446,18283.086767
932.943789,-9474.636058,-3524.039291,15766.386565
932.944118,-14211.954086,-4673.182538,10807.006753
932.944448,-12805.562797,-9499.584175,8660.409521
932.944777,-7550.100608,-9729.412825,7254.018232
932.945107,-1554.432478,-6358.592633,3701.029710
932.945436,6365.771101,-3830.477490,592.164754
932.945766,11843.295072,-766.095498,888.247130
932.946095,13027.624579,7277.907231,5847.626942
932.946425,10436.903782,12947.013916,10066.800811
932.946754,5255.462188,12870.404366,13841.851115
932.947084,740.205942,12870.404366,17024.736666
932.947413,-2738.761985,7967.393179,19911.539840
932.947743,-6365.771101,-153.219100,18357.107362
932.948072,-11029.068536,-4673.182538,13545.768739
932.948402,-13249.686362,-9806.022374,9770.718434
932.948731,-11695.253884,-11031.775171,6661.853478
932.949061,-7772.162391,-8886.707777,3552.988522
932.949390,-1332.370696,-7048.078582,444.123565
932.949720,5477.523971,-4060.306139,2368.659014
932.950049,8290.306550,2374.896044,5995.668130
932.950378,8068.244768,9806.022374,8438.347739
932.950708,6735.874072,14249.376263,9178.553681
932.951037,3182.885551,14019.547613,11695.253884
932.951367,518.144159,11874.480219,14063.912898
932.951696,-2516.700203,2834.553343,16062.468941
932.952026,-5921.647536,-4826.401637,16876.695478
932.952355,-11029.068536,-4903.011187,13841.851115
932.952685,-15100.201217,-6741.640382,10140.821405
932.953014,-12583.501014,-9116.536426,8512.368333
932.953344,-6883.915261,-8044.002729,6069.688724
932.953673,1406.391290,-4979.620737,1554.432478
932.954003,9696.697840,-3447.429741,-148.041188
932.954332,13619.789333,536.266849,2368.659014
932.954662,11621.233289,10418.898773,7550.100608
932.954991,6735.874072,13406.671215,11843.295072
932.955321,1628.453072,11721.261119,16284.530724
932.955650,-2220.617826,11108.384721,19467.416275
932.955980,-5699.585753,4979.620737,18949.272115
932.956309,-7772.162391,-3370.820191,15100.201217
932.956639,-10362.883188,-8197.221829,10214.842000
932.956968,-10955.047942,-10265.679673,7254.018232
932.957298,-8660.409521,-9652.803275,4515.256246
932.957627,-4441.235652,-7048.078582,1628.453072
932.957957,2368.659014,-3370.820191,1628.453072
932.958286,6883.915261,229.828649,5699.585753
932.958616,7920.203579,6205.373534,7994.224174
932.958945,6809.894666,13253.452115,7920.203579
932.959275,4811.338623,13023.623466,9992.780217
932.959604,2960.823768,11874.480219,12065.356855
932.959934,-518.144159,6052.154434,16210.510130
932.960263,-4441.235652,-4060.306139,19023.292709
932.960593,-10510.924376,-3524.039291,16210.510130
932.960922,-15174.221811,-4213.525239,11917.315666
932.961251,-12879.583391,-8350.440928,9992.780217
932.961581,-7772.162391,-8197.221829,7402.059420
932.961910,-888.247130,-4979.620737,2220.617826
932.962240,7994.224174,-4443.353888,-1850.514855
932.962569,13767.830521,-1838.629195,-0.000000
932.962899,13767.830521,8963.317327,5921.647536
932.963228,9770.718434,14019.547613,10288.862594
932.963558,4589.276840,13483.280765,12953.603985
932.963887,740.205942,12870.404366,15840.407159
932.964217,-2738.761985,6281.983084,19245.354492
932.964546,-6217.729913,-1302.362347,18357.107362
932.964876,-11029.068536,-4826.401637,13915.871710
932.965205,-13619.789333,-9269.755526,9622.677246
932.965535,-12139.377449,-8963.317327,8586.388927
932.965864,-9030.512492,-7048.078582,5329.482782
932.966194,-1998.556043,-4519.963438,222.061783
932.966523,6291.750507,-3064.381992,-222.061783
932.966853,11843.295072,1608.800546,3849.070898
932.967182,11695.253884,9576.193725,7624.121203
932.967512,6809.894666,14709.033562,8512.368333
932.967841,1628.453072,14785.643111,10066.800811
932.968171,-1998.556043,11261.603821,14508.036463
932.968500,-4737.318029,4290.134789,19615.457463
932.968830,-7402.059420,-2987.772442,18949.272115
932.969159,-11621.233289,-7354.516781,13841.851115
932.969489,-14211.954086,-8273.831378,9178.553681
932.969818,-11769.274478,-9116.536426,8068.244768
932.970148,-5255.462188,-9499.584175,6661.853478
932.970477,2368.659014,-4290.134789,2072.576638
932.970807,9178.553681,-229.828649,222.061783
932.971136,13841.851115,2757.943793,3627.009116
932.971466,13915.871710,10572.117872,8290.306550
932.971795,8512.368333,14249.376263,10584.944971
932.972124,3256.906145,13330.061665,13397.727550
932.972454,-592.164754,9422.974625,17987.004391
932.972783,-5033.400406,4519.963438,20503.704593
932.973113,-9178.553681,-2451.505594,17172.777854
932.973442,-13027.624579,-8733.488677,11843.295072
932.973772,-13693.809927,-9806.022374,8068.244768
932.974101,-10362.883188,-10495.508323,6143.709319
932.974431,-4737.318029,-8350.440928,2812.782580
932.974760,2368.659014,-4443.353888,-148.041188
932.975090,7772.162391,-1072.533697,1924.535449
932.975419,10140.821405,4749.792088,5847.626942
932.975749,8290.306550,12410.747068,8216.285956
932.976078,4663.297435,14785.643111,9918.759623
932.976408,1480.411884,12717.185267,12435.459826
932.976737,-1406.391290,7048.078582,17172.777854
932.977067,-4367.215058,-689.485948,19097.313304
932.977396,-8364.327145,-4903.011187,15766.386565
932.977726,-12509.480420,-6358.592633,10807.006753
932.978055,-12287.418637,-8044.002729,9030.512492
932.978385,-8068.244768,-8810.098227,8142.265362
932.978714,-1998.556043,-5898.935335,4219.173869
932.979044,5625.565159,-3140.991542,-0.000000
932.979373,11917.315666,0.000000,1258.350101
932.979703,13027.624579,6665.030833,5699.585753
932.980032,9844.739029,12257.527968,9400.615463
932.980362,4885.359217,12027.699319,11991.336260
932.980691,370.102971,10495.508323,15396.283594
932.981021,-3182.885551,7201.297681,19393.395680
932.981350,-7105.977043,842.705048,18875.251521
932.981680,-10955.047942,-5056.230287,14359.995275
932.982009,-13397.727550,-9346.365076,9918.759623
932.982339,-12435.459826,-9193.145976,7254.018232
932.982668,-8290.306550,-7814.174080,4589.276840
932.982997,-1480.411884,-5975.544884,1184.329507
932.983327,5551.544565,-3140.991542,2294.638420
932.983656,9178.553681,1532.190996,5255.462188
932.983986,9104.533087,8580.269578,7254.018232
932.984315,6883.915261,12793.794817,7698.141797
932.984645,3701.029710,13330.061665,11029.068536
932.984974,74.020594,12640.575717,14508.036463
932.985304,-2738.761985,5745.716235,16062.468941
932.985633,-4885.359217,-4060.306139,16876.695478
932.985963,-9770.718434,-7124.688131,14359.995275
932.986292,-15174.221811,-6665.030833,11473.192101
932.986622,-13693.809927,-8427.050478,10214.842000
932.986951,-7698.141797,-7584.345430,7920.203579
932.987281,-296.082377,-3140.991542,2442.679609
932.987610,8290.306550,-2528.115143,-740.205942
932.987940,14359.995275,-1532.190996,666.185348
932.988269,14359.995275,7201.297681,5921.647536
932.988599,8882.471304,14096.157163,10066.800811
932.988928,3330.926739,13559.890315,14656.077652
932.989258,-592.164754,11951.089769,18357.107362
932.989587,-4885.359217,7124.688131,19319.375086
932.989917,-8364.327145,-1455.581446,16950.716072
932.990246,-10658.965565,-6588.421283,12213.398043
932.990576,-10955.047942,-9193.145976,9252.574275
932.990905,-9104.533087,-9346.365076,6513.812290
932.991235,-6439.791695,-7354.516781,2442.679609
932.991564,814.226536,-4903.011187,444.123565
932.991894,7031.956449,-1685.410096,3330.926739
932.992223,9326.594869,4290.134789,7031.956449
932.992553,7402.059420,12870.404366,7920.203579
932.992882,5625.565159,14325.985813,8586.388927
932.993212,3108.864956,12104.308868,11251.130318
932.993541,370.102971,9116.536426,16062.468941
932.993870,-3849.070898,383.047749,18949.272115
932.994200,-8734.430116,-3600.648841,16506.592507
932.994529,-13767.830521,-3830.477490,11621.233289
932.994859,-13841.851115,-7584.345430,9696.697840
932.995188,-8586.388927,-9346.365076,8660.409521
932.995518,-2664.741391,-6281.983084,4515.256246
932.995847,5181.441594,-4290.134789,-74.020594
932.996177,11399.171507,-2221.676944,-74.020594
932.996506,12879.583391,6358.592633,4663.297435
932.996836,10510.924376,12257.527968,10066.800811
932.997165,5107.421000,13023.623466,13249.686362
932.997495,0.000000,13713.109414,15618.345376
932.997824,-2812.782580,9806.022374,19393.395680
932.998154,-5403.503377,1762.019645,18875.251521
932.998483,-9104.533087,-4290.134789,14063.912898
932.998813,-12361.439231,-8656.879127,9030.512492
932.999142,-11843.295072,-10801.946522,6735.874072
932.999472,-8364.327145,-8350.440928,4367.215058
932.999801,-2960.823768,-6511.811733,1332.370696
933.000131,3997.112087,-4366.744339,2442.679609
933.000460,8068.244768,1072.533697,5699.585753
933.000790,8364.327145,9193.145976,7846.182985
933.001119,7179.997637,12563.966167,7846.182985
933.001449,4367.215058,12717.185267,10436.903782
933.001778,1406.391290,11951.089769,13397.727550
933.002108,-1702.473667,3983.696590,17172.777854
933.002437,-5033.400406,-3064.381992,18209.066173
933.002767,-10510.924376,-2987.772442,14582.057057
933.003096,-14211.954086,-5898.935335,10140.821405
933.003426,-11991.336260,-10418.898773,7994.224174
933.003755,-6735.874072,-9269.755526,7031.956449
933.004085,222.061783,-5362.668486,2590.720797
933.004414,7550.100608,-3294.210641,592.164754
933.004743,11843.295072,995.924147,2516.700203
933.005073,11029.068536,8273.831378,7624.121203
933.005402,7772.162391,11491.432470,12287.418637
933.005732,2738.761985,12487.356617,16284.530724
933.006061,-1184.329507,12717.185267,18579.169144
933.006391,-3997.112087,5898.935335,17690.922014
933.006720,-5995.668130,-2987.772442,15100.201217
933.007050,-8438.347739,-7890.783629,10881.027347
933.007379,-9548.656652,-10112.460574,8142.265362
933.007709,-9770.718434,-9652.803275,4663.297435
933.008038,-6957.935855,-6205.373534,1332.370696
933.008368,296.082377,-4443.353888,296.082377
933.008697,6957.935855,-2528.115143,4441.235652
933.009027,8956.491898,4366.744339,6957.935855
933.009356,6809.894666,11797.870669,7920.203579
933.009686,4367.215058,13253.452115,8882.471304
933.010015,1850.514855,13100.233016,12139.377449
933.010345,-666.185348,9116.536426,16876.695478
933.010674,-3404.947333,-2068.457845,19245.354492
933.011004,-8216.285956,-4596.572988,16358.551318
933.011333,-13915.871710,-3294.210641,10807.006753
933.011663,-13693.809927,-8350.440928,7994.224174
933.011992,-8586.388927,-11184.994271,7698.141797
933.012322,-3330.926739,-7660.954980,4293.194464
933.012651,4145.153275,-4519.963438,296.082377
933.012981,10140.821405,-2528.115143,814.226536
933.013310,11991.336260,5975.544884,6069.688724
933.013640,9992.780217,12257.527968,10732.986159
933.013969,5921.647536,12027.699319,13397.727550
933.014299,2442.679609,13942.938064,15544.324782
933.014628,-888.247130,9499.584175,19097.313304
933.014958,-4071.132681,1685.410096,19319.375086
933.015287,-9326.594869,-3064.381992,15174.221811
933.015616,-12139.377449,-7814.174080,10807.006753
933.015946,-11473.192101,-9422.974625,7846.182985
933.016275,-9030.512492,-8120.612279,3034.844362
933.016605,-3108.864956,-6435.202183,-518.144159
933.016934,3701.029710,-5669.106685,592.164754
933.017264,7550.100608,76.609550,5033.400406
933.017593,7105.977043,9882.631924,7994.224174
933.017923,4515.256246,14096.157163,8734.430116
933.018252,2072.576638,15015.471761,11029.068536
933.018582,-370.102971,13713.109414,13767.830521
933.018911,-1850.514855,6052.154434,15322.262999
933.019241,-3552.988522,-3830.477490,15692.365970
933.019570,-7920.203579,-5975.544884,13471.748144
933.019900,-13767.830521,-4903.011187,10066.800811
933.020229,-13619.789333,-8656.879127,9400.615463
933.020559,-8512.368333,-8656.879127,8068.244768
933.020888,-1258.350101,-3294.210641,3701.029710
933.021218,7476.080014,-2221.676944,-222.061783
933.021547,14211.954086,-1149.143247,666.185348
933.021877,14359.995275,6894.859482,6069.688724
933.022206,10584.944971,12870.404366,10955.047942
933.022536,4663.297435,13406.671215,15174.221811
933.022865,-148.041188,14019.547613,17616.901420
933.023195,-3775.050304,8810.098227,18727.210333
933.023524,-6439.791695,-766.095498,16580.613101
933.023854,-9326.594869,-7584.345430,11917.315666
933.024183,-10732.986159,-10418.898773,8512.368333
933.024513,-10214.842000,-10572.117872,5773.606348
933.024842,-8216.285956,-7814.174080,2812.782580
933.025172,-2738.761985,-5592.497135,1554.432478
933.025501,3701.029710,-3600.648841,4885.359217
933.025831,6957.935855,2451.505594,8734.430116
933.026160,6439.791695,11108.384721,9104.533087
933.026489,5625.565159,14555.814462,8660.409521
933.026819,4071.132681,12640.575717,11103.089130
933.027148,1628.453072,9422.974625,14508.036463
933.027478,-1036.288319,612.876398,17690.922014
933.027807,-5181.441594,-3907.087040,16358.551318
933.028137,-11399.171507,-2834.553343,11917.315666
933.028466,-13101.645173,-6741.640382,9178.553681
933.028796,-9696.697840,-10035.851024,8956.491898
933.029125,-4441.235652,-8273.831378,6217.729913
933.029455,2812.782580,-5132.839837,1998.556043
933.029784,9400.615463,-2451.505594,592.164754
933.030114,11991.336260,3907.087040,3701.029710
933.030443,10732.986159,9882.631924,9104.533087
933.030773,6661.853478,11721.261119,13249.686362
933.031102,1776.494261,13023.623466,15988.448347
933.031432,-1702.473667,11261.603821,18061.024985
933.031761,-4959.379811,4366.744339,17320.819043
933.032091,-7698.141797,-3217.601092,13397.727550
933.032420,-11473.192101,-8656.879127,9474.636058
933.032750,-12213.398043,-11108.384721,5995.668130
933.033079,-10362.883188,-9269.755526,3330.926739
933.033409,-5551.544565,-7277.907231,1776.494261
933.033738,222.061783,-5822.325785,3775.050304
933.034068,4663.297435,-766.095498,7328.038826
933.034397,5477.523971,7354.516781,8290.306550
933.034727,5921.647536,12563.966167,6957.935855
933.035056,5329.482782,13713.109414,9326.594869
933.035386,3775.050304,12027.699319,13619.789333
933.035715,592.164754,7660.954980,15470.304188
933.036045,-3034.844362,766.095498,13767.830521
933.036374,-7476.080014,-3677.258390,12879.583391
933.036704,-11991.336260,-6358.592633,12879.583391
933.037033,-14211.954086,-7660.954980,12657.521608
933.037362,-11399.171507,-8503.660028,9696.697840
933.037692,-5107.421000,-5669.106685,5551.544565
933.038021,3404.947333,-3524.039291,1776.494261
933.038351,10584.944971,-1762.019645,1850.514855
933.038680,12879.583391,3217.601092,5625.565159
933.039010,10288.862594,9652.803275,9326.594869
933.039339,5181.441594,13942.938064,13397.727550
933.039669,1628.453072,13483.280765,16950.716072
933.039998,-2294.638420,10035.851024,18209.066173
933.040328,-6217.729913,1991.848295,16062.468941
933.040657,-8882.471304,-5286.058936,12065.356855
933.040987,-10214.842000,-8120.612279,7698.141797
933.041316,-9104.533087,-8886.707777,5921.647536
933.041646,-6809.894666,-7967.393179,4145.153275
933.041975,-3182.885551,-6052.154434,3404.947333
933.042305,2516.700203,-3064.381992,5403.503377
933.042634,6291.750507,2834.553343,7105.977043
933.042964,6957.935855,9959.241474,7476.080014
933.043293,7105.977043,13942.938064,7846.182985
933.043623,5477.523971,12410.747068,10288.862594
933.043952,2886.803174,8886.707777,12879.583391
933.044282,-444.123565,2681.334243,15840.407159
933.044611,-5921.647536,-1838.629195,15988.448347
933.044941,-11917.315666,-1991.848295,13619.789333
933.045270,-14063.912898,-6128.763984,11103.089130
933.045600,-10436.903782,-9729.412825,9696.697840
933.045929,-4959.379811,-8197.221829,5403.503377
933.046259,1406.391290,-5209.449386,518.144159
933.046588,9178.553681,-3983.696590,148.041188
933.046918,12583.501014,2681.334243,4219.173869
933.047247,11177.109724,10342.289223,9474.636058
933.047577,7624.121203,13789.718964,12287.418637
933.047906,2960.823768,13713.109414,13323.706956
933.048236,296.082377,11184.994271,16950.716072
933.048566,-3478.967927,3753.867940,19097.313304
933.048895,-7328.038826,-2911.162892,16654.633695
933.049225,-11547.212695,-6281.983084,11029.068536
933.049554,-13101.645173,-9576.193725,7402.059420
933.049884,-11177.109724,-9269.755526,5773.606348
933.050213,-6291.750507,-8120.612279,3775.050304
933.050543,666.185348,-6818.249932,3404.947333
933.050872,6217.729913,-1838.629195,5107.421000
933.051202,7772.162391,7277.907231,6291.750507
933.051531,7254.018232,11874.480219,7476.080014
933.051861,5551.544565,12410.747068,10214.842000
933.052190,1998.556043,12257.527968,13323.706956
933.052520,-1258.350101,9806.022374,14952.160028
933.052849,-3552.988522,2911.162892,13249.686362
933.053179,-6439.791695,-4213.525239,13249.686362
933.053508,-10732.986159,-8656.879127,12953.603985
933.053838,-13915.871710,-9806.022374,11843.295072
933.054167,-11843.295072,-8580.269578,9548.656652
933.054497,-6661.853478,-4903.011187,6069.688724
933.054826,1406.391290,-1838.629195,3182.885551
933.055156,8734.430116,-842.705048,2590.720797
933.055485,12879.583391,1838.629195,4737.318029
933.055815,11991.336260,7967.393179,8216.285956
933.056144,7476.080014,13483.280765,12361.439231
933.056474,2664.741391,12334.137518,15322.262999
933.056804,-1480.411884,8656.879127,16950.716072
933.057133,-5847.626942,2451.505594,15544.324782
933.057463,-7920.203579,-4213.525239,12287.418637
933.057792,-9030.512492,-7967.393179,7846.182985
933.058122,-8882.471304,-8963.317327,4885.359217
933.058451,-6883.915261,-8350.440928,4219.173869
933.058781,-3108.864956,-6588.421283,3997.112087
933.059110,1628.453072,-2374.896044,5847.626942
933.059440,4737.318029,3064.381992,7105.977043
933.059769,5255.462188,8580.269578,7698.141797
933.060099,5625.565159,12180.918418,8586.388927
933.060428,4145.153275,11108.384721,10436.903782
933.060758,2294.638420,7124.688131,13915.871710
933.061087,-1776.494261,1608.800546,17024.736666
933.061417,-7698.141797,-1072.533697,16580.613101
933.061746,-13397.727550,-1302.362347,13323.706956
933.062076,-13619.789333,-7201.297681,10510.924376
933.062405,-9548.656652,-9806.022374,8438.347739
933.062735,-3701.029710,-7201.297681,4737.318029
933.063064,3182.885551,-5898.935335,1036.288319
933.063394,9696.697840,-3524.039291,1184.329507
933.063723,11695.253884,4596.572988,5107.421000
933.064053,9918.759623,10955.165621,9474.636058
933.064383,7772.162391,12793.794817,11769.274478
933.064712,3997.112087,12563.966167,13915.871710
933.065042,1332.370696,8120.612279,17468.860231
933.065371,-2960.823768,1915.238745,19097.313304
933.065701,-8216.285956,-1225.752797,16210.510130
933.066030,-12139.377449,-4596.572988,11843.295072
933.066360,-13249.686362,-8044.002729,8216.285956
933.066689,-11251.130318,-7124.688131,3923.091493
933.067019,-6143.709319,-7201.297681,592.164754
933.067348,1628.453072,-8810.098227,1998.556043
933.067678,6661.853478,-1072.533697,5477.523971
933.068007,6513.812290,8810.098227,7031.956449
933.068337,6069.688724,11031.775171,7254.018232
933.068666,5551.544565,12104.308868,9252.574275
933.068996,2738.761985,13176.842566,11695.253884
933.069325,888.247130,8120.612279,13767.830521
933.069655,-1406.391290,-1532.190996,16284.530724
933.069984,-7105.977043,-4213.525239,16580.613101
933.070314,-13397.727550,-3370.820191,14063.912898
933.070643,-14878.139434,-8197.221829,11547.212695
933.070973,-9918.759623,-7967.393179,9400.615463
933.071302,-3404.947333,-4443.353888,4515.256246
933.071632,4885.359217,-4213.525239,370.102971
933.071961,12805.562797,-2528.115143,518.144159
933.072291,14211.954086,4749.792088,4441.235652
933.072621,11251.130318,11721.261119,9178.553681
933.072950,6217.729913,14479.204912,11991.336260
933.073280,1480.411884,13789.718964,14730.098246
933.073609,-2368.659014,8580.269578,17394.839637
933.073939,-6587.832884,689.485948,17690.922014
933.074268,-10510.924376,-4213.525239,13841.851115
933.074598,-12361.439231,-7737.564530,10584.944971
933.074927,-12213.398043,-10342.289223,8364.327145
933.075257,-10288.862594,-8580.269578,5033.400406
933.075586,-4737.318029,-6511.811733,1628.453072
933.075916,3701.029710,-5822.325785,2738.761985
933.076245,7994.224174,1378.971896,6365.771101
933.076575,7846.182985,10495.508323,7920.203579
933.076904,7624.121203,13559.890315,7698.141797
933.077234,6439.791695,12410.747068,10362.883188
933.077563,3478.967927,12793.794817,12583.501014
933.077893,-370.102971,5822.325785,15248.242405
933.078222,-4515.256246,-3600.648841,16728.654289
933.078552,-10436.903782,-3217.601092,15396.283594
933.078881,-15322.262999,-5132.839837,12213.398043
933.079211,-12435.459826,-10035.851024,10066.800811
933.079540,-6735.874072,-8733.488677,7402.059420
933.079870,518.144159,-5592.497135,2886.803174
933.080200,8068.244768,-3600.648841,-222.061783
933.080529,12435.459826,153.219100,1036.288319
933.080859,12879.583391,7660.954980,6069.688724
933.081188,9548.656652,13176.842566,11029.068536
933.081518,3775.050304,12947.013916,15174.221811
933.081847,-296.082377,13559.890315,17172.777854
933.082177,-4219.173869,5592.497135,17616.901420
933.082506,-7179.997637,-2374.896044,15618.345376
933.082836,-10658.965565,-6281.983084,11399.171507
933.083165,-11991.336260,-9959.241474,9844.739029
933.083495,-10510.924376,-9116.536426,6661.853478
933.083824,-7920.203579,-7201.297681,3256.906145
933.084154,-888.247130,-6205.373534,1924.535449
933.084483,5847.626942,-2757.943793,5033.400406
933.084813,7772.162391,3907.087040,7179.997637
933.085142,7105.977043,11951.089769,7402.059420
933.085472,6143.709319,13406.671215,8438.347739
933.085801,3997.112087,12410.747068,11177.109724
933.086131,1332.370696,9269.755526,14359.995275
933.086460,-2442.679609,-842.705048,17098.757260
933.086790,-7772.162391,-3677.258390,16136.489536
933.087119,-13915.871710,-3064.381992,13027.624579
933.087449,-15470.304188,-7967.393179,10807.006753
933.087778,-11325.150913,-9422.974625,9030.512492
933.088108,-4737.318029,-6894.859482,5329.482782
933.088438,4219.173869,-4903.011187,1036.288319
933.088767,11177.109724,-2528.115143,148.041188
933.089097,13249.686362,4290.134789,3627.009116
933.089426,11177.109724,11338.213370,8586.388927
933.089756,6883.915261,13330.061665,12139.377449
933.090085,2516.700203,14479.204912,15100.201217
933.090415,-1480.411884,9959.241474,18135.045579
933.090744,-5995.668130,612.876398,18949.272115
933.091074,-11177.109724,-3600.648841,15544.324782
933.091403,-14359.995275,-7660.954980,11177.109724
933.091733,-13175.665768,-10035.851024,8438.347739
933.092062,-9770.718434,-8733.488677,4737.318029
933.092392,-3701.029710,-7584.345430,962.267725
933.092721,4293.194464,-6435.202183,1110.308913
933.093051,9104.533087,-689.485948,4515.256246
933.093380,9252.574275,9652.803275,6957.935855
933.093710,7550.100608,14862.252661,7772.162391
933.094039,4811.338623,15245.300410,10881.027347
933.094369,2368.659014,14249.376263,13545.768739
933.094698,-222.061783,6665.030833,15470.304188
933.095028,-3034.844362,-3294.210641,16432.571912
933.095357,-8512.368333,-5209.449386,15174.221811
933.095687,-14508.036463,-5898.935335,12509.480420
933.096017,-14508.036463,-9116.536426,10658.965565
933.096346,-9400.615463,-8810.098227,8438.347739
933.096676,-1406.391290,-4903.011187,2960.823768
933.097005,7920.203579,-3217.601092,-296.082377
933.097335,14434.015869,-1302.362347,222.061783
933.097664,14730.098246,7354.516781,5107.421000
933.097994,11103.089130,13636.499864,10140.821405
933.098323,5403.503377,14096.157163,14359.995275
933.098653,0.000000,14402.595362,17320.819043
933.098982,-4885.359217,8580.269578,18209.066173
933.099312,-7179.997637,-1378.971896,16210.510130
933.099641,-9844.739029,-7354.516781,12361.439231
933.099971,-11547.212695,-10495.508323,9474.636058
933.100300,-11177.109724,-10955.165621,6069.688724
933.100630,-8660.409521,-8503.660028,3478.967927
933.100959,-1924.535449,-5592.497135,1480.411884
933.101289,5403.503377,-2681.334243,3923.091493
933.101618,8734.430116,2834.553343,7328.038826
933.101948,7994.224174,11644.651570,7920.203579
933.102277,6069.688724,14172.766713,8734.430116
933.102607,3627.009116,13789.718964,12435.459826
933.102936,1036.288319,11951.089769,15174.221811
933.103266,-2664.741391,2681.334243,16654.633695
933.103595,-6661.853478,-4903.011187,15174.221811
933.103925,-12287.418637,-5132.839837,11917.315666
933.104255,-14952.160028,-7660.954980,10362.883188
933.104584,-11325.150913,-10648.727422,9400.615463
933.104914,-6069.688724,-7584.345430,6957.935855
933.105243,1480.411884,-3370.820191,2442.679609
933.105573,9252.574275,-2528.115143,666.185348
933.105902,12583.501014,2298.286494,2738.761985
933.106232,11843.295072,10955.165621,7624.121203
933.106561,7624.121203,12870.404366,12435.459826
933.106891,3256.906145,12947.013916,16136.489536
933.107220,-1036.288319,12257.527968,18135.045579
933.107550,-4737.318029,3677.258390,16950.716072
933.107879,-7994.224174,-3753.867940,13767.830521
933.108209,-10807.006753,-8427.050478,9696.697840
933.108538,-10732.986159,-10955.165621,7254.018232
933.108868,-8660.409521,-9652.803275,4663.297435
933.109197,-4811.338623,-7048.078582,2738.761985
933.109527,1480.411884,-3830.477490,2886.803174
933.109856,5699.585753,-306.438199,5699.585753
933.110186,7476.080014,6358.592633,8068.244768
933.110515,6883.915261,13023.623466,8734.430116
933.110845,5329.482782,13559.890315,10510.924376
933.111174,3552.988522,11338.213370,13471.748144
933.111504,444.123565,3524.039291,17690.922014
933.111834,-4145.153275,-1762.019645,17468.860231
933.112163,-9548.656652,-2451.505594,13101.645173
933.112493,-12139.377449,-6665.030833,10214.842000
933.112822,-11251.130318,-8273.831378,9992.780217
933.113152,-7994.224174,-8044.002729,7105.977043
933.113481,-1628.453072,-6741.640382,2072.576638
933.113811,7105.977043,-4519.963438,-222.061783
933.114140,12139.377449,1378.971896,3256.906145
933.114470,12213.398043,8810.098227,7698.141797
933.114799,9252.574275,12027.699319,10658.965565
933.115129,4737.318029,13100.233016,12435.459826
933.115458,1776.494261,11874.480219,16358.551318
933.115788,-1998.556043,7048.078582,19393.395680
933.116117,-6217.729913,383.047749,17394.839637
933.116447,-11029.068536,-5898.935335,11991.336260
933.116776,-13915.871710,-9422.974625,7105.977043
933.117106,-12879.583391,-9422.974625,4663.297435
933.117435,-9030.512492,-9576.193725,3849.070898
933.117765,-3034.844362,-7660.954980,3849.070898
933.118094,2368.659014,-2451.505594,5403.503377
933.118424,5477.523971,4136.915689,6513.812290
933.118753,7328.038826,8886.707777,7179.997637
933.119083,7624.121203,12180.918418,8882.471304
933.119412,5107.421000,13636.499864,11843.295072
933.119742,2442.679609,11644.651570,13767.830521
933.120072,0.000000,3753.867940,16358.551318
933.120401,-4515.256246,-2451.505594,16950.716072
933.120731,-11695.253884,-2757.943793,14434.015869
933.121060,-15322.262999,-7201.297681,10881.027347
933.121390,-11917.315666,-9576.193725,9178.553681
933.121719,-6143.709319,-7507.735880,6069.688724
933.122049,666.185348,-4826.401637,1628.453072
933.122378,8660.409521,-4060.306139,888.247130
933.122708,12509.480420,1225.752797,4071.132681
933.123037,11473.192101,10648.727422,8290.306550
933.123367,7698.141797,14555.814462,10807.006753
933.123696,4219.173869,13789.718964,14063.912898
933.124026,222.061783,11491.432470,16506.592507
933.124355,-4145.153275,4060.306139,17098.757260
933.124685,-7772.162391,-2145.067394,14285.974681
933.125014,-10955.047942,-6588.421283,10807.006753
933.125344,-11621.233289,-9499.584175,9030.512492
933.125673,-11621.233289,-9806.022374,6513.812290
933.126003,-8364.327145,-7967.393179,2960.823768
933.126332,74.020594,-5209.449386,1110.308913
933.126662,7402.059420,-1225.752797,4885.359217
933.126991,9474.636058,5745.716235,7624.121203
933.127321,7994.224174,12793.794817,8586.388927
933.127651,6513.812290,13866.328514,9844.739029
933.127980,4219.173869,13176.842566,12731.542202
933.128310,814.226536,7660.954980,17838.963202
933.128639,-3404.947333,1302.362347,18357.107362
933.128969,-7994.224174,-2451.505594,14137.933492
933.129298,-11325.150913,-7201.297681,9548.656652
933.129628,-10436.903782,-9729.412825,8660.409521
933.129957,-7328.038826,-10418.898773,7328.038826
933.130287,-2590.720797,-7814.174080,3627.009116
933.130616,3478.967927,-4136.915689,1258.350101
933.130946,8956.491898,1378.971896,3478.967927
933.131275,11103.089130,7660.954980,7624.121203
933.131605,10214.842000,11031.775171,10066.800811
933.131934,6069.688724,12640.575717,11843.295072
933.132264,2442.679609,12947.013916,15100.201217
933.132593,-962.267725,7431.126331,18357.107362
933.132923,-5551.544565,766.095498,16802.674883
933.133252,-10807.006753,-4903.011187,12731.542202
933.133582,-13471.748144,-8810.098227,8956.491898
933.133911,-12361.439231,-10572.117872,6661.853478
933.134241,-8882.471304,-10265.679673,4515.256246
933.134570,-2812.782580,-7890.783629,2738.761985
933.134900,2664.741391,-3753.867940,3552.988522
933.135229,6883.915261,2834.553343,5995.668130
933.135559,8068.244768,8503.660028,7624.121203
933.135889,7994.224174,12563.966167,9326.594869
933.136218,5107.421000,14479.204912,11399.171507
933.136548,2442.679609,11414.822920,14285.974681
933.136877,-222.061783,3294.210641,17542.880825
933.137207,-4589.276840,-1378.971896,16654.633695
933.137536,-10140.821405,-3447.429741,12435.459826
933.137866,-13027.624579,-8427.050478,9474.636058
933.138195,-11991.336260,-9882.631924,9030.512492
933.138525,-8142.265362,-7814.174080,6143.709319
933.138854,-1036.288319,-5822.325785,1998.556043
933.139184,6809.894666,-4213.525239,1406.391290
933.139513,10362.883188,2834.553343,4737.318029
933.139843,9400.615463,9959.241474,8512.368333
933.140172,7254.018232,12563.966167,10881.027347
933.140502,3997.112087,14632.424012,12361.439231
933.140831,962.267725,11644.651570,15174.221811
933.141161,-2738.761985,3064.381992,17468.860231
933.141490,-7624.121203,-2604.724693,15544.324782
933.141820,-11843.295072,-6052.154434,11399.171507
933.142149,-12953.603985,-9039.926876,8512.368333
933.142479,-11325.150913,-9499.584175,7105.977043
933.142808,-7105.977043,-7431.126331,4441.235652
933.143138,-222.061783,-6435.202183,3034.844362
933.143467,6217.729913,-1991.848295,4663.297435
933.143797,8438.347739,6588.421283,6439.791695
933.144126,9104.533087,12257.527968,7846.182985
933.144456,7254.018232,12793.794817,9696.697840
933.144785,4441.235652,13636.499864,11917.315666
933.145115,1628.453072,8733.488677,15396.283594
933.145444,-1924.535449,612.876398,16950.716072
933.145774,-7550.100608,-2374.896044,14656.077652
933.146103,-12657.521608,-4826.401637,11769.274478
933.146433,-12805.562797,-8810.098227,10510.924376
933.146762,-9548.656652,-9729.412825,8660.409521
933.147092,-4589.276840,-6281.983084,4367.215058
933.147421,2516.700203,-4673.182538,1110.308913
933.147751,8882.471304,-1225.752797,2072.576638
933.148080,11843.295072,6435.202183,6661.853478
933.148410,10955.047942,11951.089769,9696.697840
933.148739,7105.977043,13942.938064,11325.150913
933.149069,2960.823768,13713.109414,13175.665768
933.149398,-222.061783,8120.612279,16802.674883
933.149728,-4367.215058,536.266849,16802.674883
933.150057,-8956.491898,-3524.039291,14063.912898
933.150387,-11843.295072,-7354.516781,10140.821405
933.150716,-12361.439231,-9193.145976,8660.409521
933.151046,-10584.944971,-8886.707777,6217.729913
933.151375,-5107.421000,-5975.544884,3108.864956
933.151705,2442.679609,-4060.306139,2220.617826
933.152034,8142.265362,1302.362347,4737.318029
933.152364,8956.491898,8427.050478,7105.977043
933.152693,7698.141797,12257.527968,8586.388927
933.153023,4737.318029,12793.794817,10066.800811
933.153352,1628.453072,11261.603821,13101.645173
933.153682,-1036.288319,5975.544884,17246.798449
933.154011,-3627.009116,-842.705048,17320.819043
933.154341,-8586.388927,-4673.182538,13397.727550
933.154670,-12731.542202,-8350.440928,8956.491898
933.155000,-11843.295072,-8886.707777,8808.450710
933.155329,-7550.100608,-8044.002729,7920.203579
933.155659,-1480.411884,-4443.353888,4663.297435
933.155988,4959.379811,-1302.362347,2590.720797
933.156318,9918.759623,2528.115143,3552.988522
933.156647,11769.274478,6894.859482,6661.853478
933.156977,9474.636058,10725.336972,9252.574275
933.157306,4663.297435,12487.356617,11843.295072
933.157636,740.205942,10878.556072,15692.365970
933.157965,-3034.844362,4903.011187,18283.086767
933.158295,-8142.265362,-1149.143247,16580.613101
933.158624,-12731.542202,-6128.763984,12213.398043
933.158954,-13471.748144,-9269.755526,8956.491898
933.159283,-10658.965565,-9422.974625,7105.977043
933.159613,-6439.791695,-7967.393179,5033.400406
933.159942,-518.144159,-5056.230287,2812.782580
933.160272,4515.256246,-1608.800546,3849.070898
933.160601,7920.203579,4673.182538,6069.688724
933.160931,8364.327145,10572.117872,7402.059420
933.161260,6957.935855,13023.623466,9622.677246
933.161590,4515.256246,12717.185267,11547.212695
933.161919,1628.453072,8273.831378,13323.706956
933.162249,-1850.514855,383.047749,16580.613101
933.162578,-7179.997637,-3524.039291,16506.592507
933.162908,-13175.665768,-4443.353888,13619.789333
933.163237,-14656.077652,-7201.297681,11769.274478
933.163567,-11843.295072,-8810.098227,9844.739029
933.163896,-6217.729913,-6511.811733,5403.503377
933.164226,1850.514855,-4903.011187,666.185348
933.164555,9844.739029,-3064.381992,-148.041188
933.164885,13249.686362,4136.915689,3330.926739
933.165214,11917.315666,11031.775171,7624.121203
933.165544,7772.162391,12947.013916,10288.862594
933.165873,2368.659014,13176.842566,12879.583391
933.166203,-1554.432478,10495.508323,16062.468941
933.166532,-5329.482782,2604.724693,17764.942608
933.166862,-9178.553681,-4060.306139,15618.345376
933.167191,-12953.603985,-8044.002729,12065.356855
933.167521,-13693.809927,-10418.898773,9696.697840
933.167850,-11843.295072,-8963.317327,8808.450710
933.168180,-7105.977043,-5975.544884,5329.482782
933.168509,814.226536,-4060.306139,2072.576638
933.168839,8438.347739,-689.485948,2664.741391
933.169168,12213.398043,4596.572988,5255.462188
933.169497,11103.089130,11568.042020,7031.956449
933.169827,7624.121203,13636.499864,9326.594869
933.170156,3997.112087,12947.013916,12139.377449
933.170486,222.061783,7890.783629,16580.613101
933.170815,-4367.215058,459.657299,18431.127956
933.171145,-9474.636058,-3294.210641,16062.468941
933.171474,-13323.706956,-6665.030833,12213.398043
933.171804,-12583.501014,-8120.612279,10807.006753
933.172133,-8882.471304,-8503.660028,9326.594869
933.172463,-3256.906145,-6971.469032,4737.318029
933.172792,3997.112087,-3370.820191,814.226536
933.173122,10362.883188,766.095498,1480.411884
933.173451,12731.542202,6588.421283,5181.441594
933.173781,10510.924376,11644.651570,8142.265362
933.174110,4959.379811,12870.404366,10436.903782
933.174440,444.123565,12180.918418,13249.686362
933.174769,-3849.070898,8044.002729,17320.819043
933.175099,-8438.347739,995.924147,18283.086767
933.175428,-13175.665768,-4596.572988,14730.098246
933.175758,-16062.468941,-8503.660028,9474.636058
933.176087,-14211.954086,-9116.536426,7105.977043
