#time,accel_x,accel_y,accel_z
1104.650181,-888.247130,842.705048,9622.677246
1104.650511,-962.267725,1072.533697,9252.574275
1104.650841,-962.267725,842.705048,9474.636058
1104.651170,-1110.308913,1072.533697,9548.656652
1104.651500,-962.267725,995.924147,9548.656652
1104.651829,-1036.288319,1149.143247,9622.677246
1104.652159,-1036.288319,1378.971896,9548.656652
1104.652489,-592.164754,919.314598,9622.677246
1104.652818,-962.267725,766.095498,9622.677246
1104.653148,-1036.288319,842.705048,9622.677246
1104.653478,-1110.308913,919.314598,9548.656652
1104.653807,-1036.288319,1072.533697,9770.718434
1104.654137,-814.226536,536.266849,9474.636058
1104.654466,-1036.288319,766.095498,9548.656652
1104.654796,-1036.288319,919.314598,9548.656652
1104.655126,-1184.329507,842.705048,9622.677246
1104.655455,-962.267725,1685.410096,9474.636058
1104.655785,-1110.308913,919.314598,9474.636058
1104.656114,-1184.329507,919.314598,9622.677246
1104.656444,-1036.288319,919.314598,9770.718434
1104.656774,-1184.329507,919.314598,9622.677246
1104.657103,-1184.329507,1072.533697,9474.636058
1104.657433,-592.164754,1072.533697,9474.636058
1104.657763,-962.267725,689.485948,9622.677246
1104.658092,-888.247130,919.314598,9548.656652
1104.658422,-888.247130,995.924147,9548.656652
1104.658751,-1036.288319,842.705048,9622.677246
1104.659081,-888.247130,766.095498,9030.512492
1104.659411,-814.226536,689.485948,9326.594869
1104.659740,-1036.288319,766.095498,9400.615463
1104.660070,-1110.308913,612.876398,9326.594869
1104.660399,-1036.288319,919.314598,9474.636058
1104.660729,-1036.288319,1149.143247,9400.615463
1104.661059,-888.247130,842.705048,9326.594869
1104.661388,-962.267725,995.924147,9622.677246
1104.661718,-1036.288319,995.924147,9474.636058
1104.662048,-1036.288319,919.314598,9548.656652
1104.662377,-1036.288319,995.924147,9474.636058
1104.662707,-962.267725,995.924147,9622.677246
1104.663036,-1036.288319,689.485948,9474.636058
1104.663366,-1036.288319,842.705048,9770.718434
1104.663696,-1036.288319,766.095498,9622.677246
1104.664025,-1258.350101,842.705048,9400.615463
1104.664355,-1110.308913,995.924147,9548.656652
1104.664684,-1036.288319,1149.143247,9696.697840
1104.665014,-1110.308913,1072.533697,9474.636058
1104.665344,-1036.288319,766.095498,9548.656652
1104.665673,-1110.308913,766.095498,9474.636058
1104.666003,-1110.308913,1072.533697,9326.594869
1104.666333,-666.185348,1455.581446,9844.739029
1104.666662,-814.226536,995.924147,9548.656652
1104.666992,-1184.329507,995.924147,9326.594869
1104.667321,-1110.308913,919.314598,9548.656652
1104.667651,-962.267725,919.314598,9474.636058
1104.667981,-1184.329507,1149.143247,9252.574275
1104.668310,-962.267725,842.705048,9548.656652
1104.668640,-1184.329507,766.095498,9400.615463
1104.668969,-962.267725,1302.362347,9474.636058
1104.669299,-1036.288319,1149.143247,9474.636058
1104.669629,-1110.308913,1072.533697,9474.636058
1104.669958,-888.247130,306.438199,9104.533087
1104.670288,-888.247130,919.314598,9474.636058
1104.670618,-1036.288319,842.705048,9400.615463
1104.670947,-962.267725,919.314598,9474.636058
1104.671277,-740.205942,919.314598,9400.615463
1104.671606,-814.226536,1149.143247,9030.512492
1104.671936,-296.082377,1149.143247,8956.491898
1104.672266,370.102971,689.485948,9252.574275
1104.672595,962.267725,459.657299,9252.574275
1104.672925,592.164754,612.876398,9252.574275
1104.673254,592.164754,689.485948,9918.759623
1104.673584,0.000000,1149.143247,9992.780217
1104.673914,-740.205942,1149.143247,10140.821405
1104.674243,-814.226536,536.266849,10436.903782
1104.674573,-592.164754,153.219100,10140.821405
1104.674903,-518.144159,-306.438199,9696.697840
1104.675232,592.164754,306.438199,9326.594869
1104.675562,1184.329507,0.000000,9252.574275
1104.675891,2442.679609,229.828649,9104.533087
1104.676221,3256.906145,919.314598,8956.491898
1104.676551,3775.050304,1685.410096,9104.533087
1104.676880,3923.091493,2451.505594,9178.553681
1104.677210,3627.009116,1378.971896,9770.718434
1104.677539,2960.823768,1149.143247,10214.842000
1104.677869,1998.556043,766.095498,10510.924376
1104.678199,1554.432478,612.876398,10436.903782
1104.678528,1776.494261,306.438199,10658.965565
1104.678858,1628.453072,-383.047749,10140.821405
1104.679188,2220.617826,-153.219100,9622.677246
1104.679517,2812.782580,-229.828649,9178.553681
1104.679847,3775.050304,306.438199,9252.574275
1104.680176,4219.173869,1378.971896,9178.553681
1104.680506,4145.153275,1991.848295,9474.636058
1104.680836,3182.885551,2681.334243,9992.780217
1104.681165,1554.432478,2681.334243,10140.821405
1104.681495,0.000000,2757.943793,10140.821405
1104.681824,-1628.453072,2374.896044,9844.739029
1104.682154,-1998.556043,459.657299,9030.512492
1104.682484,-814.226536,-612.876398,7772.162391
1104.682813,962.267725,-1225.752797,7328.038826
1104.683143,2738.761985,-1302.362347,6661.853478
1104.683473,4145.153275,-306.438199,6735.874072
1104.683802,4885.359217,1072.533697,7772.162391
1104.684132,3701.029710,3217.601092,9474.636058
1104.684461,2442.679609,4903.011187,11029.068536
1104.684791,1406.391290,4213.525239,12139.377449
1104.685121,148.041188,2834.553343,13101.645173
1104.685450,-888.247130,1302.362347,12509.480420
1104.685780,-1406.391290,-689.485948,11843.295072
1104.686109,-1776.494261,-2451.505594,10807.006753
1104.686439,-1110.308913,-3140.991542,9400.615463
1104.686769,148.041188,-2604.724693,8660.409521
1104.687098,1998.556043,-1608.800546,8290.306550
1104.687428,3552.988522,-995.924147,7254.018232
1104.687758,4441.235652,1225.752797,7179.997637
1104.688087,4589.276840,2451.505594,7846.182985
1104.688417,4441.235652,3447.429741,8882.471304
1104.688746,4145.153275,3907.087040,9918.759623
1104.689076,3478.967927,3753.867940,10807.006753
1104.689406,2294.638420,2757.943793,11251.130318
1104.689735,1184.329507,1149.143247,11399.171507
1104.690065,74.020594,-459.657299,10881.027347
1104.690394,-518.144159,-1532.190996,10510.924376
1104.690724,-444.123565,-1149.143247,10732.986159
1104.691054,-296.082377,-1149.143247,10288.862594
1104.691383,296.082377,-612.876398,9844.739029
1104.691713,740.205942,-383.047749,9178.553681
1104.692043,1776.494261,153.219100,8438.347739
1104.692372,2738.761985,1149.143247,8142.265362
1104.692702,4219.173869,459.657299,8438.347739
1104.693031,4663.297435,459.657299,8216.285956
1104.693361,4367.215058,459.657299,8512.368333
1104.693691,3775.050304,766.095498,9178.553681
1104.694020,2886.803174,1302.362347,9992.780217
1104.694350,2294.638420,1685.410096,10140.821405
1104.694679,1480.411884,2068.457845,10658.965565
1104.695009,1332.370696,2068.457845,10732.986159
1104.695339,1628.453072,1915.238745,9992.780217
1104.695668,2220.617826,1608.800546,9178.553681
1104.695998,2886.803174,1072.533697,7550.100608
1104.696328,2812.782580,229.828649,7328.038826
1104.696657,2664.741391,689.485948,7994.224174
1104.696987,2072.576638,1302.362347,8586.388927
1104.697316,962.267725,919.314598,9474.636058
1104.697646,-740.205942,1302.362347,9548.656652
1104.697976,-1480.411884,766.095498,10510.924376
1104.698305,-1998.556043,76.609550,11991.336260
1104.698635,-2368.659014,-383.047749,12657.521608
1104.698964,-2294.638420,0.000000,12213.398043
1104.699294,-1702.473667,229.828649,10658.965565
1104.699624,518.144159,153.219100,9030.512492
1104.699953,3256.906145,-229.828649,7772.162391
1104.700283,6291.750507,1072.533697,7031.956449
1104.700613,8660.409521,1915.238745,6883.915261
1104.700942,9770.718434,2834.553343,7476.080014
1104.701272,9548.656652,4366.744339,8512.368333
1104.701601,7476.080014,4826.401637,9548.656652
1104.701931,5181.441594,5209.449386,11547.212695
1104.702261,2368.659014,3983.696590,13323.706956
1104.702590,-888.247130,2451.505594,13915.871710
1104.702920,-4663.297435,536.266849,13323.706956
1104.703249,-6883.915261,-919.314598,12139.377449
1104.703579,-7994.224174,-2298.286494,10066.800811
1104.703909,-6217.729913,-2681.334243,6217.729913
1104.704238,-1258.350101,-3600.648841,2368.659014
1104.704568,5255.462188,-4749.792088,1480.411884
1104.704898,8882.471304,-2604.724693,2368.659014
1104.705227,8586.388927,1915.238745,4811.338623
1104.705557,7105.977043,5669.106685,7698.141797
1104.705886,5995.668130,8273.831378,10881.027347
1104.706216,3552.988522,9269.755526,13841.851115
1104.706546,370.102971,5975.544884,15766.386565
1104.706875,-2812.782580,1149.143247,16802.674883
1104.707205,-5033.400406,-612.876398,15544.324782
1104.707534,-5107.421000,-2604.724693,13471.748144
1104.707864,-2442.679609,-5209.449386,11547.212695
1104.708194,1406.391290,-5592.497135,8808.450710
1104.708523,5329.482782,-5745.716235,4885.359217
1104.708853,9696.697840,-3830.477490,1850.514855
1104.709183,13101.645173,0.000000,2886.803174
1104.709512,12657.521608,3753.867940,6809.894666
1104.709842,8068.244768,7814.174080,10658.965565
1104.710171,1480.411884,9039.926876,12509.480420
1104.710501,-2738.761985,8350.440928,13545.768739
1104.710831,-3849.070898,4366.744339,14359.995275
1104.711160,-3627.009116,-766.095498,13915.871710
1104.711490,-3182.885551,-5975.544884,10584.944971
1104.711819,-2442.679609,-8580.269578,5921.647536
1104.712149,148.041188,-7124.688131,4737.318029
1104.712479,2812.782580,-5286.058936,6661.853478
1104.712808,3182.885551,-1149.143247,9030.512492
1104.713138,1776.494261,3524.039291,9474.636058
1104.713468,1850.514855,5745.716235,10140.821405
1104.713797,4737.318029,5822.325785,11991.336260
1104.714127,5477.523971,4443.353888,12805.562797
1104.714456,4071.132681,2604.724693,11991.336260
1104.714786,1406.391290,-383.047749,11177.109724
1104.715116,-444.123565,-1378.971896,11399.171507
1104.715445,-1776.494261,-689.485948,10732.986159
1104.715775,-2368.659014,-1378.971896,8364.327145
1104.716104,-296.082377,-3524.039291,5181.441594
1104.716434,3997.112087,-3447.429741,4663.297435
1104.716764,8290.306550,-1225.752797,5699.585753
1104.717093,10140.821405,2681.334243,6513.812290
1104.717423,8068.244768,4903.011187,7476.080014
1104.717753,3997.112087,7124.688131,10140.821405
1104.718082,444.123565,8656.879127,12879.583391
1104.718412,-1554.432478,6358.592633,15988.448347
1104.718741,-2368.659014,2681.334243,16654.633695
1104.719071,-4589.276840,-919.314598,14137.933492
1104.719401,-5847.626942,-3447.429741,11029.068536
1104.719730,-4811.338623,-6511.811733,10066.800811
1104.720060,-3404.947333,-6665.030833,9252.574275
1104.720389,-3256.906145,-3064.381992,7772.162391
1104.720719,-1480.411884,-153.219100,5181.441594
1104.721049,3404.947333,2374.896044,3701.029710
1104.721378,10288.862594,3064.381992,3627.009116
1104.721708,13767.830521,2451.505594,5107.421000
1104.722038,13249.686362,6052.154434,7179.997637
1104.722367,9548.656652,9039.926876,9252.574275
1104.722697,5625.565159,9422.974625,11695.253884
1104.723026,2368.659014,7277.907231,14878.139434
1104.723356,-148.041188,4826.401637,16358.551318
1104.723686,-962.267725,459.657299,14582.057057
1104.724015,-2368.659014,-3447.429741,12139.377449
1104.724345,-3034.844362,-3370.820191,9622.677246
1104.724675,-3627.009116,-3830.477490,9030.512492
1104.725004,-3552.988522,-3677.258390,8956.491898
1104.725334,-2368.659014,0.000000,7402.059420
1104.725663,1184.329507,995.924147,3997.112087
1104.725993,7402.059420,1685.410096,1406.391290
1104.726323,12213.398043,0.000000,1998.556043
1104.726652,13471.748144,689.485948,4959.379811
1104.726982,8956.491898,5209.449386,7994.224174
1104.727312,5255.462188,7660.954980,10881.027347
1104.727641,4071.132681,6665.030833,14508.036463
1104.727971,1850.514855,3064.381992,16950.716072
1104.728300,-2960.823768,766.095498,17468.860231
1104.728630,-5995.668130,-3370.820191,15322.262999
1104.728960,-6809.894666,-5822.325785,12879.583391
1104.729289,-7624.121203,-3140.991542,11843.295072
1104.729619,-6735.874072,-3140.991542,9474.636058
1104.729949,-1554.432478,-3447.429741,5403.503377
1104.730278,5329.482782,-4290.134789,2886.803174
1104.730608,10881.027347,-3064.381992,3478.967927
1104.730937,12065.356855,1915.238745,5107.421000
1104.731267,9548.656652,5822.325785,6957.935855
1104.731597,6883.915261,7967.393179,11547.212695
1104.731926,4515.256246,9499.584175,16062.468941
1104.732256,1332.370696,9269.755526,17394.839637
1104.732586,-2960.823768,3217.601092,15544.324782
1104.732915,-6513.812290,-4443.353888,14211.954086
1104.733245,-9474.636058,-4060.306139,12583.501014
1104.733574,-8512.368333,-5515.887586,11547.212695
1104.733904,-3849.070898,-7737.564530,8882.471304
1104.734234,-666.185348,-4519.963438,5181.441594
1104.734563,2072.576638,-3447.429741,814.226536
1104.734893,6439.791695,-2221.676944,-0.000000
1104.735223,9400.615463,1149.143247,5477.523971
1104.735552,8068.244768,8733.488677,10658.965565
1104.735882,4441.235652,14555.814462,13249.686362
1104.736211,814.226536,12640.575717,12435.459826
1104.736541,-1554.432478,6358.592633,11547.212695
1104.736871,-2664.741391,76.609550,11473.192101
1104.737200,-3108.864956,-1915.238745,11325.150913
1104.737530,-2960.823768,-4979.620737,10584.944971
1104.737860,-3923.091493,-7048.078582,8512.368333
1104.738189,-4737.318029,-3830.477490,5255.462188
1104.738519,-1850.514855,-3753.867940,3701.029710
1104.738848,5847.626942,-3753.867940,4959.379811
1104.739178,9326.594869,306.438199,6069.688724
1104.739508,7179.997637,6128.763984,7624.121203
1104.739837,3182.885551,8197.221829,9992.780217
1104.740167,962.267725,7814.174080,13915.871710
1104.740497,-740.205942,7814.174080,16580.613101
1104.740826,-3701.029710,5898.935335,16506.592507
1104.741156,-4885.359217,842.705048,13249.686362
1104.741485,-4737.318029,-3064.381992,8586.388927
1104.741815,-3923.091493,-6818.249932,4737.318029
1104.742145,-2072.576638,-8886.707777,5033.400406
1104.742474,222.061783,-4749.792088,8734.430116
1104.742804,444.123565,-536.266849,10584.944971
1104.743134,-1850.514855,3677.258390,9474.636058
1104.743463,-4441.235652,5132.839837,8512.368333
1104.743793,-1924.535449,6665.030833,10214.842000
1104.744122,1036.288319,5286.058936,13471.748144
1104.744452,814.226536,3907.087040,14730.098246
1104.744782,-740.205942,4366.744339,12583.501014
1104.745111,-2072.576638,1991.848295,8956.491898
1104.745441,-1480.411884,-3217.601092,7254.018232
1104.745771,-444.123565,-4060.306139,8586.388927
1104.746100,740.205942,-1532.190996,9548.656652
1104.746430,1628.453072,0.000000,7846.182985
1104.746759,0.000000,-612.876398,7179.997637
1104.747089,-1406.391290,2604.724693,8438.347739
1104.747419,-1110.308913,5056.230287,9844.739029
1104.747748,-296.082377,2834.553343,10881.027347
1104.748078,-518.144159,3064.381992,10140.821405
1104.748408,-2220.617826,4136.915689,8068.244768
1104.748737,-1776.494261,-536.266849,7105.977043
1104.749067,74.020594,-3140.991542,7698.141797
1104.749396,-296.082377,-1915.238745,8734.430116
1104.749726,-592.164754,153.219100,8586.388927
1104.750056,-2516.700203,-919.314598,7624.121203
1104.750385,-5107.421000,-766.095498,7920.203579
1104.750715,-5107.421000,919.314598,9474.636058
1104.751045,-3330.926739,842.705048,11399.171507
1104.751374,-740.205942,459.657299,11547.212695
1104.751704,74.020594,1302.362347,9548.656652
1104.752033,-1036.288319,306.438199,6513.812290
1104.752363,222.061783,-689.485948,6957.935855
1104.752693,2220.617826,-536.266849,10362.883188
1104.753022,2368.659014,1302.362347,12139.377449
1104.753352,222.061783,2451.505594,11547.212695
1104.753682,-2368.659014,76.609550,11843.295072
1104.754011,-1924.535449,306.438199,12953.603985
1104.754341,-2368.659014,1838.629195,12953.603985
1104.754670,-2516.700203,306.438199,11991.336260
1104.755000,-3256.906145,0.000000,10436.903782
1104.755330,-3923.091493,153.219100,9178.553681
1104.755659,-1406.391290,0.000000,8512.368333
1104.755989,1554.432478,-1915.238745,8586.388927
1104.756319,2960.823768,-1302.362347,9326.594869
1104.756648,1406.391290,2604.724693,8956.491898
1104.756978,-222.061783,3140.991542,9104.533087
1104.757307,0.000000,3370.820191,9918.759623
1104.757637,-444.123565,3370.820191,10732.986159
1104.757967,-2072.576638,3753.867940,11843.295072
1104.758296,-2590.720797,3217.601092,9400.615463
1104.758626,-1110.308913,0.000000,7105.977043
1104.758956,1332.370696,-2221.676944,5699.585753
1104.759285,1184.329507,-689.485948,5625.565159
1104.759615,592.164754,-919.314598,7105.977043
1104.759944,888.247130,612.876398,8882.471304
1104.760274,-296.082377,3447.429741,8956.491898
1104.760604,-3552.988522,4213.525239,8216.285956
1104.760933,-2886.803174,2451.505594,9326.594869
1104.761263,-1554.432478,919.314598,10658.965565
1104.761593,-1406.391290,1608.800546,9918.759623
1104.761922,-2886.803174,153.219100,7846.182985
1104.762252,-3108.864956,-1225.752797,7550.100608
1104.762581,-962.267725,-1378.971896,8438.347739
1104.762911,0.000000,-2298.286494,10066.800811
1104.763241,370.102971,-536.266849,11473.192101
1104.763570,0.000000,1991.848295,10288.862594
1104.763900,-1036.288319,2298.286494,9252.574275
1104.764230,-888.247130,2221.676944,11177.109724
1104.764559,-740.205942,3140.991542,13323.706956
1104.764889,-666.185348,3140.991542,14211.954086
1104.765218,-2368.659014,1532.190996,11991.336260
1104.765548,-4145.153275,1302.362347,10066.800811
1104.765878,-2368.659014,1302.362347,9252.574275
1104.766207,1036.288319,-2145.067394,10066.800811
1104.766537,1480.411884,-3064.381992,11251.130318
1104.766867,-888.247130,995.924147,10288.862594
1104.767196,-3256.906145,3524.039291,9326.594869
1104.767526,-3108.864956,2145.067394,9474.636058
1104.767855,-2072.576638,2221.676944,10732.986159
1104.768185,-1110.308913,2451.505594,10066.800811
1104.768515,-888.247130,1685.410096,7698.141797
1104.768844,-370.102971,-229.828649,5921.647536
1104.769174,0.000000,-383.047749,5699.585753
1104.769504,74.020594,306.438199,6809.894666
1104.769833,518.144159,0.000000,8512.368333
1104.770163,-444.123565,1149.143247,9178.553681
1104.770492,-2590.720797,2681.334243,9400.615463
1104.770822,-4293.194464,3294.210641,8512.368333
1104.771152,-3552.988522,2298.286494,9030.512492
1104.771481,-1924.535449,536.266849,9844.739029
1104.771811,-1998.556043,842.705048,9474.636058
1104.772141,-2812.782580,766.095498,6883.915261
1104.772470,-2664.741391,-1838.629195,5921.647536
1104.772800,-592.164754,-2604.724693,7476.080014
1104.773129,1110.308913,0.000000,9030.512492
1104.773459,2072.576638,995.924147,9992.780217
1104.773789,2072.576638,1302.362347,10288.862594
1104.774118,-148.041188,3140.991542,9992.780217
1104.774448,-1924.535449,2987.772442,11695.253884
1104.774778,-3256.906145,1762.019645,14211.954086
1104.775107,-3775.050304,2221.676944,15248.242405
1104.775437,-4515.256246,2911.162892,13323.706956
1104.775766,-3627.009116,-612.876398,10288.862594
1104.776096,-1184.329507,-4213.525239,9178.553681
1104.776426,740.205942,-2911.162892,9622.677246
1104.776755,1776.494261,-995.924147,10584.944971
1104.777085,740.205942,76.609550,10288.862594
1104.777415,-666.185348,2757.943793,10436.903782
1104.777744,-1924.535449,4366.744339,11029.068536
1104.778074,-962.267725,4366.744339,11473.192101
1104.778403,962.267725,2528.115143,11325.150913
1104.778733,1258.350101,2145.067394,8512.368333
1104.779063,-518.144159,1838.629195,6069.688724
1104.779392,-666.185348,-459.657299,6143.709319
1104.779722,592.164754,-689.485948,8290.306550
1104.780052,1850.514855,306.438199,8438.347739
1104.780381,444.123565,919.314598,7698.141797
1104.780711,-1332.370696,1225.752797,6439.791695
1104.781040,-2294.638420,1072.533697,6661.853478
1104.781370,-1702.473667,1915.238745,7772.162391
1104.781700,-2146.597232,2145.067394,9326.594869
1104.782029,-3108.864956,1302.362347,9252.574275
1104.782359,-3923.091493,1225.752797,8512.368333
1104.782689,-4219.173869,-612.876398,7179.997637
1104.783018,-1998.556043,-2298.286494,6735.874072
1104.783348,740.205942,-2451.505594,8290.306550
1104.783677,1554.432478,-1225.752797,9252.574275
1104.784007,592.164754,1072.533697,9474.636058
1104.784337,-1702.473667,1608.800546,10214.842000
1104.784666,-1924.535449,2757.943793,11843.295072
1104.784996,-962.267725,3217.601092,12731.542202
1104.785326,-444.123565,1838.629195,12953.603985
1104.785655,-444.123565,1608.800546,11547.212695
1104.785985,-296.082377,766.095498,9770.718434
1104.786314,814.226536,-1838.629195,10066.800811
1104.786644,1184.329507,-2145.067394,11769.274478
1104.786974,0.000000,995.924147,13175.665768
1104.787303,-1480.411884,1838.629195,13175.665768
1104.787633,-2220.617826,1225.752797,11991.336260
1104.787963,-3256.906145,1991.848295,10955.047942
1104.788292,-2072.576638,2451.505594,10807.006753
1104.788622,-888.247130,689.485948,10510.924376
1104.788951,-444.123565,459.657299,9844.739029
1104.789281,-1998.556043,1072.533697,8216.285956
1104.789611,-2664.741391,1149.143247,7846.182985
1104.789940,-2072.576638,766.095498,7624.121203
1104.790270,-666.185348,306.438199,7772.162391
1104.790600,-222.061783,383.047749,7994.224174
1104.790929,-222.061783,1838.629195,7105.977043
1104.791259,-1480.411884,1838.629195,7179.997637
1104.791588,-2368.659014,1685.410096,7179.997637
1104.791918,-3552.988522,2757.943793,7846.182985
1104.792248,-3182.885551,2068.457845,8364.327145
1104.792577,-2072.576638,229.828649,7179.997637
1104.792907,-666.185348,0.000000,6217.729913
1104.793237,148.041188,-459.657299,5181.441594
1104.793566,1406.391290,-1072.533697,6365.771101
1104.793896,1480.411884,-919.314598,8290.306550
1104.794225,74.020594,2451.505594,9400.615463
1104.794555,-2368.659014,4290.134789,9770.718434
1104.794885,-3034.844362,2681.334243,11621.233289
1104.795214,-3404.947333,1455.581446,12805.562797
1104.795544,-3627.009116,1455.581446,13101.645173
1104.795874,-3478.967927,306.438199,10436.903782
1104.796203,-2886.803174,-2221.676944,10214.842000
1104.796533,-1850.514855,-3064.381992,10955.047942
1104.796862,-740.205942,-995.924147,12287.418637
1104.797192,296.082377,-842.705048,12657.521608
1104.797522,592.164754,-842.705048,11621.233289
1104.797851,-814.226536,2221.676944,10807.006753
1104.798181,-888.247130,3677.258390,11621.233289
1104.798511,518.144159,2834.553343,13323.706956
1104.798840,1776.494261,1532.190996,12879.583391
1104.799170,592.164754,2298.286494,10510.924376
1104.799499,-666.185348,1991.848295,8216.285956
1104.799829,888.247130,153.219100,8808.450710
1104.800159,2738.761985,-919.314598,9474.636058
1104.800488,2368.659014,76.609550,9400.615463
1104.800818,-370.102971,766.095498,8512.368333
1104.801148,-2220.617826,1685.410096,8142.265362
1104.801477,-2368.659014,2221.676944,8882.471304
1104.801807,-2368.659014,3294.210641,8364.327145
1104.802136,-2516.700203,1991.848295,8142.265362
1104.802466,-2368.659014,229.828649,6957.935855
1104.802796,-2516.700203,1072.533697,5403.503377
1104.803125,-2220.617826,842.705048,3923.091493
1104.803455,-518.144159,-995.924147,4737.318029
1104.803785,370.102971,-306.438199,6809.894666
1104.804114,0.000000,995.924147,8734.430116
1104.804444,-2294.638420,2298.286494,8512.368333
1104.804773,-3552.988522,2528.115143,8808.450710
1104.805103,-3182.885551,2911.162892,9992.780217
1104.805433,-2294.638420,2298.286494,12065.356855
1104.805762,-2738.761985,1378.971896,11917.315666
1104.806092,-2368.659014,153.219100,10658.965565
1104.806422,-1406.391290,-689.485948,9474.636058
1104.806751,0.000000,-306.438199,9696.697840
1104.807081,1036.288319,-229.828649,11251.130318
1104.807410,2072.576638,-229.828649,12879.583391
1104.807740,814.226536,612.876398,12879.583391
1104.808070,-1924.535449,2451.505594,12361.439231
1104.808399,-3108.864956,3217.601092,12213.398043
1104.808729,-1776.494261,3140.991542,13619.789333
1104.809059,-1184.329507,1762.019645,14508.036463
1104.809388,-2368.659014,766.095498,12657.521608
1104.809718,-3330.926739,229.828649,9400.615463
1104.810047,-1332.370696,-229.828649,7105.977043
1104.810377,1332.370696,-1762.019645,7624.121203
1104.810707,2220.617826,-1072.533697,9326.594869
1104.811036,1554.432478,1685.410096,9030.512492
1104.811366,-740.205942,2298.286494,6957.935855
1104.811696,-2146.597232,2221.676944,7402.059420
1104.812025,-2886.803174,3140.991542,9548.656652
1104.812355,-2368.659014,3524.039291,10658.965565
1104.812684,-2368.659014,1378.971896,8956.491898
1104.813014,-3108.864956,-612.876398,5921.647536
1104.813344,-2590.720797,153.219100,4219.173869
1104.813673,-296.082377,-1149.143247,3627.009116
1104.814003,2516.700203,-2757.943793,6291.750507
1104.814333,2072.576638,-306.438199,7550.100608
1104.814662,-2072.576638,4290.134789,7031.956449
1104.814992,-4589.276840,2757.943793,7328.038826
1104.815321,-3849.070898,1685.410096,9326.594869
1104.815651,-2812.782580,3064.381992,11103.089130
1104.815981,-2220.617826,0.000000,11843.295072
1104.816310,-2442.679609,-1225.752797,11103.089130
1104.816640,-3182.885551,-766.095498,10066.800811
1104.816970,-1036.288319,-536.266849,9918.759623
1104.817299,1184.329507,-2911.162892,10658.965565
1104.817629,2072.576638,-919.314598,13027.624579
1104.817958,444.123565,2987.772442,13397.727550
1104.818288,-814.226536,2911.162892,12805.562797
1104.818618,-1036.288319,2911.162892,12583.501014
1104.818947,-962.267725,3370.820191,13027.624579
1104.819277,-962.267725,1762.019645,13471.748144
1104.819606,-1702.473667,842.705048,13027.624579
1104.819936,-1998.556043,153.219100,11029.068536
1104.820265,-1480.411884,0.000000,9326.594869
1104.820595,74.020594,-766.095498,9326.594869
1104.820924,1480.411884,-1455.581446,9474.636058
1104.821254,1628.453072,536.266849,9252.574275
1104.821583,222.061783,2451.505594,8142.265362
1104.821912,-888.247130,4519.963438,8068.244768
1104.822242,-1110.308913,4673.182538,8660.409521
1104.822571,0.000000,2834.553343,8734.430116
1104.822901,-740.205942,2681.334243,8364.327145
1104.823230,-1998.556043,2374.896044,5403.503377
1104.823560,-2294.638420,536.266849,3701.029710
1104.823889,0.000000,-1532.190996,5107.421000
1104.824219,592.164754,-612.876398,6883.915261
1104.824548,0.000000,1225.752797,7105.977043
1104.824878,-2072.576638,1149.143247,6809.894666
1104.825207,-3330.926739,2374.896044,7254.018232
1104.825537,-3997.112087,2911.162892,8734.430116
1104.825866,-3552.988522,1685.410096,10214.842000
1104.826195,-2294.638420,1915.238745,11399.171507
1104.826525,-3108.864956,1685.410096,8808.450710
1104.826854,-3330.926739,-383.047749,7105.977043
1104.827184,-1554.432478,-3370.820191,8216.285956
1104.827513,888.247130,-1532.190996,10436.903782
1104.827843,1628.453072,-306.438199,11621.233289
1104.828172,370.102971,-459.657299,11325.150913
1104.828502,-1258.350101,1838.629195,11399.171507
1104.828831,-1258.350101,2528.115143,12953.603985
1104.829161,-740.205942,1915.238745,15026.180623
1104.829490,-518.144159,2298.286494,16506.592507
1104.829819,-2516.700203,2987.772442,14359.995275
1104.830149,-2664.741391,1072.533697,11769.274478
1104.830478,-592.164754,-2374.896044,11103.089130
1104.830808,1850.514855,-2221.676944,11399.171507
1104.831137,2294.638420,-2145.067394,11621.233289
1104.831467,1110.308913,-1302.362347,9992.780217
1104.831796,-962.267725,1149.143247,8512.368333
1104.832126,-1628.453072,2451.505594,9030.512492
1104.832455,-444.123565,2681.334243,9992.780217
1104.832785,592.164754,2374.896044,9030.512492
1104.833114,592.164754,1378.971896,7476.080014
1104.833444,518.144159,1685.410096,5847.626942
1104.833773,-222.061783,766.095498,4737.318029
1104.834102,-296.082377,383.047749,4441.235652
1104.834432,-1036.288319,0.000000,6143.709319
1104.834761,-1406.391290,1762.019645,8216.285956
1104.835091,-3108.864956,2987.772442,7328.038826
1104.835420,-4441.235652,306.438199,6217.729913
1104.835750,-5477.523971,-306.438199,7105.977043
1104.836079,-4737.318029,1455.581446,9178.553681
1104.836409,-2960.823768,76.609550,10288.862594
1104.836738,-2368.659014,-766.095498,8142.265362
1104.837068,-2590.720797,689.485948,7105.977043
1104.837397,-1628.453072,76.609550,7254.018232
1104.837726,1332.370696,-766.095498,9474.636058
1104.838056,3330.926739,383.047749,10807.006753
1104.838385,2738.761985,2451.505594,10658.965565
1104.838715,0.000000,1915.238745,10066.800811
1104.839044,-1258.350101,2451.505594,12361.439231
1104.839374,-1110.308913,2834.553343,15322.262999
1104.839703,-1110.308913,1838.629195,16136.489536
1104.840033,-2664.741391,919.314598,13693.809927
1104.840362,-2960.823768,766.095498,12361.439231
1104.840692,-740.205942,-1685.410096,11621.233289
1104.841021,666.185348,-1991.848295,10214.842000
1104.841351,1776.494261,-1302.362347,10732.986159
1104.841680,1110.308913,306.438199,10584.944971
1104.842009,-814.226536,2757.943793,10584.944971
1104.842339,-2664.741391,3524.039291,11103.089130
1104.842668,-2368.659014,3600.648841,11473.192101
1104.842998,-1776.494261,2681.334243,10658.965565
1104.843327,-2146.597232,1608.800546,8068.244768
1104.843657,-2072.576638,-689.485948,5773.606348
1104.843986,-1110.308913,-919.314598,5329.482782
1104.844316,-370.102971,-229.828649,5255.462188
1104.844645,148.041188,-1225.752797,6587.832884
1104.844975,0.000000,536.266849,7179.997637
1104.845304,-1924.535449,2757.943793,6513.812290
1104.845633,-2516.700203,1838.629195,6883.915261
1104.845963,-2442.679609,1685.410096,8216.285956
1104.846292,-2368.659014,2528.115143,9770.718434
1104.846622,-2368.659014,1685.410096,9326.594869
1104.846951,-2516.700203,0.000000,7328.038826
1104.847281,-1480.411884,-536.266849,5625.565159
1104.847610,1332.370696,-919.314598,6069.688724
1104.847940,3108.864956,-1991.848295,7179.997637
1104.848269,3034.844362,-689.485948,9252.574275
1104.848599,2146.597232,1378.971896,9400.615463
1104.848928,-296.082377,3217.601092,10881.027347
1104.849258,-1480.411884,2834.553343,13101.645173
1104.849587,-2368.659014,2528.115143,16062.468941
1104.849916,-2812.782580,1838.629195,16506.592507
1104.850246,-3330.926739,536.266849,14137.933492
1104.850575,-2812.782580,-2374.896044,10658.965565
1104.850905,-1184.329507,-3294.210641,9992.780217
1104.851234,1702.473667,-2451.505594,11103.089130
1104.851564,2368.659014,-2068.457845,11399.171507
1104.851893,1480.411884,0.000000,10584.944971
1104.852223,-444.123565,2451.505594,10658.965565
1104.852552,-1850.514855,4290.134789,11843.295072
1104.852882,-1332.370696,3753.867940,12953.603985
1104.853211,222.061783,2834.553343,14656.077652
1104.853540,296.082377,3217.601092,11473.192101
1104.853870,-2516.700203,2145.067394,5107.421000
1104.854199,-2886.803174,-1225.752797,2368.659014
1104.854529,444.123565,-2451.505594,6513.812290
1104.854858,1554.432478,-766.095498,8660.409521
1104.855188,-1184.329507,612.876398,8142.265362
1104.855517,-4441.235652,2145.067394,6513.812290
1104.855847,-4737.318029,4290.134789,5847.626942
1104.856176,-3404.947333,3064.381992,7105.977043
1104.856506,-1036.288319,-689.485948,8364.327145
1104.856835,-1184.329507,1838.629195,8660.409521
1104.857165,-2886.803174,4290.134789,6217.729913
1104.857494,-2516.700203,612.876398,5181.441594
1104.857823,0.000000,-1302.362347,4737.318029
1104.858153,1924.535449,-919.314598,6883.915261
1104.858482,2516.700203,-612.876398,8808.450710
1104.858812,888.247130,842.705048,9992.780217
1104.859141,-1776.494261,4060.306139,11399.171507
1104.859471,-3404.947333,4749.792088,12213.398043
1104.859800,-3034.844362,1762.019645,14359.995275
1104.860130,-1998.556043,766.095498,15692.365970
1104.860459,-2368.659014,612.876398,14063.912898
1104.860789,-2590.720797,0.000000,10584.944971
1104.861118,-1480.411884,-1608.800546,9474.636058
1104.861447,222.061783,-2987.772442,9992.780217
1104.861777,1924.535449,-1762.019645,12287.418637
1104.862106,1998.556043,-459.657299,12287.418637
1104.862436,-296.082377,1838.629195,11695.253884
1104.862765,-2294.638420,3830.477490,11103.089130
1104.863095,-2294.638420,3524.039291,12065.356855
1104.863424,-740.205942,1302.362347,13175.665768
1104.863754,74.020594,1149.143247,12583.501014
1104.864083,-1332.370696,2987.772442,9252.574275
1104.864413,-1554.432478,1378.971896,6735.874072
1104.864742,-296.082377,-1455.581446,5921.647536
1104.865072,1036.288319,-1455.581446,7994.224174
1104.865401,666.185348,459.657299,8586.388927
1104.865730,-1628.453072,1991.848295,6883.915261
1104.866060,-3627.009116,2911.162892,5699.585753
1104.866389,-4071.132681,2451.505594,7105.977043
1104.866719,-3552.988522,766.095498,8216.285956
1104.867048,-3108.864956,306.438199,7920.203579
1104.867378,-3182.885551,1225.752797,5255.462188
1104.867707,-2368.659014,306.438199,4071.132681
1104.868037,-444.123565,-1685.410096,4071.132681
1104.868366,1628.453072,-2221.676944,6513.812290
1104.868696,1850.514855,229.828649,8512.368333
1104.869025,-444.123565,2604.724693,9326.594869
1104.869354,-2664.741391,4213.525239,11029.068536
1104.869684,-2590.720797,3983.696590,13249.686362
1104.870013,-1554.432478,2298.286494,15174.221811
1104.870343,-1110.308913,-689.485948,13915.871710
1104.870672,-1554.432478,-1225.752797,11843.295072
1104.871002,-666.185348,-1149.143247,10140.821405
1104.871331,592.164754,-2528.115143,9992.780217
1104.871661,1776.494261,-2221.676944,10288.862594
1104.871990,3108.864956,-1225.752797,11695.253884
1104.872320,3478.967927,459.657299,12213.398043
1104.872649,1554.432478,1915.238745,12435.459826
1104.872979,0.000000,3524.039291,13397.727550
1104.873308,0.000000,3600.648841,14582.057057
1104.873637,74.020594,2834.553343,13619.789333
1104.873967,-1184.329507,2757.943793,8956.491898
1104.874296,-962.267725,-612.876398,7328.038826
1104.874626,1110.308913,-1762.019645,8068.244768
1104.874955,888.247130,-536.266849,7402.059420
1104.875285,-148.041188,-689.485948,7698.141797
1104.875614,-888.247130,0.000000,8438.347739
1104.875944,-2072.576638,2834.553343,8142.265362
1104.876273,-3627.009116,2834.553343,8882.471304
1104.876603,-3923.091493,1685.410096,9178.553681
1104.876932,-3552.988522,3753.867940,8956.491898
1104.877261,-2738.761985,3600.648841,7550.100608
1104.877591,-1776.494261,-153.219100,5181.441594
1104.877920,-814.226536,0.000000,2368.659014
1104.878250,962.267725,-919.314598,1776.494261
1104.878579,2738.761985,-2757.943793,3627.009116
1104.878909,2812.782580,-536.266849,7624.121203
1104.879238,-222.061783,3753.867940,9030.512492
1104.879568,-3256.906145,4749.792088,9400.615463
1104.879897,-4219.173869,3753.867940,11103.089130
1104.880227,-2516.700203,3217.601092,13397.727550
1104.880556,-1998.556043,1149.143247,14434.015869
1104.880886,-3182.885551,0.000000,11621.233289
1104.881215,-4071.132681,-1149.143247,10362.883188
1104.881544,-2516.700203,-2068.457845,10510.924376
1104.881874,-222.061783,-766.095498,12435.459826
1104.882203,1406.391290,-842.705048,12509.480420
1104.882533,370.102971,-842.705048,11843.295072
1104.882862,-1776.494261,1991.848295,9844.739029
1104.883192,-2368.659014,2451.505594,11029.068536
1104.883521,-888.247130,919.314598,13545.768739
1104.883851,-296.082377,1072.533697,14434.015869
1104.884180,-2146.597232,2987.772442,12287.418637
1104.884510,-2368.659014,689.485948,9178.553681
1104.884839,0.000000,-1838.629195,7920.203579
1104.885169,1776.494261,-536.266849,8660.409521
1104.885498,2960.823768,919.314598,10510.924376
1104.885827,1776.494261,1072.533697,10436.903782
1104.886157,-1406.391290,3370.820191,9548.656652
1104.886486,-2960.823768,4366.744339,8734.430116
1104.886816,-2590.720797,2987.772442,8956.491898
1104.887145,-1924.535449,1378.971896,8068.244768
1104.887475,-1702.473667,1608.800546,6661.853478
1104.887804,-1924.535449,306.438199,3923.091493
1104.888134,-1332.370696,-2221.676944,1924.535449
1104.888463,222.061783,-2145.067394,2664.741391
1104.888793,1850.514855,-612.876398,5181.441594
1104.889122,2146.597232,1378.971896,7550.100608
1104.889451,-1110.308913,2374.896044,7846.182985
1104.889781,-2886.803174,4979.620737,10066.800811
1104.890110,-3034.844362,3983.696590,11695.253884
1104.890440,-2368.659014,2068.457845,12879.583391
1104.890769,-2294.638420,1225.752797,12435.459826
1104.891099,-2368.659014,-306.438199,11399.171507
1104.891428,-1406.391290,-1225.752797,8808.450710
1104.891758,-666.185348,-2374.896044,7105.977043
1104.892087,1628.453072,-2374.896044,9252.574275
1104.892417,3701.029710,-995.924147,12287.418637
1104.892746,3034.844362,-689.485948,13101.645173
1104.893076,888.247130,1991.848295,13693.809927
1104.893405,-1184.329507,4596.572988,14730.098246
1104.893734,-2146.597232,5515.887586,13767.830521
1104.894064,-1924.535449,3370.820191,12213.398043
1104.894393,0.000000,0.000000,12065.356855
1104.894723,592.164754,-919.314598,10807.006753
1104.895052,-814.226536,-612.876398,8364.327145
1104.895382,-1406.391290,-2834.553343,8586.388927
1104.895711,-370.102971,0.000000,10288.862594
1104.896041,222.061783,1762.019645,10066.800811
1104.896370,-518.144159,0.000000,9178.553681
1104.896700,-1702.473667,1149.143247,8956.491898
1104.897029,-3330.926739,4979.620737,9622.677246
1104.897358,-2738.761985,4366.744339,10584.944971
1104.897688,-2220.617826,1455.581446,9770.718434
1104.898017,-2960.823768,1991.848295,5921.647536
1104.898347,-3256.906145,1608.800546,2294.638420
1104.898676,0.000000,-2374.896044,2960.823768
1104.899006,2442.679609,-1762.019645,5033.400406
1104.899335,1702.473667,1149.143247,6513.812290
1104.899665,-1628.453072,1302.362347,6143.709319
1104.899994,-4293.194464,2834.553343,6957.935855
1104.900324,-3997.112087,4596.572988,9770.718434
1104.900653,-2516.700203,3677.258390,11621.233289
1104.900983,-2072.576638,1455.581446,10955.047942
1104.901312,-2368.659014,0.000000,9178.553681
1104.901641,-2368.659014,-689.485948,8660.409521
1104.901971,-1554.432478,-536.266849,9918.759623
1104.902300,222.061783,-612.876398,11769.274478
1104.902630,888.247130,0.000000,12805.562797
1104.902959,-444.123565,229.828649,10732.986159
1104.903289,-1554.432478,1455.581446,10140.821405
1104.903618,-666.185348,153.219100,12435.459826
1104.903948,-592.164754,2451.505594,13619.789333
1104.904277,-1480.411884,3370.820191,13915.871710
1104.904607,-1554.432478,689.485948,11843.295072
1104.904936,-296.082377,-383.047749,10140.821405
1104.905265,296.082377,-1225.752797,10214.842000
1104.905595,1480.411884,-612.876398,10807.006753
1104.905924,1036.288319,689.485948,11769.274478
1104.906254,962.267725,1915.238745,12065.356855
1104.906583,0.000000,3217.601092,11177.109724
1104.906913,-2368.659014,2298.286494,10658.965565
1104.907242,-3256.906145,2298.286494,9992.780217
1104.907572,-3256.906145,3064.381992,9844.739029
1104.907901,-2960.823768,1378.971896,8142.265362
1104.908231,-2886.803174,-229.828649,4885.359217
1104.908560,-1998.556043,-1685.410096,2146.597232
1104.908890,518.144159,-1991.848295,2738.761985
1104.909219,1554.432478,-919.314598,5329.482782
1104.909548,518.144159,1455.581446,7624.121203
1104.909878,-1332.370696,4673.182538,7476.080014
1104.910207,-2738.761985,3753.867940,7402.059420
1104.910537,-2960.823768,1991.848295,9104.533087
1104.910866,-2294.638420,2834.553343,11473.192101
1104.911196,-1332.370696,1838.629195,12065.356855
1104.911525,-1924.535449,229.828649,8882.471304
1104.911855,-1924.535449,306.438199,6439.791695
1104.912184,-222.061783,-1455.581446,7105.977043
1104.912514,2590.720797,-2757.943793,10288.862594
1104.912843,3108.864956,-1991.848295,12657.521608
1104.913172,1702.473667,2604.724693,12657.521608
1104.913502,-1406.391290,4596.572988,9844.739029
1104.913831,-2442.679609,2834.553343,8882.471304
1104.914161,-740.205942,919.314598,12287.418637
1104.914490,-592.164754,842.705048,15470.304188
1104.914820,-2442.679609,1915.238745,13767.830521
1104.915149,-3849.070898,-1302.362347,10510.924376
1104.915479,-2812.782580,-1225.752797,9548.656652
1104.915808,-888.247130,-612.876398,10214.842000
1104.916138,1036.288319,-2911.162892,11991.336260
1104.916467,1702.473667,-1685.410096,11621.233289
1104.916797,-814.226536,3983.696590,10362.883188
1104.917126,-2368.659014,4673.182538,10955.047942
1104.917455,-1258.350101,2757.943793,11695.253884
1104.917785,-962.267725,2681.334243,10807.006753
1104.918114,-888.247130,2451.505594,7772.162391
1104.918444,-370.102971,153.219100,4885.359217
1104.918773,740.205942,-919.314598,4219.173869
1104.919103,1184.329507,-1225.752797,5033.400406
1104.919432,0.000000,-1685.410096,7031.956449
1104.919762,-1110.308913,1149.143247,8142.265362
1104.920091,-2146.597232,3217.601092,9030.512492
1104.920421,-3182.885551,2834.553343,8512.368333
1104.920750,-4441.235652,3294.210641,7624.121203
1104.921079,-3775.050304,1149.143247,8882.471304
1104.921409,-2294.638420,-229.828649,9992.780217
1104.921738,-2590.720797,1149.143247,8290.306550
1104.922068,-4071.132681,536.266849,7031.956449
1104.922397,-2516.700203,-1378.971896,5995.668130
1104.922727,0.000000,-1149.143247,6809.894666
1104.923056,2146.597232,-1149.143247,9400.615463
1104.923386,2368.659014,229.828649,10955.047942
1104.923715,-222.061783,2987.772442,11177.109724
1104.924045,-2146.597232,4060.306139,12435.459826
1104.924374,-2294.638420,2298.286494,14656.077652
1104.924704,-2368.659014,1991.848295,15692.365970
1104.925033,-2368.659014,2374.896044,14508.036463
1104.925363,-1924.535449,-153.219100,11399.171507
1104.925692,-740.205942,-2068.457845,9178.553681
1104.926022,1258.350101,-2451.505594,9770.718434
1104.926351,3108.864956,-1991.848295,10881.027347
1104.926681,2664.741391,0.000000,11029.068536
1104.927010,-444.123565,2987.772442,10140.821405
1104.927340,-2516.700203,5362.668486,10510.924376
1104.927669,-2220.617826,4443.353888,10807.006753
1104.927999,-1036.288319,2145.067394,11177.109724
1104.928328,-814.226536,1685.410096,9030.512492
1104.928658,-1332.370696,1685.410096,6883.915261
1104.928987,-1850.514855,-919.314598,6883.915261
1104.929317,-1850.514855,-612.876398,6809.894666
1104.929646,-1480.411884,76.609550,7179.997637
1104.929976,-814.226536,-306.438199,8216.285956
1104.930305,-1480.411884,766.095498,7994.224174
1104.930635,-3182.885551,3447.429741,7254.018232
1104.930964,-3034.844362,3907.087040,7105.977043
1104.931294,-2368.659014,842.705048,7179.997637
1104.931623,-1924.535449,1072.533697,8808.450710
1104.931952,-2886.803174,2528.115143,8216.285956
1104.932282,-3108.864956,153.219100,7031.956449
1104.932611,-1036.288319,-1302.362347,7402.059420
1104.932941,518.144159,-229.828649,7105.977043
1104.933270,888.247130,-383.047749,7179.997637
1104.933600,666.185348,-1302.362347,8290.306550
1104.933929,-444.123565,1302.362347,10584.944971
1104.934259,-1628.453072,4060.306139,12731.542202
1104.934588,-1184.329507,3447.429741,14508.036463
1104.934918,-1554.432478,1455.581446,13767.830521
1104.935247,-1554.432478,766.095498,12953.603985
1104.935577,-1332.370696,-459.657299,11325.150913
1104.935906,-740.205942,-1991.848295,10066.800811
1104.936236,592.164754,-1532.190996,11177.109724
1104.936565,592.164754,-383.047749,13175.665768
1104.936895,-518.144159,689.485948,13101.645173
1104.937224,-2146.597232,1762.019645,11029.068536
1104.937554,-2516.700203,1072.533697,9844.739029
1104.937883,-1110.308913,1608.800546,9992.780217
1104.938213,-444.123565,1072.533697,10510.924376
1104.938542,148.041188,1225.752797,10214.842000
1104.938872,-1480.411884,1302.362347,7920.203579
1104.939201,-2072.576638,919.314598,6217.729913
1104.939531,-740.205942,306.438199,6883.915261
1104.939860,740.205942,-689.485948,8586.388927
1104.940190,1332.370696,1455.581446,9400.615463
1104.940519,-148.041188,1149.143247,8586.388927
1104.940849,-2590.720797,612.876398,7254.018232
1104.941178,-3330.926739,2298.286494,7550.100608
1104.941508,-2664.741391,2604.724693,9474.636058
1104.941837,-1628.453072,1302.362347,9548.656652
1104.942167,-2294.638420,2145.067394,6069.688724
1104.942496,-1258.350101,76.609550,3034.844362
1104.942826,2072.576638,-2374.896044,3701.029710
1104.943155,3182.885551,-1378.971896,6587.832884
1104.943484,2294.638420,1302.362347,8216.285956
1104.943814,592.164754,2451.505594,9474.636058
1104.944143,-2146.597232,3217.601092,10362.883188
1104.944473,-3775.050304,3907.087040,12879.583391
1104.944802,-3552.988522,1991.848295,15100.201217
1104.945132,-3404.947333,1378.971896,15396.283594
1104.945461,-3627.009116,612.876398,13471.748144
1104.945791,-3775.050304,-766.095498,10658.965565
1104.946120,-1850.514855,-1991.848295,9326.594869
1104.946450,666.185348,-2604.724693,9844.739029
1104.946779,1998.556043,-995.924147,11251.130318
1104.947109,1924.535449,1532.190996,10807.006753
1104.947438,222.061783,3140.991542,9770.718434
1104.947768,0.000000,2911.162892,10288.862594
1104.948097,-444.123565,2911.162892,11843.295072
1104.948427,-444.123565,2987.772442,12065.356855
1104.948756,-814.226536,1991.848295,11251.130318
1104.949086,-1850.514855,766.095498,9548.656652
1104.949415,-2294.638420,919.314598,8586.388927
1104.949745,-1480.411884,-689.485948,8882.471304
1104.950074,-296.082377,-1149.143247,9770.718434
1104.950404,-592.164754,1072.533697,8808.450710
1104.950733,-1554.432478,1378.971896,5551.544565
1104.951063,-2368.659014,1455.581446,5773.606348
1104.951392,-2294.638420,2298.286494,7179.997637
1104.951722,-2368.659014,2145.067394,8290.306550
1104.952051,-2442.679609,1455.581446,8808.450710
1104.952381,-3478.967927,2298.286494,8290.306550
1104.952710,-4219.173869,2451.505594,4959.379811
1104.953040,-3108.864956,-536.266849,2812.782580
1104.953369,0.000000,-3600.648841,5329.482782
1104.953699,1924.535449,-1225.752797,8808.450710
1104.954028,-518.144159,919.314598,8882.471304
1104.954358,-3330.926739,1302.362347,9844.739029
1104.954687,-4811.338623,3294.210641,12805.562797
1104.955016,-3775.050304,4290.134789,14211.954086
1104.955346,-962.267725,689.485948,14211.954086
1104.955675,444.123565,-1991.848295,11177.109724
1104.956005,0.000000,0.000000,8734.430116
1104.956334,444.123565,-919.314598,8734.430116
1104.956664,3330.926739,-2987.772442,11843.295072
1104.956993,3552.988522,229.828649,12583.501014
1104.957323,1850.514855,2451.505594,12287.418637
1104.957652,-370.102971,919.314598,11473.192101
1104.957982,-1184.329507,2221.676944,11843.295072
1104.958311,-814.226536,2221.676944,12657.521608
1104.958641,-592.164754,842.705048,13101.645173
1104.958970,-1924.535449,1838.629195,11695.253884
1104.959300,-2368.659014,1685.410096,9474.636058
1104.959629,-1628.453072,-766.095498,7624.121203
1104.959959,-518.144159,-1378.971896,7179.997637
1104.960288,740.205942,-919.314598,7550.100608
1104.960618,1258.350101,-1608.800546,8956.491898
1104.960947,-592.164754,1149.143247,8216.285956
1104.961277,-2886.803174,2451.505594,7846.182985
1104.961606,-3182.885551,2068.457845,9030.512492
1104.961936,-2368.659014,2451.505594,9474.636058
1104.962265,-1702.473667,2451.505594,9030.512492
1104.962595,0.000000,1149.143247,7254.018232
1104.962924,444.123565,842.705048,4663.297435
1104.963254,1110.308913,306.438199,4219.173869
1104.963583,2294.638420,-383.047749,5699.585753
1104.963913,2442.679609,536.266849,7550.100608
1104.964242,666.185348,1991.848295,8660.409521
1104.964572,-2146.597232,3370.820191,9918.759623
1104.964901,-4737.318029,2757.943793,11177.109724
1104.965231,-5329.482782,2451.505594,11991.336260
1104.965560,-4219.173869,153.219100,13175.665768
1104.965890,-3404.947333,-1072.533697,11621.233289
1104.966219,-3627.009116,-459.657299,9178.553681
1104.966548,-2442.679609,-1608.800546,8364.327145
1104.966878,-518.144159,-1915.238745,9622.677246
1104.967207,296.082377,0.000000,11917.315666
1104.967537,148.041188,2068.457845,12805.562797
1104.967866,-1702.473667,3983.696590,11621.233289
1104.968196,-2368.659014,3753.867940,10881.027347
1104.968525,-2146.597232,2681.334243,11843.295072
1104.968855,-962.267725,1608.800546,12657.521608
1104.969184,-888.247130,995.924147,12435.459826
1104.969514,-1480.411884,0.000000,10214.842000
1104.969843,-2146.597232,-919.314598,9400.615463
1104.970173,-444.123565,-459.657299,9400.615463
1104.970502,962.267725,-306.438199,9474.636058
1104.970832,1554.432478,0.000000,9548.656652
1104.971161,666.185348,2451.505594,8586.388927
1104.971491,-666.185348,3064.381992,8290.306550
1104.971820,-1554.432478,2221.676944,9622.677246
1104.972150,-1924.535449,3140.991542,10881.027347
1104.972479,-2368.659014,3830.477490,8142.265362
1104.972809,-2738.761985,1762.019645,3330.926739
1104.973138,-888.247130,-1838.629195,2146.597232
1104.973468,1998.556043,-1915.238745,4219.173869
1104.973797,1776.494261,-383.047749,5477.523971
1104.974127,592.164754,-1378.971896,7402.059420
1104.974456,-1258.350101,2145.067394,9770.718434
1104.974786,-3627.009116,4903.011187,10955.047942
1104.975115,-3404.947333,1762.019645,11029.068536
1104.975445,-3034.844362,-995.924147,12213.398043
1104.975774,-2960.823768,1762.019645,12361.439231
1104.976104,-1998.556043,1838.629195,11473.192101
1104.976433,0.000000,-2451.505594,9474.636058
1104.976763,1332.370696,-1762.019645,8142.265362
1104.977092,2516.700203,-689.485948,8882.471304
1104.977422,3923.091493,-919.314598,11177.109724
1104.977751,3404.947333,1225.752797,11695.253884
1104.978080,888.247130,3830.477490,11621.233289
1104.978410,-1554.432478,3447.429741,11917.315666
1104.978739,-1554.432478,2757.943793,13619.789333
1104.979069,-1776.494261,2528.115143,15396.283594
1104.979398,-3108.864956,1762.019645,14582.057057
1104.979728,-4071.132681,0.000000,10288.862594
1104.980057,-3552.988522,-995.924147,7328.038826
1104.980387,-518.144159,-3907.087040,8660.409521
1104.980716,666.185348,-2068.457845,9918.759623
1104.981046,0.000000,1838.629195,8956.491898
1104.981375,-888.247130,1378.971896,7031.956449
1104.981705,-2442.679609,2681.334243,7476.080014
1104.982034,-2812.782580,5056.230287,9104.533087
1104.982364,-1258.350101,4060.306139,9918.759623
1104.982693,-888.247130,1455.581446,8956.491898
1104.983023,-2368.659014,1915.238745,6809.894666
1104.983352,-2960.823768,1072.533697,4515.256246
1104.983682,-888.247130,-1991.848295,4885.359217
1104.984011,1184.329507,-842.705048,6217.729913
1104.984341,740.205942,842.705048,7846.182985
1104.984670,-740.205942,1225.752797,8142.265362
1104.985000,-2368.659014,2604.724693,8068.244768
1104.985329,-3182.885551,3447.429741,9770.718434
1104.985659,-2886.803174,2757.943793,10807.006753
1104.985988,-2072.576638,2451.505594,11103.089130
1104.986318,-2072.576638,1838.629195,9622.677246
1104.986647,-1554.432478,-689.485948,8142.265362
1104.986977,-740.205942,-2298.286494,7994.224174
1104.987306,1184.329507,-1072.533697,9622.677246
1104.987636,2072.576638,229.828649,11325.150913
1104.987965,1110.308913,0.000000,11547.212695
1104.988295,-1776.494261,1685.410096,12361.439231
1104.988624,-3701.029710,2681.334243,12657.521608
1104.988954,-3404.947333,2528.115143,14063.912898
1104.989283,-1332.370696,2298.286494,15766.386565
1104.989612,-2072.576638,1455.581446,14730.098246
1104.989942,-3182.885551,0.000000,9696.697840
1104.990271,-2738.761985,-2757.943793,7254.018232
1104.990601,444.123565,-1991.848295,8216.285956
1104.990930,2072.576638,995.924147,9474.636058
1104.991260,2220.617826,1378.971896,9104.533087
1104.991589,666.185348,1838.629195,7402.059420
1104.991919,-962.267725,2145.067394,7476.080014
1104.992248,-1332.370696,2604.724693,10658.965565
1104.992578,-592.164754,2604.724693,12731.542202
1104.992907,-1776.494261,3140.991542,12065.356855
1104.993237,-3775.050304,2451.505594,7476.080014
1104.993566,-4367.215058,0.000000,3849.070898
1104.993896,-2442.679609,-3600.648841,4737.318029
1104.994225,-592.164754,-3600.648841,7476.080014
1104.994555,-2146.597232,153.219100,8956.491898
1104.994884,-5477.523971,2298.286494,7550.100608
1104.995214,-6661.853478,2451.505594,7031.956449
1104.995543,-5995.668130,1915.238745,7772.162391
1104.995873,-4219.173869,842.705048,8586.388927
1104.996202,-2294.638420,612.876398,9252.574275
1104.996532,-1628.453072,1762.019645,9178.553681
1104.996861,-3034.844362,1378.971896,9030.512492
1104.997191,-4293.194464,-842.705048,8808.450710
1104.997520,-4885.359217,-1225.752797,9474.636058
1104.997850,-3775.050304,-1072.533697,10881.027347
1104.998179,-2294.638420,612.876398,13545.768739
1104.998509,-2960.823768,2298.286494,12879.583391
1104.998838,-5181.441594,1762.019645,11177.109724
1104.999168,-5773.606348,-459.657299,11399.171507
1104.999497,-4293.194464,0.000000,13323.706956
1104.999827,-3256.906145,2298.286494,13175.665768
1105.000156,-2812.782580,1838.629195,11399.171507
1105.000486,-3923.091493,-689.485948,8808.450710
1105.000815,-4663.297435,-1991.848295,7994.224174
1105.001144,-3923.091493,-842.705048,9844.739029
1105.001474,-2590.720797,919.314598,11695.253884
1105.001803,-2368.659014,3600.648841,11399.171507
1105.002133,-3923.091493,3907.087040,10658.965565
1105.002462,-5773.606348,2221.676944,10510.924376
1105.002792,-7179.997637,2145.067394,9844.739029
1105.003121,-7994.224174,2834.553343,9030.512492
1105.003451,-7105.977043,2681.334243,7846.182985
1105.003780,-5773.606348,1455.581446,7031.956449
1105.004110,-4071.132681,-842.705048,5773.606348
1105.004439,-3552.988522,-2757.943793,3997.112087
1105.004769,-2590.720797,-1532.190996,3404.947333
1105.005098,-1702.473667,1608.800546,4811.338623
1105.005428,0.000000,3294.210641,7402.059420
1105.005757,518.144159,4826.401637,9178.553681
1105.006087,-740.205942,5056.230287,9474.636058
1105.006416,-2664.741391,4673.182538,9474.636058
1105.006746,-5181.441594,4060.306139,10436.903782
1105.007075,-8364.327145,3064.381992,12065.356855
1105.007405,-9918.759623,1378.971896,12139.377449
1105.007734,-8956.491898,-1608.800546,10807.006753
1105.008064,-5773.606348,-4673.182538,7846.182985
1105.008393,-2220.617826,-5822.325785,6217.729913
1105.008723,1036.288319,-4903.011187,5773.606348
1105.009052,2146.597232,-2145.067394,6365.771101
1105.009382,1184.329507,1838.629195,9474.636058
1105.009711,148.041188,6205.373534,13619.789333
1105.010041,-444.123565,9116.536426,15396.283594
1105.010370,-2664.741391,8197.221829,15692.365970
1105.010700,-4885.359217,4903.011187,14878.139434
1105.011029,-7698.141797,-766.095498,14063.912898
1105.011359,-9918.759623,-3447.429741,14063.912898
1105.011688,-11547.212695,-2374.896044,13323.706956
1105.012018,-10288.862594,-3370.820191,9992.780217
1105.012347,-6439.791695,-6205.373534,6143.709319
1105.012676,-1998.556043,-7890.783629,4071.132681
1105.013006,2220.617826,-4443.353888,3775.050304
1105.013335,4737.318029,459.657299,5995.668130
1105.013665,4441.235652,6588.421283,9326.594869
1105.013994,1628.453072,11414.822920,11325.150913
1105.014324,-1184.329507,11644.651570,12361.439231
1105.014653,-3923.091493,7890.783629,12139.377449
1105.014983,-5847.626942,4749.792088,11991.336260
1105.015312,-7105.977043,995.924147,10584.944971
1105.015642,-7105.977043,-3294.210641,7846.182985
1105.015971,-7105.977043,-7354.516781,6291.750507
1105.016301,-7550.100608,-8503.660028,6069.688724
1105.016630,-7624.121203,-5209.449386,4811.338623
1105.016960,-5551.544565,-1685.410096,4441.235652
1105.017289,-1924.535449,766.095498,4811.338623
1105.017619,666.185348,3217.601092,6439.791695
1105.017948,814.226536,5822.325785,8142.265362
1105.018278,518.144159,7584.345430,9770.718434
1105.018607,-1998.556043,6894.859482,11991.336260
1105.018937,-5181.441594,5209.449386,13767.830521
1105.019266,-9474.636058,4136.915689,13249.686362
1105.019596,-11177.109724,153.219100,11843.295072
1105.019925,-9918.759623,-4290.134789,10362.883188
1105.020255,-7846.182985,-6741.640382,9548.656652
1105.020584,-5181.441594,-5132.839837,7846.182985
1105.020914,-2664.741391,-3524.039291,6661.853478
1105.021244,-592.164754,-2221.676944,6809.894666
1105.021573,370.102971,2528.115143,9474.636058
1105.021903,0.000000,6128.763984,12731.542202
1105.022232,-1554.432478,8197.221829,13841.851115
1105.022562,-5033.400406,6435.202183,13767.830521
1105.022891,-7105.977043,5132.839837,13841.851115
1105.023221,-6809.894666,1532.190996,13915.871710
1105.023551,-6809.894666,-2068.457845,12287.418637
1105.023880,-7105.977043,-4596.572988,8068.244768
1105.024210,-5699.585753,-6435.202183,5255.462188
1105.024539,-3404.947333,-5209.449386,5329.482782
1105.024869,0.000000,-1685.410096,7179.997637
1105.025199,444.123565,1302.362347,7994.224174
1105.025528,-1036.288319,4366.744339,8068.244768
1105.025858,-2516.700203,7124.688131,8808.450710
1105.026187,-3627.009116,8350.440928,11473.192101
1105.026517,-4589.276840,6205.373534,12731.542202
1105.026847,-5477.523971,3370.820191,11473.192101
1105.027176,-5329.482782,0.000000,8808.450710
1105.027506,-4145.153275,-3753.867940,6661.853478
1105.027835,-2220.617826,-5515.887586,5477.523971
1105.028165,-666.185348,-4979.620737,5995.668130
1105.028494,-296.082377,-2451.505594,6661.853478
1105.028824,-1406.391290,689.485948,7772.162391
1105.029154,-3478.967927,3447.429741,9918.759623
1105.029483,-4811.338623,6281.983084,12361.439231
1105.029813,-5033.400406,6358.592633,12435.459826
1105.030142,-5625.565159,5592.497135,11843.295072
1105.030472,-4811.338623,3064.381992,10214.842000
1105.030802,-2812.782580,-689.485948,8512.368333
1105.031131,-1406.391290,-2911.162892,7624.121203
1105.031461,-2368.659014,-3447.429741,7105.977043
1105.031790,-2368.659014,-1608.800546,7402.059420
1105.032120,-1776.494261,153.219100,8068.244768
1105.032450,-1036.288319,2145.067394,9474.636058
1105.032779,-2664.741391,2911.162892,11251.130318
1105.033109,-4663.297435,3524.039291,12583.501014
1105.033438,-7476.080014,4826.401637,13397.727550
1105.033768,-9178.553681,3677.258390,14137.933492
1105.034097,-9622.677246,1455.581446,14434.015869
1105.034427,-9474.636058,-1072.533697,12583.501014
1105.034757,-7920.203579,-3064.381992,9474.636058
1105.035086,-4737.318029,-5132.839837,6587.832884
1105.035416,-1480.411884,-4213.525239,5403.503377
1105.035745,1480.411884,-1532.190996,5699.585753
1105.036075,2738.761985,995.924147,6291.750507
1105.036405,2146.597232,3907.087040,7846.182985
1105.036734,-222.061783,7201.297681,9400.615463
1105.037064,-1850.514855,8197.221829,10584.944971
1105.037393,-3849.070898,5975.544884,11695.253884
1105.037723,-6661.853478,2987.772442,11917.315666
1105.038053,-8734.430116,306.438199,11547.212695
1105.038382,-9696.697840,-2068.457845,10881.027347
1105.038712,-9326.594869,-4290.134789,9326.594869
1105.039041,-8068.244768,-4749.792088,7031.956449
1105.039371,-5847.626942,-4673.182538,5699.585753
1105.039700,-2812.782580,-2451.505594,5033.400406
1105.040030,-592.164754,1532.190996,6439.791695
1105.040360,-370.102971,3677.258390,7624.121203
1105.040689,-1924.535449,6435.202183,9030.512492
1105.041019,-3478.967927,7660.954980,10658.965565
1105.041348,-5107.421000,5515.887586,11917.315666
1105.041678,-6513.812290,3140.991542,12731.542202
1105.042008,-7476.080014,229.828649,11399.171507
1105.042337,-7772.162391,-2374.896044,10288.862594
1105.042667,-6661.853478,-4903.011187,9622.677246
1105.042996,-4737.318029,-4979.620737,9030.512492
1105.043326,-2368.659014,-3217.601092,8216.285956
1105.043656,-518.144159,-383.047749,7772.162391
1105.043985,370.102971,1532.190996,8512.368333
1105.044315,518.144159,4136.915689,10436.903782
1105.044644,148.041188,6281.983084,11695.253884
1105.044974,-1406.391290,6358.592633,12509.480420
1105.045303,-4071.132681,3217.601092,12953.603985
1105.045633,-6587.832884,1838.629195,13323.706956
1105.045963,-8142.265362,153.219100,12287.418637
1105.046292,-8290.306550,-2374.896044,9474.636058
1105.046622,-6513.812290,-4749.792088,6661.853478
1105.046951,-3404.947333,-5056.230287,5181.441594
1105.047281,-962.267725,-2528.115143,5255.462188
1105.047611,-370.102971,0.000000,6143.709319
1105.047940,-888.247130,3370.820191,7402.059420
1105.048270,-2442.679609,7124.688131,9178.553681
1105.048599,-3182.885551,8580.269578,11177.109724
1105.048929,-4071.132681,6588.421283,11843.295072
1105.049259,-5625.565159,4213.525239,12657.521608
1105.049588,-6365.771101,1608.800546,11843.295072
1105.049918,-6217.729913,-689.485948,10732.986159
1105.050247,-6365.771101,-2221.676944,9622.677246
1105.050577,-5477.523971,-2451.505594,8068.244768
1105.050906,-3849.070898,-1838.629195,7254.018232
1105.051236,-1702.473667,459.657299,6661.853478
1105.051566,222.061783,2681.334243,7328.038826
1105.051895,666.185348,4443.353888,8142.265362
1105.052225,-296.082377,5822.325785,8956.491898
1105.052554,-1628.453072,6588.421283,9622.677246
1105.052884,-3552.988522,5669.106685,11251.130318
1105.053214,-4811.338623,4136.915689,11843.295072
1105.053543,-5477.523971,2221.676944,10807.006753
1105.053873,-5181.441594,0.000000,9474.636058
1105.054202,-4071.132681,-1532.190996,8216.285956
1105.054532,-2664.741391,-1838.629195,8068.244768
1105.054862,-1924.535449,0.000000,8586.388927
1105.055191,-2146.597232,2834.553343,9178.553681
1105.055521,-2590.720797,4519.963438,9770.718434
1105.055850,-2664.741391,5515.887586,10732.986159
1105.056180,-2442.679609,6281.983084,11251.130318
1105.056509,-2294.638420,5515.887586,11473.192101
1105.056839,-2294.638420,4290.134789,10881.027347
1105.057169,-1554.432478,2528.115143,10288.862594
1105.057498,-296.082377,1685.410096,9696.697840
1105.057828,0.000000,1072.533697,9030.512492
1105.058157,-296.082377,2298.286494,8956.491898
1105.058487,74.020594,3447.429741,8882.471304
1105.058817,814.226536,5132.839837,9548.656652
1105.059146,296.082377,6818.249932,10510.924376
1105.059476,-1036.288319,7890.783629,10510.924376
1105.059805,-2368.659014,7507.735880,10140.821405
1105.060135,-3552.988522,6818.249932,9326.594869
1105.060465,-4219.173869,5056.230287,8438.347739
1105.060794,-3849.070898,2757.943793,6957.935855
1105.061124,-2664.741391,1532.190996,5625.565159
1105.061453,-1406.391290,153.219100,5403.503377
1105.061783,-1406.391290,536.266849,5995.668130
1105.062112,-1554.432478,1991.848295,7105.977043
1105.062442,-2146.597232,4673.182538,8216.285956
1105.062772,-2220.617826,6588.421283,9474.636058
1105.063101,-2146.597232,7584.345430,11325.150913
1105.063431,-1924.535449,7354.516781,11399.171507
1105.063760,-1110.308913,6205.373534,11325.150913
1105.064090,-666.185348,4749.792088,10955.047942
1105.064420,148.041188,3677.258390,10362.883188
1105.064749,-370.102971,2757.943793,10214.842000
1105.065079,-592.164754,2528.115143,9696.697840
1105.065408,-666.185348,2451.505594,9252.574275
1105.065738,-222.061783,2911.162892,9252.574275
1105.066068,740.205942,2987.772442,9548.656652
1105.066397,370.102971,3217.601092,9696.697840
1105.066727,-888.247130,4213.525239,10214.842000
1105.067056,-1776.494261,4749.792088,10881.027347
1105.067386,-2072.576638,4903.011187,11251.130318
1105.067715,-2072.576638,4673.182538,11621.233289
1105.068045,-1702.473667,4060.306139,11103.089130
1105.068375,-1480.411884,3600.648841,10214.842000
1105.068704,-1480.411884,3524.039291,9844.739029
1105.069034,-888.247130,4596.572988,9992.780217
1105.069363,-222.061783,5056.230287,9474.636058
1105.069693,74.020594,4290.134789,7920.203579
1105.070023,0.000000,3830.477490,6439.791695
1105.070352,296.082377,2451.505594,6365.771101
1105.070682,-222.061783,1762.019645,6957.935855
1105.071011,-1332.370696,1915.238745,8216.285956
1105.071341,-2886.803174,2528.115143,8956.491898
1105.071671,-3182.885551,2987.772442,9548.656652
1105.072000,-3256.906145,3370.820191,10584.944971
1105.072330,-2294.638420,3677.258390,10955.047942
1105.072659,-1776.494261,4673.182538,10362.883188
1105.072989,-666.185348,5745.716235,9918.759623
1105.073318,148.041188,6435.202183,9992.780217
1105.073648,444.123565,6818.249932,9992.780217
1105.073978,74.020594,6281.983084,9104.533087
1105.074307,-666.185348,5439.278036,7846.182985
1105.074637,-1184.329507,3600.648841,7179.997637
1105.074966,-1480.411884,2374.896044,6735.874072
1105.075296,-2220.617826,919.314598,6957.935855
1105.075626,-2442.679609,0.000000,7624.121203
1105.075955,-2738.761985,-766.095498,8808.450710
1105.076285,-2664.741391,536.266849,10066.800811
1105.076614,-2220.617826,2681.334243,11621.233289
1105.076944,-1332.370696,4596.572988,12287.418637
1105.077273,-444.123565,5439.278036,12583.501014
1105.077603,0.000000,6358.592633,12583.501014
1105.077933,444.123565,7048.078582,11917.315666
1105.078262,518.144159,5975.544884,11251.130318
1105.078592,444.123565,4596.572988,9918.759623
1105.078921,-370.102971,4596.572988,9252.574275
1105.079251,-592.164754,3447.429741,8660.409521
1105.079581,-1406.391290,2451.505594,8216.285956
1105.079910,-1332.370696,1915.238745,7550.100608
1105.080240,-592.164754,1838.629195,7254.018232
1105.080569,-370.102971,2681.334243,8068.244768
1105.080899,-444.123565,3064.381992,8808.450710
1105.081229,-666.185348,3677.258390,9548.656652
1105.081558,-1258.350101,5056.230287,10362.883188
1105.081888,-1850.514855,6741.640382,11029.068536
1105.082217,-1628.453072,7048.078582,11991.336260
1105.082547,-1924.535449,6358.592633,11991.336260
1105.082876,-3330.926739,6281.983084,10807.006753
1105.083206,-4367.215058,6052.154434,8956.491898
1105.083536,-3330.926739,4749.792088,6217.729913
1105.083865,-444.123565,3370.820191,4441.235652
1105.084195,1776.494261,1532.190996,4145.153275
1105.084524,2738.761985,919.314598,4589.276840
1105.084854,1776.494261,2451.505594,5403.503377
1105.085184,74.020594,4060.306139,7846.182985
1105.085513,-1924.535449,5745.716235,10584.944971
1105.085843,-3182.885551,7201.297681,13767.830521
1105.086172,-4293.194464,7124.688131,15322.262999
1105.086502,-4293.194464,5975.544884,14730.098246
1105.086832,-4441.235652,4673.182538,13027.624579
1105.087161,-4293.194464,3064.381992,11399.171507
1105.087491,-2294.638420,3217.601092,9622.677246
1105.087820,0.000000,1608.800546,7920.203579
1105.088150,2368.659014,1838.629195,5329.482782
1105.088479,4515.256246,1838.629195,4293.194464
1105.088809,5033.400406,2451.505594,5033.400406
1105.089139,3552.988522,5286.058936,7920.203579
1105.089468,74.020594,6971.469032,10436.903782
1105.089798,-3552.988522,8044.002729,12435.459826
1105.090127,-4885.359217,6971.469032,13619.789333
1105.090457,-4145.153275,4826.401637,14285.974681
1105.090787,-2664.741391,2604.724693,13027.624579
1105.091116,-1554.432478,306.438199,9844.739029
1105.091446,-1184.329507,306.438199,7105.977043
1105.091775,-1036.288319,612.876398,7105.977043
1105.092105,-1184.329507,2834.553343,9770.718434
1105.092435,-1850.514855,6588.421283,9918.759623
1105.092764,-1702.473667,6128.763984,7254.018232
1105.093094,-814.226536,2374.896044,5033.400406
1105.093423,0.000000,1072.533697,6809.894666
1105.093753,-666.185348,2528.115143,9992.780217
1105.094082,-1850.514855,4596.572988,12065.356855
1105.094412,-2812.782580,5745.716235,11843.295072
1105.094742,-2368.659014,6588.421283,11843.295072
1105.095071,-1554.432478,4903.011187,10584.944971
1105.095401,-296.082377,2834.553343,7920.203579
1105.095730,592.164754,1532.190996,5995.668130
1105.096060,2072.576638,919.314598,5625.565159
1105.096390,2220.617826,3217.601092,7105.977043
1105.096719,1406.391290,4290.134789,8512.368333
1105.097049,296.082377,3753.867940,10362.883188
1105.097378,-1702.473667,4213.525239,11917.315666
1105.097708,-3701.029710,6281.983084,11917.315666
1105.098038,-3330.926739,6358.592633,11843.295072
1105.098367,-1702.473667,3140.991542,12435.459826
1105.098697,-1554.432478,2757.943793,11769.274478
1105.099026,-2072.576638,2987.772442,10214.842000
1105.099356,-1480.411884,3217.601092,8734.430116
1105.099685,-518.144159,4903.011187,7920.203579
1105.100015,-148.041188,5898.935335,7328.038826
1105.100345,814.226536,4366.744339,6217.729913
1105.100674,2442.679609,2068.457845,5625.565159
1105.101004,2516.700203,2221.676944,6365.771101
1105.101333,1332.370696,3830.477490,8438.347739
1105.101663,-1480.411884,5669.106685,11917.315666
1105.101993,-3849.070898,7584.345430,14804.118840
1105.102322,-4959.379811,8810.098227,15174.221811
1105.102652,-3923.091493,7584.345430,14063.912898
1105.102981,-1702.473667,5132.839837,12657.521608
1105.103311,-1554.432478,2911.162892,10288.862594
1105.103641,-2294.638420,3064.381992,8364.327145
1105.103970,-3034.844362,4136.915689,5921.647536
1105.104300,-2072.576638,4290.134789,4293.194464
1105.104629,0.000000,3983.696590,3849.070898
1105.104959,2072.576638,2298.286494,3701.029710
1105.105288,2368.659014,4060.306139,4367.215058
1105.105618,1850.514855,5362.668486,5255.462188
1105.105948,1554.432478,5822.325785,7994.224174
1105.106277,0.000000,6588.421283,11843.295072
1105.106607,-2664.741391,7660.954980,14730.098246
1105.106936,-3182.885551,7354.516781,15174.221811
1105.107266,-3923.091493,5898.935335,14137.933492
1105.107596,-3849.070898,4826.401637,12139.377449
1105.107925,-3849.070898,2987.772442,10140.821405
1105.108255,-3182.885551,0.000000,8586.388927
1105.108584,-2960.823768,-1072.533697,5699.585753
1105.108914,-1480.411884,0.000000,3108.864956
1105.109244,2072.576638,-459.657299,2812.782580
1105.109573,4367.215058,919.314598,4441.235652
1105.109903,3923.091493,3294.210641,6587.832884
1105.110232,3256.906145,5515.887586,9770.718434
1105.110562,2368.659014,6281.983084,13397.727550
1105.110891,666.185348,7507.735880,17246.798449
1105.111221,-1480.411884,9039.926876,19097.313304
1105.111551,-3701.029710,5898.935335,17690.922014
1105.111880,-4811.338623,3064.381992,14508.036463
1105.112210,-4589.276840,229.828649,10436.903782
1105.112539,-3034.844362,-3064.381992,7105.977043
1105.112869,-888.247130,-4366.744339,4885.359217
1105.113199,1480.411884,-4213.525239,3701.029710
1105.113528,2220.617826,-1302.362347,2368.659014
1105.113858,3182.885551,-306.438199,2886.803174
1105.114187,2960.823768,2374.896044,6069.688724
1105.114517,1998.556043,5439.278036,11769.274478
1105.114847,-148.041188,8580.269578,16580.613101
1105.115176,-2886.803174,11644.651570,18135.045579
1105.115506,-4071.132681,9576.193725,17320.819043
1105.115835,-5107.421000,5056.230287,15026.180623
1105.116165,-5995.668130,1455.581446,10510.924376
1105.116494,-5181.441594,-2374.896044,6439.791695
1105.116824,-2590.720797,-4903.011187,3034.844362
1105.117154,-1406.391290,-4519.963438,296.082377
1105.117483,296.082377,-2834.553343,-740.205942
1105.117813,1924.535449,-1455.581446,592.164754
1105.118142,3256.906145,-153.219100,4515.256246
1105.118472,2220.617826,3907.087040,10362.883188
1105.118802,-1776.494261,8810.098227,13767.830521
1105.119131,-3923.091493,10418.898773,14804.118840
1105.119461,-3701.029710,5592.497135,15840.407159
1105.119790,-2294.638420,2451.505594,16136.489536
1105.120120,-1406.391290,1378.971896,13545.768739
1105.120450,-1406.391290,-1685.410096,8512.368333
1105.120779,-1406.391290,-4519.963438,3997.112087
1105.121109,518.144159,-4903.011187,2960.823768
1105.121438,2072.576638,-5439.278036,5847.626942
1105.121768,3627.009116,-2145.067394,8882.471304
1105.122097,1776.494261,2911.162892,10362.883188
1105.122430,-740.205942,4826.401637,11843.295072
1105.122759,-1850.514855,4903.011187,15322.262999
1105.123089,-1480.411884,6205.373534,18949.272115
1105.123419,-1554.432478,6281.983084,19319.375086
1105.123748,-2146.597232,3677.258390,15618.345376
1105.124078,-2294.638420,2528.115143,9548.656652
1105.124408,888.247130,-1532.190996,4959.379811
1105.124737,2960.823768,-6741.640382,2886.803174
1105.125067,3034.844362,-5975.544884,3108.864956
1105.125397,814.226536,-2604.724693,6069.688724
1105.125727,-2368.659014,1149.143247,7846.182985
1105.126056,-5181.441594,3600.648841,8882.471304
1105.126386,-5477.523971,2451.505594,11029.068536
1105.126716,-2442.679609,1915.238745,13767.830521
1105.127045,-962.267725,4519.963438,14730.098246
1105.127375,-962.267725,7124.688131,12583.501014
1105.127705,-370.102971,4903.011187,8512.368333
1105.128035,1110.308913,-1225.752797,5329.482782
1105.128364,2146.597232,-2528.115143,5181.441594
1105.128694,1184.329507,-1225.752797,7105.977043
1105.129024,-2294.638420,1149.143247,5625.565159
1105.129353,-4515.256246,689.485948,3552.988522
1105.129683,-3404.947333,-4443.353888,4663.297435
1105.130013,-1998.556043,-3907.087040,8512.368333
1105.130343,-962.267725,-1532.190996,11843.295072
1105.130672,-1480.411884,2374.896044,11991.336260
1105.131002,-1554.432478,3907.087040,9844.739029
1105.131332,518.144159,2757.943793,10066.800811
1105.131661,3330.926739,1608.800546,11769.274478
1105.131991,3701.029710,1455.581446,12953.603985
1105.132321,1776.494261,2221.676944,10955.047942
1105.132650,-1628.453072,2145.067394,8364.327145
1105.132980,-2368.659014,-2068.457845,8290.306550
1105.133310,-2072.576638,-5822.325785,9696.697840
1105.133640,-2738.761985,-4979.620737,11843.295072
1105.133969,-3108.864956,-1455.581446,11325.150913
1105.134299,-2738.761985,459.657299,10658.965565
1105.134629,-1036.288319,-459.657299,11547.212695
1105.134958,0.000000,689.485948,13545.768739
1105.135288,888.247130,2528.115143,14211.954086
1105.135618,740.205942,5132.839837,13693.809927
1105.135948,0.000000,6435.202183,11399.171507
1105.136277,-666.185348,4136.915689,9918.759623
1105.136607,-444.123565,-536.266849,8808.450710
1105.136937,-888.247130,-2451.505594,8734.430116
1105.137266,-1332.370696,-459.657299,8438.347739
1105.137596,-2442.679609,842.705048,5921.647536
1105.137926,-2368.659014,-536.266849,5181.441594
1105.138256,-962.267725,-1302.362347,5699.585753
1105.138585,740.205942,689.485948,7328.038826
1105.138915,1554.432478,3524.039291,8882.471304
1105.139245,296.082377,6358.592633,8364.327145
1105.139574,-2368.659014,6128.763984,8216.285956
1105.139904,-3182.885551,3600.648841,9474.636058
1105.140234,-2664.741391,2987.772442,9918.759623
1105.140563,-1998.556043,995.924147,8142.265362
1105.140893,-2072.576638,-1225.752797,5033.400406
1105.141223,-2516.700203,-2528.115143,3849.070898
1105.141553,-1332.370696,-3294.210641,5699.585753
1105.141882,518.144159,-1378.971896,8290.306550
1105.142212,1480.411884,919.314598,10066.800811
1105.142542,74.020594,4060.306139,10362.883188
1105.142871,-1110.308913,3983.696590,11325.150913
1105.143201,-1332.370696,2757.943793,13323.706956
1105.143531,-444.123565,2298.286494,14211.954086
1105.143861,444.123565,2068.457845,14211.954086
1105.144190,444.123565,1532.190996,12583.501014
1105.144520,-518.144159,383.047749,9918.759623
1105.144850,148.041188,-3447.429741,8586.388927
1105.145179,1850.514855,-4903.011187,8882.471304
1105.145509,1924.535449,-1838.629195,10584.944971
1105.145839,740.205942,2528.115143,11917.315666
1105.146169,-2294.638420,4060.306139,11251.130318
1105.146498,-3034.844362,2298.286494,11103.089130
1105.146828,-2294.638420,229.828649,10955.047942
1105.147158,-1628.453072,76.609550,10658.965565
1105.147487,-1776.494261,0.000000,10362.883188
1105.147817,-2368.659014,0.000000,9400.615463
1105.148147,-2664.741391,-842.705048,8142.265362
1105.148476,-2590.720797,-1302.362347,7772.162391
1105.148806,-1258.350101,-1762.019645,8068.244768
1105.149136,-666.185348,76.609550,9474.636058
1105.149466,-1850.514855,2145.067394,8734.430116
1105.149795,-3108.864956,1838.629195,7624.121203
1105.150125,-2368.659014,612.876398,7328.038826
1105.150455,-888.247130,229.828649,7698.141797
1105.150784,518.144159,842.705048,9178.553681
1105.151114,0.000000,2374.896044,8734.430116
1105.151444,-666.185348,2451.505594,6957.935855
1105.151774,888.247130,-612.876398,5551.544565
1105.152103,2738.761985,-2604.724693,7179.997637
1105.152433,2960.823768,-459.657299,10510.924376
1105.152763,74.020594,3524.039291,11695.253884
1105.153092,-3404.947333,4290.134789,10066.800811
1105.153422,-3997.112087,612.876398,9178.553681
1105.153752,-2812.782580,-2068.457845,10955.047942
1105.154082,-1554.432478,-1378.971896,12657.521608
1105.154411,-1924.535449,536.266849,11177.109724
1105.154741,-2368.659014,612.876398,8364.327145
1105.155071,-518.144159,-689.485948,7254.018232
1105.155400,1998.556043,-1378.971896,9252.574275
1105.155730,3034.844362,76.609550,12805.562797
1105.156060,962.267725,3447.429741,14137.933492
1105.156390,-2664.741391,6511.811733,12583.501014
1105.156719,-3849.070898,3830.477490,11029.068536
1105.157049,-2368.659014,-383.047749,11843.295072
1105.157379,-1184.329507,-919.314598,12731.542202
1105.157708,-518.144159,0.000000,11325.150913
1105.158038,-1850.514855,612.876398,7105.977043
1105.158368,-1406.391290,-995.924147,4885.359217
1105.158697,444.123565,-2145.067394,6735.874072
1105.159027,1998.556043,0.000000,9548.656652
1105.159357,1628.453072,3370.820191,9474.636058
1105.159687,74.020594,5745.716235,7920.203579
1105.160016,-1628.453072,4749.792088,6661.853478
1105.160346,-1924.535449,2068.457845,7550.100608
1105.160676,-1628.453072,306.438199,9622.677246
1105.161005,-1850.514855,153.219100,9548.656652
1105.161335,-2960.823768,-536.266849,6883.915261
1105.161665,-3627.009116,-1762.019645,5773.606348
1105.161995,-2516.700203,-3677.258390,6735.874072
1105.162324,-1036.288319,-3140.991542,8512.368333
1105.162654,0.000000,0.000000,9844.739029
1105.162984,0.000000,2374.896044,10362.883188
1105.163313,-2072.576638,3907.087040,10732.986159
1105.163643,-2368.659014,3064.381992,11103.089130
1105.163973,-1110.308913,536.266849,11177.109724
1105.164303,444.123565,-995.924147,10732.986159
1105.164632,740.205942,0.000000,10881.027347
1105.164962,-222.061783,1149.143247,9030.512492
1105.165292,-222.061783,-1685.410096,8956.491898
1105.165621,444.123565,-3830.477490,9918.759623
1105.165951,1036.288319,-1608.800546,12065.356855
1105.166281,444.123565,1225.752797,13249.686362
1105.166610,-1406.391290,4060.306139,12879.583391
1105.166940,-2812.782580,4290.134789,11547.212695
1105.167270,-2072.576638,1225.752797,9696.697840
1105.167600,0.000000,-1225.752797,10510.924376
1105.167929,888.247130,306.438199,11177.109724
1105.168259,-814.226536,3447.429741,8660.409521
1105.168589,-1776.494261,306.438199,6809.894666
1105.168918,-962.267725,-2834.553343,6883.915261
1105.169248,-148.041188,-1302.362347,9104.533087
1105.169578,-1184.329507,2145.067394,10881.027347
1105.169908,-3034.844362,4903.011187,9770.718434
1105.170237,-3849.070898,4136.915689,9252.574275
1105.170567,-2664.741391,1762.019645,9992.780217
1105.170897,-1924.535449,612.876398,9252.574275
1105.171226,-1776.494261,229.828649,7994.224174
1105.171556,-1406.391290,1149.143247,6661.853478
1105.171886,-1406.391290,1838.629195,5699.585753
1105.172216,-222.061783,76.609550,5921.647536
1105.172545,962.267725,-1455.581446,7254.018232
1105.172875,740.205942,-536.266849,9696.697840
1105.173205,-740.205942,3370.820191,10214.842000
1105.173534,-2516.700203,4979.620737,9918.759623
1105.173864,-2368.659014,1685.410096,9030.512492
1105.174194,-1036.288319,-612.876398,9844.739029
1105.174523,-222.061783,-766.095498,10658.965565
1105.174853,-222.061783,1378.971896,10732.986159
1105.175183,-444.123565,1149.143247,7994.224174
1105.175513,148.041188,-1302.362347,7624.121203
1105.175842,1406.391290,-2757.943793,9252.574275
1105.176172,1184.329507,-1915.238745,12657.521608
1105.176502,0.000000,1915.238745,14434.015869
1105.176831,-2368.659014,5056.230287,13619.789333
1105.177161,-3478.967927,4060.306139,12361.439231
1105.177491,-2368.659014,689.485948,12583.501014
1105.177821,-1184.329507,-766.095498,13619.789333
1105.178150,-962.267725,919.314598,11917.315666
1105.178480,-2368.659014,2145.067394,7994.224174
1105.178810,-1554.432478,383.047749,6587.832884
1105.179139,444.123565,-1378.971896,7328.038826
1105.179469,666.185348,-689.485948,9844.739029
1105.179799,-1036.288319,2604.724693,10807.006753
1105.180129,-3034.844362,5669.106685,8956.491898
1105.180458,-3775.050304,4136.915689,8068.244768
1105.180788,-2886.803174,995.924147,8068.244768
1105.181118,-1998.556043,76.609550,8512.368333
1105.181447,-1480.411884,153.219100,8142.265362
1105.181777,-1850.514855,1608.800546,6291.750507
1105.182107,-2368.659014,1685.410096,4515.256246
1105.182436,-814.226536,-306.438199,5403.503377
1105.182766,740.205942,-1378.971896,8290.306550
1105.183096,814.226536,1608.800546,10140.821405
1105.183426,-740.205942,4979.620737,9104.533087
1105.183755,-2368.659014,4136.915689,7624.121203
1105.184085,-1554.432478,1378.971896,8956.491898
1105.184415,-740.205942,-459.657299,10584.944971
1105.184744,0.000000,459.657299,11399.171507
1105.185074,-296.082377,1149.143247,9918.759623
1105.185404,-1480.411884,459.657299,8068.244768
1105.185734,-592.164754,-1302.362347,8142.265362
1105.186063,1332.370696,-2451.505594,10362.883188
1105.186393,1776.494261,-689.485948,12583.501014
1105.186723,296.082377,2757.943793,12731.542202
1105.187052,-2442.679609,4443.353888,12287.418637
1105.187382,-3182.885551,2298.286494,12435.459826
1105.187712,-1554.432478,76.609550,12435.459826
1105.188042,-814.226536,-76.609550,11843.295072
1105.188371,-592.164754,612.876398,9918.759623
1105.188701,-1554.432478,689.485948,8364.327145
1105.189031,-1406.391290,-76.609550,8142.265362
1105.189360,-962.267725,-1378.971896,8660.409521
1105.189690,-888.247130,-1072.533697,10066.800811
1105.190020,-1184.329507,842.705048,11325.150913
1105.190349,-2960.823768,3140.991542,11325.150913
1105.190679,-4737.318029,2911.162892,10436.903782
1105.191009,-4219.173869,1072.533697,9548.656652
1105.191339,-2442.679609,229.828649,9474.636058
1105.191668,-370.102971,689.485948,9400.615463
1105.191998,-592.164754,2451.505594,8142.265362
1105.192328,-1406.391290,2068.457845,5329.482782
1105.192657,0.000000,-153.219100,3627.009116
1105.192987,1480.411884,-1455.581446,6143.709319
1105.193317,1924.535449,1225.752797,9252.574275
1105.193647,-444.123565,5056.230287,10140.821405
1105.193976,-3034.844362,4519.963438,9474.636058
1105.194306,-3552.988522,1455.581446,7994.224174
1105.194636,-2220.617826,-306.438199,8290.306550
1105.194965,-296.082377,-1149.143247,10140.821405
1105.195295,0.000000,689.485948,9474.636058
1105.195625,-1406.391290,2221.676944,7994.224174
1105.195955,-1258.350101,1149.143247,6587.832884
1105.196284,222.061783,0.000000,7624.121203
1105.196614,1776.494261,0.000000,11177.109724
1105.196944,740.205942,2987.772442,13101.645173
1105.197273,-2072.576638,4826.401637,12213.398043
1105.197603,-3330.926739,3677.258390,11547.212695
1105.197933,-2368.659014,1225.752797,11843.295072
1105.198262,-1258.350101,0.000000,12657.521608
1105.198592,-962.267725,2221.676944,12879.583391
1105.198922,-1110.308913,1915.238745,10436.903782
1105.199252,-592.164754,919.314598,8364.327145
1105.199581,0.000000,-153.219100,8512.368333
1105.199911,740.205942,229.828649,10658.965565
1105.200241,74.020594,2757.943793,11843.295072
1105.200570,-2072.576638,5286.058936,10584.944971
1105.200900,-3034.844362,4290.134789,9030.512492
1105.201230,-2738.761985,766.095498,8586.388927
1105.201560,-1702.473667,-995.924147,9104.533087
1105.201889,-962.267725,919.314598,9400.615463
1105.202219,-1628.453072,2451.505594,7105.977043
1105.202549,-1258.350101,1991.848295,4959.379811
1105.202878,-148.041188,-536.266849,5403.503377
1105.203208,222.061783,-2068.457845,6735.874072
1105.203538,-592.164754,995.924147,9548.656652
1105.203868,-1850.514855,3524.039291,10658.965565
1105.204197,-3701.029710,3983.696590,10066.800811
1105.204527,-4663.297435,1378.971896,8808.450710
1105.204857,-3034.844362,-2757.943793,8512.368333
1105.205186,-814.226536,-3524.039291,9622.677246
1105.205516,296.082377,-536.266849,9844.739029
1105.205846,-666.185348,2374.896044,8438.347739
1105.206175,-148.041188,459.657299,7254.018232
1105.206505,1332.370696,-2298.286494,8586.388927
1105.206835,1702.473667,0.000000,11473.192101
1105.207165,962.267725,2757.943793,13471.748144
1105.207494,-666.185348,4826.401637,12657.521608
1105.207824,-2072.576638,2834.553343,11399.171507
1105.208154,-2072.576638,-689.485948,11473.192101
1105.208483,-1406.391290,-2528.115143,12139.377449
1105.208813,-1258.350101,-842.705048,11843.295072
1105.209143,-1702.473667,2145.067394,9400.615463
1105.209473,-1184.329507,1225.752797,8216.285956
1105.209802,518.144159,-1608.800546,8364.327145
1105.210132,1036.288319,-383.047749,9548.656652
1105.210462,0.000000,1532.190996,10881.027347
1105.210791,-2664.741391,4979.620737,11325.150913
1105.211121,-4219.173869,5286.058936,10658.965565
1105.211451,-3627.009116,1762.019645,10807.006753
1105.211781,-2738.761985,0.000000,10807.006753
1105.212110,-2442.679609,76.609550,9474.636058
1105.212440,-2368.659014,2757.943793,7328.038826
1105.212770,-1258.350101,2298.286494,5921.647536
1105.213099,444.123565,-536.266849,5625.565159
1105.213429,1332.370696,76.609550,7624.121203
1105.213759,888.247130,1762.019645,8660.409521
1105.214088,-1036.288319,4596.572988,8882.471304
1105.214418,-2590.720797,5592.497135,8734.430116
1105.214748,-2516.700203,3677.258390,8956.491898
1105.215078,-1406.391290,383.047749,8660.409521
1105.215407,-148.041188,-1455.581446,8290.306550
1105.215737,666.185348,459.657299,8364.327145
1105.216067,0.000000,2145.067394,7254.018232
1105.216396,0.000000,842.705048,6809.894666
1105.216726,1110.308913,-536.266849,7920.203579
1105.217056,1332.370696,229.828649,10584.944971
1105.217386,148.041188,3907.087040,11547.212695
1105.217715,-2590.720797,4366.744339,11177.109724
1105.218045,-3256.906145,1455.581446,11621.233289
1105.218375,-2960.823768,-1225.752797,11473.192101
1105.218704,-2368.659014,-2374.896044,12287.418637
1105.219034,-1998.556043,-1762.019645,11251.130318
1105.219364,-2368.659014,-1608.800546,9548.656652
1105.219694,-2072.576638,-1302.362347,9696.697840
1105.220023,-592.164754,-689.485948,11843.295072
1105.220353,0.000000,459.657299,13693.809927
1105.220683,-444.123565,3983.696590,12583.501014
1105.221012,-1184.329507,3677.258390,10807.006753
1105.221342,-1184.329507,2145.067394,9992.780217
1105.221672,-962.267725,0.000000,9844.739029
1105.222001,-888.247130,-766.095498,9992.780217
1105.222331,-1036.288319,536.266849,9844.739029
1105.222661,-1406.391290,2451.505594,8290.306550
1105.222990,-2072.576638,2145.067394,7105.977043
1105.223320,0.000000,-995.924147,6365.771101
1105.223649,1258.350101,-2911.162892,6809.894666
1105.223979,296.082377,76.609550,8364.327145
1105.224309,-2294.638420,3983.696590,8512.368333
1105.224638,-4441.235652,4290.134789,8290.306550
1105.224968,-4219.173869,1455.581446,7772.162391
1105.225298,-2886.803174,-383.047749,8364.327145
1105.225627,-1554.432478,-1072.533697,8660.409521
1105.225957,-1258.350101,-153.219100,7698.141797
1105.226287,-962.267725,1302.362347,6587.832884
1105.226616,-222.061783,-306.438199,6291.750507
1105.226946,1332.370696,-2451.505594,8660.409521
1105.227275,1850.514855,153.219100,11917.315666
1105.227605,148.041188,3907.087040,12731.542202
1105.227935,-2664.741391,4213.525239,11769.274478
1105.228264,-2960.823768,2068.457845,11399.171507
1105.228594,-1332.370696,459.657299,12065.356855
1105.228924,74.020594,-995.924147,12139.377449
1105.229253,1036.288319,-1149.143247,10732.986159
1105.229583,888.247130,0.000000,8512.368333
1105.229912,1036.288319,0.000000,8290.306550
1105.230242,1628.453072,-229.828649,9548.656652
1105.230572,1258.350101,1608.800546,11621.233289
1105.230901,592.164754,4366.744339,12509.480420
1105.231231,-1184.329507,5515.887586,11547.212695
1105.231561,-2294.638420,2757.943793,10362.883188
1105.231890,-2664.741391,-995.924147,9844.739029
1105.232220,-3256.906145,-2451.505594,10584.944971
1105.232550,-4071.132681,-689.485948,10658.965565
1105.232879,-4885.359217,1762.019645,9178.553681
1105.233209,-3997.112087,1532.190996,7476.080014
1105.233538,-1332.370696,-1455.581446,7105.977043
1105.233868,148.041188,-1225.752797,8586.388927
1105.234198,0.000000,2528.115143,9622.677246
1105.234527,-1998.556043,5132.839837,8586.388927
1105.234857,-3404.947333,5362.668486,7994.224174
1105.235187,-2368.659014,2451.505594,8364.327145
1105.235516,-1332.370696,536.266849,8808.450710
1105.235846,-222.061783,-1149.143247,8512.368333
1105.236176,-296.082377,-459.657299,6883.915261
1105.236505,-1036.288319,-383.047749,5773.606348
1105.236835,222.061783,-689.485948,5773.606348
1105.237164,2220.617826,-1915.238745,7550.100608
1105.237494,3034.844362,-842.705048,9252.574275
1105.237824,1776.494261,2298.286494,10807.006753
1105.238153,-814.226536,4903.011187,10584.944971
1105.238483,-1850.514855,3140.991542,10732.986159
1105.238813,-296.082377,-689.485948,11473.192101
1105.239142,222.061783,-1302.362347,12509.480420
1105.239472,222.061783,0.000000,11695.253884
1105.239801,-888.247130,-306.438199,9326.594869
1105.240131,-814.226536,-1915.238745,9104.533087
1105.240461,-518.144159,-2221.676944,11029.068536
1105.240790,-814.226536,612.876398,14137.933492
1105.241120,-962.267725,3140.991542,15248.242405
1105.241450,-2960.823768,4596.572988,12583.501014
1105.241779,-4293.194464,2145.067394,9918.759623
1105.242109,-3034.844362,-1915.238745,10362.883188
1105.242439,-2146.597232,-2221.676944,11991.336260
1105.242768,-2146.597232,459.657299,11991.336260
1105.243098,-3627.009116,2681.334243,8068.244768
1105.243427,-2960.823768,0.000000,5329.482782
1105.243757,370.102971,-2834.553343,6439.791695
1105.244087,2368.659014,-1072.533697,8808.450710
1105.244416,1554.432478,2451.505594,9548.656652
1105.244746,-222.061783,5439.278036,8882.471304
1105.245076,-2146.597232,5286.058936,8068.244768
1105.245405,-1776.494261,3064.381992,8364.327145
1105.245735,0.000000,153.219100,8956.491898
1105.246065,148.041188,0.000000,9104.533087
1105.246394,-296.082377,2451.505594,6883.915261
1105.246724,-1924.535449,1608.800546,5107.421000
1105.247053,-740.205942,-2604.724693,4811.338623
1105.247383,296.082377,-2298.286494,7254.018232
1105.247713,296.082377,-229.828649,9844.739029
1105.248042,-888.247130,3217.601092,10288.862594
1105.248372,-3256.906145,3753.867940,9252.574275
1105.248702,-3478.967927,689.485948,9770.718434
1105.249031,-2368.659014,0.000000,11029.068536
1105.249361,-1184.329507,-153.219100,12287.418637
1105.249690,-296.082377,1762.019645,11325.150913
1105.250020,-518.144159,1149.143247,8734.430116
1105.250350,-222.061783,-2068.457845,8290.306550
1105.250679,444.123565,-2298.286494,10288.862594
1105.251009,1184.329507,76.609550,13323.706956
1105.251339,888.247130,3294.210641,13841.851115
1105.251668,-1184.329507,4903.011187,12583.501014
1105.251998,-1850.514855,3140.991542,12361.439231
1105.252328,-1184.329507,306.438199,11325.150913
1105.252657,0.000000,-1302.362347,11103.089130
1105.252987,222.061783,76.609550,10658.965565
1105.253316,-1332.370696,2374.896044,8882.471304
1105.253646,-1998.556043,1072.533697,7105.977043
1105.253976,-592.164754,-1685.410096,7105.977043
1105.254305,444.123565,-1532.190996,8290.306550
1105.254635,518.144159,1149.143247,9326.594869
1105.254965,-2368.659014,3983.696590,8882.471304
1105.255294,-3997.112087,3524.039291,8586.388927
1105.255624,-3478.967927,919.314598,8660.409521
1105.255954,-2368.659014,0.000000,8364.327145
1105.256283,-1702.473667,306.438199,9474.636058
1105.256613,-1924.535449,1302.362347,8586.388927
1105.256942,-2664.741391,1302.362347,6735.874072
1105.257272,-1406.391290,-229.828649,5551.544565
1105.257602,0.000000,-2451.505594,5921.647536
1105.257931,2072.576638,-995.924147,8956.491898
1105.258261,888.247130,2834.553343,10436.903782
1105.258591,-1554.432478,3294.210641,9696.697840
1105.258920,-2220.617826,919.314598,9326.594869
1105.259250,-1480.411884,-995.924147,10140.821405
1105.259579,74.020594,-459.657299,11029.068536
1105.259909,518.144159,229.828649,11473.192101
1105.260239,148.041188,842.705048,9474.636058
1105.260568,444.123565,0.000000,8290.306550
1105.260898,1480.411884,-1378.971896,9474.636058
1105.261228,1554.432478,-306.438199,11843.295072
1105.261557,740.205942,1838.629195,13027.624579
1105.261887,-1924.535449,3677.258390,12879.583391
1105.262217,-3182.885551,2374.896044,11843.295072
1105.262546,-3108.864956,-766.095498,11325.150913
1105.262876,-1924.535449,-1838.629195,11843.295072
1105.263205,-1110.308913,-536.266849,11177.109724
1105.263535,-2072.576638,1302.362347,10436.903782
1105.263865,-1776.494261,1991.848295,9252.574275
1105.264194,-962.267725,76.609550,8660.409521
1105.264524,-592.164754,-536.266849,8438.347739
1105.264854,-296.082377,1532.190996,9770.718434
1105.265183,-1850.514855,3447.429741,9622.677246
1105.265513,-2960.823768,4213.525239,8734.430116
1105.265843,-2664.741391,1455.581446,7772.162391
1105.266172,-1628.453072,-459.657299,7698.141797
1105.266502,-296.082377,76.609550,8586.388927
1105.266831,-222.061783,1225.752797,7698.141797
1105.267161,-1554.432478,1991.848295,5625.565159
1105.267491,-296.082377,306.438199,4737.318029
1105.267820,1332.370696,-995.924147,6735.874072
1105.268150,2368.659014,536.266849,9178.553681
1105.268480,666.185348,3064.381992,9770.718434
1105.268809,-1628.453072,4213.525239,9326.594869
1105.269139,-2590.720797,2068.457845,9178.553681
1105.269468,-2294.638420,-153.219100,10362.883188
1105.269798,-1258.350101,-919.314598,11621.233289
1105.270128,-592.164754,-383.047749,10881.027347
1105.270457,-1776.494261,0.000000,8438.347739
1105.270787,-1554.432478,-229.828649,7846.182985
1105.271117,148.041188,-1302.362347,9474.636058
1105.271446,2072.576638,-459.657299,12287.418637
1105.271776,1480.411884,2681.334243,13027.624579
1105.272106,-1332.370696,4519.963438,11473.192101
1105.272435,-2220.617826,2987.772442,11473.192101
1105.272765,-1332.370696,689.485948,11917.315666
1105.273094,-518.144159,536.266849,13101.645173
1105.273424,0.000000,1149.143247,12213.398043
1105.273754,-444.123565,1838.629195,10436.903782
1105.274083,-592.164754,1608.800546,8068.244768
1105.274413,0.000000,-612.876398,7772.162391
1105.274743,814.226536,-1149.143247,8586.388927
1105.275072,370.102971,2604.724693,9844.739029
1105.275402,-1480.411884,5132.839837,9252.574275
1105.275732,-2960.823768,4749.792088,8660.409521
1105.276061,-3256.906145,1302.362347,7550.100608
1105.276391,-2738.761985,-689.485948,8364.327145
1105.276720,-1702.473667,-919.314598,9104.533087
1105.277050,-2368.659014,1072.533697,8216.285956
1105.277380,-2812.782580,1838.629195,6439.791695
1105.277709,-1850.514855,-229.828649,6069.688724
1105.278039,-814.226536,-2145.067394,7550.100608
1105.278369,296.082377,229.828649,9918.759623
1105.278698,0.000000,3753.867940,9992.780217
1105.279028,-1036.288319,4136.915689,8660.409521
1105.279357,-1554.432478,1149.143247,8216.285956
1105.279687,-222.061783,-1378.971896,9326.594869
1105.280017,666.185348,-1302.362347,10584.944971
1105.280346,222.061783,153.219100,10066.800811
1105.280676,-296.082377,1915.238745,9178.553681
1105.281006,0.000000,536.266849,8956.491898
1105.281335,1332.370696,-1838.629195,9474.636058
1105.281665,2294.638420,-2528.115143,10955.047942
1105.281995,1258.350101,536.266849,12213.398043
1105.282324,-1258.350101,4443.353888,11769.274478
1105.282654,-2960.823768,4136.915689,11621.233289
1105.282983,-2072.576638,459.657299,11325.150913
1105.283313,-1184.329507,-1532.190996,11769.274478
1105.283643,-962.267725,-459.657299,11991.336260
1105.283972,-1776.494261,1915.238745,10066.800811
1105.284302,-2294.638420,1302.362347,7994.224174
1105.284632,-1480.411884,-1915.238745,8216.285956
1105.284961,-1258.350101,-1149.143247,10807.006753
1105.285291,-1628.453072,2374.896044,12583.501014
1105.285621,-2738.761985,4903.011187,11547.212695
1105.285950,-3627.009116,3753.867940,8290.306550
1105.286280,-2886.803174,153.219100,7698.141797
1105.286609,-962.267725,-1072.533697,9104.533087
1105.286939,74.020594,995.924147,9474.636058
1105.287269,-370.102971,3064.381992,7328.038826
1105.287598,-888.247130,3447.429741,5181.441594
1105.287928,222.061783,536.266849,5477.523971
1105.288258,1332.370696,-383.047749,7846.182985
1105.288587,1332.370696,995.924147,9400.615463
1105.288917,0.000000,3524.039291,9030.512492
1105.289246,-1628.453072,4443.353888,8512.368333
1105.289576,-1332.370696,2528.115143,8956.491898
1105.289906,-888.247130,536.266849,8586.388927
1105.290235,0.000000,-842.705048,9178.553681
1105.290565,0.000000,1149.143247,9030.512492
1105.290895,-1258.350101,3447.429741,7994.224174
1105.291224,-222.061783,1915.238745,7105.977043
1105.291554,444.123565,-2221.676944,7846.182985
1105.291884,740.205942,-1608.800546,10584.944971
1105.292213,-666.185348,1915.238745,13175.665768
1105.292543,-3182.885551,4136.915689,12953.603985
1105.292872,-4663.297435,2911.162892,12435.459826
1105.293202,-3701.029710,-1302.362347,12509.480420
1105.293532,-1924.535449,-1455.581446,13397.727550
1105.293861,-814.226536,842.705048,13471.748144
1105.294191,-666.185348,2987.772442,11177.109724
1105.294521,-370.102971,2221.676944,7846.182985
1105.294850,888.247130,-306.438199,7846.182985
1105.295180,2294.638420,-1072.533697,10732.986159
1105.295510,1702.473667,2298.286494,11917.315666
1105.295839,-1184.329507,4673.182538,10436.903782
1105.296169,-2812.782580,3907.087040,9252.574275
1105.296498,-2886.803174,919.314598,8808.450710
1105.296828,-1702.473667,-919.314598,9474.636058
1105.297158,-740.205942,-459.657299,9696.697840
1105.297487,-1702.473667,1991.848295,7624.121203
1105.297817,-2368.659014,2834.553343,5773.606348
1105.298147,-1036.288319,536.266849,5921.647536
1105.298476,0.000000,-612.876398,6365.771101
1105.298806,-296.082377,536.266849,7550.100608
1105.299135,-1628.453072,3217.601092,8216.285956
1105.299465,-3034.844362,4290.134789,8068.244768
1105.299795,-3627.009116,1532.190996,7550.100608
1105.300124,-2516.700203,-1532.190996,8586.388927
1105.300454,-1554.432478,-2374.896044,9178.553681
1105.300784,-1258.350101,-306.438199,10066.800811
1105.301113,-1554.432478,1608.800546,9104.533087
1105.301443,-1036.288319,1225.752797,7846.182985
1105.301773,888.247130,-1915.238745,8142.265362
1105.302102,2886.803174,-1685.410096,11029.068536
1105.302432,2590.720797,1532.190996,12953.603985
1105.302761,0.000000,3370.820191,12065.356855
1105.303091,-1776.494261,1378.971896,10807.006753
1105.303421,-888.247130,-1762.019645,11177.109724
1105.303750,370.102971,-2298.286494,13397.727550
1105.304080,518.144159,-766.095498,13841.851115
1105.304410,-740.205942,919.314598,11473.192101
1105.304739,-1480.411884,1072.533697,9474.636058
1105.305069,0.000000,-1225.752797,9696.697840
1105.305399,222.061783,-1072.533697,11473.192101
1105.305728,222.061783,1685.410096,12287.418637
1105.306058,-1702.473667,3677.258390,11325.150913
1105.306387,-3997.112087,4366.744339,9770.718434
1105.306717,-4219.173869,2068.457845,9104.533087
1105.307047,-2886.803174,-842.705048,8956.491898
1105.307376,-1998.556043,-536.266849,9474.636058
1105.307706,-2146.597232,1072.533697,7772.162391
1105.308036,-2368.659014,2145.067394,6365.771101
1105.308365,-1776.494261,0.000000,5107.421000
1105.308695,-740.205942,-1225.752797,6439.791695
1105.309024,-222.061783,1149.143247,8586.388927
1105.309354,-1258.350101,4749.792088,9474.636058
1105.309684,-2368.659014,5745.716235,8734.430116
1105.310013,-2294.638420,2451.505594,7698.141797
1105.310343,-1406.391290,-229.828649,7550.100608
1105.310673,-296.082377,-153.219100,8734.430116
1105.311002,0.000000,1915.238745,8808.450710
1105.311332,-888.247130,3294.210641,7328.038826
1105.311662,-296.082377,1378.971896,6883.915261
1105.311991,1036.288319,-995.924147,8364.327145
1105.312321,2146.597232,153.219100,10658.965565
1105.312650,1036.288319,2374.896044,11547.212695
1105.312980,-1332.370696,4443.353888,10881.027347
1105.313310,-2960.823768,2834.553343,10288.862594
1105.313639,-2368.659014,-229.828649,11473.192101
1105.313969,-740.205942,0.000000,13323.706956
1105.314299,148.041188,2374.896044,12731.542202
1105.314628,-74.020594,3064.381992,9400.615463
1105.314958,-148.041188,766.095498,6957.935855
1105.315288,740.205942,-689.485948,7402.059420
1105.315617,1258.350101,1225.752797,10510.924376
1105.315947,814.226536,4290.134789,11843.295072
1105.316276,-1628.453072,4903.011187,10584.944971
1105.316606,-3849.070898,2757.943793,10214.842000
1105.316936,-4219.173869,-919.314598,11103.089130
1105.317265,-3478.967927,-2145.067394,11991.336260
1105.317595,-2738.761985,-1149.143247,11695.253884
1105.317925,-2738.761985,1225.752797,9474.636058
1105.318254,-2812.782580,2374.896044,7846.182985
1105.318584,-1702.473667,229.828649,7994.224174
1105.318913,-518.144159,0.000000,8956.491898
1105.319243,296.082377,2374.896044,8734.430116
1105.319573,-740.205942,4213.525239,8586.388927
1105.319902,-1406.391290,2911.162892,7994.224174
1105.320232,-2220.617826,-306.438199,7476.080014
1105.320562,-1702.473667,-2681.334243,7402.059420
1105.320891,-888.247130,-1991.848295,8216.285956
1105.321221,-1258.350101,76.609550,9474.636058
1105.321551,-1924.535449,1532.190996,9104.533087
1105.321880,-1258.350101,-689.485948,7994.224174
1105.322210,518.144159,-2681.334243,7254.018232
1105.322539,1702.473667,-1149.143247,8734.430116
1105.322869,1702.473667,612.876398,10140.821405
1105.323199,-814.226536,2451.505594,10658.965565
1105.323528,-2812.782580,1838.629195,10658.965565
1105.323858,-3034.844362,-459.657299,11399.171507
1105.324187,-1776.494261,-919.314598,11843.295072
1105.324517,-888.247130,-1838.629195,11399.171507
1105.324847,-814.226536,-1149.143247,9548.656652
1105.325176,-888.247130,-1072.533697,8882.471304
1105.325506,-592.164754,-1072.533697,9474.636058
1105.325835,814.226536,-229.828649,11399.171507
1105.326165,444.123565,1225.752797,13101.645173
1105.326494,-1850.514855,3983.696590,13323.706956
1105.326824,-3330.926739,4290.134789,11991.336260
1105.327153,-2442.679609,1072.533697,10140.821405
1105.327483,-444.123565,-1762.019645,9104.533087
1105.327813,370.102971,-1072.533697,9400.615463
1105.328142,0.000000,1532.190996,9622.677246
1105.328472,-1480.411884,4213.525239,7994.224174
1105.328801,-740.205942,2221.676944,6365.771101
1105.329131,148.041188,306.438199,5921.647536
1105.329460,0.000000,1915.238745,8068.244768
1105.329790,-518.144159,3907.087040,9326.594869
1105.330119,-2960.823768,4979.620737,8290.306550
1105.330449,-3923.091493,2298.286494,6217.729913
1105.330779,-3182.885551,-1225.752797,6661.853478
1105.331108,-2368.659014,-2374.896044,10140.821405
1105.331438,-2368.659014,1149.143247,11399.171507
1105.331767,-3923.091493,3983.696590,8586.388927
1105.332097,-2812.782580,1762.019645,6217.729913
1105.332426,-518.144159,-459.657299,6661.853478
1105.332756,1110.308913,0.000000,10140.821405
1105.333085,1036.288319,2451.505594,11473.192101
1105.333415,0.000000,4443.353888,9844.739029
1105.333745,-1702.473667,2757.943793,8882.471304
1105.334074,-1332.370696,0.000000,10140.821405
1105.334404,-222.061783,-1991.848295,12805.562797
1105.334733,296.082377,-153.219100,12805.562797
1105.335063,-666.185348,2221.676944,10658.965565
1105.335392,-962.267725,1608.800546,8438.347739
1105.335722,740.205942,-995.924147,8882.471304
1105.336051,2220.617826,-1685.410096,11769.274478
1105.336381,1924.535449,1685.410096,12879.583391
1105.336711,-296.082377,5056.230287,11103.089130
1105.337040,-2146.597232,4213.525239,9844.739029
1105.337370,-2442.679609,536.266849,9474.636058
1105.337699,-2442.679609,-1762.019645,11177.109724
1105.338029,-2072.576638,-612.876398,11769.274478
1105.338358,-2960.823768,1532.190996,9474.636058
1105.338688,-3701.029710,1532.190996,7402.059420
1105.339018,-2960.823768,-1149.143247,7994.224174
1105.339347,-1702.473667,-1991.848295,9474.636058
1105.339677,-1480.411884,919.314598,9992.780217
1105.340006,-1998.556043,3294.210641,8216.285956
1105.340336,-2664.741391,2834.553343,7772.162391
1105.340665,-2442.679609,1532.190996,7920.203579
1105.340995,-1406.391290,-1072.533697,9178.553681
1105.341324,-592.164754,-842.705048,8660.409521
1105.341654,-962.267725,153.219100,7476.080014
1105.341984,-1776.494261,1685.410096,6735.874072
1105.342313,-962.267725,1072.533697,7624.121203
1105.342643,370.102971,-1302.362347,7402.059420
1105.342972,2664.741391,-1455.581446,7698.141797
1105.343302,2664.741391,919.314598,8882.471304
1105.343631,0.000000,3217.601092,9696.697840
1105.343961,-1628.453072,3217.601092,10362.883188
1105.344290,-1998.556043,0.000000,9992.780217
1105.344620,-1258.350101,-2528.115143,10288.862594
1105.344950,-1036.288319,-2374.896044,11695.253884
1105.345279,-1776.494261,-306.438199,12583.501014
1105.345609,-3034.844362,76.609550,10510.924376
1105.345938,-2072.576638,-2451.505594,9622.677246
1105.346268,0.000000,-2298.286494,11251.130318
1105.346597,148.041188,689.485948,14434.015869
1105.346927,-2072.576638,4366.744339,14730.098246
1105.347256,-3627.009116,5975.544884,11325.150913
1105.347586,-2812.782580,1225.752797,9030.512492
1105.347916,-222.061783,-1991.848295,9918.759623
1105.348245,962.267725,-766.095498,11991.336260
1105.348575,-740.205942,1762.019645,11177.109724
1105.348904,-2368.659014,3447.429741,8068.244768
1105.349234,-2072.576638,842.705048,6143.709319
1105.349563,-222.061783,-1455.581446,7772.162391
1105.349893,888.247130,0.000000,10288.862594
1105.350222,-962.267725,3600.648841,10214.842000
1105.350552,-2516.700203,6358.592633,7105.977043
1105.350882,-2072.576638,2911.162892,5551.544565
1105.351211,-296.082377,-766.095498,6069.688724
1105.351541,148.041188,-536.266849,8068.244768
1105.351870,-1480.411884,2068.457845,8734.430116
1105.352200,-3108.864956,4673.182538,6587.832884
1105.352529,-2516.700203,2145.067394,5033.400406
1105.352859,-666.185348,-1838.629195,6661.853478
1105.353188,444.123565,-1915.238745,10214.842000
1105.353518,-1036.288319,2145.067394,11843.295072
1105.353848,-3182.885551,5056.230287,10214.842000
1105.354177,-3627.009116,2911.162892,8364.327145
1105.354507,-3182.885551,-842.705048,9474.636058
1105.354836,-962.267725,-1685.410096,12509.480420
1105.355166,-148.041188,-306.438199,12509.480420
1105.355495,-888.247130,1532.190996,8956.491898
1105.355825,-888.247130,842.705048,7254.018232
1105.356155,592.164754,-995.924147,9178.553681
1105.356484,2442.679609,-536.266849,12657.521608
1105.356814,2812.782580,1608.800546,13693.809927
1105.357143,1110.308913,4290.134789,11473.192101
1105.357473,-1184.329507,4596.572988,10140.821405
1105.357802,-962.267725,1378.971896,11399.171507
1105.358132,-296.082377,-1302.362347,12731.542202
1105.358461,74.020594,-612.876398,12139.377449
1105.358791,-1480.411884,1302.362347,9770.718434
1105.359121,-2738.761985,612.876398,8290.306550
1105.359450,-2812.782580,-1608.800546,9252.574275
1105.359780,-2368.659014,-2145.067394,10066.800811
1105.360109,-1998.556043,459.657299,9992.780217
1105.360439,-2146.597232,2757.943793,9178.553681
1105.360768,-2590.720797,3830.477490,8808.450710
1105.361098,-3256.906145,2451.505594,7920.203579
1105.361427,-1924.535449,0.000000,7031.956449
1105.361757,-222.061783,-1225.752797,7179.997637
1105.362087,0.000000,1149.143247,8142.265362
1105.362416,-1628.453072,3140.991542,8290.306550
1105.362746,-2146.597232,1149.143247,7698.141797
1105.363075,-1628.453072,-1532.190996,7031.956449
1105.363405,-444.123565,-459.657299,8364.327145
1105.363734,370.102971,1762.019645,10066.800811
1105.364064,-518.144159,3600.648841,9696.697840
1105.364393,-1776.494261,2145.067394,8142.265362
1105.364723,-888.247130,-995.924147,7920.203579
1105.365053,0.000000,-1072.533697,9474.636058
1105.365382,-518.144159,995.924147,11029.068536
1105.365712,-2146.597232,2451.505594,10214.842000
1105.366041,-3182.885551,1608.800546,8882.471304
1105.366371,-1924.535449,-919.314598,8734.430116
1105.366700,518.144159,-1838.629195,10510.924376
1105.367030,1258.350101,-536.266849,12065.356855
1105.367359,-518.144159,1838.629195,11917.315666
1105.367689,-2072.576638,2145.067394,10955.047942
1105.368019,-1776.494261,-229.828649,11029.068536
1105.368348,-222.061783,-306.438199,11621.233289
1105.368678,0.000000,0.000000,12657.521608
1105.369007,0.000000,1532.190996,11843.295072
1105.369337,-592.164754,1762.019645,10436.903782
1105.369666,-444.123565,-536.266849,9252.574275
1105.369996,74.020594,-842.705048,9178.553681
1105.370326,222.061783,612.876398,10732.986159
1105.370655,-444.123565,2911.162892,11029.068536
1105.370985,-1628.453072,3753.867940,9030.512492
1105.371314,-1776.494261,1608.800546,6661.853478
1105.371644,-1850.514855,-766.095498,5921.647536
1105.371973,-370.102971,-1302.362347,6587.832884
1105.372303,-518.144159,76.609550,6957.935855
1105.372632,-1110.308913,0.000000,6217.729913
1105.372962,-1924.535449,-1608.800546,5625.565159
1105.373292,-2072.576638,-3294.210641,7105.977043
1105.373621,-1110.308913,-3524.039291,10362.883188
1105.373951,-2146.597232,-689.485948,12287.418637
1105.374280,-4145.153275,2068.457845,11621.233289
1105.374610,-4515.256246,1762.019645,10362.883188
1105.374939,-2738.761985,-1455.581446,9992.780217
1105.375269,-666.185348,-3294.210641,8438.347739
1105.375598,1036.288319,-3600.648841,7105.977043
1105.375928,1776.494261,-3830.477490,6513.812290
1105.376258,1184.329507,-2604.724693,6809.894666
1105.376587,1184.329507,-2681.334243,8216.285956
1105.376917,1480.411884,-4903.011187,10584.944971
1105.377246,1554.432478,-4060.306139,12879.583391
1105.377576,-592.164754,-1532.190996,14656.077652
1105.377905,-2664.741391,0.000000,15914.427753
1105.378235,-3849.070898,-995.924147,15322.262999
1105.378564,-3330.926739,-2221.676944,13915.871710
1105.378894,-1554.432478,-2451.505594,11991.336260
1105.379224,0.000000,-3524.039291,9844.739029
1105.379553,740.205942,-3753.867940,7846.182985
1105.379883,444.123565,-3524.039291,6365.771101
1105.380212,-148.041188,-4290.134789,5699.585753
1105.380542,-370.102971,-3217.601092,7550.100608
1105.380871,-814.226536,-2911.162892,9252.574275
1105.381201,-1258.350101,-1915.238745,11695.253884
1105.381530,-2664.741391,-1762.019645,13545.768739
1105.381860,-4441.235652,-766.095498,13619.789333
1105.382190,-4589.276840,229.828649,12287.418637
1105.382519,-2960.823768,0.000000,10955.047942
1105.382849,-1036.288319,-459.657299,8882.471304
1105.383178,740.205942,-1455.581446,6217.729913
1105.383508,1628.453072,-3064.381992,3701.029710
1105.383837,2220.617826,-3600.648841,2738.761985
1105.384167,2146.597232,-3217.601092,3256.906145
1105.384497,1850.514855,-2068.457845,6069.688724
1105.384826,222.061783,-1991.848295,8882.471304
1105.385156,-1702.473667,-2604.724693,11621.233289
1105.385485,-3108.864956,-1225.752797,14582.057057
1105.385815,-4293.194464,689.485948,14952.160028
1105.386144,-4515.256246,1225.752797,14063.912898
1105.386474,-3923.091493,-306.438199,10510.924376
1105.386803,-1998.556043,-1838.629195,7698.141797
1105.387133,518.144159,-2221.676944,5847.626942
1105.387463,2812.782580,-2987.772442,3923.091493
1105.387792,3256.906145,-2145.067394,2442.679609
1105.388122,3034.844362,-3217.601092,3256.906145
1105.388451,2220.617826,-4903.011187,7698.141797
1105.388781,-444.123565,-4519.963438,12805.562797
1105.389110,-3108.864956,-2145.067394,16210.510130
1105.389440,-4737.318029,-766.095498,18505.148550
1105.389769,-4885.359217,-842.705048,19097.313304
1105.390099,-5329.482782,-612.876398,18653.189738
1105.390429,-5033.400406,-536.266849,17098.757260
1105.390758,-4219.173869,-306.438199,13101.645173
1105.391088,-2368.659014,-306.438199,7624.121203
1105.391417,1628.453072,-1608.800546,2886.803174
1105.391747,5551.544565,-5362.668486,666.185348
1105.392076,8142.265362,-6588.421283,1258.350101
1105.392406,6957.935855,-3983.696590,3330.926739
1105.392735,4071.132681,-459.657299,5773.606348
1105.393065,962.267725,1991.848295,9474.636058
1105.393395,-1480.411884,2068.457845,16358.551318
1105.393724,-4367.215058,1762.019645,20133.601622
1105.394054,-7031.956449,2298.286494,18579.169144
1105.394383,-7624.121203,383.047749,14063.912898
1105.394713,-5625.565159,-2604.724693,11325.150913
1105.395042,-4145.153275,-2834.553343,8808.450710
1105.395372,-2960.823768,-2681.334243,5181.441594
1105.395701,-592.164754,-3907.087040,592.164754
1105.396031,1332.370696,-2604.724693,-1258.350101
1105.396361,2294.638420,-2374.896044,-1406.391290
1105.396690,2960.823768,-2604.724693,814.226536
1105.397020,2220.617826,-3447.429741,3478.967927
1105.397349,814.226536,-1149.143247,7105.977043
1105.397679,-1406.391290,919.314598,12509.480420
1105.398008,-2886.803174,229.828649,17764.942608
1105.398338,-4367.215058,459.657299,20873.807564
1105.398667,-5477.523971,153.219100,19615.457463
1105.398997,-5329.482782,-229.828649,15618.345376
1105.399327,-2960.823768,-2757.943793,10955.047942
1105.399656,0.000000,-5669.106685,6883.915261
1105.399986,1924.535449,-6358.592633,4737.318029
1105.400315,3478.967927,-5132.839837,4367.215058
1105.400645,4293.194464,-3217.601092,5329.482782
1105.400974,3478.967927,-2374.896044,6809.894666
1105.401304,1110.308913,-2451.505594,9474.636058
1105.401634,-1036.288319,-1608.800546,13693.809927
1105.401963,-2294.638420,-766.095498,16654.633695
1105.402293,-3478.967927,-842.705048,16728.654289
1105.402622,-4293.194464,-2681.334243,14508.036463
1105.402952,-4071.132681,-5056.230287,12583.501014
1105.403281,-2368.659014,-6894.859482,11473.192101
1105.403611,-814.226536,-6052.154434,9104.533087
1105.403940,-296.082377,-3753.867940,6735.874072
1105.404270,666.185348,-2681.334243,5255.462188
1105.404600,1184.329507,-3370.820191,5921.647536
1105.404929,740.205942,-2987.772442,7476.080014
1105.405259,-518.144159,-1378.971896,9252.574275
1105.405588,-2590.720797,459.657299,10881.027347
1105.405918,-3627.009116,1532.190996,12065.356855
1105.406247,-4219.173869,0.000000,11843.295072
1105.406577,-3404.947333,-2451.505594,9992.780217
1105.406906,-296.082377,-5209.449386,7328.038826
1105.407236,1850.514855,-5669.106685,5329.482782
1105.407566,2812.782580,-3983.696590,5255.462188
1105.407895,2294.638420,-3677.258390,5477.523971
1105.408225,1258.350101,-3447.429741,6587.832884
1105.408554,0.000000,-1838.629195,9400.615463
1105.408884,-1554.432478,1378.971896,11695.253884
1105.409213,-2146.597232,2604.724693,12657.521608
1105.409543,-2368.659014,689.485948,11843.295072
1105.409872,-2146.597232,-1762.019645,10436.903782
1105.410202,-1258.350101,-2681.334243,9992.780217
1105.410532,-444.123565,-2834.553343,10658.965565
1105.410861,-148.041188,-1608.800546,9844.739029
1105.411191,-814.226536,-459.657299,7772.162391
1105.411520,-296.082377,-1762.019645,7550.100608
1105.411850,148.041188,-3447.429741,8586.388927
1105.412179,-592.164754,-2451.505594,8882.471304
1105.412509,-1480.411884,-919.314598,10214.842000
1105.412838,-2294.638420,-766.095498,11917.315666
1105.413168,-2812.782580,-536.266849,13915.871710
1105.413498,-3256.906145,-612.876398,14952.160028
1105.413827,-3775.050304,153.219100,13619.789333
1105.414157,-2960.823768,766.095498,11621.233289
1105.414486,-1702.473667,612.876398,8882.471304
1105.414816,1110.308913,-1608.800546,6439.791695
1105.415145,3330.926739,-3983.696590,4367.215058
1105.415475,4071.132681,-4903.011187,3997.112087
1105.415805,2664.741391,-2757.943793,6069.688724
1105.416134,-370.102971,-1378.971896,8364.327145
1105.416464,-2368.659014,-766.095498,11251.130318
1105.416793,-3775.050304,-689.485948,13471.748144
1105.417123,-3849.070898,-306.438199,14656.077652
1105.417452,-3552.988522,0.000000,14211.954086
1105.417782,-2220.617826,-612.876398,12213.398043
1105.418111,-1702.473667,-1532.190996,9400.615463
1105.418441,-296.082377,-2451.505594,7476.080014
1105.418771,740.205942,-2068.457845,6513.812290
1105.419100,962.267725,-1225.752797,5995.668130
1105.419430,592.164754,-2604.724693,4959.379811
1105.419759,-518.144159,-3907.087040,4515.256246
1105.420089,-1036.288319,-5515.887586,6143.709319
1105.420418,-1850.514855,-5592.497135,9252.574275
1105.420748,-2368.659014,-4749.792088,11399.171507
1105.421077,-2590.720797,-3064.381992,13027.624579
1105.421407,-2960.823768,-2911.162892,13915.871710
1105.421737,-3034.844362,-2604.724693,14063.912898
1105.422066,-2368.659014,-1838.629195,13323.706956
1105.422396,-814.226536,-2374.896044,11177.109724
1105.422725,592.164754,-2451.505594,9252.574275
1105.423055,518.144159,-2451.505594,8290.306550
1105.423384,-74.020594,-3753.867940,8290.306550
1105.423714,-1258.350101,-5132.839837,7328.038826
1105.424043,-1998.556043,-5745.716235,6883.915261
1105.424373,-2146.597232,-5515.887586,8068.244768
1105.424703,-1628.453072,-4903.011187,10214.842000
1105.425032,-666.185348,-4903.011187,10807.006753
1105.425362,296.082377,-5209.449386,10658.965565
1105.425691,1110.308913,-4519.963438,10955.047942
1105.426021,1258.350101,-2451.505594,12065.356855
1105.426351,148.041188,-766.095498,13101.645173
1105.426680,-740.205942,-689.485948,12361.439231
1105.427010,-1332.370696,-1685.410096,11769.274478
1105.427340,-1702.473667,-2374.896044,10510.924376
1105.427669,-2146.597232,-2987.772442,9770.718434
1105.427999,-2442.679609,-3294.210641,8882.471304
1105.428329,-2590.720797,-2681.334243,8512.368333
1105.428658,-2738.761985,-1608.800546,8512.368333
1105.428988,-2294.638420,-536.266849,8882.471304
1105.429318,-1850.514855,306.438199,8734.430116
1105.429647,-740.205942,1149.143247,8438.347739
1105.429977,-518.144159,689.485948,8586.388927
1105.430307,-962.267725,229.828649,8882.471304
1105.430636,-2220.617826,229.828649,9844.739029
1105.430966,-3478.967927,153.219100,10658.965565
1105.431296,-3923.091493,0.000000,11251.130318
1105.431625,-4885.359217,229.828649,9696.697840
1105.431955,-4885.359217,-383.047749,9178.553681
1105.432284,-4145.153275,-383.047749,8512.368333
1105.432614,-3108.864956,536.266849,7994.224174
1105.432944,-1998.556043,1302.362347,7624.121203
1105.433273,-1258.350101,2451.505594,6587.832884
1105.433603,-444.123565,2757.943793,7105.977043
1105.433933,-814.226536,2528.115143,7920.203579
1105.434262,-1628.453072,2068.457845,8956.491898
1105.434592,-2664.741391,1838.629195,9992.780217
1105.434922,-4663.297435,612.876398,10214.842000
1105.435251,-6365.771101,0.000000,11029.068536
1105.435581,-7698.141797,-1149.143247,11251.130318
1105.435911,-7772.162391,-1149.143247,10732.986159
1105.436240,-6735.874072,-1991.848295,9178.553681
1105.436570,-4811.338623,-1685.410096,7772.162391
1105.436900,-2812.782580,-689.485948,7772.162391
1105.437229,-1850.514855,153.219100,8142.265362
1105.437559,-1628.453072,919.314598,8956.491898
1105.437889,-2220.617826,1762.019645,9548.656652
1105.438218,-3182.885551,2451.505594,10658.965565
1105.438548,-4367.215058,2145.067394,11621.233289
1105.438878,-5551.544565,842.705048,12435.459826
1105.439207,-5995.668130,-689.485948,12657.521608
1105.439537,-5699.585753,-1532.190996,11843.295072
1105.439867,-4885.359217,-1838.629195,11103.089130
1105.440196,-3627.009116,-1225.752797,9696.697840
1105.440526,-2960.823768,-1532.190996,8882.471304
1105.440856,-2442.679609,-1455.581446,7846.182985
1105.441185,-2738.761985,-612.876398,7402.059420
1105.441515,-3330.926739,0.000000,7994.224174
1105.441844,-4071.132681,153.219100,8882.471304
1105.442174,-4737.318029,-459.657299,9030.512492
1105.442504,-5625.565159,-1149.143247,9104.533087
1105.442833,-6291.750507,-2298.286494,9252.574275
1105.443163,-5921.647536,-2221.676944,9992.780217
1105.443493,-5403.503377,-689.485948,10436.903782
1105.443822,-4737.318029,459.657299,10214.842000
1105.444152,-3552.988522,1991.848295,9770.718434
1105.444482,-2368.659014,3294.210641,9104.533087
1105.444811,-1036.288319,3370.820191,8586.388927
1105.445141,-740.205942,3370.820191,8142.265362
1105.445471,-1110.308913,2757.943793,7846.182985
1105.445800,-2220.617826,1608.800546,8882.471304
1105.446130,-3775.050304,0.000000,9474.636058
1105.446460,-5699.585753,-995.924147,10214.842000
1105.446789,-7254.018232,-1685.410096,10955.047942
1105.447119,-7846.182985,-1838.629195,10955.047942
1105.447449,-7624.121203,-229.828649,11029.068536
1105.447778,-5625.565159,1378.971896,11177.109724
1105.448108,-3404.947333,2528.115143,10362.883188
1105.448438,-1702.473667,3217.601092,8512.368333
1105.448767,0.000000,3907.087040,7402.059420
1105.449097,814.226536,3677.258390,7105.977043
1105.449427,0.000000,3983.696590,7550.100608
1105.449756,-1850.514855,3064.381992,8142.265362
1105.450086,-3923.091493,1302.362347,8956.491898
1105.450416,-6513.812290,536.266849,9844.739029
1105.450745,-7772.162391,-383.047749,10658.965565
1105.451075,-7920.203579,-459.657299,10658.965565
1105.451405,-7254.018232,76.609550,10436.903782
1105.451734,-5329.482782,1072.533697,10362.883188
1105.452064,-3923.091493,2374.896044,9622.677246
1105.452393,-2368.659014,4060.306139,9252.574275
1105.452723,-1702.473667,4060.306139,8438.347739
1105.453053,-1258.350101,4443.353888,8660.409521
1105.453382,-1776.494261,3524.039291,8956.491898
1105.453712,-3182.885551,1685.410096,8512.368333
1105.454042,-4441.235652,-1072.533697,8142.265362
1105.454371,-4959.379811,-2374.896044,9178.553681
1105.454701,-6439.791695,-2604.724693,10362.883188
1105.455031,-6883.915261,-1685.410096,11029.068536
1105.455360,-6291.750507,-919.314598,11103.089130
1105.455690,-5033.400406,459.657299,10955.047942
1105.456020,-2886.803174,2528.115143,10955.047942
1105.456349,-444.123565,4213.525239,10362.883188
1105.456679,1184.329507,4979.620737,9474.636058
1105.457009,1850.514855,4903.011187,8290.306550
1105.457338,962.267725,3677.258390,8142.265362
1105.457668,-1036.288319,2221.676944,8808.450710
1105.457998,-4737.318029,-306.438199,9326.594869
1105.458327,-7476.080014,-1608.800546,9548.656652
1105.458657,-9918.759623,-3064.381992,9622.677246
1105.458987,-10288.862594,-4213.525239,9696.697840
1105.459316,-9252.574275,-4596.572988,9400.615463
1105.459646,-7920.203579,-3524.039291,8882.471304
1105.459976,-5699.585753,-1608.800546,8290.306550
1105.460305,-2738.761985,766.095498,7920.203579
1105.460635,296.082377,3830.477490,8734.430116
1105.460965,2516.700203,5439.278036,9326.594869
1105.461294,2886.803174,6281.983084,9104.533087
1105.461624,1184.329507,4979.620737,9400.615463
