#time,accel_x,accel_y,accel_z
1076.744111,-1036.288319,1072.533697,9770.718434
1076.744440,-1036.288319,689.485948,9178.553681
1076.744770,-1110.308913,766.095498,9622.677246
1076.745099,-1184.329507,766.095498,9770.718434
1076.745428,-962.267725,842.705048,9548.656652
1076.745758,-888.247130,919.314598,9400.615463
1076.746087,-1036.288319,919.314598,9548.656652
1076.746416,-1036.288319,919.314598,9622.677246
1076.746746,-962.267725,1072.533697,9474.636058
1076.747075,-1110.308913,612.876398,9548.656652
1076.747404,-1036.288319,1149.143247,9622.677246
1076.747734,-1036.288319,919.314598,9474.636058
1076.748063,-888.247130,842.705048,9474.636058
1076.748392,-888.247130,1149.143247,9696.697840
1076.748722,-1184.329507,919.314598,9400.615463
1076.749051,-1036.288319,842.705048,9474.636058
1076.749380,-962.267725,1072.533697,9178.553681
1076.749710,-1110.308913,1225.752797,8956.491898
1076.750039,-1036.288319,689.485948,9474.636058
1076.750368,-1110.308913,995.924147,9474.636058
1076.750698,-1036.288319,919.314598,9474.636058
1076.751027,-1110.308913,766.095498,9400.615463
1076.751356,-888.247130,1072.533697,9696.697840
1076.751686,-1036.288319,995.924147,9548.656652
1076.752015,-1036.288319,766.095498,9622.677246
1076.752344,-1036.288319,689.485948,9696.697840
1076.752674,-1036.288319,995.924147,9548.656652
1076.753003,-814.226536,842.705048,9622.677246
1076.753332,-1110.308913,842.705048,9548.656652
1076.753662,-1184.329507,919.314598,9548.656652
1076.753991,-962.267725,919.314598,9696.697840
1076.754320,-1036.288319,842.705048,9696.697840
1076.754650,-962.267725,919.314598,9548.656652
1076.754979,-814.226536,842.705048,9622.677246
1076.755308,-962.267725,995.924147,9622.677246
1076.755637,-1036.288319,919.314598,9548.656652
1076.755967,-962.267725,689.485948,9622.677246
1076.756296,-740.205942,919.314598,9548.656652
1076.756625,-962.267725,995.924147,9622.677246
1076.756955,-1110.308913,995.924147,9474.636058
1076.757284,-1036.288319,612.876398,9622.677246
1076.757613,-962.267725,766.095498,9474.636058
1076.757943,-1036.288319,766.095498,9548.656652
1076.758272,-1036.288319,306.438199,9326.594869
1076.758601,-888.247130,1072.533697,9400.615463
1076.758931,-1184.329507,842.705048,9252.574275
1076.759260,-1110.308913,842.705048,9326.594869
1076.759589,-1036.288319,995.924147,9474.636058
1076.759919,-888.247130,1378.971896,9326.594869
1076.760248,-962.267725,842.705048,9400.615463
1076.760577,-1036.288319,842.705048,9474.636058
1076.760907,-1110.308913,766.095498,9400.615463
1076.761236,-1258.350101,1072.533697,9474.636058
1076.761565,-1184.329507,995.924147,9326.594869
1076.761895,-740.205942,919.314598,9474.636058
1076.762224,-1036.288319,689.485948,9474.636058
1076.762553,-1184.329507,766.095498,9474.636058
1076.762883,-1184.329507,1149.143247,9252.574275
1076.763212,-1110.308913,842.705048,9548.656652
1076.763541,-1110.308913,1072.533697,9548.656652
1076.763871,-1110.308913,842.705048,9474.636058
1076.764200,-1036.288319,919.314598,9622.677246
1076.764529,-962.267725,842.705048,9770.718434
1076.764859,-888.247130,919.314598,9622.677246
1076.765188,-962.267725,995.924147,9622.677246
1076.765517,-1110.308913,766.095498,9474.636058
1076.765847,-1036.288319,995.924147,9622.677246
1076.766176,-888.247130,612.876398,9696.697840
1076.766505,-962.267725,842.705048,9770.718434
1076.766835,-814.226536,689.485948,9252.574275
1076.767164,-1332.370696,1302.362347,9474.636058
1076.767493,-1110.308913,842.705048,9548.656652
1076.767823,-666.185348,842.705048,9326.594869
1076.768152,-370.102971,919.314598,8956.491898
1076.768481,518.144159,459.657299,9252.574275
1076.768810,1184.329507,766.095498,9252.574275
1076.769140,1036.288319,842.705048,9400.615463
1076.769469,518.144159,919.314598,9548.656652
1076.769798,0.000000,995.924147,10066.800811
1076.770128,-666.185348,995.924147,9992.780217
1076.770457,-370.102971,919.314598,10362.883188
1076.770786,-518.144159,306.438199,10214.842000
1076.771116,0.000000,0.000000,9474.636058
1076.771445,888.247130,0.000000,9326.594869
1076.771774,2072.576638,76.609550,9030.512492
1076.772104,2516.700203,766.095498,8660.409521
1076.772433,3701.029710,1225.752797,8438.347739
1076.772762,3701.029710,1608.800546,9104.533087
1076.773092,3849.070898,1915.238745,9474.636058
1076.773421,3552.988522,1762.019645,9992.780217
1076.773750,2886.803174,995.924147,10066.800811
1076.774080,2220.617826,842.705048,9992.780217
1076.774409,1406.391290,919.314598,10732.986159
1076.774738,1480.411884,76.609550,10732.986159
1076.775068,1850.514855,-383.047749,10436.903782
1076.775397,2294.638420,-459.657299,9622.677246
1076.775726,3108.864956,-229.828649,9252.574275
1076.776056,3775.050304,383.047749,9104.533087
1076.776385,4293.194464,1685.410096,9252.574275
1076.776714,3923.091493,2528.115143,9474.636058
1076.777044,2960.823768,2834.553343,10140.821405
1076.777373,1850.514855,2987.772442,10436.903782
1076.777702,-148.041188,2681.334243,10214.842000
1076.778032,-1850.514855,2068.457845,9918.759623
1076.778361,-1998.556043,689.485948,9104.533087
1076.778690,-962.267725,-459.657299,7920.203579
1076.779020,962.267725,-1149.143247,7105.977043
1076.779349,2590.720797,-919.314598,6587.832884
1076.779678,3627.009116,-766.095498,6735.874072
1076.780008,4071.132681,1225.752797,7920.203579
1076.780337,3330.926739,3600.648841,9474.636058
1076.780666,2294.638420,4826.401637,11251.130318
1076.780995,1628.453072,4136.915689,12213.398043
1076.781325,148.041188,2987.772442,12435.459826
1076.781654,-666.185348,1455.581446,12213.398043
1076.781983,-1480.411884,-689.485948,11547.212695
1076.782313,-1110.308913,-2221.676944,10510.924376
1076.782642,-296.082377,-2681.334243,8882.471304
1076.782971,888.247130,-2145.067394,7920.203579
1076.783301,2442.679609,-1762.019645,7698.141797
1076.783630,3923.091493,-229.828649,7031.956449
1076.783959,4663.297435,1378.971896,7031.956449
1076.784289,4737.318029,2528.115143,7846.182985
1076.784618,4589.276840,4213.525239,9178.553681
1076.784947,3775.050304,3907.087040,10066.800811
1076.785277,2738.761985,3140.991542,10881.027347
1076.785606,1628.453072,2528.115143,11399.171507
1076.785935,370.102971,842.705048,11547.212695
1076.786265,-444.123565,-229.828649,10955.047942
1076.786594,-888.247130,-995.924147,10658.965565
1076.786923,-666.185348,-1915.238745,10584.944971
1076.787253,-444.123565,-1685.410096,10510.924376
1076.787582,0.000000,-995.924147,10140.821405
1076.787911,814.226536,153.219100,9326.594869
1076.788241,2220.617826,229.828649,8512.368333
1076.788570,3552.988522,689.485948,8142.265362
1076.788899,5033.400406,766.095498,8216.285956
1076.789229,5181.441594,766.095498,7846.182985
1076.789558,4959.379811,1149.143247,8068.244768
1076.789887,4589.276840,1378.971896,9622.677246
1076.790217,2516.700203,1762.019645,10362.883188
1076.790546,1702.473667,2451.505594,10658.965565
1076.790875,1332.370696,1532.190996,10732.986159
1076.791205,1776.494261,1378.971896,10436.903782
1076.791534,1776.494261,2374.896044,10066.800811
1076.791863,2146.597232,1225.752797,9178.553681
1076.792193,2368.659014,766.095498,7846.182985
1076.792522,2368.659014,229.828649,7550.100608
1076.792851,2294.638420,612.876398,8290.306550
1076.793181,1776.494261,1532.190996,9474.636058
1076.793510,888.247130,1378.971896,8956.491898
1076.793839,-370.102971,995.924147,9326.594869
1076.794168,-1036.288319,229.828649,9992.780217
1076.794498,-888.247130,-689.485948,11325.150913
1076.794827,-1184.329507,-612.876398,11769.274478
1076.795156,-1628.453072,766.095498,11325.150913
1076.795486,-1554.432478,689.485948,10214.842000
1076.795815,888.247130,0.000000,9474.636058
1076.796144,3627.009116,153.219100,8808.450710
1076.796474,5921.647536,1378.971896,8068.244768
1076.796803,7624.121203,2451.505594,7624.121203
1076.797132,9178.553681,3370.820191,8216.285956
1076.797462,8660.409521,3983.696590,9474.636058
1076.797791,6513.812290,4826.401637,10436.903782
1076.798120,3997.112087,5132.839837,11177.109724
1076.798450,1850.514855,3600.648841,12657.521608
1076.798779,-1184.329507,1149.143247,13397.727550
1076.799108,-4959.379811,-229.828649,12879.583391
1076.799438,-7105.977043,-2451.505594,11547.212695
1076.799767,-7476.080014,-2987.772442,9622.677246
1076.800096,-5551.544565,-2451.505594,6217.729913
1076.800426,-666.185348,-3370.820191,3034.844362
1076.800755,5255.462188,-4290.134789,2368.659014
1076.801084,9252.574275,-1302.362347,3108.864956
1076.801414,9696.697840,3524.039291,4885.359217
1076.801743,8512.368333,6894.859482,7254.018232
1076.802072,7920.203579,8197.221829,10955.047942
1076.802402,4515.256246,9116.536426,14211.954086
1076.802731,0.000000,7431.126331,15618.345376
1076.803060,-3849.070898,2757.943793,16284.530724
1076.803390,-5699.585753,-919.314598,15618.345376
1076.803719,-5477.523971,-2145.067394,13323.706956
1076.804048,-3552.988522,-5439.278036,10510.924376
1076.804378,0.000000,-7584.345430,7254.018232
1076.804707,3923.091493,-5822.325785,3627.009116
1076.805036,8660.409521,-3140.991542,2220.617826
1076.805366,12361.439231,-1072.533697,4737.318029
1076.805695,11473.192101,3600.648841,8586.388927
1076.806024,6587.832884,7660.954980,11103.089130
1076.806354,1998.556043,9116.536426,13027.624579
1076.806683,-666.185348,7584.345430,14285.974681
1076.807012,-888.247130,3753.867940,14359.995275
1076.807341,-1184.329507,-1072.533697,11991.336260
1076.807671,-1628.453072,-5056.230287,8438.347739
1076.808000,-296.082377,-6358.592633,5847.626942
1076.808329,2294.638420,-6052.154434,5699.585753
1076.808659,3182.885551,-3753.867940,7254.018232
1076.808988,3552.988522,153.219100,8586.388927
1076.809317,2072.576638,2374.896044,9178.553681
1076.809647,2072.576638,4826.401637,10214.842000
1076.809976,2368.659014,5898.935335,11843.295072
1076.810305,2738.761985,4136.915689,13323.706956
1076.810635,1776.494261,1225.752797,12583.501014
1076.810964,148.041188,-1302.362347,11769.274478
1076.811293,-1924.535449,-2911.162892,11843.295072
1076.811623,-3034.844362,-2911.162892,10955.047942
1076.811952,-2590.720797,-2911.162892,7846.182985
1076.812281,888.247130,-2987.772442,4737.318029
1076.812611,5921.647536,-3294.210641,3182.885551
1076.812940,10214.842000,-1532.190996,4515.256246
1076.813269,10658.965565,1838.629195,6291.750507
1076.813599,7920.203579,5745.716235,8808.450710
1076.813928,3923.091493,8580.269578,11399.171507
1076.814257,592.164754,9882.631924,13841.851115
1076.814587,-1258.350101,7124.688131,15988.448347
1076.814916,-1998.556043,459.657299,15914.427753
1076.815245,-3478.967927,-4213.525239,13841.851115
1076.815575,-5403.503377,-4903.011187,11251.130318
1076.815904,-5773.606348,-5056.230287,10807.006753
1076.816233,-5255.462188,-4903.011187,10362.883188
1076.816563,-4071.132681,-2298.286494,9252.574275
1076.816892,-1036.288319,-612.876398,5329.482782
1076.817221,4811.338623,306.438199,2886.803174
1076.817551,10881.027347,2068.457845,2738.761985
1076.817880,13693.809927,4290.134789,4145.153275
1076.818210,12731.542202,6511.811733,6883.915261
1076.818540,10214.842000,8656.879127,10140.821405
1076.818869,6069.688724,10495.508323,12953.603985
1076.819199,2072.576638,9882.631924,14211.954086
1076.819528,-592.164754,5822.325785,14285.974681
1076.819858,-666.185348,-1302.362347,14508.036463
1076.820187,-1628.453072,-4136.915689,13101.645173
1076.820517,-4515.256246,-3064.381992,10955.047942
1076.820847,-5921.647536,-3294.210641,10140.821405
1076.821176,-5403.503377,-1915.238745,9474.636058
1076.821506,-3108.864956,0.000000,7994.224174
1076.821835,518.144159,76.609550,3182.885551
1076.822165,6735.874072,-536.266849,518.144159
1076.822495,11917.315666,536.266849,1554.432478
1076.822824,12213.398043,2911.162892,5033.400406
1076.823154,7476.080014,5056.230287,8142.265362
1076.823483,2368.659014,8044.002729,10955.047942
1076.823813,1554.432478,7584.345430,13693.809927
1076.824142,0.000000,4443.353888,15692.365970
1076.824472,-2812.782580,1378.971896,16284.530724
1076.824802,-4441.235652,-4596.572988,14211.954086
1076.825131,-5995.668130,-7048.078582,11695.253884
1076.825461,-8290.306550,-4519.963438,9252.574275
1076.825790,-6957.935855,-2757.943793,8956.491898
1076.826120,-1776.494261,-3140.991542,7846.182985
1076.826450,3404.947333,-2757.943793,7031.956449
1076.826779,6069.688724,-1149.143247,6957.935855
1076.827109,6809.894666,1225.752797,6513.812290
1076.827438,4293.194464,5209.449386,7254.018232
1076.827768,2516.700203,7354.516781,11399.171507
1076.828097,1850.514855,6435.202183,15544.324782
1076.828427,-296.082377,4290.134789,16654.633695
1076.828757,-4663.297435,2221.676944,14878.139434
1076.829086,-8364.327145,-689.485948,10955.047942
1076.829416,-8734.430116,-3677.258390,8808.450710
1076.829745,-5847.626942,-6741.640382,8956.491898
1076.830075,-2442.679609,-6128.763984,6439.791695
1076.830404,-222.061783,-2681.334243,3552.988522
1076.830734,1184.329507,-1302.362347,3182.885551
1076.831064,2146.597232,306.438199,5477.523971
1076.831393,1554.432478,4136.915689,9770.718434
1076.831723,1332.370696,8427.050478,13989.892304
1076.832052,1702.473667,9422.974625,15840.407159
1076.832382,592.164754,8810.098227,14508.036463
1076.832712,-1702.473667,4749.792088,10584.944971
1076.833041,-3478.967927,-2451.505594,8882.471304
1076.833371,-3330.926739,-4596.572988,8882.471304
1076.833700,-2738.761985,-1838.629195,7920.203579
1076.834030,-1702.473667,-1991.848295,6217.729913
1076.834359,666.185348,-2374.896044,5255.462188
1076.834689,2738.761985,-2451.505594,3701.029710
1076.835019,4441.235652,-2451.505594,1998.556043
1076.835348,5921.647536,919.314598,4367.215058
1076.835678,5995.668130,7124.688131,10362.883188
1076.836007,5181.441594,11108.384721,14952.160028
1076.836337,1332.370696,7584.345430,15988.448347
1076.836667,-4959.379811,4290.134789,14730.098246
1076.836996,-8882.471304,3217.601092,13471.748144
1076.837326,-9696.697840,0.000000,12287.418637
1076.837655,-8808.450710,-2221.676944,10732.986159
1076.837985,-7328.038826,-5439.278036,7772.162391
1076.838314,-4293.194464,-9039.926876,5329.482782
1076.838644,-1850.514855,-8044.002729,4145.153275
1076.838974,1628.453072,-4366.744339,3775.050304
1076.839303,3923.091493,2528.115143,5625.565159
1076.839633,4663.297435,6128.763984,8882.471304
1076.839962,4811.338623,8427.050478,13619.789333
1076.840292,3256.906145,8044.002729,16728.654289
1076.840622,-148.041188,7354.516781,15914.427753
1076.840951,-3849.070898,6818.249932,14211.954086
1076.841281,-5773.606348,3370.820191,14137.933492
1076.841610,-4663.297435,-2298.286494,12805.562797
1076.841940,-2590.720797,-7048.078582,9252.574275
1076.842269,-1776.494261,-8273.831378,6217.729913
1076.842599,-1332.370696,-5362.668486,4071.132681
1076.842929,-370.102971,-1838.629195,4441.235652
1076.843258,2368.659014,1149.143247,6365.771101
1076.843588,4959.379811,3830.477490,8290.306550
1076.843917,4737.318029,6818.249932,9844.739029
1076.844247,1776.494261,8656.879127,11251.130318
1076.844576,-2960.823768,9039.926876,12509.480420
1076.844906,-6069.688724,6511.811733,13027.624579
1076.845236,-7328.038826,1608.800546,12065.356855
1076.845565,-6809.894666,-3677.258390,9548.656652
1076.845895,-5033.400406,-6818.249932,5699.585753
1076.846224,-3478.967927,-8656.879127,3701.029710
1076.846554,-666.185348,-8427.050478,3256.906145
1076.846884,1924.535449,-4826.401637,3997.112087
1076.847213,4293.194464,0.000000,6143.709319
1076.847543,6735.874072,4903.011187,9030.512492
1076.847872,6365.771101,9116.536426,11473.192101
1076.848202,3182.885551,9729.412825,13693.809927
1076.848531,-1998.556043,7967.393179,13767.830521
1076.848861,-5477.523971,6588.421283,14878.139434
1076.849191,-5625.565159,2987.772442,14656.077652
1076.849520,-4515.256246,-3064.381992,12361.439231
1076.849850,-5181.441594,-8427.050478,8956.491898
1076.850179,-4367.215058,-10035.851024,5847.626942
1076.850509,-1998.556043,-9116.536426,4219.173869
1076.850839,1332.370696,-4290.134789,4145.153275
1076.851168,4441.235652,-383.047749,5995.668130
1076.851498,5255.462188,3600.648841,9252.574275
1076.851827,3627.009116,8427.050478,12879.583391
1076.852157,0.000000,8350.440928,15248.242405
1076.852486,-4959.379811,8810.098227,16876.695478
1076.852816,-8290.306550,9959.241474,17098.757260
1076.853146,-8882.471304,4903.011187,15396.283594
1076.853475,-6365.771101,-3983.696590,11991.336260
1076.853805,-4737.318029,-9499.584175,8364.327145
1076.854134,-2516.700203,-9193.145976,4367.215058
1076.854464,518.144159,-6511.811733,2294.638420
1076.854794,2812.782580,-2604.724693,2368.659014
1076.855123,5477.523971,2374.896044,5329.482782
1076.855453,7105.977043,6052.154434,8734.430116
1076.855782,5625.565159,9499.584175,11843.295072
1076.856112,1628.453072,12334.137518,13101.645173
1076.856441,-2738.761985,13789.718964,12879.583391
1076.856771,-4811.338623,7507.735880,13027.624579
1076.857101,-3256.906145,-306.438199,12953.603985
1076.857430,-3182.885551,-4519.963438,9696.697840
1076.857760,-3256.906145,-6818.249932,4589.276840
1076.858089,-2220.617826,-7890.783629,1924.535449
1076.858419,370.102971,-5975.544884,1924.535449
1076.858748,2886.803174,-2834.553343,3108.864956
1076.859078,4293.194464,-459.657299,5477.523971
1076.859408,3182.885551,4826.401637,9474.636058
1076.859737,518.144159,12257.527968,11547.212695
1076.860067,-3182.885551,9806.022374,12583.501014
1076.860396,-6365.771101,6128.763984,14211.954086
1076.860726,-7994.224174,2834.553343,15174.221811
1076.861056,-6291.750507,-1608.800546,13249.686362
1076.861385,-4293.194464,-6435.202183,10140.821405
1076.861715,-3923.091493,-8886.707777,7105.977043
1076.862044,-2442.679609,-8886.707777,5033.400406
1076.862374,740.205942,-7814.174080,6143.709319
1076.862703,5255.462188,-2834.553343,7476.080014
1076.863033,7698.141797,4749.792088,8956.491898
1076.863363,6513.812290,7431.126331,11177.109724
1076.863692,3701.029710,7660.954980,14656.077652
1076.864022,-1258.350101,8580.269578,16950.716072
1076.864351,-4589.276840,8120.612279,18357.107362
1076.864681,-6439.791695,6435.202183,17246.798449
1076.865011,-6957.935855,612.876398,13693.809927
1076.865340,-5773.606348,-6894.859482,9844.739029
1076.865670,-3775.050304,-12257.527968,5107.421000
1076.865999,-1554.432478,-10955.165621,3775.050304
1076.866329,1110.308913,-4673.182538,3997.112087
1076.866658,2368.659014,919.314598,5773.606348
1076.866988,3552.988522,3830.477490,7328.038826
1076.867318,2812.782580,6128.763984,9770.718434
1076.867647,592.164754,9269.755526,12213.398043
1076.867977,-2960.823768,12257.527968,12805.562797
1076.868306,-5625.565159,10189.070123,12953.603985
1076.868636,-5921.647536,4443.353888,11547.212695
1076.868966,-3627.009116,-1608.800546,9252.574275
1076.869295,-2516.700203,-7660.954980,5699.585753
1076.869625,-1998.556043,-8580.269578,2368.659014
1076.869954,-888.247130,-5209.449386,2072.576638
1076.870284,2368.659014,-2374.896044,4589.276840
1076.870613,4737.318029,1149.143247,6291.750507
1076.870943,4811.338623,4443.353888,8216.285956
1076.871273,3182.885551,9039.926876,9622.677246
1076.871602,0.000000,11261.603821,11399.171507
1076.871932,-4071.132681,10112.460574,13323.706956
1076.872261,-6513.812290,6894.859482,14137.933492
1076.872591,-6957.935855,1455.581446,13323.706956
1076.872920,-5329.482782,-3677.258390,11177.109724
1076.873250,-5033.400406,-8120.612279,7846.182985
1076.873580,-4515.256246,-9499.584175,5329.482782
1076.873909,-2220.617826,-6894.859482,3701.029710
1076.874239,1998.556043,-4596.572988,4959.379811
1076.874568,5773.606348,0.000000,7698.141797
1076.874898,4737.318029,5056.230287,11843.295072
1076.875228,1036.288319,9422.974625,14804.118840
1076.875557,-3108.864956,9806.022374,17172.777854
1076.875887,-7179.997637,10342.289223,18727.210333
1076.876216,-8438.347739,7660.954980,18579.169144
1076.876546,-7031.956449,842.705048,14508.036463
1076.876875,-4293.194464,-6818.249932,9918.759623
1076.877205,-1776.494261,-10801.946522,5403.503377
1076.877535,296.082377,-10725.336972,3330.926739
1076.877864,2294.638420,-6741.640382,3997.112087
1076.878194,4293.194464,-995.924147,5847.626942
1076.878523,5699.585753,4596.572988,7772.162391
1076.878853,4219.173869,6894.859482,10214.842000
1076.879183,2368.659014,10265.679673,12287.418637
1076.879512,-1776.494261,12257.527968,13397.727550
1076.879842,-4071.132681,10112.460574,13027.624579
1076.880171,-4589.276840,4749.792088,12213.398043
1076.880501,-3552.988522,-766.095498,9770.718434
1076.880830,-3034.844362,-6052.154434,6439.791695
1076.881160,-2220.617826,-9729.412825,2516.700203
1076.881490,-1332.370696,-7354.516781,1036.288319
1076.881819,296.082377,-4060.306139,2812.782580
1076.882149,3256.906145,-1302.362347,5181.441594
1076.882478,3997.112087,3524.039291,7550.100608
1076.882808,2072.576638,7354.516781,9178.553681
1076.883138,-518.144159,9116.536426,10732.986159
1076.883467,-4441.235652,9116.536426,12879.583391
1076.883797,-5773.606348,6665.030833,14137.933492
1076.884126,-5181.441594,536.266849,13175.665768
1076.884456,-4293.194464,-4060.306139,11399.171507
1076.884785,-4441.235652,-6281.983084,9178.553681
1076.885115,-2812.782580,-8503.660028,6587.832884
1076.885445,370.102971,-8733.488677,5551.544565
1076.885774,3849.070898,-4903.011187,6661.853478
1076.886104,6587.832884,0.000000,7328.038826
1076.886433,6587.832884,3830.477490,10955.047942
1076.886763,4071.132681,7431.126331,13545.768739
1076.887092,-370.102971,9193.145976,15914.427753
1076.887422,-4663.297435,9116.536426,17098.757260
1076.887752,-6735.874072,5822.325785,17690.922014
1076.888081,-5995.668130,1762.019645,16580.613101
1076.888411,-4885.359217,-3907.087040,12583.501014
1076.888740,-4145.153275,-8963.317327,7476.080014
1076.889070,-1998.556043,-10342.289223,3701.029710
1076.889400,962.267725,-7277.907231,2960.823768
1076.889729,4071.132681,-2145.067394,4515.256246
1076.890059,4959.379811,2451.505594,8068.244768
1076.890388,3330.926739,6435.202183,10955.047942
1076.890718,-296.082377,10572.117872,11547.212695
1076.891047,-3849.070898,11108.384721,12731.542202
1076.891377,-4885.359217,9576.193725,13471.748144
1076.891707,-4515.256246,5209.449386,13101.645173
1076.892036,-3775.050304,-229.828649,10214.842000
1076.892366,-3256.906145,-4749.792088,5921.647536
1076.892695,-1998.556043,-8580.269578,2294.638420
1076.893025,74.020594,-7507.735880,2146.597232
1076.893355,2072.576638,-2987.772442,3923.091493
1076.893684,3997.112087,1532.190996,5255.462188
1076.894014,5181.441594,4903.011187,6439.791695
1076.894343,3552.988522,7354.516781,7994.224174
1076.894673,370.102971,10265.679673,10214.842000
1076.895002,-3923.091493,9499.584175,12805.562797
1076.895332,-6735.874072,7201.297681,14285.974681
1076.895662,-7254.018232,3524.039291,13767.830521
1076.895991,-6957.935855,-1608.800546,10732.986159
1076.896321,-6217.729913,-7354.516781,7105.977043
1076.896650,-3997.112087,-10572.117872,4663.297435
1076.896980,-1924.535449,-7507.735880,2294.638420
1076.897310,1776.494261,-3217.601092,2886.803174
1076.897639,5403.503377,-1302.362347,7254.018232
1076.897969,5107.421000,3447.429741,12583.501014
1076.898298,-296.082377,7967.393179,16358.551318
1076.898628,-5329.482782,9499.584175,19023.292709
1076.898957,-8364.327145,11874.480219,18801.230927
1076.899287,-7698.141797,7967.393179,17246.798449
1076.899617,-4071.132681,-3064.381992,14508.036463
1076.899946,-962.267725,-9882.631924,11621.233289
1076.900276,-1110.308913,-10189.070123,6217.729913
1076.900605,-740.205942,-8120.612279,3849.070898
1076.900935,1406.391290,-5286.058936,5107.421000
1076.901264,4293.194464,-536.266849,7476.080014
1076.901594,6735.874072,1762.019645,9696.697840
1076.901924,6291.750507,4749.792088,10807.006753
1076.902253,2738.761985,11414.822920,10362.883188
1076.902583,-1036.288319,11414.822920,11547.212695
1076.902912,-3923.091493,6358.592633,13767.830521
1076.903242,-5847.626942,3524.039291,15692.365970
1076.903572,-5403.503377,1378.971896,13027.624579
1076.903901,-4663.297435,-3753.867940,6365.771101
1076.904231,-3330.926739,-6894.859482,1258.350101
1076.904560,-1110.308913,-8427.050478,-0.000000
1076.904890,2812.782580,-6665.030833,1628.453072
1076.905219,6143.709319,-1608.800546,4145.153275
1076.905549,5995.668130,5362.668486,7550.100608
1076.905879,1258.350101,10572.117872,10807.006753
1076.906208,-2220.617826,13023.623466,10510.924376
1076.906538,-3552.988522,7584.345430,11769.274478
1076.906867,-3404.947333,766.095498,14359.995275
1076.907197,-4663.297435,1915.238745,14508.036463
1076.907527,-5551.544565,383.047749,12361.439231
1076.907856,-5107.421000,-5822.325785,8068.244768
1076.908186,-3849.070898,-8963.317327,2738.761985
1076.908515,518.144159,-8120.612279,2072.576638
1076.908845,6291.750507,-6052.154434,4737.318029
1076.909174,8068.244768,-689.485948,9622.677246
1076.909504,4441.235652,8580.269578,11843.295072
1076.909834,-444.123565,11108.384721,12583.501014
1076.910163,-2294.638420,7431.126331,14211.954086
1076.910493,-4737.318029,7890.783629,16358.551318
1076.910822,-6513.812290,5669.106685,17024.736666
1076.911152,-6217.729913,0.000000,14952.160028
1076.911482,-6957.935855,-4903.011187,11177.109724
1076.911811,-5995.668130,-8963.317327,7624.121203
1076.912141,-3552.988522,-10189.070123,5551.544565
1076.912470,-666.185348,-6511.811733,5181.441594
1076.912800,2738.761985,-1762.019645,6217.729913
1076.913129,4145.153275,1762.019645,8586.388927
1076.913459,3330.926739,4979.620737,11769.274478
1076.913789,296.082377,9576.193725,13249.686362
1076.914118,-2812.782580,10418.898773,13841.851115
1076.914448,-4589.276840,8427.050478,13545.768739
1076.914777,-5625.565159,4290.134789,13989.892304
1076.915107,-4663.297435,-1225.752797,12213.398043
1076.915436,-3923.091493,-5898.935335,7994.224174
1076.915766,-2590.720797,-7584.345430,3108.864956
1076.916096,370.102971,-6818.249932,1628.453072
1076.916425,4219.173869,-3447.429741,3404.947333
1076.916754,7105.977043,-536.266849,4811.338623
1076.917084,7772.162391,3753.867940,5847.626942
1076.917413,5181.441594,9729.412825,7846.182985
1076.917743,2368.659014,13636.499864,9622.677246
1076.918072,-1110.308913,10418.898773,12287.418637
1076.918401,-4959.379811,5056.230287,14582.057057
1076.918731,-6883.915261,2834.553343,14137.933492
1076.919060,-6661.853478,-1762.019645,11621.233289
1076.919390,-5995.668130,-6281.983084,7624.121203
1076.919719,-5329.482782,-8273.831378,3404.947333
1076.920048,-3182.885551,-9039.926876,1998.556043
1076.920378,2072.576638,-7124.688131,4367.215058
1076.920707,4737.318029,-1149.143247,8068.244768
1076.921037,4071.132681,6665.030833,11399.171507
1076.921366,518.144159,10342.289223,12509.480420
1076.921695,-2368.659014,10035.851024,12583.501014
1076.922025,-4219.173869,7201.297681,14804.118840
1076.922354,-4145.153275,2528.115143,16432.571912
1076.922684,-4737.318029,76.609550,15396.283594
1076.923013,-4515.256246,-2834.553343,12435.459826
1076.923342,-3997.112087,-7124.688131,8216.285956
1076.923672,-1850.514855,-9729.412825,4885.359217
1076.924001,2072.576638,-8503.660028,5625.565159
1076.924330,5773.606348,-3370.820191,8808.450710
1076.924660,6513.812290,3140.991542,11991.336260
1076.924989,3775.050304,9652.803275,12065.356855
1076.925319,1258.350101,11184.994271,11917.315666
1076.925648,-962.267725,7584.345430,12805.562797
1076.925977,-3256.906145,5822.325785,16210.510130
1076.926307,-6291.750507,4596.572988,14582.057057
1076.926636,-7994.224174,2145.067394,9844.739029
1076.926966,-7254.018232,-5286.058936,6587.832884
1076.927295,-4737.318029,-9039.926876,3627.009116
1076.927624,-2294.638420,-9193.145976,814.226536
1076.927954,1554.432478,-8044.002729,1776.494261
1076.928283,4589.276840,-1225.752797,5699.585753
1076.928613,4959.379811,8273.831378,8808.450710
1076.928942,3552.988522,11031.775171,9622.677246
1076.929271,2442.679609,10035.851024,8956.491898
1076.929601,-296.082377,10955.165621,9474.636058
1076.929930,-1480.411884,8044.002729,12805.562797
1076.930260,-2368.659014,1915.238745,15174.221811
1076.930589,-4441.235652,766.095498,12065.356855
1076.930918,-6291.750507,-3447.429741,6883.915261
1076.931248,-4515.256246,-9422.974625,3701.029710
1076.931577,-444.123565,-8580.269578,2812.782580
1076.931907,4219.173869,-4826.401637,4293.194464
1076.932236,5847.626942,-2528.115143,6587.832884
1076.932565,4367.215058,4903.011187,10066.800811
1076.932895,814.226536,10955.165621,10955.047942
1076.933224,-1258.350101,8886.707777,13471.748144
1076.933554,-4515.256246,6665.030833,15988.448347
1076.933883,-7550.100608,6511.811733,17098.757260
1076.934212,-7624.121203,1225.752797,14582.057057
1076.934542,-5699.585753,-4979.620737,10807.006753
1076.934871,-4589.276840,-8197.221829,6809.894666
1076.935200,-2960.823768,-11874.480219,3923.091493
1076.935530,-370.102971,-10572.117872,5551.544565
1076.935859,3034.844362,-3830.477490,9252.574275
1076.936189,4219.173869,4213.525239,11917.315666
1076.936518,3627.009116,8503.660028,12657.521608
1076.936847,2516.700203,10112.460574,12213.398043
1076.937177,222.061783,9882.631924,12583.501014
1076.937506,-1480.411884,7124.688131,13989.892304
1076.937836,-3256.906145,4060.306139,14804.118840
1076.938165,-4441.235652,995.924147,13397.727550
1076.938494,-5773.606348,-3600.648841,10066.800811
1076.938824,-5921.647536,-8350.440928,5329.482782
1076.939153,-2590.720797,-9729.412825,3478.967927
1076.939483,1776.494261,-7431.126331,2886.803174
1076.939812,5033.400406,-2604.724693,4293.194464
1076.940141,6735.874072,3294.210641,6439.791695
1076.940471,5403.503377,8273.831378,9326.594869
1076.940800,2368.659014,9039.926876,10955.047942
1076.941130,-1406.391290,9576.193725,13915.871710
1076.941459,-4737.318029,11031.775171,14656.077652
1076.941788,-4515.256246,6818.249932,13101.645173
1076.942118,-1776.494261,-459.657299,10140.821405
1076.942447,-1998.556043,-5822.325785,5403.503377
1076.942777,-2072.576638,-8044.002729,-0.000000
1076.943106,148.041188,-9422.974625,-74.020594
1076.943435,2516.700203,-5898.935335,4515.256246
1076.943765,2886.803174,1762.019645,10066.800811
1076.944094,740.205942,6665.030833,12213.398043
1076.944423,-2072.576638,9346.365076,11251.130318
1076.944753,-2590.720797,9806.022374,10140.821405
1076.945082,-3256.906145,4290.134789,13915.871710
1076.945412,-4293.194464,2068.457845,16580.613101
1076.945741,-6439.791695,766.095498,14211.954086
1076.946070,-7179.997637,-2374.896044,8734.430116
1076.946400,-6291.750507,-6435.202183,5255.462188
1076.946729,-2886.803174,-9499.584175,4589.276840
1076.947059,1998.556043,-8886.707777,6883.915261
1076.947388,5255.462188,-6052.154434,9178.553681
1076.947717,5329.482782,3447.429741,9918.759623
1076.948047,4293.194464,10112.460574,12213.398043
1076.948376,3182.885551,8963.317327,13249.686362
1076.948706,-1776.494261,8733.488677,14063.912898
1076.949035,-5551.544565,7967.393179,15618.345376
1076.949364,-5033.400406,3983.696590,17690.922014
1076.949694,-4515.256246,1915.238745,15322.262999
1076.950023,-6513.812290,-3830.477490,10881.027347
1076.950353,-6661.853478,-9959.241474,4959.379811
1076.950682,-3701.029710,-11184.994271,1554.432478
1076.951011,2368.659014,-7814.174080,1628.453072
1076.951341,6587.832884,-3447.429741,4515.256246
1076.951670,5773.606348,3447.429741,7846.182985
1076.952000,3034.844362,10648.727422,10362.883188
1076.952329,1702.473667,10572.117872,11843.295072
1076.952658,0.000000,9499.584175,13841.851115
1076.952988,-3404.947333,9806.022374,14063.912898
1076.953317,-4589.276840,4903.011187,13101.645173
1076.953647,-3256.906145,-1225.752797,10288.862594
1076.953976,-2664.741391,-5132.839837,5847.626942
1076.954305,-1850.514855,-8580.269578,444.123565
1076.954635,518.144159,-9422.974625,-0.000000
1076.954964,2368.659014,-5975.544884,3330.926739
1076.955293,3701.029710,1762.019645,7994.224174
1076.955623,2664.741391,6052.154434,10214.842000
1076.955952,1184.329507,8733.488677,9252.574275
1076.956282,74.020594,8963.317327,9918.759623
1076.956611,-2220.617826,4749.792088,15174.221811
1076.956940,-4071.132681,4136.915689,18209.066173
1076.957270,-6735.874072,3140.991542,15766.386565
1076.957599,-6809.894666,-1685.410096,11029.068536
1076.957929,-5699.585753,-6435.202183,6513.812290
1076.958258,-2442.679609,-9422.974625,3997.112087
1076.958587,2590.720797,-10189.070123,3182.885551
1076.958917,6587.832884,-7814.174080,5625.565159
1076.959246,7105.977043,689.485948,9548.656652
1076.959576,3701.029710,8503.660028,13101.645173
1076.959905,666.185348,10572.117872,14285.974681
1076.960234,-1702.473667,10189.070123,15988.448347
1076.960564,-3775.050304,7431.126331,18135.045579
1076.960893,-3923.091493,4443.353888,18431.127956
1076.961223,-4589.276840,1149.143247,14359.995275
1076.961552,-4737.318029,-4519.963438,9622.677246
1076.961881,-4737.318029,-9116.536426,5107.421000
1076.962211,-2738.761985,-9499.584175,2516.700203
1076.962540,370.102971,-7048.078582,2664.741391
1076.962870,3923.091493,-3677.258390,5995.668130
1076.963199,4959.379811,3370.820191,9474.636058
1076.963528,2590.720797,9576.193725,10214.842000
1076.963858,1036.288319,10801.946522,9400.615463
1076.964187,-1184.329507,8580.269578,11695.253884
1076.964517,-3701.029710,7814.174080,14285.974681
1076.964846,-4885.359217,5362.668486,14952.160028
1076.965175,-4515.256246,2068.457845,10732.986159
1076.965505,-4071.132681,-2528.115143,6217.729913
1076.965834,-3182.885551,-7354.516781,1332.370696
1076.966163,-296.082377,-8733.488677,-74.020594
1076.966493,3627.009116,-6358.592633,1850.514855
1076.966822,5107.421000,-1302.362347,5921.647536
1076.967152,3256.906145,7048.078582,9400.615463
1076.967481,-814.226536,9806.022374,10658.965565
1076.967810,-2368.659014,8197.221829,12731.542202
1076.968140,-4811.338623,6971.469032,15470.304188
1076.968469,-6365.771101,7124.688131,16136.489536
1076.968799,-5403.503377,3140.991542,12509.480420
1076.969128,-3478.967927,-2451.505594,8512.368333
1076.969457,-2664.741391,-7124.688131,3923.091493
1076.969787,-1924.535449,-10342.289223,1850.514855
1076.970116,814.226536,-9193.145976,3997.112087
1076.970446,3775.050304,-2987.772442,8068.244768
1076.970775,4145.153275,3370.820191,11177.109724
1076.971104,1554.432478,6128.763984,13545.768739
1076.971434,-1258.350101,9039.926876,12583.501014
1076.971763,-2812.782580,8120.612279,15248.242405
1076.972093,-3256.906145,4213.525239,19319.375086
1076.972422,-5625.565159,3753.867940,19615.457463
1076.972751,-7179.997637,2834.553343,15692.365970
1076.973081,-5477.523971,-3830.477490,9548.656652
1076.973410,-2072.576638,-9806.022374,4219.173869
1076.973740,1332.370696,-9652.803275,1480.411884
1076.974069,4885.359217,-7584.345430,1850.514855
1076.974398,6661.853478,-3217.601092,5847.626942
1076.974728,5773.606348,5439.278036,10066.800811
1076.975057,2294.638420,10725.336972,12435.459826
1076.975386,-222.061783,10572.117872,11547.212695
1076.975716,-2886.803174,7048.078582,13397.727550
1076.976045,-4515.256246,5515.887586,16506.592507
1076.976375,-5255.462188,4903.011187,15322.262999
1076.976704,-4737.318029,1072.533697,10510.924376
1076.977033,-4515.256246,-4749.792088,5181.441594
1076.977363,-2886.803174,-7354.516781,666.185348
1076.977692,148.041188,-8044.002729,-222.061783
1076.978022,3552.988522,-5669.106685,1850.514855
1076.978351,4737.318029,229.828649,5773.606348
1076.978680,2220.617826,7660.954980,8808.450710
1076.979010,-518.144159,9116.536426,10066.800811
1076.979339,-1628.453072,10035.851024,9992.780217
1076.979669,-3701.029710,7507.735880,12435.459826
1076.979998,-4441.235652,2451.505594,15544.324782
1076.980327,-5773.606348,1532.190996,14804.118840
1076.980657,-7254.018232,0.000000,11103.089130
1076.980986,-5847.626942,-4903.011187,6735.874072
1076.981316,-3478.967927,-9039.926876,3552.988522
1076.981645,370.102971,-7354.516781,2960.823768
1076.981974,4589.276840,-5286.058936,5625.565159
1076.982304,5995.668130,-919.314598,8808.450710
1076.982633,3775.050304,7660.954980,11325.150913
1076.982963,592.164754,8810.098227,12583.501014
1076.983292,-1702.473667,7201.297681,15544.324782
1076.983621,-5033.400406,7814.174080,17912.983796
1076.983951,-6143.709319,5286.058936,18135.045579
1076.984280,-4589.276840,-153.219100,15100.201217
1076.984610,-3108.864956,-4136.915689,10658.965565
1076.984939,-2368.659014,-7584.345430,7031.956449
1076.985268,-814.226536,-9346.365076,3775.050304
1076.985598,1850.514855,-7048.078582,3775.050304
1076.985927,5699.585753,-1915.238745,6291.750507
1076.986256,6365.771101,3524.039291,9178.553681
1076.986586,4515.256246,6818.249932,11251.130318
1076.986915,1554.432478,7737.564530,12879.583391
1076.987245,-1702.473667,7201.297681,15322.262999
1076.987574,-4589.276840,8273.831378,16432.571912
1076.987903,-5255.462188,6511.811733,14137.933492
1076.988233,-3256.906145,76.609550,10140.821405
1076.988562,-1702.473667,-4519.963438,5033.400406
1076.988892,370.102971,-7431.126331,296.082377
1076.989221,2220.617826,-8197.221829,-296.082377
1076.989550,3627.009116,-2604.724693,2368.659014
1076.989880,3775.050304,3140.991542,6587.832884
1076.990209,3701.029710,7048.078582,9474.636058
1076.990539,2072.576638,8273.831378,9178.553681
1076.990868,370.102971,6894.859482,10955.047942
1076.991197,-2886.803174,4903.011187,14952.160028
1076.991527,-6365.771101,4366.744339,16358.551318
1076.991856,-7698.141797,4290.134789,14211.954086
1076.992186,-6217.729913,0.000000,9770.718434
1076.992515,-4441.235652,-6052.154434,4959.379811
1076.992844,-1554.432478,-9422.974625,1480.411884
1076.993174,2220.617826,-9039.926876,1554.432478
1076.993503,4441.235652,-3447.429741,4737.318029
1076.993833,5033.400406,3600.648841,8882.471304
1076.994162,2664.741391,6894.859482,11325.150913
1076.994491,-1036.288319,8197.221829,12287.418637
1076.994821,-4663.297435,8427.050478,14582.057057
1076.995150,-6809.894666,7660.954980,16284.530724
1076.995479,-6513.812290,2834.553343,17320.819043
1076.995809,-7105.977043,-2374.896044,15100.201217
1076.996138,-7402.059420,-4749.792088,11991.336260
1076.996468,-6439.791695,-8656.879127,7698.141797
1076.996797,-2664.741391,-9959.241474,5107.421000
1076.997126,1332.370696,-6435.202183,5403.503377
1076.997456,3997.112087,-1685.410096,7476.080014
1076.997785,5403.503377,3524.039291,9696.697840
1076.998115,4737.318029,8120.612279,11251.130318
1076.998444,2664.741391,10189.070123,11251.130318
1076.998773,-888.247130,7584.345430,12953.603985
1076.999103,-4219.173869,5898.935335,15692.365970
1076.999432,-6069.688724,4903.011187,15026.180623
1076.999762,-5625.565159,459.657299,11325.150913
1077.000091,-4441.235652,-4136.915689,7254.018232
1077.000420,-2664.741391,-7201.297681,3108.864956
1077.000750,592.164754,-7814.174080,1332.370696
1077.001079,4145.153275,-6128.763984,1628.453072
1077.001409,6439.791695,306.438199,4737.318029
1077.001738,5625.565159,7431.126331,7994.224174
1077.002067,3256.906145,10572.117872,9030.512492
1077.002397,592.164754,8656.879127,11325.150913
1077.002726,-2886.803174,6741.640382,14804.118840
1077.003056,-5181.441594,6358.592633,16432.571912
1077.003385,-6439.791695,3753.867940,14211.954086
1077.003714,-6291.750507,-1608.800546,10584.944971
1077.004044,-5477.523971,-5515.887586,7105.977043
1077.004373,-3627.009116,-9269.755526,1332.370696
1077.004703,814.226536,-9116.536426,-370.102971
1077.005032,4811.338623,-4826.401637,2516.700203
1077.005361,5995.668130,1762.019645,7846.182985
1077.005691,4367.215058,7354.516781,10658.965565
1077.006020,1702.473667,8810.098227,11547.212695
1077.006349,-1332.370696,10112.460574,11399.171507
1077.006679,-4959.379811,8120.612279,14582.057057
1077.007008,-6069.688724,3140.991542,18283.086767
1077.007338,-5847.626942,-1072.533697,18431.127956
1077.007667,-6439.791695,-2911.162892,13767.830521
1077.007996,-6439.791695,-6818.249932,7476.080014
1077.008326,-3330.926739,-9882.631924,5255.462188
1077.008655,666.185348,-8197.221829,5921.647536
1077.008985,4885.359217,-2834.553343,7624.121203
1077.009314,6587.832884,1838.629195,8956.491898
1077.009643,5403.503377,8120.612279,10066.800811
1077.009973,2812.782580,10342.289223,10881.027347
1077.010302,-592.164754,6818.249932,13989.892304
1077.010632,-4737.318029,5592.497135,16580.613101
1077.010961,-7105.977043,5515.887586,15840.407159
1077.011290,-6439.791695,1838.629195,12731.542202
1077.011620,-5107.421000,-3753.867940,8586.388927
1077.011949,-3478.967927,-8733.488677,4737.318029
1077.012279,-666.185348,-10265.679673,2368.659014
1077.012608,2960.823768,-6128.763984,2146.597232
1077.012937,5181.441594,995.924147,4293.194464
1077.013267,4959.379811,6435.202183,7476.080014
1077.013596,3701.029710,9959.241474,10807.006753
1077.013926,1554.432478,10955.165621,11991.336260
1077.014255,-2072.576638,8044.002729,12953.603985
1077.014584,-4663.297435,7048.078582,13175.665768
1077.014914,-5995.668130,4443.353888,12583.501014
1077.015243,-5477.523971,-2145.067394,11029.068536
1077.015573,-5995.668130,-7277.907231,7105.977043
1077.015902,-4441.235652,-8197.221829,2072.576638
1077.016231,-1184.329507,-8273.831378,148.041188
1077.016561,2886.803174,-4366.744339,2146.597232
1077.016890,4589.276840,1762.019645,4811.338623
1077.017219,4071.132681,3983.696590,8290.306550
1077.017549,2368.659014,7431.126331,11029.068536
1077.017878,-1406.391290,12180.918418,12065.356855
1077.018208,-4885.359217,9729.412825,15026.180623
1077.018537,-6957.935855,3370.820191,18283.086767
1077.018866,-7402.059420,842.705048,17690.922014
1077.019196,-6587.832884,-2604.724693,13767.830521
1077.019525,-4811.338623,-8503.660028,8956.491898
1077.019855,-2220.617826,-9346.365076,5847.626942
1077.020184,0.000000,-7201.297681,5181.441594
1077.020513,4293.194464,-5056.230287,7550.100608
1077.020843,6143.709319,459.657299,9326.594869
1077.021172,5329.482782,8197.221829,10140.821405
1077.021502,3627.009116,9116.536426,11251.130318
1077.021831,1036.288319,6818.249932,14952.160028
1077.022160,-3627.009116,6971.469032,17246.798449
1077.022490,-6365.771101,4979.620737,16136.489536
1077.022819,-5773.606348,1072.533697,12879.583391
1077.023149,-4219.173869,-3217.601092,9326.594869
1077.023478,-3182.885551,-7814.174080,5255.462188
1077.023807,-1332.370696,-9806.022374,2664.741391
1077.024137,1776.494261,-6665.030833,2516.700203
1077.024466,4737.318029,-153.219100,5403.503377
1077.024796,4959.379811,6588.421283,8882.471304
1077.025125,2812.782580,11184.994271,10066.800811
1077.025454,1258.350101,11031.775171,9770.718434
1077.025784,-1110.308913,6894.859482,12287.418637
1077.026113,-4367.215058,6128.763984,14285.974681
1077.026443,-7254.018232,4903.011187,13693.809927
1077.026772,-7772.162391,229.828649,10732.986159
1077.027101,-6587.832884,-4903.011187,6365.771101
1077.027431,-4145.153275,-9116.536426,1554.432478
1077.027760,-222.061783,-10112.460574,-1110.308913
1077.028090,2960.823768,-7124.688131,222.061783
1077.028419,5033.400406,-459.657299,4737.318029
1077.028748,4441.235652,6358.592633,10066.800811
1077.029078,1480.411884,10189.070123,11695.253884
1077.029407,-814.226536,11951.089769,12065.356855
1077.029737,-3775.050304,8810.098227,14137.933492
1077.030066,-4737.318029,4213.525239,16950.716072
1077.030395,-5181.441594,1762.019645,16358.551318
1077.030725,-5921.647536,-1991.848295,13545.768739
1077.031054,-5551.544565,-7048.078582,8956.491898
1077.031384,-3923.091493,-9499.584175,5625.565159
1077.031713,0.000000,-9576.193725,5033.400406
1077.032042,4071.132681,-6358.592633,6661.853478
1077.032372,5551.544565,229.828649,9104.533087
1077.032701,4737.318029,7507.735880,11325.150913
1077.033031,3404.947333,10112.460574,12361.439231
1077.033360,1110.308913,7890.783629,15174.221811
1077.033689,-2960.823768,7354.516781,16950.716072
1077.034019,-7105.977043,5362.668486,16802.674883
1077.034348,-7328.038826,2145.067394,14804.118840
1077.034678,-5477.523971,-2911.162892,11325.150913
1077.035007,-3923.091493,-7814.174080,7402.059420
1077.035336,-1554.432478,-9806.022374,2220.617826
1077.035666,1776.494261,-8886.707777,814.226536
1077.035995,4663.297435,-3217.601092,2960.823768
1077.036325,5699.585753,5056.230287,7402.059420
1077.036654,4515.256246,9499.584175,10362.883188
1077.036983,2738.761985,11644.651570,10436.903782
1077.037313,-518.144159,9882.631924,12287.418637
1077.037642,-2886.803174,7660.954980,15026.180623
1077.037972,-4737.318029,5515.887586,14804.118840
1077.038301,-4515.256246,383.047749,11251.130318
1077.038630,-3923.091493,-4596.572988,7550.100608
1077.038960,-3775.050304,-7431.126331,2220.617826
1077.039289,-2220.617826,-7584.345430,-1554.432478
1077.039619,1406.391290,-5898.935335,-1924.535449
1077.039948,4737.318029,-3524.039291,3478.967927
1077.040277,4663.297435,3983.696590,9030.512492
1077.040607,592.164754,8963.317327,10955.047942
1077.040936,-2960.823768,10495.508323,11103.089130
1077.041266,-6217.729913,9193.145976,13989.892304
1077.041595,-7105.977043,4903.011187,17764.942608
1077.041924,-5995.668130,1072.533697,17172.777854
1077.042254,-4737.318029,-3294.210641,12509.480420
1077.042583,-4663.297435,-6358.592633,7328.038826
1077.042913,-2738.761985,-8733.488677,4737.318029
1077.043242,444.123565,-9652.803275,5995.668130
1077.043571,3997.112087,-5362.668486,7624.121203
1077.043901,5107.421000,536.266849,9104.533087
1077.044230,5477.523971,7124.688131,11917.315666
1077.044560,4441.235652,10342.289223,13767.830521
1077.044889,1036.288319,8963.317327,15026.180623
1077.045218,-3627.009116,6894.859482,16432.571912
1077.045548,-5773.606348,4519.963438,17690.922014
1077.045877,-5995.668130,1608.800546,15766.386565
1077.046207,-5921.647536,-1685.410096,11473.192101
1077.046536,-6291.750507,-8350.440928,5995.668130
1077.046865,-3923.091493,-11184.994271,2072.576638
1077.047195,370.102971,-9652.803275,1554.432478
1077.047524,4367.215058,-4519.963438,4145.153275
1077.047854,5329.482782,4366.744339,7624.121203
1077.048183,2590.720797,9269.755526,10584.944971
1077.048512,740.205942,11108.384721,11177.109724
1077.048842,-962.267725,10035.851024,13471.748144
1077.049171,-2516.700203,8733.488677,14582.057057
1077.049501,-3775.050304,7201.297681,13249.686362
1077.049830,-3478.967927,1378.971896,10881.027347
1077.050159,-2664.741391,-3830.477490,8586.388927
1077.050489,-2368.659014,-7124.688131,3256.906145
1077.050818,-1480.411884,-7814.174080,-1406.391290
1077.051148,2146.597232,-5975.544884,-962.267725
1077.051477,4811.338623,-2987.772442,3478.967927
1077.051806,4737.318029,4136.915689,7994.224174
1077.052136,1702.473667,8120.612279,10066.800811
1077.052465,-962.267725,8197.221829,11621.233289
1077.052795,-4811.338623,9193.145976,14952.160028
1077.053124,-8438.347739,8886.707777,17616.901420
1077.053453,-8364.327145,4366.744339,16876.695478
1077.053783,-5403.503377,-2451.505594,12139.377449
1077.054112,-3997.112087,-6128.763984,5847.626942
1077.054442,-1480.411884,-9806.022374,1406.391290
1077.054771,814.226536,-11338.213370,2442.679609
1077.055100,3256.906145,-6128.763984,7031.956449
1077.055430,3775.050304,1149.143247,11103.089130
1077.055759,2886.803174,6588.421283,12731.542202
1077.056089,1850.514855,10035.851024,13397.727550
1077.056418,962.267725,9576.193725,13841.851115
1077.056747,-1258.350101,5362.668486,17690.922014
1077.057077,-3849.070898,1991.848295,19615.457463
1077.057406,-6513.812290,2834.553343,17987.004391
1077.057736,-6957.935855,-229.828649,13545.768739
1077.058065,-5625.565159,-7507.735880,8068.244768
1077.058394,-2886.803174,-9806.022374,2812.782580
1077.058724,1184.329507,-9346.365076,370.102971
1077.059053,6365.771101,-7201.297681,1332.370696
1077.059383,7920.203579,153.219100,5477.523971
1077.059712,4737.318029,9039.926876,9770.718434
1077.060041,888.247130,11874.480219,12065.356855
1077.060371,-2146.597232,9806.022374,14804.118840
1077.060700,-4811.338623,9499.584175,16358.551318
1077.061030,-4663.297435,6894.859482,15544.324782
1077.061359,-3404.947333,1608.800546,10658.965565
1077.061688,-2294.638420,-3217.601092,6217.729913
1077.062018,-2368.659014,-8120.612279,1850.514855
1077.062347,-1480.411884,-9422.974625,-518.144159
1077.062677,1036.288319,-6818.249932,-0.000000
1077.063006,3256.906145,-2145.067394,4145.153275
1077.063335,2368.659014,4673.182538,9622.677246
1077.063665,148.041188,9422.974625,10066.800811
1077.063994,-592.164754,8810.098227,9918.759623
1077.064324,-2146.597232,4673.182538,13915.871710
1077.064653,-5477.523971,7354.516781,17024.736666
1077.064982,-7624.121203,6894.859482,16654.633695
1077.065312,-6069.688724,-1072.533697,12213.398043
1077.065641,-4737.318029,-5056.230287,6365.771101
1077.065971,-2146.597232,-8120.612279,1258.350101
1077.066300,2368.659014,-11644.651570,1184.329507
1077.066629,6217.729913,-8656.879127,4663.297435
1077.066959,5847.626942,689.485948,9104.533087
1077.067288,3478.967927,7354.516781,12361.439231
1077.067618,1332.370696,9346.365076,13027.624579
1077.067947,0.000000,9806.022374,15248.242405
1077.068276,-2294.638420,6281.983084,19911.539840
1077.068606,-4071.132681,5669.106685,21614.013506
1077.068935,-5995.668130,4749.792088,17838.963202
1077.069265,-4885.359217,-1149.143247,11843.295072
1077.069594,-4219.173869,-7737.564530,7105.977043
1077.069923,-2812.782580,-10189.070123,3775.050304
1077.070253,-74.020594,-8810.098227,2146.597232
1077.070582,3330.926739,-4596.572988,2590.720797
1077.070912,4737.318029,2145.067394,5847.626942
1077.071241,3775.050304,7277.907231,9622.677246
1077.071570,1850.514855,7584.345430,11399.171507
1077.071900,-1480.411884,8810.098227,12583.501014
1077.072229,-4959.379811,9269.755526,14434.015869
1077.072559,-5625.565159,7354.516781,15766.386565
1077.072888,-3997.112087,4060.306139,12287.418637
1077.073217,-1850.514855,-3064.381992,8142.265362
1077.073547,-592.164754,-7737.564530,2146.597232
1077.073876,1036.288319,-7967.393179,-740.205942
1077.074206,4219.173869,-5592.497135,444.123565
1077.074535,5699.585753,-1302.362347,3775.050304
1077.074864,4885.359217,4903.011187,7031.956449
1077.075194,2442.679609,7814.174080,9770.718434
1077.075523,518.144159,7737.564530,11621.233289
1077.075853,-3478.967927,7354.516781,13989.892304
1077.076182,-6957.935855,6971.469032,16136.489536
1077.076511,-8068.244768,2528.115143,16580.613101
1077.076841,-6957.935855,-383.047749,12509.480420
1077.077170,-7031.956449,-4673.182538,6365.771101
1077.077500,-4737.318029,-9806.022374,814.226536
1077.077829,-888.247130,-10801.946522,592.164754
1077.078158,2442.679609,-7660.954980,5181.441594
1077.078488,3923.091493,-1455.581446,9548.656652
1077.078817,1850.514855,5822.325785,12287.418637
1077.079147,0.000000,9422.974625,12879.583391
1077.079476,-1628.453072,9193.145976,14211.954086
1077.079805,-4293.194464,8810.098227,16432.571912
1077.080135,-4293.194464,5822.325785,17838.963202
1077.080464,-3182.885551,-1378.971896,17690.922014
1077.080794,-3923.091493,-2145.067394,14211.954086
1077.081123,-5255.462188,-3983.696590,8512.368333
1077.081452,-3256.906145,-9959.241474,5329.482782
1077.081782,1036.288319,-8273.831378,3775.050304
1077.082111,4811.338623,-3830.477490,4071.132681
1077.082441,7328.038826,-229.828649,5847.626942
1077.082770,7105.977043,3447.429741,8438.347739
1077.083099,3775.050304,8120.612279,12805.562797
1077.083429,-592.164754,9116.536426,15914.427753
1077.083758,-5625.565159,9576.193725,15248.242405
1077.084088,-7402.059420,9346.365076,11917.315666
1077.084417,-5181.441594,2068.457845,9844.739029
1077.084746,-1998.556043,-3983.696590,7031.956449
1077.085076,-740.205942,-6358.592633,2368.659014
1077.085405,370.102971,-9806.022374,-444.123565
1077.085735,1480.411884,-6128.763984,814.226536
1077.086064,2220.617826,1225.752797,4959.379811
1077.086393,3034.844362,4903.011187,8068.244768
1077.086723,2368.659014,6511.811733,9696.697840
1077.087052,814.226536,8044.002729,11251.130318
1077.087382,-2220.617826,8197.221829,15100.201217
1077.087711,-5403.503377,5592.497135,16802.674883
1077.088040,-7254.018232,3370.820191,15988.448347
1077.088370,-6217.729913,1149.143247,12435.459826
1077.088699,-5255.462188,-3907.087040,8586.388927
1077.089029,-2072.576638,-7660.954980,2368.659014
1077.089358,1776.494261,-9806.022374,-814.226536
1077.089687,5847.626942,-7354.516781,1332.370696
1077.090017,7328.038826,0.000000,7105.977043
1077.090346,5773.606348,5975.544884,12139.377449
1077.090676,1998.556043,9959.241474,13619.789333
1077.091005,-2368.659014,11568.042020,13175.665768
1077.091334,-5255.462188,10342.289223,15026.180623
1077.091664,-5625.565159,5439.278036,17690.922014
1077.091993,-5107.421000,-2451.505594,18431.127956
1077.092323,-5921.647536,-3294.210641,15470.304188
1077.092652,-7772.162391,-3983.696590,9030.512492
1077.092981,-6735.874072,-10112.460574,5181.441594
1077.093311,-2886.803174,-9652.803275,4737.318029
1077.093640,1924.535449,-4213.525239,5699.585753
1077.093970,6217.729913,-306.438199,7105.977043
1077.094299,7105.977043,3983.696590,7698.141797
1077.094628,4293.194464,8273.831378,9474.636058
1077.094958,148.041188,9039.926876,13545.768739
1077.095287,-4367.215058,7354.516781,16284.530724
1077.095617,-6735.874072,9193.145976,15988.448347
1077.095946,-5477.523971,5286.058936,11399.171507
1077.096275,-2368.659014,-3524.039291,6883.915261
1077.096605,0.000000,-8503.660028,3478.967927
1077.096934,1406.391290,-9652.803275,1332.370696
1077.097264,2664.741391,-7124.688131,1258.350101
1077.097593,3404.947333,459.657299,4145.153275
1077.097922,3256.906145,7048.078582,8512.368333
1077.098252,2220.617826,9269.755526,9844.739029
1077.098581,370.102971,7354.516781,10658.965565
1077.098911,-1406.391290,5439.278036,13841.851115
1077.099240,-4219.173869,6205.373534,15618.345376
1077.099569,-7031.956449,4136.915689,14434.015869
1077.099899,-7105.977043,0.000000,11991.336260
1077.100228,-6809.894666,-5056.230287,7179.997637
1077.100558,-3775.050304,-8273.831378,1776.494261
1077.100887,1480.411884,-10112.460574,-0.000000
1077.101216,6143.709319,-6818.249932,2368.659014
1077.101546,6661.853478,919.314598,6883.915261
1077.101875,4737.318029,5592.497135,11473.192101
1077.102205,1776.494261,9039.926876,12657.521608
1077.102534,-1184.329507,11874.480219,13841.851115
1077.102863,-4589.276840,7277.907231,17912.983796
1077.103193,-6365.771101,3370.820191,20947.828159
1077.103522,-7550.100608,1608.800546,18209.066173
1077.103852,-5477.523971,-2298.286494,11547.212695
1077.104181,-2072.576638,-7890.783629,6883.915261
1077.104510,-666.185348,-9806.022374,2812.782580
1077.104840,1554.432478,-8350.440928,2146.597232
1077.105169,4441.235652,-5209.449386,4663.297435
1077.105499,5255.462188,3140.991542,9252.574275
1077.105828,4441.235652,11414.822920,12213.398043
1077.106157,3404.947333,10648.727422,12287.418637
1077.106487,296.082377,6435.202183,13619.789333
1077.106816,-4219.173869,6665.030833,14804.118840
1077.107146,-7476.080014,4136.915689,14137.933492
1077.107475,-7105.977043,1838.629195,11843.295072
1077.107804,-6735.874072,-2451.505594,9104.533087
1077.108134,-4885.359217,-7507.735880,4811.338623
1077.108463,-2072.576638,-10572.117872,1702.473667
1077.108793,2146.597232,-7584.345430,-74.020594
1077.109122,4885.359217,0.000000,2220.617826
1077.109451,5995.668130,4749.792088,6735.874072
1077.109781,4441.235652,10418.898773,10436.903782
1077.110110,1850.514855,13330.061665,10732.986159
1077.110440,-1258.350101,8810.098227,14063.912898
1077.110769,-3997.112087,6741.640382,16062.468941
1077.111098,-6513.812290,4443.353888,14359.995275
1077.111428,-6365.771101,-919.314598,11325.150913
1077.111757,-5107.421000,-6511.811733,7624.121203
1077.112087,-3923.091493,-9652.803275,2886.803174
1077.112416,-1332.370696,-8963.317327,444.123565
1077.112745,2886.803174,-7737.564530,1332.370696
1077.113075,4885.359217,-995.924147,6217.729913
1077.113404,3923.091493,6205.373534,11177.109724
1077.113734,1480.411884,10342.289223,12657.521608
1077.114063,-1110.308913,11797.870669,12139.377449
1077.114392,-3923.091493,8427.050478,14656.077652
1077.114722,-4737.318029,3677.258390,19023.292709
1077.115051,-5995.668130,1302.362347,18505.148550
1077.115381,-6587.832884,-2451.505594,13619.789333
1077.115710,-6439.791695,-7124.688131,7105.977043
1077.116039,-3997.112087,-11108.384721,4071.132681
1077.116369,518.144159,-9346.365076,5255.462188
1077.116698,4515.256246,-5745.716235,6291.750507
1077.117028,6291.750507,919.314598,7402.059420
1077.117355,5773.606348,8120.612279,9326.594869
1077.117685,4737.318029,9652.803275,12509.480420
1077.118014,1184.329507,8810.098227,15840.407159
1077.118344,-3478.967927,8427.050478,17172.777854
1077.118674,-6143.709319,6128.763984,15470.304188
1077.119003,-5625.565159,2987.772442,11695.253884
1077.119333,-3849.070898,-3370.820191,8438.347739
1077.119662,-1998.556043,-9422.974625,4145.153275
1077.119992,-592.164754,-11951.089769,814.226536
1077.120322,1480.411884,-7431.126331,222.061783
1077.120651,4071.132681,383.047749,3997.112087
1077.120981,5329.482782,5132.839837,8068.244768
1077.121310,3923.091493,9422.974625,10362.883188
1077.121640,2812.782580,10342.289223,11029.068536
1077.121970,-370.102971,8197.221829,13397.727550
1077.122299,-3478.967927,7967.393179,15174.221811
1077.122629,-5477.523971,4979.620737,14804.118840
1077.122958,-5181.441594,0.000000,11547.212695
1077.123288,-4145.153275,-4979.620737,8364.327145
1077.123618,-3775.050304,-9039.926876,4145.153275
1077.123947,-1776.494261,-10572.117872,-0.000000
1077.124277,1036.288319,-6894.859482,370.102971
1077.124606,5033.400406,-536.266849,5329.482782
1077.124936,7328.038826,4903.011187,10288.862594
1077.125266,5033.400406,9039.926876,11843.295072
1077.125595,962.267725,10112.460574,11843.295072
1077.125925,-4589.276840,7890.783629,14878.139434
1077.126254,-8142.265362,6971.469032,19097.313304
1077.126584,-8882.471304,3983.696590,18801.230927
1077.126914,-6439.791695,-1762.019645,13915.871710
1077.127243,-4515.256246,-7124.688131,5329.482782
1077.127573,-3330.926739,-12334.137518,-0.000000
1077.127902,-518.144159,-13559.890315,2220.617826
1077.128232,2368.659014,-7201.297681,7920.203579
1077.128562,2368.659014,2451.505594,11991.336260
1077.128891,592.164754,10035.851024,13767.830521
1077.129221,148.041188,12563.966167,13027.624579
1077.129550,-1184.329507,9039.926876,13619.789333
1077.129880,-3627.009116,6435.202183,14211.954086
1077.130209,-5847.626942,3753.867940,14878.139434
1077.130539,-6439.791695,3447.429741,12879.583391
1077.130869,-6957.935855,-995.924147,9252.574275
1077.131198,-6439.791695,-8427.050478,5107.421000
1077.131528,-5181.441594,-12334.137518,2442.679609
1077.131857,-2368.659014,-10572.117872,2368.659014
1077.132187,1406.391290,-2681.334243,4293.194464
1077.132517,2664.741391,4060.306139,7550.100608
1077.132846,1776.494261,9193.145976,11547.212695
1077.133176,0.000000,13100.233016,12805.562797
1077.133505,-3404.947333,10648.727422,12731.542202
1077.133835,-5329.482782,7431.126331,14211.954086
1077.134165,-8216.285956,5822.325785,13693.809927
1077.134494,-9918.759623,2298.286494,11399.171507
1077.134824,-8882.471304,-4366.744339,7328.038826
1077.135153,-5847.626942,-10342.289223,2294.638420
1077.135483,-1998.556043,-11261.603821,370.102971
1077.135813,444.123565,-8810.098227,888.247130
1077.136142,666.185348,-3294.210641,3478.967927
1077.136472,148.041188,4903.011187,9030.512492
1077.136801,-814.226536,10725.336972,12805.562797
1077.137131,0.000000,13176.842566,13175.665768
1077.137461,-1850.514855,12257.527968,13915.871710
1077.137790,-4515.256246,7354.516781,14211.954086
1077.138120,-7846.182985,2451.505594,13693.809927
1077.138449,-10732.986159,-1838.629195,12657.521608
1077.138779,-11325.150913,-4903.011187,10955.047942
1077.139109,-9548.656652,-9576.193725,8142.265362
1077.139438,-6439.791695,-10342.289223,7179.997637
1077.139768,-1332.370696,-8886.707777,5551.544565
1077.140097,1850.514855,-5362.668486,5033.400406
1077.140427,3108.864956,1532.190996,7476.080014
1077.140757,2590.720797,9269.755526,11399.171507
1077.141086,1850.514855,14555.814462,15618.345376
1077.141416,-518.144159,14249.376263,16654.633695
1077.141745,-3923.091493,9882.631924,14878.139434
1077.142075,-6883.915261,2451.505594,13471.748144
1077.142404,-9474.636058,-2604.724693,12287.418637
1077.142734,-11695.253884,-4903.011187,10066.800811
1077.143064,-10436.903782,-7814.174080,6735.874072
1077.143393,-7772.162391,-11568.042020,3256.906145
1077.143723,-4441.235652,-10572.117872,2368.659014
1077.144052,74.020594,-5056.230287,3108.864956
1077.144382,2368.659014,1455.581446,4737.318029
1077.144712,3182.885551,8656.879127,7920.203579
1077.145041,1776.494261,14555.814462,12435.459826
1077.145371,-1554.432478,14709.033562,15174.221811
1077.145700,-4737.318029,12257.527968,15174.221811
1077.146030,-6217.729913,8810.098227,13471.748144
1077.146360,-6883.915261,1991.848295,11251.130318
1077.146689,-7476.080014,-4366.744339,7550.100608
1077.147019,-7994.224174,-10189.070123,4515.256246
1077.147348,-7476.080014,-12487.356617,5107.421000
1077.147678,-7254.018232,-8580.269578,5995.668130
1077.148008,-6735.874072,-1991.848295,5625.565159
1077.148337,-4219.173869,1455.581446,6513.812290
1077.148667,-2294.638420,3217.601092,7846.182985
1077.148996,0.000000,8197.221829,9400.615463
1077.149326,1998.556043,8733.488677,11103.089130
1077.149656,1480.411884,7814.174080,13027.624579
1077.149985,-2072.576638,6435.202183,13989.892304
1077.150315,-7402.059420,4136.915689,12805.562797
1077.150644,-9770.718434,0.000000,11177.109724
1077.150974,-9474.636058,-4519.963438,9696.697840
1077.151304,-8290.306550,-5745.716235,9992.780217
1077.151633,-6143.709319,-4979.620737,8660.409521
1077.151963,-3997.112087,-3753.867940,6513.812290
1077.152292,-1406.391290,-3370.820191,5921.647536
1077.152622,0.000000,459.657299,8586.388927
1077.152952,-1184.329507,5745.716235,11843.295072
1077.153281,-3108.864956,9193.145976,13249.686362
1077.153611,-5699.585753,7660.954980,12953.603985
1077.153940,-7105.977043,4519.963438,12731.542202
1077.154270,-7031.956449,1225.752797,12287.418637
1077.154600,-6587.832884,-2757.943793,10955.047942
1077.154929,-6365.771101,-4903.011187,7105.977043
1077.155259,-4737.318029,-6665.030833,4589.276840
1077.155588,-2368.659014,-5439.278036,4811.338623
1077.155918,0.000000,-2374.896044,6513.812290
1077.156247,74.020594,1302.362347,8068.244768
1077.156577,-740.205942,4290.134789,9918.759623
1077.156907,-2664.741391,8044.002729,10881.027347
1077.157236,-3552.988522,9269.755526,12731.542202
1077.157566,-4441.235652,6128.763984,13767.830521
1077.157895,-4885.359217,2757.943793,12435.459826
1077.158225,-4885.359217,0.000000,10436.903782
1077.158555,-4219.173869,-3447.429741,7994.224174
1077.158884,-3182.885551,-4903.011187,6217.729913
1077.159214,-1924.535449,-4366.744339,6143.709319
1077.159543,-1184.329507,-2451.505594,5921.647536
1077.159873,-1332.370696,229.828649,6809.894666
1077.160203,-3182.885551,2911.162892,8956.491898
1077.160532,-5921.647536,5286.058936,11177.109724
1077.160862,-6809.894666,6435.202183,13101.645173
1077.161191,-7476.080014,4903.011187,13471.748144
1077.161521,-6957.935855,2604.724693,11621.233289
1077.161851,-5033.400406,-153.219100,8956.491898
1077.162180,-2960.823768,-3370.820191,7105.977043
1077.162510,-1554.432478,-4290.134789,6587.832884
1077.162839,-814.226536,-2374.896044,7105.977043
1077.163169,0.000000,76.609550,7846.182985
1077.163499,518.144159,2221.676944,8734.430116
1077.163828,-888.247130,4596.572988,10214.842000
1077.164158,-2812.782580,6052.154434,11621.233289
1077.164487,-5255.462188,5286.058936,12287.418637
1077.164817,-7105.977043,4519.963438,13397.727550
1077.165147,-8512.368333,2528.115143,13397.727550
1077.165476,-9178.553681,536.266849,12065.356855
1077.165806,-8216.285956,-2528.115143,8808.450710
1077.166135,-5107.421000,-5132.839837,6513.812290
1077.166465,-2072.576638,-5209.449386,5551.544565
1077.166795,518.144159,-2068.457845,5551.544565
1077.167124,518.144159,459.657299,5995.668130
1077.167454,-148.041188,3447.429741,8512.368333
1077.167783,-2590.720797,6665.030833,11251.130318
1077.168113,-4589.276840,8273.831378,11991.336260
1077.168442,-5921.647536,6511.811733,12657.521608
1077.168772,-7920.203579,2757.943793,12805.562797
1077.169102,-9252.574275,-229.828649,12435.459826
1077.169431,-9474.636058,-2374.896044,10881.027347
1077.169761,-8290.306550,-4136.915689,8586.388927
1077.170090,-5699.585753,-5209.449386,6513.812290
1077.170420,-2442.679609,-3677.258390,5551.544565
1077.170750,-222.061783,-1838.629195,5033.400406
1077.171079,1702.473667,1532.190996,6217.729913
1077.171409,1406.391290,4366.744339,7698.141797
1077.171738,0.000000,7124.688131,9252.574275
1077.172068,-1998.556043,8120.612279,11251.130318
1077.172398,-4885.359217,6052.154434,12509.480420
1077.172727,-7994.224174,2604.724693,13397.727550
1077.173057,-10066.800811,-229.828649,12287.418637
1077.173386,-10214.842000,-3217.601092,11325.150913
1077.173716,-8734.430116,-5515.887586,9844.739029
1077.174046,-6365.771101,-5975.544884,8290.306550
1077.174375,-3182.885551,-4290.134789,7105.977043
1077.174705,0.000000,-2068.457845,6217.729913
1077.175034,1776.494261,1302.362347,7254.018232
1077.175364,2220.617826,4903.011187,9030.512492
1077.175694,1628.453072,7584.345430,10955.047942
1077.176023,-888.247130,7354.516781,11991.336260
1077.176353,-3997.112087,5209.449386,12879.583391
1077.176682,-6661.853478,2298.286494,13989.892304
1077.177012,-8808.450710,-383.047749,13323.706956
1077.177342,-9548.656652,-2681.334243,11177.109724
1077.177671,-8734.430116,-4903.011187,7920.203579
1077.178001,-5551.544565,-5898.935335,6291.750507
1077.178330,-2516.700203,-4060.306139,5699.585753
1077.178660,148.041188,-1302.362347,5773.606348
1077.178990,1258.350101,2145.067394,6439.791695
1077.179319,518.144159,6052.154434,7476.080014
1077.179649,-740.205942,9882.631924,9548.656652
1077.179978,-2442.679609,9193.145976,12139.377449
1077.180308,-4811.338623,6818.249932,13323.706956
1077.180637,-6661.853478,3830.477490,13471.748144
1077.180967,-7698.141797,766.095498,12583.501014
1077.181297,-8660.409521,-1532.190996,10881.027347
1077.181626,-8364.327145,-3600.648841,8882.471304
1077.181956,-6439.791695,-3983.696590,7328.038826
1077.182285,-3923.091493,-1532.190996,6365.771101
1077.182615,-888.247130,766.095498,5847.626942
1077.182945,814.226536,2681.334243,6365.771101
1077.183274,888.247130,5745.716235,7772.162391
1077.183604,0.000000,7354.516781,9252.574275
1077.183933,-1184.329507,7737.564530,10807.006753
1077.184263,-2738.761985,6435.202183,12139.377449
1077.184593,-3997.112087,4136.915689,11621.233289
1077.184922,-4589.276840,2145.067394,10584.944971
1077.185252,-4367.215058,-459.657299,9400.615463
1077.185581,-3330.926739,-1991.848295,8512.368333
1077.185911,-2220.617826,-1225.752797,8068.244768
1077.186241,-1702.473667,1149.143247,8068.244768
1077.186570,-1554.432478,3064.381992,8438.347739
1077.186900,-1850.514855,4596.572988,9474.636058
1077.187229,-1776.494261,6205.373534,10436.903782
1077.187559,-1850.514855,7201.297681,11251.130318
1077.187889,-1776.494261,6052.154434,11399.171507
1077.188218,-2294.638420,4366.744339,11177.109724
1077.188548,-1924.535449,2604.724693,10436.903782
1077.188877,-1406.391290,1532.190996,9474.636058
1077.189207,-1406.391290,1072.533697,8956.491898
1077.189537,-1110.308913,1532.190996,8882.471304
1077.189866,-518.144159,2911.162892,9178.553681
1077.190196,-518.144159,5056.230287,9992.780217
1077.190525,-1480.411884,6971.469032,10584.944971
1077.190855,-2146.597232,7354.516781,10066.800811
1077.191185,-2442.679609,6894.859482,9326.594869
1077.191514,-2368.659014,5669.106685,8808.450710
1077.191844,-2590.720797,4443.353888,7920.203579
1077.192173,-1628.453072,2221.676944,7031.956449
1077.192503,-1184.329507,766.095498,5995.668130
1077.192832,-1110.308913,153.219100,6883.915261
1077.193162,-2220.617826,1072.533697,7698.141797
1077.193492,-1924.535449,3064.381992,8734.430116
1077.193821,-2442.679609,4749.792088,9770.718434
1077.194151,-2368.659014,6205.373534,10362.883188
1077.194480,-1924.535449,6894.859482,10510.924376
1077.194810,-1036.288319,6588.421283,9918.759623
1077.195140,148.041188,5592.497135,9992.780217
1077.195469,0.000000,4443.353888,10140.821405
1077.195799,-370.102971,3753.867940,10288.862594
1077.196128,-814.226536,2911.162892,9622.677246
1077.196458,-1036.288319,2374.896044,8586.388927
1077.196788,-444.123565,2068.457845,8586.388927
1077.197117,296.082377,1762.019645,9400.615463
1077.197447,296.082377,1532.190996,9992.780217
1077.197776,-814.226536,3447.429741,10955.047942
1077.198106,-2368.659014,5209.449386,11621.233289
1077.198436,-2664.741391,5745.716235,11769.274478
1077.198765,-1480.411884,5209.449386,11695.253884
1077.199095,-1184.329507,5056.230287,11399.171507
1077.199424,-888.247130,4519.963438,10288.862594
1077.199754,-666.185348,4290.134789,9400.615463
1077.200084,74.020594,4443.353888,9252.574275
1077.200413,296.082377,4903.011187,8808.450710
1077.200743,222.061783,4673.182538,7698.141797
1077.201072,296.082377,3907.087040,6735.874072
1077.201402,370.102971,2681.334243,6439.791695
1077.201732,222.061783,1532.190996,6957.935855
1077.202061,-1406.391290,1991.848295,8142.265362
1077.202391,-2664.741391,2757.943793,9548.656652
1077.202720,-3627.009116,3753.867940,10881.027347
1077.203050,-3182.885551,4903.011187,11473.192101
1077.203380,-2146.597232,5286.058936,11399.171507
1077.203709,-1406.391290,5515.887586,10510.924376
1077.204039,-592.164754,5592.497135,9548.656652
1077.204368,-444.123565,6511.811733,9400.615463
1077.204698,148.041188,6435.202183,9104.533087
1077.205028,0.000000,6052.154434,8068.244768
1077.205357,-1110.308913,4673.182538,7105.977043
1077.205687,-1036.288319,3524.039291,6143.709319
1077.206016,-1258.350101,1225.752797,5699.585753
1077.206346,-1702.473667,229.828649,6661.853478
1077.206675,-2368.659014,-229.828649,7772.162391
1077.207005,-2738.761985,229.828649,9548.656652
1077.207335,-2368.659014,1225.752797,11325.150913
1077.207664,-2146.597232,2757.943793,12657.521608
1077.207994,-1332.370696,4903.011187,13619.789333
1077.208323,-370.102971,5745.716235,13619.789333
1077.208653,0.000000,6818.249932,13101.645173
1077.208983,814.226536,6511.811733,11843.295072
1077.209312,962.267725,5132.839837,10955.047942
1077.209642,962.267725,4673.182538,10140.821405
1077.209971,0.000000,3907.087040,8882.471304
1077.210301,-1184.329507,2374.896044,7624.121203
1077.210631,-1702.473667,1378.971896,7179.997637
1077.210960,-1406.391290,766.095498,8586.388927
1077.211290,-1332.370696,1608.800546,8882.471304
1077.211619,-1110.308913,1915.238745,8956.491898
1077.211949,-592.164754,2221.676944,9104.533087
1077.212279,-370.102971,2681.334243,10288.862594
1077.212608,-1184.329507,4903.011187,10955.047942
1077.212938,-1776.494261,6971.469032,11621.233289
1077.213267,-1776.494261,6741.640382,11769.274478
1077.213597,-1480.411884,6358.592633,11843.295072
1077.213927,-2442.679609,6511.811733,11029.068536
1077.214256,-3404.947333,5898.935335,8364.327145
1077.214586,-2886.803174,4596.572988,5329.482782
1077.214915,0.000000,3064.381992,3701.029710
1077.215245,2960.823768,1915.238745,4145.153275
1077.215575,3775.050304,1915.238745,4663.297435
1077.215904,2294.638420,2451.505594,5329.482782
1077.216234,0.000000,4290.134789,7402.059420
1077.216563,-2960.823768,5439.278036,10584.944971
1077.216893,-4663.297435,6818.249932,13767.830521
1077.217223,-5255.462188,6358.592633,15322.262999
1077.217552,-5329.482782,5745.716235,14508.036463
1077.217882,-4885.359217,4826.401637,12435.459826
1077.218211,-3330.926739,2987.772442,9918.759623
1077.218541,-1036.288319,1915.238745,8586.388927
1077.218870,1406.391290,1838.629195,6735.874072
1077.219200,3997.112087,3370.820191,5181.441594
1077.219530,5551.544565,4290.134789,4441.235652
1077.219859,5551.544565,4290.134789,6291.750507
1077.220189,2664.741391,5439.278036,9326.594869
1077.220519,-1702.473667,8120.612279,12361.439231
1077.220848,-4811.338623,10112.460574,14508.036463
1077.221178,-5181.441594,7354.516781,14878.139434
1077.221508,-4293.194464,3907.087040,13767.830521
1077.221837,-3256.906145,383.047749,11399.171507
1077.222167,-2294.638420,-995.924147,7920.203579
1077.222497,-1184.329507,-229.828649,5773.606348
1077.222826,-148.041188,1455.581446,6883.915261
1077.223156,222.061783,4290.134789,8734.430116
1077.223486,-740.205942,5975.544884,8882.471304
1077.223815,-814.226536,5209.449386,6661.853478
1077.224145,74.020594,3294.210641,5995.668130
1077.224475,740.205942,1915.238745,8586.388927
1077.224804,-518.144159,3294.210641,11917.315666
1077.225134,-2442.679609,5286.058936,13767.830521
1077.225464,-3775.050304,5822.325785,13545.768739
1077.225794,-3108.864956,5515.887586,12731.542202
1077.226123,-1998.556043,4903.011187,10584.944971
1077.226453,-592.164754,3064.381992,7254.018232
1077.226783,2368.659014,1072.533697,4663.297435
1077.227112,3627.009116,-383.047749,4145.153275
1077.227442,3034.844362,1685.410096,5625.565159
1077.227772,1258.350101,3524.039291,7328.038826
1077.228101,-814.226536,4366.744339,9474.636058
1077.228431,-2368.659014,4596.572988,11991.336260
1077.228761,-3182.885551,5592.497135,12953.603985
1077.229090,-2886.803174,5209.449386,12583.501014
1077.229420,-1702.473667,1685.410096,12213.398043
1077.229750,-1480.411884,842.705048,11843.295072
1077.230079,-2812.782580,2451.505594,11029.068536
1077.230409,-2664.741391,4290.134789,10584.944971
1077.230739,-1776.494261,5439.278036,9622.677246
1077.231068,-962.267725,6358.592633,7772.162391
1077.231398,592.164754,4673.182538,6217.729913
1077.231728,2960.823768,1762.019645,5255.462188
1077.232057,3478.967927,612.876398,4663.297435
1077.232387,1258.350101,2911.162892,6809.894666
1077.232717,-888.247130,3830.477490,11251.130318
1077.233046,-2738.761985,6052.154434,14582.057057
1077.233376,-4293.194464,8427.050478,15100.201217
1077.233706,-3404.947333,7201.297681,13619.789333
1077.234035,-1184.329507,5209.449386,11769.274478
1077.234365,-222.061783,3064.381992,10658.965565
1077.234695,-1258.350101,2987.772442,8660.409521
1077.235024,-2442.679609,3217.601092,6957.935855
1077.235354,-2146.597232,3753.867940,4293.194464
1077.235684,-296.082377,3447.429741,4219.173869
1077.236013,1702.473667,2221.676944,4959.379811
1077.236343,1554.432478,3064.381992,5181.441594
1077.236673,888.247130,4290.134789,5107.421000
1077.237002,814.226536,4213.525239,6735.874072
1077.237332,0.000000,4136.915689,10881.027347
1077.237662,-2960.823768,5745.716235,14137.933492
1077.237991,-4737.318029,5286.058936,15174.221811
1077.238321,-4367.215058,3217.601092,14211.954086
1077.238651,-4293.194464,3830.477490,12731.542202
1077.238980,-4145.153275,2834.553343,10584.944971
1077.239310,-2220.617826,-306.438199,9252.574275
1077.239640,-1184.329507,-995.924147,7031.956449
1077.239969,-296.082377,76.609550,4663.297435
1077.240299,2294.638420,-306.438199,3701.029710
1077.240629,4589.276840,383.047749,5625.565159
1077.240958,4737.318029,2451.505594,7476.080014
1077.241288,3256.906145,3294.210641,9992.780217
1077.241618,2368.659014,2757.943793,12805.562797
1077.241947,296.082377,2987.772442,14730.098246
1077.242277,-2220.617826,3524.039291,16432.571912
1077.242607,-3923.091493,1838.629195,16654.633695
1077.242936,-5181.441594,383.047749,14952.160028
1077.243266,-5403.503377,-766.095498,12139.377449
1077.243596,-4293.194464,-1225.752797,9178.553681
1077.243925,-1850.514855,-1072.533697,6513.812290
1077.244255,2220.617826,-1838.629195,5921.647536
1077.244585,4219.173869,-612.876398,4663.297435
1077.244914,4219.173869,1072.533697,2516.700203
1077.245244,3849.070898,1685.410096,3034.844362
1077.245574,2886.803174,1991.848295,7105.977043
1077.245903,1184.329507,3907.087040,11917.315666
1077.246233,-1628.453072,5515.887586,14878.139434
1077.246563,-4737.318029,3217.601092,15322.262999
1077.246892,-7328.038826,459.657299,13915.871710
1077.247222,-8734.430116,-1149.143247,12657.521608
1077.247552,-8290.306550,-2834.553343,10362.883188
1077.247881,-5403.503377,-3370.820191,7698.141797
1077.248211,-1480.411884,-2987.772442,5107.421000
1077.248541,1554.432478,-2374.896044,3997.112087
1077.248870,2812.782580,-689.485948,4071.132681
1077.249200,3404.947333,3140.991542,5625.565159
1077.249530,3404.947333,5898.935335,7698.141797
1077.249860,2960.823768,5439.278036,9696.697840
1077.250189,1924.535449,4366.744339,12953.603985
1077.250519,-740.205942,2911.162892,15840.407159
1077.250849,-4663.297435,1302.362347,16284.530724
1077.251178,-7179.997637,1378.971896,14211.954086
1077.251508,-6513.812290,612.876398,11177.109724
1077.251838,-2664.741391,-3370.820191,8512.368333
1077.252167,370.102971,-5822.325785,7402.059420
1077.252497,888.247130,-3830.477490,5329.482782
1077.252827,1554.432478,-689.485948,3256.906145
1077.253156,3552.988522,612.876398,3478.967927
1077.253486,5329.482782,2604.724693,6439.791695
1077.253816,4737.318029,3600.648841,11547.212695
1077.254145,1036.288319,4213.525239,15618.345376
1077.254475,-3478.967927,5592.497135,16432.571912
1077.254805,-7105.977043,5132.839837,15026.180623
1077.255134,-7476.080014,1762.019645,14952.160028
1077.255464,-5995.668130,-1685.410096,12953.603985
1077.255794,-2960.823768,-3983.696590,9030.512492
1077.256123,0.000000,-4366.744339,4811.338623
1077.256453,2220.617826,-2911.162892,2072.576638
1077.256783,3108.864956,-1149.143247,2960.823768
1077.257112,3997.112087,1991.848295,5921.647536
1077.257442,3923.091493,5056.230287,8956.491898
1077.257772,3182.885551,6281.983084,11621.233289
1077.258101,740.205942,7431.126331,13175.665768
1077.258431,-1776.494261,5515.887586,13915.871710
1077.258761,-4071.132681,2451.505594,14434.015869
1077.259090,-5773.606348,842.705048,14211.954086
1077.259420,-5773.606348,229.828649,11695.253884
1077.259750,-4293.194464,-1532.190996,7994.224174
1077.260079,-2220.617826,-2911.162892,3627.009116
1077.260409,444.123565,-3370.820191,1850.514855
1077.260739,3478.967927,-2451.505594,1776.494261
1077.261068,5255.462188,612.876398,2960.823768
1077.261398,3923.091493,3907.087040,5329.482782
1077.261728,592.164754,5745.716235,10066.800811
1077.262057,-2960.823768,7048.078582,14359.995275
1077.262387,-5699.585753,6818.249932,16506.592507
1077.262717,-7328.038826,3370.820191,15766.386565
1077.263046,-7550.100608,0.000000,13545.768739
1077.263376,-6143.709319,-2681.334243,10436.903782
1077.263706,-3552.988522,-6435.202183,7476.080014
1077.264035,-1184.329507,-7814.174080,4737.318029
1077.264365,444.123565,-5132.839837,4515.256246
1077.264695,1258.350101,-919.314598,5255.462188
1077.265024,2294.638420,1991.848295,6809.894666
1077.265354,4515.256246,3140.991542,10066.800811
1077.265684,5107.421000,3447.429741,13101.645173
1077.266013,2442.679609,3217.601092,14878.139434
1077.266343,-1480.411884,4903.011187,16580.613101
1077.266673,-4737.318029,5056.230287,17320.819043
1077.267002,-5403.503377,3294.210641,15322.262999
1077.267332,-3182.885551,-536.266849,12065.356855
1077.267662,148.041188,-4903.011187,8216.285956
1077.267991,2072.576638,-6128.763984,4219.173869
1077.268321,2368.659014,-4903.011187,2368.659014
1077.268651,2516.700203,-1532.190996,2886.803174
1077.268980,3552.988522,536.266849,5477.523971
1077.269310,2368.659014,2681.334243,9696.697840
1077.269640,-444.123565,6358.592633,13545.768739
1077.269969,-3330.926739,7201.297681,14730.098246
1077.270299,-5255.462188,5439.278036,14434.015869
1077.270629,-5921.647536,3140.991542,14211.954086
1077.270958,-5625.565159,0.000000,12805.562797
1077.271288,-4219.173869,-2068.457845,9622.677246
1077.271618,-2738.761985,-3600.648841,4959.379811
1077.271947,-962.267725,-3447.429741,1702.473667
1077.272277,740.205942,-2604.724693,1998.556043
1077.272607,2294.638420,-612.876398,3923.091493
1077.272937,3256.906145,2528.115143,6661.853478
1077.273266,2664.741391,4903.011187,10214.842000
1077.273596,148.041188,6205.373534,12213.398043
1077.273926,-3108.864956,6128.763984,13175.665768
1077.274255,-4737.318029,3140.991542,14285.974681
1077.274585,-4885.359217,2145.067394,14359.995275
1077.274915,-4515.256246,1608.800546,11991.336260
1077.275244,-1628.453072,-1991.848295,8364.327145
1077.275574,444.123565,-5132.839837,4737.318029
1077.275904,592.164754,-5669.106685,3108.864956
1077.276233,1110.308913,-1991.848295,3775.050304
1077.276563,2886.803174,383.047749,4737.318029
1077.276893,4663.297435,1915.238745,7624.121203
1077.277222,3404.947333,4136.915689,12361.439231
1077.277552,-222.061783,4596.572988,14952.160028
1077.277882,-3478.967927,4903.011187,15988.448347
1077.278211,-5033.400406,4596.572988,16802.674883
1077.278541,-5699.585753,3140.991542,15766.386565
1077.278871,-4737.318029,-229.828649,13249.686362
1077.279200,-2590.720797,-4443.353888,9474.636058
1077.279530,-148.041188,-5975.544884,5403.503377
1077.279860,222.061783,-4903.011187,2664.741391
1077.280189,1702.473667,-2528.115143,3701.029710
1077.280519,3478.967927,-536.266849,6809.894666
1077.280849,3108.864956,1762.019645,11251.130318
1077.281178,74.020594,5515.887586,13397.727550
1077.281508,-2664.741391,6358.592633,13767.830521
1077.281838,-3627.009116,4673.182538,14063.912898
1077.282167,-4219.173869,3294.210641,15026.180623
1077.282497,-4737.318029,2451.505594,14508.036463
1077.282827,-2960.823768,76.609550,10955.047942
1077.283156,-814.226536,-2145.067394,5847.626942
1077.283486,148.041188,-3447.429741,1924.535449
1077.283816,1406.391290,-2834.553343,1554.432478
1077.284145,2442.679609,-1685.410096,3256.906145
1077.284475,3627.009116,306.438199,4811.338623
1077.284805,1924.535449,3294.210641,7624.121203
1077.285134,-1554.432478,4903.011187,11251.130318
1077.285464,-4737.318029,5439.278036,13397.727550
1077.285794,-6661.853478,3830.477490,14878.139434
1077.286123,-7031.956449,2757.943793,13841.851115
1077.286453,-6069.688724,1762.019645,11325.150913
1077.286783,-2812.782580,-2528.115143,7994.224174
1077.287112,-518.144159,-6588.421283,4589.276840
1077.287442,-444.123565,-7354.516781,3034.844362
1077.287772,-444.123565,-2451.505594,4441.235652
1077.288101,1332.370696,1608.800546,5995.668130
1077.288431,2960.823768,2451.505594,8290.306550
1077.288761,3404.947333,2374.896044,12139.377449
1077.289090,1554.432478,1685.410096,15322.262999
1077.289420,-1406.391290,2834.553343,16210.510130
1077.289750,-4071.132681,4596.572988,16136.489536
1077.290079,-4737.318029,3064.381992,16136.489536
1077.290409,-3256.906145,1072.533697,14656.077652
1077.290739,-296.082377,-2911.162892,11547.212695
1077.291068,2072.576638,-5515.887586,6883.915261
1077.291398,2442.679609,-4596.572988,2960.823768
1077.291728,2664.741391,-2681.334243,2590.720797
1077.292057,4145.153275,-1608.800546,5625.565159
1077.292387,4293.194464,612.876398,10362.883188
1077.292717,1184.329507,5209.449386,13323.706956
1077.293046,-2368.659014,6205.373534,13471.748144
1077.293376,-4441.235652,4136.915689,14137.933492
1077.293706,-4885.359217,3753.867940,15470.304188
1077.294035,-5773.606348,3370.820191,15248.242405
1077.294365,-5033.400406,1149.143247,11917.315666
1077.294695,-3108.864956,-1532.190996,6365.771101
1077.295024,-1776.494261,-2757.943793,1776.494261
1077.295354,370.102971,-2987.772442,1036.288319
1077.295684,2294.638420,-2068.457845,2368.659014
1077.296014,2516.700203,919.314598,4367.215058
1077.296343,1258.350101,3753.867940,6291.750507
1077.296673,-1554.432478,6435.202183,10140.821405
1077.297003,-3627.009116,6052.154434,13249.686362
1077.297332,-5033.400406,4596.572988,14508.036463
1077.297662,-5921.647536,3677.258390,12953.603985
1077.297992,-5033.400406,1762.019645,10955.047942
1077.298321,-2220.617826,-1762.019645,9178.553681
1077.298651,74.020594,-2987.772442,7550.100608
1077.298981,592.164754,-2451.505594,4663.297435
1077.299310,1184.329507,-1608.800546,3256.906145
1077.299640,2960.823768,0.000000,4441.235652
1077.299970,4737.318029,1225.752797,7624.121203
1077.300299,3849.070898,3447.429741,11103.089130
1077.300629,222.061783,3217.601092,13767.830521
1077.300959,-3256.906145,3447.429741,15322.262999
1077.301288,-5255.462188,4060.306139,16654.633695
1077.301618,-6143.709319,3140.991542,16802.674883
1077.301948,-5329.482782,459.657299,14582.057057
1077.302277,-2812.782580,-3064.381992,10807.006753
1077.302607,-740.205942,-5286.058936,6217.729913
1077.302937,370.102971,-5515.887586,3552.988522
1077.303266,1850.514855,-3447.429741,4515.256246
1077.303596,3108.864956,-1072.533697,6439.791695
1077.303926,3256.906145,2911.162892,10066.800811
1077.304255,1036.288319,5592.497135,12879.583391
1077.304585,-1406.391290,6281.983084,13841.851115
1077.304915,-2516.700203,4213.525239,14730.098246
1077.305244,-3627.009116,2987.772442,15470.304188
1077.305574,-4219.173869,2681.334243,14285.974681
1077.305904,-3627.009116,-306.438199,11769.274478
1077.306233,-2072.576638,-2374.896044,7846.182985
1077.306563,-1480.411884,-2604.724693,3552.988522
1077.306893,0.000000,-2221.676944,2072.576638
1077.307222,2294.638420,-1455.581446,2146.597232
1077.307552,4441.235652,-306.438199,3182.885551
1077.307882,4071.132681,2604.724693,6735.874072
1077.308211,666.185348,5439.278036,9622.677246
1077.308541,-2812.782580,6971.469032,11177.109724
1077.308871,-4145.153275,5286.058936,12879.583391
1077.309200,-4293.194464,3677.258390,13693.809927
1077.309530,-4959.379811,2911.162892,12805.562797
1077.309860,-4885.359217,76.609550,10436.903782
1077.310189,-3330.926739,-2604.724693,6439.791695
1077.310519,-2368.659014,-4060.306139,2886.803174
1077.310849,0.000000,-4136.915689,2072.576638
1077.311178,1776.494261,-2374.896044,3701.029710
1077.311508,3108.864956,-383.047749,6587.832884
1077.311838,1924.535449,2451.505594,9918.759623
1077.312167,-888.247130,4903.011187,13545.768739
1077.312497,-3923.091493,5515.887586,15174.221811
1077.312827,-4293.194464,4673.182538,16876.695478
1077.313156,-4293.194464,3217.601092,17098.757260
1077.313486,-4293.194464,1455.581446,14582.057057
1077.313816,-2516.700203,-2451.505594,10732.986159
1077.314145,-444.123565,-5056.230287,7328.038826
1077.314475,814.226536,-4519.963438,5329.482782
1077.314805,1776.494261,-2451.505594,6439.791695
1077.315134,2960.823768,229.828649,7476.080014
1077.315464,3552.988522,1838.629195,8882.471304
1077.315794,2368.659014,3677.258390,11177.109724
1077.316123,0.000000,5286.058936,13915.871710
1077.316453,-2146.597232,5975.544884,14804.118840
1077.316783,-3256.906145,5745.716235,15396.283594
1077.317112,-4071.132681,3753.867940,14211.954086
1077.317442,-4663.297435,919.314598,11843.295072
1077.317772,-3923.091493,-1378.971896,8068.244768
1077.318101,-3034.844362,-2451.505594,4071.132681
1077.318431,-1998.556043,-2451.505594,1998.556043
1077.318761,592.164754,-1762.019645,1184.329507
1077.319090,2072.576638,-1685.410096,3849.070898
1077.319420,2146.597232,919.314598,6291.750507
1077.319749,-592.164754,4826.401637,9474.636058
1077.320079,-3256.906145,7584.345430,12361.439231
1077.320409,-4441.235652,7737.564530,13767.830521
1077.320738,-4737.318029,6128.763984,14137.933492
1077.321068,-4219.173869,3447.429741,12879.583391
1077.321397,-2294.638420,-383.047749,10140.821405
1077.321727,-370.102971,-2604.724693,6365.771101
1077.322057,-296.082377,-3370.820191,3034.844362
1077.322386,0.000000,-3064.381992,2960.823768
1077.322716,296.082377,-1455.581446,4737.318029
1077.323045,2368.659014,612.876398,6809.894666
1077.323375,2960.823768,2528.115143,9548.656652
1077.323705,1184.329507,3600.648841,12065.356855
1077.324034,-1554.432478,3524.039291,13693.809927
1077.324364,-3552.988522,4136.915689,15544.324782
1077.324693,-4071.132681,3830.477490,15840.407159
1077.325023,-3552.988522,2451.505594,14508.036463
1077.325352,-1110.308913,-383.047749,11695.253884
1077.325682,74.020594,-3753.867940,8364.327145
1077.326012,0.000000,-4290.134789,5181.441594
1077.326341,0.000000,-2834.553343,4663.297435
1077.326671,1480.411884,-1532.190996,5625.565159
1077.327000,2664.741391,-995.924147,9474.636058
1077.327330,592.164754,2374.896044,13175.665768
1077.327660,-2886.803174,4673.182538,14359.995275
1077.327989,-4737.318029,4060.306139,14656.077652
1077.328319,-4737.318029,3217.601092,14582.057057
1077.328648,-4885.359217,3907.087040,14137.933492
1077.328978,-3478.967927,1302.362347,12805.562797
1077.329308,-1258.350101,-1838.629195,9622.677246
1077.329637,-296.082377,-2681.334243,4515.256246
1077.329967,0.000000,-2911.162892,1924.535449
1077.330296,1110.308913,-1302.362347,2146.597232
1077.330626,2516.700203,-383.047749,5773.606348
1077.330956,2590.720797,2451.505594,9252.574275
1077.331285,0.000000,5286.058936,11177.109724
1077.331615,-2368.659014,6511.811733,11843.295072
1077.331944,-3034.844362,4903.011187,12287.418637
1077.332274,-3256.906145,3830.477490,13323.706956
1077.332604,-3256.906145,3907.087040,11917.315666
1077.332933,-1998.556043,1302.362347,9104.533087
1077.333263,-370.102971,-1991.848295,5995.668130
1077.333592,-518.144159,-2451.505594,3330.926739
1077.333922,-888.247130,-1532.190996,3627.009116
1077.334251,-370.102971,-306.438199,4219.173869
1077.334581,592.164754,842.705048,5773.606348
1077.334911,296.082377,1915.238745,8290.306550
1077.335240,-888.247130,2298.286494,11843.295072
1077.335570,-3108.864956,3140.991542,13989.892304
1077.335899,-4959.379811,3294.210641,14656.077652
1077.336229,-4959.379811,4290.134789,15100.201217
1077.336559,-3775.050304,3370.820191,13989.892304
1077.336888,-1258.350101,842.705048,11695.253884
1077.337218,740.205942,-1991.848295,8808.450710
1077.337547,2220.617826,-3447.429741,5699.585753
1077.337877,1776.494261,-1991.848295,5033.400406
1077.338207,2072.576638,-459.657299,6587.832884
1077.338536,2886.803174,1072.533697,9622.677246
1077.338866,1258.350101,2987.772442,12139.377449
1077.339195,-740.205942,4060.306139,13323.706956
1077.339525,-2516.700203,4290.134789,13471.748144
1077.339855,-2886.803174,3064.381992,13989.892304
1077.340184,-3108.864956,2834.553343,13767.830521
1077.340514,-2590.720797,2374.896044,11991.336260
1077.340843,-518.144159,-383.047749,8290.306550
1077.341173,222.061783,-2298.286494,4589.276840
1077.341502,370.102971,-2221.676944,2960.823768
1077.341832,592.164754,-612.876398,3849.070898
1077.342162,518.144159,536.266849,6217.729913
1077.342491,0.000000,1838.629195,8438.347739
1077.342821,-1924.535449,3907.087040,9992.780217
1077.343150,-3108.864956,3447.429741,11917.315666
1077.343480,-4071.132681,3524.039291,12287.418637
1077.343810,-4737.318029,3064.381992,12583.501014
1077.344139,-4293.194464,2221.676944,11621.233289
1077.344469,-3108.864956,919.314598,10066.800811
1077.344798,-1776.494261,0.000000,7920.203579
1077.345128,-296.082377,-1762.019645,4959.379811
1077.345458,962.267725,-2604.724693,3404.947333
1077.345787,1702.473667,-2374.896044,3256.906145
1077.346117,2738.761985,-612.876398,5699.585753
1077.346446,1628.453072,459.657299,9622.677246
1077.346776,-814.226536,2681.334243,13545.768739
1077.347106,-3182.885551,3983.696590,15100.201217
1077.347435,-4219.173869,4136.915689,15470.304188
1077.347765,-3627.009116,3140.991542,14656.077652
1077.348094,-2664.741391,1302.362347,11991.336260
1077.348424,148.041188,-1762.019645,10140.821405
1077.348753,1998.556043,-3140.991542,7994.224174
1077.349083,1628.453072,-2681.334243,5329.482782
1077.349413,740.205942,-1225.752797,4959.379811
1077.349742,1184.329507,-689.485948,6883.915261
1077.350072,1406.391290,229.828649,9622.677246
1077.350401,-666.185348,2298.286494,12287.418637
1077.350731,-2664.741391,3064.381992,13397.727550
1077.351061,-3849.070898,2374.896044,13619.789333
1077.351390,-3849.070898,1838.629195,14211.954086
1077.351720,-4145.153275,1838.629195,14211.954086
1077.352049,-4219.173869,1149.143247,11843.295072
1077.352379,-2368.659014,-612.876398,9178.553681
1077.352709,-222.061783,-995.924147,6365.771101
1077.353038,1406.391290,153.219100,4515.256246
1077.353368,2146.597232,76.609550,4367.215058
1077.353697,3034.844362,-306.438199,4811.338623
1077.354027,2294.638420,919.314598,7476.080014
1077.354357,-222.061783,3830.477490,10955.047942
1077.354686,-3108.864956,5898.935335,12879.583391
1077.355016,-4293.194464,4749.792088,13545.768739
1077.355345,-4219.173869,3294.210641,13175.665768
1077.355675,-4663.297435,1991.848295,11399.171507
1077.356004,-2886.803174,0.000000,9474.636058
1077.356334,-740.205942,-1302.362347,7105.977043
1077.356664,0.000000,-919.314598,3923.091493
1077.356993,1258.350101,306.438199,2294.638420
1077.357323,2442.679609,-229.828649,2516.700203
1077.357652,3552.988522,-153.219100,4811.338623
1077.357982,2368.659014,2221.676944,8586.388927
1077.358312,-814.226536,4290.134789,12065.356855
1077.358641,-4293.194464,5822.325785,13767.830521
1077.358971,-6143.709319,3753.867940,14211.954086
1077.359300,-5699.585753,1455.581446,14285.974681
1077.359630,-4663.297435,229.828649,12361.439231
1077.359960,-1850.514855,-2298.286494,10214.842000
1077.360289,0.000000,-3753.867940,6883.915261
1077.360619,0.000000,-3140.991542,4811.338623
1077.360948,740.205942,-2298.286494,4293.194464
1077.361278,2368.659014,-1532.190996,7031.956449
1077.361608,3108.864956,612.876398,9474.636058
1077.361937,2072.576638,2604.724693,11695.253884
1077.362267,0.000000,3370.820191,13693.809927
1077.362596,-2590.720797,2145.067394,14508.036463
1077.362926,-3627.009116,1608.800546,16136.489536
1077.363255,-4293.194464,1608.800546,16062.468941
1077.363585,-3330.926739,1608.800546,12657.521608
1077.363915,-888.247130,-689.485948,9622.677246
1077.364244,1184.329507,-4290.134789,5847.626942
1077.364574,2220.617826,-4136.915689,3775.050304
1077.364903,2368.659014,-1302.362347,5033.400406
1077.365233,2960.823768,919.314598,5921.647536
1077.365563,1554.432478,2451.505594,7328.038826
1077.365892,-1332.370696,2221.676944,10881.027347
1077.366222,-3330.926739,3447.429741,13175.665768
1077.366551,-5551.544565,3447.429741,13619.789333
1077.366881,-5773.606348,2528.115143,13101.645173
1077.367211,-6069.688724,842.705048,11843.295072
1077.367540,-4071.132681,-995.924147,9992.780217
1077.367870,-2072.576638,-2681.334243,7254.018232
1077.368199,-888.247130,-2145.067394,4145.153275
1077.368529,1184.329507,-689.485948,2220.617826
1077.368859,2368.659014,306.438199,3108.864956
1077.369188,3552.988522,1072.533697,5625.565159
1077.369518,2812.782580,2604.724693,9326.594869
1077.369847,592.164754,3370.820191,12065.356855
1077.370177,-3182.885551,4213.525239,13101.645173
1077.370507,-4811.338623,3677.258390,13841.851115
1077.370836,-5033.400406,2298.286494,14952.160028
1077.371166,-4293.194464,689.485948,13249.686362
1077.371495,-1406.391290,-1685.410096,9918.759623
1077.371825,888.247130,-4443.353888,6513.812290
1077.372154,1998.556043,-3370.820191,4219.173869
1077.372484,1628.453072,-383.047749,4811.338623
1077.372814,2960.823768,689.485948,5255.462188
1077.373143,4293.194464,1762.019645,7105.977043
1077.373473,3552.988522,2298.286494,10436.903782
1077.373802,814.226536,3983.696590,13619.789333
1077.374132,-2442.679609,3447.429741,15100.201217
1077.374462,-5033.400406,2451.505594,16210.510130
1077.374791,-5773.606348,1915.238745,15470.304188
1077.375121,-5255.462188,383.047749,13915.871710
1077.375450,-3108.864956,-2145.067394,11177.109724
1077.375780,-1036.288319,-3983.696590,6957.935855
1077.376110,296.082377,-2604.724693,3775.050304
1077.376439,1480.411884,-1302.362347,3701.029710
1077.376769,3108.864956,306.438199,5625.565159
1077.377098,2738.761985,2987.772442,9030.512492
1077.377428,444.123565,5286.058936,11029.068536
1077.377758,-2368.659014,6128.763984,12361.439231
1077.378087,-3182.885551,3983.696590,12805.562797
1077.378417,-3404.947333,1915.238745,14137.933492
1077.378746,-4219.173869,1225.752797,13915.871710
1077.379076,-4515.256246,76.609550,11251.130318
1077.379405,-2590.720797,-995.924147,7920.203579
1077.379735,-444.123565,-1762.019645,5329.482782
1077.380065,1036.288319,-689.485948,2368.659014
1077.380394,2664.741391,-1072.533697,2664.741391
1077.380724,4219.173869,-459.657299,3404.947333
1077.381053,4071.132681,1685.410096,6291.750507
1077.381383,814.226536,4213.525239,10510.924376
1077.381713,-3182.885551,5669.106685,12879.583391
1077.382042,-5551.544565,4596.572988,14508.036463
1077.382372,-6291.750507,2681.334243,14582.057057
1077.382701,-6143.709319,1302.362347,12361.439231
1077.383031,-3478.967927,-2374.896044,9548.656652
1077.383361,-592.164754,-4596.572988,7105.977043
1077.383690,0.000000,-4673.182538,4959.379811
1077.384020,-222.061783,-1915.238745,3404.947333
1077.384349,888.247130,-1302.362347,5107.421000
1077.384679,2738.761985,-153.219100,7402.059420
1077.385009,2516.700203,2298.286494,11103.089130
1077.385338,1332.370696,3064.381992,14211.954086
1077.385668,-1110.308913,2298.286494,14656.077652
1077.385997,-3108.864956,1455.581446,15618.345376
1077.386327,-3701.029710,1915.238745,17024.736666
1077.386656,-3552.988522,1378.971896,15544.324782
1077.386986,-1850.514855,-1225.752797,12435.459826
1077.387316,1258.350101,-4366.744339,7994.224174
1077.387645,1998.556043,-4290.134789,4737.318029
1077.387975,2590.720797,-1302.362347,3923.091493
1077.388304,3256.906145,229.828649,5181.441594
1077.388634,3849.070898,1838.629195,7698.141797
1077.388964,1776.494261,4519.963438,10510.924376
1077.389293,-1258.350101,5439.278036,12435.459826
1077.389623,-3182.885551,3830.477490,13397.727550
1077.389952,-4367.215058,2451.505594,13101.645173
1077.390282,-5773.606348,1838.629195,13545.768739
1077.390612,-5847.626942,1149.143247,11991.336260
1077.390941,-4663.297435,-919.314598,9252.574275
1077.391271,-3775.050304,-2374.896044,4885.359217
1077.391600,-1184.329507,-1378.971896,592.164754
1077.391930,2294.638420,-1685.410096,1628.453072
1077.392260,3849.070898,-229.828649,2368.659014
1077.392589,3404.947333,1838.629195,4885.359217
1077.392919,1406.391290,3983.696590,9622.677246
1077.393248,-1628.453072,6511.811733,13471.748144
1077.393578,-5107.421000,7660.954980,14656.077652
1077.393907,-5329.482782,5056.230287,14952.160028
1077.394237,-4737.318029,1685.410096,13545.768739
1077.394567,-3108.864956,-459.657299,11029.068536
1077.394896,-592.164754,-2145.067394,8290.306550
1077.395226,444.123565,-3217.601092,4959.379811
1077.395555,148.041188,-1915.238745,2886.803174
1077.395885,1258.350101,-536.266849,3478.967927
1077.396215,3108.864956,0.000000,6365.771101
1077.396544,3404.947333,1532.190996,9252.574275
1077.396874,1554.432478,2987.772442,12139.377449
1077.397203,-1184.329507,3983.696590,13989.892304
1077.397533,-3923.091493,3140.991542,15618.345376
1077.397863,-4737.318029,2987.772442,17320.819043
1077.398192,-4515.256246,3294.210641,15618.345376
1077.398522,-2886.803174,306.438199,12435.459826
1077.398851,-740.205942,-3217.601092,8068.244768
1077.399181,370.102971,-4366.744339,5181.441594
1077.399511,1258.350101,-2374.896044,3478.967927
1077.399840,2294.638420,-995.924147,5403.503377
1077.400170,3108.864956,1072.533697,6513.812290
1077.400499,2368.659014,2298.286494,9622.677246
1077.400829,-222.061783,4136.915689,12953.603985
1077.401159,-3330.926739,4673.182538,13693.809927
1077.401488,-4219.173869,3524.039291,13989.892304
1077.401818,-3997.112087,2068.457845,14211.954086
1077.402147,-4071.132681,1762.019645,12879.583391
1077.402477,-2664.741391,0.000000,10807.006753
1077.402806,-1702.473667,-2451.505594,5847.626942
1077.403136,-444.123565,-2451.505594,1924.535449
1077.403466,1406.391290,-2221.676944,888.247130
1077.403795,3923.091493,-1455.581446,4145.153275
1077.404125,3997.112087,1762.019645,6513.812290
1077.404454,1036.288319,3753.867940,9104.533087
1077.404784,-1924.535449,5515.887586,10881.027347
1077.405114,-4145.153275,5132.839837,13027.624579
1077.405443,-4293.194464,3370.820191,15988.448347
1077.405773,-4737.318029,2451.505594,15396.283594
1077.406102,-4663.297435,995.924147,11177.109724
1077.406432,-2294.638420,-2757.943793,7624.121203
1077.406762,-814.226536,-4596.572988,5477.523971
1077.407091,-1406.391290,-2451.505594,3256.906145
1077.407421,0.000000,-536.266849,3182.885551
1077.407750,2146.597232,76.609550,5403.503377
1077.408080,2960.823768,1302.362347,7105.977043
1077.408410,1628.453072,2451.505594,11325.150913
1077.408739,-666.185348,2068.457845,13619.789333
1077.409069,-3034.844362,2451.505594,15470.304188
1077.409398,-4293.194464,3983.696590,16358.551318
1077.409728,-4737.318029,3753.867940,15840.407159
1077.410057,-2738.761985,536.266849,13915.871710
1077.410387,-222.061783,-3677.258390,11325.150913
1077.410717,740.205942,-3983.696590,7550.100608
1077.411046,1110.308913,-1455.581446,4219.173869
1077.411376,2738.761985,-995.924147,4811.338623
1077.411705,4071.132681,229.828649,7179.997637
1077.412035,3330.926739,2757.943793,9622.677246
1077.412365,444.123565,4749.792088,12731.542202
1077.412694,-1776.494261,5362.668486,13397.727550
1077.413024,-3701.029710,4673.182538,13397.727550
1077.413353,-4293.194464,2757.943793,13471.748144
1077.413683,-4367.215058,689.485948,12805.562797
1077.414013,-2664.741391,-459.657299,10288.862594
1077.414342,-1480.411884,-1302.362347,5995.668130
1077.414672,-1184.329507,-1225.752797,2516.700203
1077.415001,-1036.288319,-229.828649,1628.453072
1077.415331,1406.391290,-612.876398,3404.947333
1077.415661,2072.576638,1608.800546,6957.935855
1077.415990,814.226536,4903.011187,8734.430116
1077.416320,-2442.679609,6128.763984,9770.718434
1077.416649,-4071.132681,4903.011187,11399.171507
1077.416979,-4219.173869,2987.772442,13471.748144
1077.417308,-4515.256246,3064.381992,13693.809927
1077.417638,-3627.009116,2298.286494,11325.150913
1077.417968,-1924.535449,-1455.581446,8660.409521
1077.418297,-1036.288319,-3370.820191,7254.018232
1077.418627,-1332.370696,-2068.457845,5033.400406
1077.418956,-962.267725,-1225.752797,5107.421000
1077.419286,740.205942,-612.876398,4811.338623
1077.419616,3627.009116,766.095498,7920.203579
1077.419945,3256.906145,2451.505594,12065.356855
1077.420275,74.020594,3600.648841,13471.748144
1077.420604,-2442.679609,3140.991542,14063.912898
1077.420934,-3330.926739,3524.039291,14285.974681
1077.421264,-2812.782580,3677.258390,15174.221811
1077.421593,-1332.370696,1378.971896,13693.809927
1077.421923,0.000000,-2681.334243,10584.944971
1077.422252,0.000000,-4749.792088,6217.729913
1077.422582,-222.061783,-3140.991542,4293.194464
1077.422912,962.267725,-1915.238745,5329.482782
1077.423241,2664.741391,612.876398,8438.347739
1077.423571,1554.432478,3294.210641,10066.800811
1077.423900,-296.082377,3907.087040,11177.109724
1077.424230,-2368.659014,3677.258390,11399.171507
1077.424560,-3404.947333,2528.115143,12361.439231
1077.424889,-3701.029710,2145.067394,14285.974681
1077.425219,-4441.235652,3064.381992,13767.830521
1077.425548,-3404.947333,1378.971896,10955.047942
1077.425878,-1924.535449,-1685.410096,6587.832884
1077.426208,-1184.329507,-3677.258390,3923.091493
1077.426537,-740.205942,-2068.457845,3849.070898
1077.426867,814.226536,689.485948,5477.523971
1077.427196,1332.370696,1991.848295,7105.977043
1077.427526,740.205942,3217.601092,8364.327145
1077.427856,-1184.329507,3983.696590,10510.924376
1077.428185,-2368.659014,4519.963438,12065.356855
1077.428515,-2442.679609,4596.572988,13027.624579
1077.428844,-2294.638420,4290.134789,12731.542202
1077.429174,-1924.535449,3677.258390,10807.006753
1077.429504,-962.267725,0.000000,8734.430116
1077.429833,-148.041188,-3447.429741,6587.832884
1077.430163,518.144159,-2374.896044,3849.070898
1077.430492,148.041188,-1532.190996,4589.276840
1077.430822,518.144159,0.000000,5403.503377
1077.431152,444.123565,612.876398,7920.203579
1077.431481,0.000000,1532.190996,11399.171507
1077.431811,-2072.576638,3064.381992,12879.583391
1077.432140,-4145.153275,3753.867940,13101.645173
1077.432470,-4663.297435,2911.162892,13101.645173
1077.432800,-4145.153275,1149.143247,12805.562797
1077.433129,-2220.617826,-153.219100,11991.336260
1077.433459,-518.144159,-2451.505594,9548.656652
1077.433788,-444.123565,-3524.039291,6291.750507
1077.434118,148.041188,-1838.629195,5773.606348
1077.434447,74.020594,-1455.581446,7624.121203
1077.434777,1702.473667,-153.219100,9252.574275
1077.435107,1850.514855,842.705048,10881.027347
1077.435436,1554.432478,1302.362347,11769.274478
1077.435766,-888.247130,2451.505594,12805.562797
1077.436095,-2072.576638,3447.429741,14656.077652
1077.436425,-3108.864956,4060.306139,15322.262999
1077.436755,-2738.761985,3907.087040,13249.686362
1077.437084,-1480.411884,2145.067394,10288.862594
1077.437414,0.000000,-1225.752797,7698.141797
1077.437743,666.185348,-2221.676944,4367.215058
1077.438073,518.144159,-1532.190996,3478.967927
1077.438403,518.144159,-459.657299,4959.379811
1077.438732,-592.164754,1225.752797,5847.626942
1077.439062,-962.267725,2374.896044,9474.636058
1077.439391,-2960.823768,3983.696590,11917.315666
1077.439721,-4737.318029,5669.106685,11917.315666
1077.440051,-4515.256246,4519.963438,11103.089130
1077.440380,-3923.091493,2145.067394,10510.924376
1077.440710,-3108.864956,1225.752797,9548.656652
1077.441039,-1998.556043,153.219100,9326.594869
1077.441369,-1628.453072,-612.876398,7031.956449
1077.441699,-1258.350101,-612.876398,4071.132681
1077.442028,-740.205942,-995.924147,3997.112087
1077.442358,1406.391290,-766.095498,6217.729913
1077.442687,2294.638420,1532.190996,9400.615463
1077.443017,1110.308913,3064.381992,11547.212695
1077.443347,-1258.350101,3907.087040,12065.356855
1077.443676,-2442.679609,3217.601092,12509.480420
1077.444006,-3182.885551,2451.505594,14211.954086
1077.444335,-2220.617826,3217.601092,13471.748144
1077.444665,-592.164754,2068.457845,11325.150913
1077.444995,1628.453072,-1762.019645,8734.430116
1077.445324,1628.453072,-3064.381992,6217.729913
1077.445654,74.020594,-1915.238745,5921.647536
1077.445983,740.205942,-1838.629195,6069.688724
1077.446313,1776.494261,-766.095498,8068.244768
1077.446643,1184.329507,229.828649,10140.821405
1077.446972,-814.226536,919.314598,13101.645173
1077.447302,-3923.091493,1838.629195,14211.954086
1077.447631,-5033.400406,2911.162892,14582.057057
1077.447961,-5033.400406,2834.553343,14804.118840
1077.448291,-4515.256246,2911.162892,13175.665768
1077.448620,-3182.885551,919.314598,10584.944971
1077.448950,-962.267725,-2451.505594,8586.388927
1077.449279,-148.041188,-1991.848295,4885.359217
1077.449609,296.082377,-766.095498,2738.761985
1077.449939,1480.411884,-612.876398,4885.359217
1077.450268,1036.288319,-229.828649,7328.038826
1077.450598,-592.164754,1838.629195,10658.965565
1077.450927,-2516.700203,3983.696590,12435.459826
1077.451257,-3849.070898,4290.134789,11917.315666
1077.451587,-3701.029710,3064.381992,12287.418637
1077.451916,-3478.967927,2451.505594,11843.295072
1077.452246,-2368.659014,1838.629195,10658.965565
1077.452575,-222.061783,459.657299,8438.347739
1077.452905,518.144159,-612.876398,5255.462188
1077.453235,444.123565,612.876398,2442.679609
1077.453564,370.102971,-459.657299,2738.761985
1077.453894,2442.679609,-842.705048,4959.379811
1077.454223,2368.659014,995.924147,7254.018232
1077.454553,740.205942,2145.067394,9474.636058
1077.454883,-2664.741391,1762.019645,11991.336260
1077.455212,-5403.503377,2145.067394,13915.871710
1077.455542,-6809.894666,2374.896044,15766.386565
1077.455871,-5403.503377,2451.505594,14730.098246
1077.456201,-3182.885551,1072.533697,11547.212695
1077.456531,-148.041188,-2451.505594,9104.533087
1077.456860,962.267725,-4826.401637,7105.977043
1077.457190,0.000000,-1838.629195,6661.853478
1077.457519,148.041188,689.485948,6143.709319
1077.457849,2220.617826,995.924147,7105.977043
1077.458179,2960.823768,612.876398,9474.636058
1077.458508,2516.700203,153.219100,12953.603985
1077.458838,-1258.350101,459.657299,14656.077652
1077.459167,-4145.153275,2911.162892,14730.098246
1077.459497,-5107.421000,4060.306139,15174.221811
1077.459826,-4293.194464,3064.381992,14211.954086
1077.460156,-1480.411884,766.095498,11769.274478
1077.460486,1332.370696,-3064.381992,8438.347739
1077.460815,2072.576638,-2451.505594,4071.132681
1077.461145,1702.473667,0.000000,1406.391290
1077.461474,2590.720797,153.219100,3849.070898
1077.461804,2294.638420,-306.438199,6587.832884
1077.462134,74.020594,2145.067394,10214.842000
1077.462463,-2368.659014,4366.744339,11843.295072
1077.462793,-4441.235652,3753.867940,12139.377449
1077.463122,-5329.482782,1685.410096,12583.501014
1077.463452,-5625.565159,995.924147,13693.809927
1077.463782,-5625.565159,995.924147,11917.315666
1077.464111,-3552.988522,689.485948,9622.677246
1077.464441,-1406.391290,-306.438199,7031.956449
1077.464770,-592.164754,766.095498,3478.967927
1077.465100,-592.164754,-306.438199,2516.700203
1077.465430,1628.453072,-1302.362347,3478.967927
1077.465759,2442.679609,842.705048,7105.977043
1077.466089,1406.391290,2987.772442,9992.780217
1077.466418,-2220.617826,2911.162892,12213.398043
1077.466748,-4959.379811,1991.848295,12805.562797
1077.467078,-5403.503377,612.876398,14285.974681
1077.467407,-4219.173869,1991.848295,14359.995275
1077.467737,-1924.535449,1915.238745,12435.459826
1077.468066,518.144159,-919.314598,10362.883188
1077.468396,2294.638420,-2298.286494,7105.977043
1077.468726,2368.659014,-153.219100,4737.318029
1077.469055,3256.906145,153.219100,3552.988522
1077.469385,4737.318029,1991.848295,5329.482782
1077.469714,3775.050304,3370.820191,7920.203579
1077.470044,1406.391290,3140.991542,11177.109724
1077.470374,-1702.473667,1915.238745,13323.706956
1077.470703,-4885.359217,766.095498,13175.665768
1077.471033,-7550.100608,459.657299,14730.098246
1077.471362,-7772.162391,1072.533697,15100.201217
1077.471692,-6217.729913,-536.266849,12953.603985
1077.472022,-3034.844362,-2834.553343,9622.677246
1077.472351,-518.144159,-2681.334243,5403.503377
1077.472681,814.226536,-842.705048,3330.926739
1077.473010,3552.988522,153.219100,5699.585753
1077.473340,3849.070898,2221.676944,7476.080014
1077.473670,2516.700203,3753.867940,9178.553681
1077.473999,518.144159,3294.210641,11251.130318
1077.474329,-1480.411884,3370.820191,12731.542202
1077.474658,-3108.864956,2757.943793,14656.077652
1077.474988,-4071.132681,1455.581446,15396.283594
1077.475318,-4293.194464,1225.752797,13545.768739
1077.475647,-2886.803174,1455.581446,10436.903782
1077.475977,-1036.288319,-689.485948,7179.997637
1077.476306,296.082377,-1838.629195,2664.741391
1077.476636,2146.597232,-1378.971896,2516.700203
1077.476966,2960.823768,-153.219100,3330.926739
1077.477295,2146.597232,1302.362347,5181.441594
1077.477625,-148.041188,3524.039291,8290.306550
1077.477954,-3552.988522,2911.162892,11695.253884
1077.478284,-6513.812290,2528.115143,13397.727550
1077.478614,-7698.141797,1915.238745,14211.954086
1077.478943,-7476.080014,536.266849,13249.686362
1077.479273,-5255.462188,-842.705048,11029.068536
1077.479602,-2516.700203,-3830.477490,8290.306550
1077.479932,-444.123565,-4596.572988,6365.771101
1077.480262,666.185348,-2298.286494,5477.523971
1077.480591,1406.391290,306.438199,5551.544565
1077.480921,3108.864956,2374.896044,6513.812290
1077.481250,4663.297435,2451.505594,8512.368333
1077.481580,4885.359217,766.095498,12065.356855
1077.481910,1924.535449,1532.190996,14137.933492
1077.482239,-1924.535449,3217.601092,15322.262999
1077.482569,-4441.235652,2911.162892,16136.489536
1077.482898,-4663.297435,1915.238745,15988.448347
1077.483228,-3330.926739,612.876398,13545.768739
1077.483558,-1332.370696,-2145.067394,10214.842000
1077.483887,444.123565,-2911.162892,5625.565159
1077.484217,1776.494261,-1915.238745,2960.823768
1077.484546,3849.070898,-229.828649,3627.009116
1077.484876,3775.050304,1608.800546,4811.338623
1077.485206,3256.906145,2451.505594,7994.224174
1077.485535,814.226536,4443.353888,10955.047942
1077.485865,-2516.700203,6435.202183,13397.727550
1077.486194,-5033.400406,6128.763984,13915.871710
1077.486524,-5773.606348,3294.210641,14804.118840
1077.486853,-6143.709319,995.924147,13989.892304
1077.487183,-5847.626942,229.828649,11695.253884
1077.487513,-4663.297435,-1455.581446,7920.203579
1077.487842,-2368.659014,-1455.581446,3775.050304
1077.488172,518.144159,-689.485948,1850.514855
1077.488501,2442.679609,76.609550,2590.720797
1077.488831,3775.050304,1072.533697,4219.173869
1077.489161,3330.926739,3064.381992,7328.038826
1077.489490,296.082377,5362.668486,10510.924376
1077.489820,-3627.009116,7431.126331,12435.459826
1077.490149,-4811.338623,5745.716235,14211.954086
1077.490479,-4589.276840,2834.553343,14211.954086
1077.490809,-3404.947333,612.876398,12287.418637
1077.491138,-1776.494261,-1915.238745,9474.636058
1077.491468,-888.247130,-3677.258390,7105.977043
1077.491797,-1036.288319,-2604.724693,3330.926739
1077.492127,74.020594,-995.924147,4071.132681
1077.492457,2738.761985,76.609550,5329.482782
1077.492786,4441.235652,995.924147,7105.977043
1077.493116,4071.132681,1762.019645,9696.697840
1077.493445,592.164754,1685.410096,11917.315666
1077.493775,-2664.741391,2068.457845,14211.954086
1077.494105,-5033.400406,3447.429741,17172.777854
1077.494434,-6217.729913,3907.087040,17542.880825
1077.494764,-5403.503377,842.705048,14359.995275
1077.495093,-2590.720797,-3447.429741,11325.150913
1077.495423,-1406.391290,-5286.058936,6957.935855
1077.495753,-740.205942,-4136.915689,4737.318029
1077.496082,1036.288319,-3217.601092,4145.153275
1077.496412,3034.844362,-1072.533697,6439.791695
1077.496741,4071.132681,1455.581446,10066.800811
1077.497071,1628.453072,4290.134789,12509.480420
1077.497401,-518.144159,5132.839837,12953.603985
1077.497730,-1702.473667,3753.867940,13101.645173
1077.498060,-2516.700203,2911.162892,14285.974681
1077.498389,-2886.803174,3370.820191,14952.160028
1077.498719,-2960.823768,1532.190996,11843.295072
1077.499049,-1776.494261,-1915.238745,7550.100608
1077.499378,-1036.288319,-3140.991542,3182.885551
1077.499708,0.000000,-2145.067394,1850.514855
1077.500037,1702.473667,-842.705048,4293.194464
1077.500367,2516.700203,2145.067394,5107.421000
1077.500697,1776.494261,3140.991542,5773.606348
1077.501026,444.123565,3600.648841,8660.409521
1077.501356,-1850.514855,4826.401637,11621.233289
1077.501685,-4515.256246,6435.202183,13027.624579
1077.502015,-5847.626942,5132.839837,12879.583391
1077.502345,-5551.544565,3524.039291,11695.253884
1077.502674,-4071.132681,-459.657299,10140.821405
1077.503004,-3256.906145,-3140.991542,7846.182985
1077.503333,-3034.844362,-3753.867940,4663.297435
1077.503663,-1480.411884,-2834.553343,2960.823768
1077.503993,1258.350101,-2221.676944,3997.112087
1077.504322,3034.844362,-229.828649,6513.812290
1077.504652,3701.029710,2221.676944,10658.965565
1077.504981,1776.494261,3217.601092,13915.871710
1077.505311,-370.102971,4903.011187,14952.160028
1077.505641,-2590.720797,5515.887586,15322.262999
1077.505970,-2812.782580,3753.867940,16506.592507
1077.506300,-1924.535449,2681.334243,15322.262999
1077.506629,-444.123565,-383.047749,12213.398043
1077.506959,814.226536,-3447.429741,8660.409521
1077.507289,592.164754,-3524.039291,4811.338623
1077.507618,1184.329507,-2528.115143,5181.441594
1077.507948,2220.617826,-919.314598,7105.977043
1077.508277,2812.782580,995.924147,8734.430116
1077.508607,1702.473667,2987.772442,10066.800811
1077.508937,-518.144159,3677.258390,11473.192101
1077.509266,-3108.864956,3524.039291,12287.418637
1077.509596,-4219.173869,4903.011187,13841.851115
1077.509925,-4441.235652,4443.353888,13989.892304
1077.510255,-4589.276840,2374.896044,11917.315666
1077.510585,-4071.132681,-689.485948,8290.306550
1077.510914,-3404.947333,-2834.553343,4811.338623
1077.511244,-1998.556043,-2374.896044,2812.782580
1077.511573,-148.041188,-1762.019645,2664.741391
1077.511903,1628.453072,-919.314598,3775.050304
1077.512232,2368.659014,306.438199,7105.977043
1077.512562,444.123565,3064.381992,11103.089130
1077.512892,-2368.659014,7354.516781,12657.521608
1077.513221,-3478.967927,7124.688131,12065.356855
1077.513551,-2516.700203,3370.820191,12361.439231
1077.513880,-1480.411884,1762.019645,11843.295072
1077.514210,-370.102971,536.266849,11103.089130
1077.514540,740.205942,-1991.848295,8290.306550
1077.514869,0.000000,-2604.724693,4959.379811
1077.515199,-1110.308913,-2145.067394,3701.029710
1077.515528,74.020594,-1302.362347,5181.441594
1077.515858,2368.659014,-1072.533697,8142.265362
1077.516188,3701.029710,1149.143247,10140.821405
1077.516517,1924.535449,2528.115143,11251.130318
1077.516847,-1036.288319,2451.505594,11621.233289
1077.517176,-3182.885551,1915.238745,13767.830521
1077.517506,-3997.112087,2757.943793,16210.510130
1077.517836,-3923.091493,4136.915689,15026.180623
1077.518165,-2220.617826,1225.752797,12583.501014
1077.518495,-1332.370696,-3753.867940,8216.285956
1077.518824,-1628.453072,-5439.278036,5551.544565
1077.519154,-370.102971,-4443.353888,6217.729913
1077.519484,962.267725,-1685.410096,7476.080014
1077.519813,1628.453072,1532.190996,8660.409521
1077.520143,148.041188,2298.286494,10955.047942
1077.520472,-1184.329507,3524.039291,13545.768739
1077.520802,-2442.679609,4903.011187,14508.036463
1077.521131,-2886.803174,5592.497135,13693.809927
1077.521461,-2590.720797,4596.572988,11547.212695
1077.521790,-1628.453072,1915.238745,10214.842000
1077.522120,0.000000,-536.266849,9104.533087
1077.522450,222.061783,-1608.800546,5625.565159
1077.522779,148.041188,-1685.410096,2294.638420
1077.523109,1258.350101,-1149.143247,2442.679609
1077.523438,1628.453072,0.000000,5181.441594
1077.523768,1406.391290,1685.410096,8956.491898
1077.524097,0.000000,3370.820191,10807.006753
1077.524427,-1924.535449,6052.154434,11103.089130
1077.524756,-3330.926739,5669.106685,10955.047942
1077.525086,-3552.988522,3907.087040,11917.315666
1077.525416,-2960.823768,2834.553343,11843.295072
1077.525745,-2368.659014,1455.581446,10140.821405
1077.526075,-1776.494261,-383.047749,7772.162391
1077.526404,-2442.679609,-1072.533697,5181.441594
1077.526734,-3108.864956,-2374.896044,4589.276840
1077.527063,-1480.411884,-2451.505594,6217.729913
1077.527393,-296.082377,-995.924147,7179.997637
1077.527722,666.185348,1149.143247,9474.636058
1077.528052,444.123565,1915.238745,11991.336260
1077.528381,-1110.308913,2298.286494,13841.851115
1077.528711,-3034.844362,3830.477490,14582.057057
1077.529041,-3034.844362,4596.572988,14952.160028
1077.529370,-666.185348,3370.820191,13323.706956
1077.529700,1110.308913,229.828649,11473.192101
1077.530029,1110.308913,-3217.601092,8956.491898
1077.530359,222.061783,-3447.429741,6291.750507
1077.530688,74.020594,-1991.848295,5329.482782
1077.531018,1554.432478,-1149.143247,6661.853478
1077.531347,2738.761985,229.828649,8956.491898
1077.531677,2072.576638,689.485948,11325.150913
1077.532007,-222.061783,1608.800546,12435.459826
1077.532336,-2812.782580,3983.696590,12065.356855
1077.532666,-3330.926739,4673.182538,12435.459826
1077.532995,-2368.659014,3217.601092,12583.501014
1077.533325,-1850.514855,1915.238745,11399.171507
1077.533654,-1184.329507,306.438199,8734.430116
1077.533984,-740.205942,-1915.238745,5181.441594
1077.534313,-1258.350101,-1608.800546,3849.070898
1077.534643,-1406.391290,-1225.752797,4737.318029
1077.534973,-1702.473667,-1302.362347,6661.853478
1077.535302,-444.123565,-306.438199,8438.347739
1077.535632,-888.247130,1915.238745,10584.944971
1077.535961,-2072.576638,4519.963438,11621.233289
1077.536291,-3478.967927,5362.668486,11843.295072
1077.536620,-3182.885551,4136.915689,12213.398043
1077.536950,-1924.535449,3294.210641,11843.295072
1077.537279,-592.164754,2681.334243,9992.780217
1077.537609,296.082377,-459.657299,7402.059420
1077.537938,148.041188,-2681.334243,5329.482782
1077.538268,-814.226536,-1685.410096,4145.153275
1077.538598,222.061783,-1685.410096,5551.544565
1077.538927,1998.556043,-1685.410096,7550.100608
1077.539257,2146.597232,766.095498,10214.842000
1077.539586,74.020594,1915.238745,11991.336260
1077.539916,-2368.659014,2298.286494,12731.542202
1077.540245,-3108.864956,3447.429741,13989.892304
1077.540575,-2590.720797,4826.401637,13471.748144
1077.540904,-2146.597232,3830.477490,11621.233289
1077.541234,-888.247130,-995.924147,9400.615463
1077.541564,0.000000,-4903.011187,7402.059420
1077.541893,-888.247130,-4903.011187,5699.585753
1077.542223,-1998.556043,-2451.505594,5255.462188
1077.542552,-1332.370696,-2451.505594,5921.647536
1077.542882,740.205942,-3600.648841,9030.512492
1077.543211,74.020594,-1685.410096,11991.336260
1077.543541,-1776.494261,842.705048,14211.954086
1077.543870,-3627.009116,2911.162892,14582.057057
1077.544200,-4145.153275,4290.134789,15026.180623
1077.544529,-3552.988522,4136.915689,15248.242405
1077.544859,-1998.556043,2911.162892,12805.562797
1077.545189,296.082377,-2068.457845,8586.388927
1077.545518,2368.659014,-5515.887586,5033.400406
1077.545848,1776.494261,-4673.182538,2664.741391
1077.546177,888.247130,-3753.867940,3627.009116
1077.546507,1110.308913,-3600.648841,6439.791695
1077.546836,1110.308913,-2987.772442,8660.409521
1077.547166,148.041188,-536.266849,10807.006753
1077.547495,-1036.288319,842.705048,13027.624579
1077.547825,-2220.617826,1915.238745,14359.995275
1077.548155,-3108.864956,3600.648841,14359.995275
1077.548484,-3849.070898,3064.381992,13175.665768
1077.548814,-2220.617826,1302.362347,9844.739029
1077.549143,-296.082377,-1915.238745,6735.874072
1077.549473,1036.288319,-4826.401637,3330.926739
1077.549802,296.082377,-4903.011187,1554.432478
