#time,accel_x,accel_y,accel_z
1092.237150,-740.205942,1225.752797,9474.636058
1092.237479,-962.267725,919.314598,9548.656652
1092.237808,-1036.288319,919.314598,9400.615463
1092.238138,-1036.288319,995.924147,9474.636058
1092.238467,-888.247130,842.705048,9400.615463
1092.238797,-740.205942,1532.190996,9622.677246
1092.239126,-888.247130,842.705048,9548.656652
1092.239455,-1036.288319,1149.143247,9474.636058
1092.239785,-1184.329507,766.095498,9548.656652
1092.240114,-1036.288319,919.314598,9474.636058
1092.240443,-962.267725,1072.533697,9474.636058
1092.240773,-1110.308913,919.314598,9474.636058
1092.241102,-962.267725,766.095498,9474.636058
1092.241432,-1036.288319,995.924147,9548.656652
1092.241761,-1036.288319,766.095498,9252.574275
1092.242090,-1184.329507,1225.752797,9770.718434
1092.242420,-666.185348,1072.533697,9696.697840
1092.242749,-1036.288319,1149.143247,9548.656652
1092.243078,-1184.329507,842.705048,9474.636058
1092.243408,-1110.308913,919.314598,9474.636058
1092.243737,-814.226536,1378.971896,9770.718434
1092.244067,-1110.308913,842.705048,9252.574275
1092.244396,-962.267725,995.924147,9474.636058
1092.244725,-1184.329507,842.705048,9474.636058
1092.245055,-962.267725,842.705048,9548.656652
1092.245384,-1036.288319,919.314598,9622.677246
1092.245713,-1480.411884,612.876398,9326.594869
1092.246043,-1036.288319,995.924147,9474.636058
1092.246372,-1036.288319,842.705048,9622.677246
1092.246702,-1036.288319,995.924147,9622.677246
1092.247031,-1036.288319,919.314598,9474.636058
1092.247360,-592.164754,1225.752797,9474.636058
1092.247690,-888.247130,1072.533697,9696.697840
1092.248019,-962.267725,919.314598,9548.656652
1092.248348,-1110.308913,1072.533697,9622.677246
1092.248678,-962.267725,919.314598,9696.697840
1092.249007,-740.205942,689.485948,9548.656652
1092.249337,-888.247130,842.705048,9548.656652
1092.249666,-1036.288319,766.095498,9474.636058
1092.249995,-1110.308913,766.095498,9548.656652
1092.250325,-962.267725,842.705048,9400.615463
1092.250654,-814.226536,766.095498,9548.656652
1092.250983,-888.247130,1532.190996,9548.656652
1092.251313,-1258.350101,1072.533697,9400.615463
1092.251642,-1110.308913,995.924147,9548.656652
1092.251972,-962.267725,766.095498,9474.636058
1092.252301,-888.247130,842.705048,9622.677246
1092.252630,-1184.329507,1072.533697,9400.615463
1092.252960,-1184.329507,689.485948,9622.677246
1092.253289,-1110.308913,919.314598,9474.636058
1092.253618,-962.267725,1072.533697,9622.677246
1092.253948,-888.247130,919.314598,9622.677246
1092.254277,-1184.329507,766.095498,9400.615463
1092.254607,-814.226536,1149.143247,9770.718434
1092.254936,-1036.288319,842.705048,9622.677246
1092.255265,-1110.308913,995.924147,9622.677246
1092.255595,-1258.350101,1072.533697,9474.636058
1092.255924,-1110.308913,842.705048,9696.697840
1092.256253,-666.185348,919.314598,9696.697840
1092.256583,-1184.329507,1072.533697,9696.697840
1092.256912,-888.247130,689.485948,9548.656652
1092.257242,-888.247130,995.924147,9474.636058
1092.257571,-1184.329507,842.705048,9548.656652
1092.257900,-888.247130,919.314598,9178.553681
1092.258230,-370.102971,919.314598,8808.450710
1092.258559,666.185348,383.047749,9178.553681
1092.258888,888.247130,612.876398,9252.574275
1092.259218,1036.288319,612.876398,9252.574275
1092.259547,888.247130,536.266849,9844.739029
1092.259877,-518.144159,689.485948,9844.739029
1092.260206,-740.205942,1149.143247,10510.924376
1092.260535,-740.205942,766.095498,10510.924376
1092.260865,-296.082377,229.828649,10140.821405
1092.261194,222.061783,459.657299,9104.533087
1092.261523,814.226536,76.609550,9030.512492
1092.261853,2294.638420,0.000000,8660.409521
1092.262182,2886.803174,459.657299,8660.409521
1092.262512,3404.947333,1225.752797,8734.430116
1092.262841,3627.009116,1915.238745,9326.594869
1092.263170,3997.112087,2374.896044,9548.656652
1092.263500,3034.844362,1685.410096,9696.697840
1092.263829,2664.741391,1149.143247,10066.800811
1092.264158,1702.473667,842.705048,10436.903782
1092.264488,1110.308913,536.266849,10807.006753
1092.264817,1628.453072,0.000000,10732.986159
1092.265147,1480.411884,-459.657299,10066.800811
1092.265476,2294.638420,-306.438199,9474.636058
1092.265805,3182.885551,-229.828649,9104.533087
1092.266135,3775.050304,459.657299,8956.491898
1092.266464,4219.173869,1532.190996,9252.574275
1092.266793,4219.173869,2145.067394,9622.677246
1092.267123,3182.885551,2987.772442,10140.821405
1092.267452,1702.473667,2834.553343,10510.924376
1092.267782,-222.061783,2374.896044,10732.986159
1092.268111,-1998.556043,2068.457845,9696.697840
1092.268440,-1702.473667,536.266849,8808.450710
1092.268770,-666.185348,-919.314598,7476.080014
1092.269099,1036.288319,-1378.971896,7031.956449
1092.269428,2886.803174,-1072.533697,6735.874072
1092.269758,3627.009116,0.000000,6365.771101
1092.270087,3997.112087,2145.067394,7846.182985
1092.270417,3182.885551,3753.867940,9918.759623
1092.270746,1924.535449,4826.401637,11547.212695
1092.271075,740.205942,3677.258390,12361.439231
1092.271405,-148.041188,2681.334243,12731.542202
1092.271734,-1406.391290,766.095498,12509.480420
1092.272063,-1628.453072,-1225.752797,11695.253884
1092.272393,-1702.473667,-2451.505594,10881.027347
1092.272722,-814.226536,-2681.334243,9696.697840
1092.273052,518.144159,-1762.019645,8512.368333
1092.273381,2442.679609,-1532.190996,7772.162391
1092.273710,4145.153275,-459.657299,6957.935855
1092.274040,4885.359217,1532.190996,6957.935855
1092.274369,5181.441594,2911.162892,7698.141797
1092.274698,4663.297435,4213.525239,8882.471304
1092.275028,3997.112087,4443.353888,10288.862594
1092.275357,2960.823768,3830.477490,10881.027347
1092.275687,1776.494261,2757.943793,11399.171507
1092.276016,666.185348,842.705048,11399.171507
1092.276345,-148.041188,-689.485948,10807.006753
1092.276675,-1036.288319,-1378.971896,10807.006753
1092.277004,-740.205942,-1225.752797,10436.903782
1092.277333,-592.164754,-1225.752797,10288.862594
1092.277663,0.000000,-766.095498,9696.697840
1092.277992,888.247130,76.609550,9252.574275
1092.278322,2072.576638,306.438199,8438.347739
1092.278651,3627.009116,459.657299,8438.347739
1092.278980,4737.318029,1072.533697,8068.244768
1092.279310,5033.400406,995.924147,8068.244768
1092.279639,4737.318029,995.924147,8808.450710
1092.279968,3997.112087,842.705048,9548.656652
1092.280298,2886.803174,1608.800546,10288.862594
1092.280627,1702.473667,2068.457845,10140.821405
1092.280957,1554.432478,2451.505594,10510.924376
1092.281286,1924.535449,1991.848295,10436.903782
1092.281615,2072.576638,1762.019645,9992.780217
1092.281945,2146.597232,1149.143247,8734.430116
1092.282274,2516.700203,766.095498,8068.244768
1092.282603,2516.700203,612.876398,8142.265362
1092.282933,1702.473667,612.876398,8438.347739
1092.283262,1036.288319,1072.533697,9326.594869
1092.283592,222.061783,689.485948,9992.780217
1092.283921,-592.164754,459.657299,10140.821405
1092.284250,-1480.411884,383.047749,10362.883188
1092.284580,-1332.370696,0.000000,10955.047942
1092.284909,-1110.308913,-383.047749,11177.109724
1092.285238,-1184.329507,0.000000,10732.986159
1092.285568,-370.102971,0.000000,10510.924376
1092.285897,1036.288319,459.657299,9622.677246
1092.286227,2960.823768,459.657299,8068.244768
1092.286556,5773.606348,1838.629195,7994.224174
1092.286885,7846.182985,2451.505594,7624.121203
1092.287215,9252.574275,2911.162892,7920.203579
1092.287544,9030.512492,3983.696590,9030.512492
1092.287873,7105.977043,4903.011187,9992.780217
1092.288203,4071.132681,4903.011187,11547.212695
1092.288532,1332.370696,3217.601092,12953.603985
1092.288862,-2294.638420,1455.581446,14211.954086
1092.289191,-6143.709319,76.609550,13619.789333
1092.289520,-8808.450710,-1685.410096,12139.377449
1092.289850,-7698.141797,-2528.115143,9696.697840
1092.290179,-4737.318029,-2834.553343,6217.729913
1092.290508,148.041188,-4826.401637,2812.782580
1092.290838,6069.688724,-4443.353888,1258.350101
1092.291167,9770.718434,-1532.190996,2368.659014
1092.291497,9548.656652,2987.772442,4589.276840
1092.291826,7698.141797,7507.735880,7105.977043
1092.292155,6661.853478,8427.050478,11399.171507
1092.292485,4441.235652,9193.145976,15174.221811
1092.292814,296.082377,8120.612279,15692.365970
1092.293143,-3627.009116,2451.505594,16358.551318
1092.293473,-6217.729913,-2374.896044,16580.613101
1092.293802,-6365.771101,-2987.772442,14582.057057
1092.294132,-3997.112087,-4903.011187,11251.130318
1092.294461,592.164754,-7277.907231,7994.224174
1092.294790,5033.400406,-4903.011187,4071.132681
1092.295120,9992.780217,-2987.772442,296.082377
1092.295449,13915.871710,-2834.553343,2072.576638
1092.295778,13767.830521,2298.286494,6587.832884
1092.296108,8068.244768,9499.584175,10584.944971
1092.296437,1480.411884,10342.289223,13471.748144
1092.296767,-2590.720797,8580.269578,14730.098246
1092.297096,-3849.070898,5362.668486,13989.892304
1092.297425,-2220.617826,-995.924147,12139.377449
1092.297755,-740.205942,-6741.640382,9696.697840
1092.298084,444.123565,-7277.907231,6957.935855
1092.298413,1776.494261,-6205.373534,5921.647536
1092.298743,1258.350101,-4979.620737,6957.935855
1092.299072,592.164754,0.000000,8660.409521
1092.299402,888.247130,3677.258390,9622.677246
1092.299731,2590.720797,4673.182538,11029.068536
1092.300060,4737.318029,5362.668486,12509.480420
1092.300390,5403.503377,3064.381992,13249.686362
1092.300719,3256.906145,919.314598,11621.233289
1092.301048,-666.185348,0.000000,9844.739029
1092.301378,-3256.906145,76.609550,10584.944971
1092.301707,-3849.070898,-1302.362347,9622.677246
1092.302037,-1554.432478,-4060.306139,7476.080014
1092.302366,1110.308913,-5515.887586,4885.359217
1092.302695,4737.318029,-4443.353888,4737.318029
1092.303025,7698.141797,-306.438199,6217.729913
1092.303354,9992.780217,3600.648841,7476.080014
1092.303683,8956.491898,4443.353888,7772.162391
1092.304013,5255.462188,6052.154434,9918.759623
1092.304342,2442.679609,8580.269578,14359.995275
1092.304672,814.226536,7354.516781,17912.983796
1092.305001,-1776.494261,3830.477490,17468.860231
1092.305330,-5255.462188,0.000000,13767.830521
1092.305660,-6513.812290,-4060.306139,11103.089130
1092.305990,-5477.523971,-6128.763984,10214.842000
1092.306319,-4071.132681,-6281.983084,8882.471304
1092.306649,-3775.050304,-4060.306139,6735.874072
1092.306979,-1628.453072,-1608.800546,2516.700203
1092.307308,3478.967927,612.876398,1702.473667
1092.307638,10436.903782,1072.533697,3182.885551
1092.307968,12657.521608,4060.306139,6735.874072
1092.308297,11177.109724,8963.317327,8290.306550
1092.308627,7624.121203,10955.165621,9992.780217
1092.308957,4071.132681,9116.536426,12287.418637
1092.309286,1924.535449,7507.735880,14063.912898
1092.309616,0.000000,3600.648841,14952.160028
1092.309946,-148.041188,-1302.362347,15026.180623
1092.310275,-1924.535449,-2911.162892,12435.459826
1092.310605,-3849.070898,-3447.429741,10066.800811
1092.310935,-4515.256246,-4903.011187,9474.636058
1092.311264,-4293.194464,-2068.457845,9918.759623
1092.311594,-2146.597232,1225.752797,7772.162391
1092.311924,2886.803174,459.657299,3775.050304
1092.312253,9252.574275,995.924147,518.144159
1092.312583,13693.809927,612.876398,1850.514855
1092.312913,13619.789333,1378.971896,4885.359217
1092.313242,8882.471304,6128.763984,8364.327145
1092.313572,4737.318029,8810.098227,10658.965565
1092.313902,3997.112087,5515.887586,14137.933492
1092.314231,1850.514855,1838.629195,17616.901420
1092.314561,-3923.091493,919.314598,17394.839637
1092.314891,-6883.915261,-2911.162892,14211.954086
1092.315220,-7105.977043,-6894.859482,12731.542202
1092.315550,-7328.038826,-3677.258390,12657.521608
1092.315880,-6069.688724,-2298.286494,10362.883188
1092.316209,-2442.679609,-3677.258390,5181.441594
1092.316539,4293.194464,-3983.696590,2516.700203
1092.316869,10510.924376,-3140.991542,4515.256246
1092.317198,11399.171507,3217.601092,5107.421000
1092.317528,7920.203579,7048.078582,6365.771101
1092.317858,5847.626942,6588.421283,9104.533087
1092.318188,5033.400406,7354.516781,14952.160028
1092.318517,1184.329507,7277.907231,18949.272115
1092.318847,-5255.462188,4673.182538,16876.695478
1092.319177,-11843.295072,-919.314598,12435.459826
1092.319506,-13175.665768,-4213.525239,10288.862594
1092.319836,-9622.677246,-6894.859482,10510.924376
1092.320166,-3478.967927,-9346.365076,9400.615463
1092.320495,-518.144159,-5669.106685,5699.585753
1092.320825,1036.288319,-4596.572988,1702.473667
1092.321155,6143.709319,-1838.629195,1924.535449
1092.321484,10732.986159,4060.306139,6217.729913
1092.321814,12065.356855,8963.317327,10955.047942
1092.322144,8438.347739,11951.089769,13545.768739
1092.322473,1776.494261,12487.356617,13175.665768
1092.322803,-2738.761985,7967.393179,14804.118840
1092.323133,-7105.977043,1608.800546,16358.551318
1092.323462,-10732.986159,-306.438199,14804.118840
1092.323792,-10436.903782,-2528.115143,10288.862594
1092.324122,-5551.544565,-7967.393179,5921.647536
1092.324451,-1110.308913,-9346.365076,-444.123565
1092.324781,2812.782580,-8580.269578,-4071.132681
1092.325111,6513.812290,-8120.612279,-444.123565
1092.325440,8438.347739,1762.019645,4663.297435
1092.325770,6735.874072,13636.499864,10214.842000
1092.326100,4367.215058,13483.280765,14137.933492
1092.326429,-148.041188,11261.603821,15618.345376
1092.326759,-5033.400406,10418.898773,15544.324782
1092.327089,-6439.791695,1762.019645,17616.901420
1092.327418,-7402.059420,-3600.648841,18135.045579
1092.327748,-11103.089130,-2298.286494,14434.015869
1092.328078,-12435.459826,-5439.278036,7624.121203
1092.328407,-8068.244768,-12257.527968,2738.761985
1092.328737,1554.432478,-11568.042020,2960.823768
1092.329067,10288.862594,-6281.983084,2664.741391
1092.329396,12213.398043,995.924147,2516.700203
1092.329726,8512.368333,8044.002729,4663.297435
1092.330056,4663.297435,12027.699319,10066.800811
1092.330385,2442.679609,11951.089769,17912.983796
1092.330715,-2072.576638,14172.766713,21836.075289
1092.331045,-6513.812290,11261.603821,19837.519246
1092.331374,-8660.409521,2298.286494,15988.448347
1092.331704,-8068.244768,-4749.792088,10510.924376
1092.332034,-5699.585753,-12180.918418,5773.606348
1092.332363,-1924.535449,-13789.718964,3849.070898
1092.332693,-222.061783,-8427.050478,4885.359217
1092.333023,1924.535449,-1915.238745,6217.729913
1092.333352,1628.453072,2221.676944,5995.668130
1092.333682,888.247130,5515.887586,6217.729913
1092.334012,2664.741391,9576.193725,7698.141797
1092.334341,3701.029710,9959.241474,11917.315666
1092.334671,2516.700203,10035.851024,13619.789333
1092.335001,-1480.411884,6894.859482,12509.480420
1092.335331,-5625.565159,153.219100,9178.553681
1092.335660,-7624.121203,-3064.381992,7105.977043
1092.335990,-5033.400406,-6971.469032,7254.018232
1092.336320,-740.205942,-8810.098227,7772.162391
1092.336649,444.123565,-6588.421283,6587.832884
1092.336979,-444.123565,-3677.258390,5181.441594
1092.337309,-296.082377,-1762.019645,4515.256246
1092.337638,740.205942,1149.143247,8364.327145
1092.337968,1924.535449,7431.126331,12805.562797
1092.338298,592.164754,10725.336972,14878.139434
1092.338627,-1406.391290,7967.393179,13989.892304
1092.338957,-2590.720797,3907.087040,11103.089130
1092.339287,-1702.473667,-153.219100,8956.491898
1092.339616,0.000000,-3983.696590,9104.533087
1092.339946,444.123565,-4903.011187,8808.450710
1092.340276,-2146.597232,-4290.134789,7994.224174
1092.340605,-5255.462188,-3753.867940,8142.265362
1092.340935,-6217.729913,-1991.848295,10288.862594
1092.341265,-4589.276840,1532.190996,13323.706956
1092.341594,-2294.638420,4443.353888,14211.954086
1092.341924,-1110.308913,4673.182538,12805.562797
1092.342254,0.000000,2911.162892,10881.027347
1092.342583,-444.123565,1915.238745,9770.718434
1092.342913,592.164754,1532.190996,9474.636058
1092.343243,1702.473667,2145.067394,9992.780217
1092.343572,2516.700203,919.314598,10436.903782
1092.343902,1406.391290,0.000000,9622.677246
1092.344232,-1332.370696,-1072.533697,8290.306550
1092.344561,-1776.494261,-766.095498,7920.203579
1092.344891,-444.123565,2987.772442,8882.471304
1092.345221,888.247130,3830.477490,10066.800811
1092.345550,444.123565,3524.039291,8956.491898
1092.345880,-1702.473667,2834.553343,6957.935855
1092.346210,-1628.453072,2374.896044,5773.606348
1092.346539,444.123565,1455.581446,6661.853478
1092.346869,1702.473667,842.705048,7698.141797
1092.347199,962.267725,306.438199,7550.100608
1092.347528,-1332.370696,-1072.533697,7624.121203
1092.347858,-4071.132681,-2298.286494,8364.327145
1092.348188,-5403.503377,-459.657299,10214.842000
1092.348517,-5329.482782,1838.629195,11621.233289
1092.348847,-3923.091493,3217.601092,11473.192101
1092.349177,-2294.638420,1149.143247,9844.739029
1092.349506,0.000000,-1685.410096,8068.244768
1092.349836,1036.288319,-1072.533697,6513.812290
1092.350166,2368.659014,153.219100,7254.018232
1092.350495,4589.276840,1378.971896,9252.574275
1092.350825,4959.379811,2834.553343,10066.800811
1092.351155,3034.844362,2451.505594,10807.006753
1092.351484,0.000000,1225.752797,11843.295072
1092.351814,-3256.906145,1302.362347,14063.912898
1092.352144,-5033.400406,3064.381992,16062.468941
1092.352474,-5477.523971,2374.896044,16802.674883
1092.352803,-5773.606348,229.828649,13915.871710
1092.353133,-5847.626942,-2451.505594,9992.780217
1092.353463,-3552.988522,-5515.887586,7105.977043
1092.353792,222.061783,-3447.429741,7624.121203
1092.354122,3034.844362,766.095498,8808.450710
1092.354452,3923.091493,2374.896044,7698.141797
1092.354781,1998.556043,2911.162892,7846.182985
1092.355111,-444.123565,3524.039291,9178.553681
1092.355441,-1554.432478,4903.011187,10288.862594
1092.355770,-1702.473667,4749.792088,11325.150913
1092.356100,-2590.720797,4060.306139,10881.027347
1092.356430,-2960.823768,2374.896044,9844.739029
1092.356759,-3849.070898,-1608.800546,7550.100608
1092.357089,-2812.782580,-3294.210641,5255.462188
1092.357419,-740.205942,-2604.724693,5107.421000
1092.357748,1628.453072,0.000000,6513.812290
1092.358078,2590.720797,1302.362347,6587.832884
1092.358408,1184.329507,2298.286494,7031.956449
1092.358737,-740.205942,3370.820191,7550.100608
1092.359067,-2664.741391,5745.716235,9178.553681
1092.359397,-3256.906145,5669.106685,11399.171507
1092.359726,-3552.988522,3830.477490,12435.459826
1092.360056,-4811.338623,612.876398,10584.944971
1092.360386,-5551.544565,-2987.772442,7105.977043
1092.360715,-4441.235652,-5822.325785,5477.523971
1092.361045,-1776.494261,-4290.134789,6439.791695
1092.361375,444.123565,-919.314598,8068.244768
1092.361704,2368.659014,-612.876398,10066.800811
1092.362034,1036.288319,1532.190996,11991.336260
1092.362364,-1702.473667,3447.429741,13101.645173
1092.362693,-2960.823768,5439.278036,14211.954086
1092.363023,-2738.761985,5515.887586,15988.448347
1092.363353,-1406.391290,4366.744339,16358.551318
1092.363682,-1332.370696,1225.752797,13471.748144
1092.364012,-1998.556043,-3370.820191,10066.800811
1092.364342,-1776.494261,-3983.696590,8068.244768
1092.364671,-592.164754,-3064.381992,9548.656652
1092.365001,1110.308913,-1838.629195,10955.047942
1092.365331,1850.514855,1302.362347,9992.780217
1092.365660,1332.370696,2528.115143,8438.347739
1092.365990,1702.473667,3294.210641,7254.018232
1092.366320,1702.473667,3677.258390,7920.203579
1092.366649,518.144159,5056.230287,9770.718434
1092.366979,-2220.617826,6205.373534,10140.821405
1092.367309,-3849.070898,4443.353888,9548.656652
1092.367638,-4293.194464,842.705048,7402.059420
1092.367968,-3108.864956,-2834.553343,5477.523971
1092.368298,-1480.411884,-5132.839837,5847.626942
1092.368627,666.185348,-2834.553343,6217.729913
1092.368957,2146.597232,-612.876398,5995.668130
1092.369287,1406.391290,612.876398,6291.750507
1092.369617,-1406.391290,1991.848295,7402.059420
1092.369946,-2812.782580,4826.401637,9992.780217
1092.370276,-1776.494261,6435.202183,11991.336260
1092.370606,-444.123565,4213.525239,11399.171507
1092.370935,-962.267725,2374.896044,8586.388927
1092.371265,-1036.288319,-1378.971896,5847.626942
1092.371595,518.144159,-5592.497135,6217.729913
1092.371924,2072.576638,-4903.011187,8956.491898
1092.372254,1480.411884,-1149.143247,10140.821405
1092.372584,0.000000,689.485948,11621.233289
1092.372913,-2738.761985,919.314598,11917.315666
1092.373243,-4145.153275,1915.238745,12509.480420
1092.373573,-2664.741391,2451.505594,13841.851115
1092.373902,-1332.370696,2221.676944,15100.201217
1092.374232,-1110.308913,3064.381992,13619.789333
1092.374562,-3552.988522,612.876398,10881.027347
1092.374891,-3775.050304,-1378.971896,9252.574275
1092.375221,-1258.350101,-1991.848295,9400.615463
1092.375551,1702.473667,-1991.848295,10362.883188
1092.375880,2220.617826,-306.438199,10658.965565
1092.376210,888.247130,842.705048,10584.944971
1092.376540,-592.164754,1225.752797,11547.212695
1092.376869,-2590.720797,2911.162892,11621.233289
1092.377199,-4071.132681,5209.449386,11399.171507
1092.377529,-2664.741391,4979.620737,11991.336260
1092.377858,-1554.432478,2298.286494,10362.883188
1092.378188,-1480.411884,153.219100,7179.997637
1092.378518,-962.267725,-1685.410096,4737.318029
1092.378847,148.041188,-3140.991542,3849.070898
1092.379177,1850.514855,-153.219100,5033.400406
1092.379507,2516.700203,1608.800546,6439.791695
1092.379836,2368.659014,2451.505594,7105.977043
1092.380166,-148.041188,3830.477490,7402.059420
1092.380496,-2516.700203,4826.401637,7624.121203
1092.380825,-3552.988522,4596.572988,9548.656652
1092.381155,-3923.091493,4749.792088,11029.068536
1092.381485,-4293.194464,2911.162892,9474.636058
1092.381814,-4811.338623,-689.485948,6291.750507
1092.382144,-3923.091493,-3600.648841,5181.441594
1092.382474,-2516.700203,-2834.553343,6291.750507
1092.382803,-888.247130,-383.047749,8734.430116
1092.383133,740.205942,0.000000,9474.636058
1092.383463,222.061783,919.314598,10214.842000
1092.383792,-1702.473667,1762.019645,11029.068536
1092.384122,-2442.679609,2911.162892,12509.480420
1092.384452,-1924.535449,3753.867940,14582.057057
1092.384781,-1776.494261,3140.991542,14508.036463
1092.385111,-2368.659014,1378.971896,12879.583391
1092.385441,-2368.659014,-2451.505594,11917.315666
1092.385770,-1554.432478,-4213.525239,11399.171507
1092.386100,-296.082377,-2834.553343,10955.047942
1092.386430,1554.432478,-1378.971896,10807.006753
1092.386759,3849.070898,-383.047749,10658.965565
1092.387089,3849.070898,842.705048,10881.027347
1092.387419,1924.535449,3064.381992,11325.150913
1092.387749,-296.082377,4366.744339,11843.295072
1092.388078,-888.247130,5745.716235,12287.418637
1092.388408,-2294.638420,5669.106685,12139.377449
1092.388738,-3775.050304,2298.286494,10362.883188
1092.389067,-4293.194464,-383.047749,7476.080014
1092.389397,-3478.967927,-2911.162892,4959.379811
1092.389727,-1036.288319,-4136.915689,4737.318029
1092.390056,1184.329507,-2221.676944,5921.647536
1092.390386,2442.679609,0.000000,6513.812290
1092.390716,1702.473667,2221.676944,6513.812290
1092.391045,-1258.350101,3217.601092,6735.874072
1092.391375,-2590.720797,4749.792088,7846.182985
1092.391705,-2146.597232,6435.202183,9918.759623
1092.392034,-592.164754,4366.744339,11325.150913
1092.392364,-814.226536,2374.896044,8956.491898
1092.392694,-2294.638420,-919.314598,5403.503377
1092.393023,-1776.494261,-4749.792088,4589.276840
1092.393353,0.000000,-3294.210641,7179.997637
1092.393683,1258.350101,-1685.410096,9696.697840
1092.394012,1480.411884,842.705048,10140.821405
1092.394342,-518.144159,1915.238745,10732.986159
1092.394672,-2368.659014,2757.943793,11029.068536
1092.395001,-2812.782580,3753.867940,11177.109724
1092.395331,-2738.761985,3600.648841,12805.562797
1092.395661,-2368.659014,2834.553343,13545.768739
1092.395990,-3701.029710,459.657299,13027.624579
1092.396320,-4737.318029,-2451.505594,11769.274478
1092.396650,-4441.235652,-3294.210641,10066.800811
1092.396979,-2368.659014,-3753.867940,9474.636058
1092.397309,592.164754,-2145.067394,10510.924376
1092.397639,3108.864956,-459.657299,11473.192101
1092.397968,2146.597232,1608.800546,11473.192101
1092.398298,-592.164754,3907.087040,11251.130318
1092.398628,-2294.638420,4903.011187,11843.295072
1092.398957,-1702.473667,6281.983084,13397.727550
1092.399287,-1258.350101,5362.668486,13101.645173
1092.399617,-2146.597232,2298.286494,10510.924376
1092.399946,-2368.659014,-766.095498,7105.977043
1092.400276,-1332.370696,-4213.525239,4737.318029
1092.400606,962.267725,-3447.429741,5107.421000
1092.400935,2146.597232,-842.705048,6291.750507
1092.401265,2368.659014,689.485948,6809.894666
1092.401595,1184.329507,2451.505594,6735.874072
1092.401924,-1628.453072,3907.087040,6143.709319
1092.402254,-2442.679609,4903.011187,7772.162391
1092.402584,-1998.556043,4366.744339,10510.924376
1092.402913,-2664.741391,3677.258390,11029.068536
1092.403243,-4959.379811,2374.896044,9178.553681
1092.403573,-5477.523971,-229.828649,6587.832884
1092.403902,-3108.864956,-3447.429741,4737.318029
1092.404232,-222.061783,-4443.353888,6069.688724
1092.404562,1776.494261,-2834.553343,7772.162391
1092.404891,2072.576638,-612.876398,8216.285956
1092.405221,592.164754,1225.752797,9104.533087
1092.405551,-1850.514855,3907.087040,10732.986159
1092.405880,-2960.823768,6052.154434,12583.501014
1092.406210,-2516.700203,4903.011187,14211.954086
1092.406539,-1702.473667,2528.115143,13767.830521
1092.406869,-2516.700203,-229.828649,12731.542202
1092.407198,-3627.009116,-1991.848295,10510.924376
1092.407528,-2812.782580,-4519.963438,8882.471304
1092.407858,-148.041188,-4596.572988,10510.924376
1092.408187,2368.659014,-1608.800546,11843.295072
1092.408517,2220.617826,995.924147,12361.439231
1092.408846,222.061783,2145.067394,10658.965565
1092.409176,-2516.700203,2757.943793,10362.883188
1092.409506,-3256.906145,4443.353888,12805.562797
1092.409835,-2368.659014,5515.887586,14508.036463
1092.410165,-2442.679609,4366.744339,12805.562797
1092.410494,-3923.091493,-536.266849,9696.697840
1092.410824,-4441.235652,-2068.457845,7105.977043
1092.411154,-1924.535449,-3064.381992,5625.565159
1092.411483,2664.741391,-3753.867940,5995.668130
1092.411813,5033.400406,-2145.067394,6587.832884
1092.412142,3478.967927,2911.162892,7105.977043
1092.412472,1110.308913,5515.887586,7328.038826
1092.412802,-592.164754,4903.011187,7920.203579
1092.413131,-962.267725,6818.249932,8734.430116
1092.413461,0.000000,7584.345430,9548.656652
1092.413790,370.102971,3907.087040,9474.636058
1092.414120,-1184.329507,229.828649,7846.182985
1092.414449,-2960.823768,-1762.019645,5181.441594
1092.414779,-3034.844362,-3370.820191,3997.112087
1092.415109,-1036.288319,-3217.601092,5847.626942
1092.415438,1184.329507,-919.314598,9030.512492
1092.415768,1184.329507,1302.362347,9474.636058
1092.416097,-1110.308913,766.095498,9030.512492
1092.416427,-3034.844362,2374.896044,8808.450710
1092.416757,-3256.906145,4519.963438,11917.315666
1092.417086,-2590.720797,5286.058936,14434.015869
1092.417416,-3404.947333,2451.505594,14063.912898
1092.417745,-4663.297435,-459.657299,10732.986159
1092.418075,-4515.256246,-3983.696590,7920.203579
1092.418405,-2072.576638,-5362.668486,8364.327145
1092.418734,1776.494261,-4673.182538,11177.109724
1092.419064,2812.782580,-2145.067394,11769.274478
1092.419393,1628.453072,689.485948,11547.212695
1092.419723,-1110.308913,2374.896044,11695.253884
1092.420053,-1332.370696,3677.258390,13101.645173
1092.420382,-1406.391290,6052.154434,14285.974681
1092.420712,-1184.329507,5669.106685,14656.077652
1092.421041,-1332.370696,3524.039291,13101.645173
1092.421371,-2072.576638,-229.828649,10362.883188
1092.421700,-2664.741391,-2987.772442,7846.182985
1092.422030,-2368.659014,-3753.867940,6883.915261
1092.422360,148.041188,-2911.162892,7920.203579
1092.422689,2516.700203,-1302.362347,8216.285956
1092.423019,2072.576638,995.924147,7402.059420
1092.423348,74.020594,2068.457845,7031.956449
1092.423678,-1406.391290,3217.601092,7402.059420
1092.424008,-148.041188,4213.525239,9696.697840
1092.424337,296.082377,4979.620737,10066.800811
1092.424667,-1258.350101,5515.887586,8882.471304
1092.424996,-2368.659014,1225.752797,6883.915261
1092.425326,-1924.535449,-1455.581446,4811.338623
1092.425656,-444.123565,-2834.553343,5181.441594
1092.425985,1110.308913,-2681.334243,6143.709319
1092.426315,2072.576638,-842.705048,7328.038826
1092.426644,814.226536,1838.629195,8882.471304
1092.426974,-2146.597232,3447.429741,9474.636058
1092.427303,-4441.235652,2604.724693,9548.656652
1092.427633,-3552.988522,3064.381992,11251.130318
1092.427963,-2590.720797,3907.087040,12731.542202
1092.428292,-2812.782580,2068.457845,11991.336260
1092.428622,-3701.029710,-1685.410096,9252.574275
1092.428951,-2664.741391,-4443.353888,7698.141797
1092.429281,-444.123565,-3064.381992,7550.100608
1092.429611,222.061783,-1455.581446,8808.450710
1092.429940,1036.288319,-1225.752797,11103.089130
1092.430270,666.185348,766.095498,13249.686362
1092.430599,-1480.411884,3677.258390,13545.768739
1092.430929,-2738.761985,4060.306139,12953.603985
1092.431259,-2812.782580,4443.353888,13915.871710
1092.431588,-1776.494261,3294.210641,15100.201217
1092.431918,-1406.391290,766.095498,13397.727550
1092.432247,-2442.679609,-2451.505594,11103.089130
1092.432577,-2664.741391,-1608.800546,7624.121203
1092.432907,-444.123565,-1455.581446,7105.977043
1092.433236,3034.844362,-2757.943793,9104.533087
1092.433566,4515.256246,306.438199,8216.285956
1092.433895,1924.535449,2528.115143,7476.080014
1092.434225,-518.144159,2681.334243,7105.977043
1092.434554,-1628.453072,4519.963438,9252.574275
1092.434884,-1332.370696,5745.716235,11547.212695
1092.435214,-1480.411884,4213.525239,10510.924376
1092.435543,-3108.864956,1149.143247,7328.038826
1092.435873,-3478.967927,-1072.533697,5625.565159
1092.436202,-2294.638420,-2451.505594,4367.215058
1092.436532,-962.267725,-4213.525239,5033.400406
1092.436862,814.226536,-1685.410096,5995.668130
1092.437191,1184.329507,306.438199,7328.038826
1092.437521,148.041188,1149.143247,7846.182985
1092.437850,-2146.597232,2757.943793,9400.615463
1092.438180,-2812.782580,3524.039291,10881.027347
1092.438510,-2738.761985,4443.353888,12361.439231
1092.438839,-2516.700203,3907.087040,12287.418637
1092.439169,-2220.617826,1149.143247,10510.924376
1092.439498,-2072.576638,-2451.505594,7920.203579
1092.439828,-1184.329507,-4903.011187,6365.771101
1092.440158,666.185348,-3677.258390,7179.997637
1092.440487,2886.803174,-1991.848295,8956.491898
1092.440817,4145.153275,-153.219100,11251.130318
1092.441146,2294.638420,2451.505594,12731.542202
1092.441476,-1480.411884,3064.381992,12065.356855
1092.441805,-2960.823768,4290.134789,13619.789333
1092.442135,-2072.576638,3677.258390,16580.613101
1092.442465,-1258.350101,3370.820191,15544.324782
1092.442794,-2960.823768,0.000000,12805.562797
1092.443124,-4219.173869,-3140.991542,9474.636058
1092.443453,-2664.741391,-2834.553343,7772.162391
1092.443783,666.185348,-3217.601092,7994.224174
1092.444113,2960.823768,-2221.676944,7846.182985
1092.444442,2590.720797,995.924147,7846.182985
1092.444772,592.164754,2604.724693,8290.306550
1092.445101,-1480.411884,3447.429741,9548.656652
1092.445431,-3108.864956,5286.058936,10881.027347
1092.445761,-2812.782580,7354.516781,10436.903782
1092.446090,-1036.288319,4290.134789,10658.965565
1092.446420,-1184.329507,689.485948,9474.636058
1092.446749,-2368.659014,-229.828649,6291.750507
1092.447079,-2516.700203,-2451.505594,3997.112087
1092.447409,0.000000,-3140.991542,4293.194464
1092.447738,2812.782580,-383.047749,6883.915261
1092.448068,2738.761985,1991.848295,7920.203579
1092.448397,296.082377,2911.162892,7624.121203
1092.448727,-2368.659014,3524.039291,7328.038826
1092.449056,-2886.803174,5362.668486,9400.615463
1092.449386,-2146.597232,4826.401637,11843.295072
1092.449716,-2146.597232,2911.162892,12731.542202
1092.450045,-3108.864956,842.705048,10732.986159
1092.450375,-4293.194464,-1762.019645,5403.503377
1092.450704,-3404.947333,-2834.553343,2738.761985
1092.451034,-296.082377,-4060.306139,6291.750507
1092.451364,2664.741391,-2834.553343,10807.006753
1092.451693,1554.432478,1378.971896,13397.727550
1092.452023,-2738.761985,3677.258390,12953.603985
1092.452352,-5255.462188,5056.230287,12361.439231
1092.452682,-3701.029710,5132.839837,13323.706956
1092.453012,-518.144159,2068.457845,13767.830521
1092.453341,-444.123565,-1072.533697,13767.830521
1092.453671,-2738.761985,-383.047749,12509.480420
1092.454000,-3997.112087,-766.095498,11177.109724
1092.454330,-2220.617826,-2987.772442,9918.759623
1092.454659,296.082377,-2145.067394,9252.574275
1092.454989,2738.761985,-1302.362347,8142.265362
1092.455319,4367.215058,-1608.800546,7772.162391
1092.455648,3775.050304,153.219100,8734.430116
1092.455978,444.123565,4673.182538,9770.718434
1092.456307,-2590.720797,6358.592633,11695.253884
1092.456637,-2220.617826,5439.278036,12657.521608
1092.456967,-1850.514855,5286.058936,12509.480420
1092.457296,-2812.782580,2451.505594,9696.697840
1092.457626,-3182.885551,-1149.143247,5181.441594
1092.457955,-1258.350101,-3677.258390,3849.070898
1092.458285,1480.411884,-4596.572988,5181.441594
1092.458615,1998.556043,-1455.581446,7105.977043
1092.458944,-296.082377,1608.800546,7254.018232
1092.459274,-2960.823768,3140.991542,7402.059420
1092.459603,-4737.318029,3524.039291,8290.306550
1092.459933,-3552.988522,4136.915689,10140.821405
1092.460263,-1702.473667,4060.306139,10807.006753
1092.460592,-1332.370696,1762.019645,9622.677246
1092.460922,-2516.700203,-306.438199,7179.997637
1092.461251,-3552.988522,-2374.896044,5625.565159
1092.461581,-1480.411884,-2757.943793,5847.626942
1092.461910,1554.432478,-1685.410096,8290.306550
1092.462240,3330.926739,0.000000,10066.800811
1092.462570,1924.535449,1225.752797,11325.150913
1092.462899,-1036.288319,2298.286494,11177.109724
1092.463229,-2368.659014,3447.429741,11843.295072
1092.463558,-1850.514855,4673.182538,13989.892304
1092.463888,-1332.370696,3524.039291,15618.345376
1092.464218,-2516.700203,1532.190996,14582.057057
1092.464547,-3923.091493,-1302.362347,12065.356855
1092.464877,-3256.906145,-2834.553343,9918.759623
1092.465206,-592.164754,-2911.162892,8882.471304
1092.465536,3034.844362,-2987.772442,9252.574275
1092.465866,4663.297435,-1302.362347,8660.409521
1092.466195,3108.864956,229.828649,8882.471304
1092.466525,370.102971,1991.848295,9622.677246
1092.466854,-1184.329507,5209.449386,10732.986159
1092.467184,-814.226536,6281.983084,12065.356855
1092.467514,1036.288319,5286.058936,12879.583391
1092.467843,296.082377,1838.629195,11547.212695
1092.468173,-1702.473667,-229.828649,8512.368333
1092.468502,-2368.659014,-1225.752797,4885.359217
1092.468832,-370.102971,-2221.676944,5255.462188
1092.469161,2738.761985,-612.876398,7254.018232
1092.469491,3997.112087,1455.581446,7846.182985
1092.469821,2072.576638,1838.629195,6587.832884
1092.470150,-592.164754,1991.848295,5995.668130
1092.470480,-2886.803174,3600.648841,7698.141797
1092.470809,-2738.761985,5362.668486,11325.150913
1092.471139,-2590.720797,4290.134789,12213.398043
1092.471469,-3108.864956,2221.676944,10510.924376
1092.471798,-4219.173869,689.485948,5033.400406
1092.472128,-3552.988522,-3447.429741,888.247130
1092.472457,740.205942,-5515.887586,3478.967927
1092.472787,3034.844362,-2528.115143,8068.244768
1092.473117,2146.597232,1608.800546,10807.006753
1092.473446,-1850.514855,2604.724693,10807.006753
1092.473776,-4663.297435,3140.991542,11843.295072
1092.474105,-4663.297435,5132.839837,13397.727550
1092.474435,-2738.761985,3753.867940,14804.118840
1092.474764,-1480.411884,536.266849,15396.283594
1092.475094,-2738.761985,766.095498,13767.830521
1092.475424,-4885.359217,-919.314598,11621.233289
1092.475753,-4145.153275,-3677.258390,10066.800811
1092.476083,-1258.350101,-3600.648841,9622.677246
1092.476412,1110.308913,-2221.676944,8956.491898
1092.476742,2886.803174,-1378.971896,8290.306550
1092.477072,2738.761985,229.828649,9030.512492
1092.477401,888.247130,2528.115143,10436.903782
1092.477731,-2072.576638,3524.039291,11769.274478
1092.478060,-3404.947333,5209.449386,13619.789333
1092.478390,-2886.803174,5592.497135,13323.706956
1092.478720,-3108.864956,2298.286494,11843.295072
1092.479049,-2442.679609,-1991.848295,8364.327145
1092.479379,-1406.391290,-2528.115143,5625.565159
1092.479708,1110.308913,-3600.648841,5773.606348
1092.480038,4145.153275,-1838.629195,7179.997637
1092.480368,3478.967927,1915.238745,7624.121203
1092.480697,740.205942,3907.087040,8068.244768
1092.481027,-1850.514855,4290.134789,8512.368333
1092.481356,-2368.659014,5592.497135,9326.594869
1092.481686,-1036.288319,5515.887586,9918.759623
1092.482015,-444.123565,2528.115143,9474.636058
1092.482345,-2146.597232,76.609550,7846.182985
1092.482675,-3478.967927,-612.876398,4811.338623
1092.483004,-2590.720797,-3370.820191,3182.885551
1092.483334,888.247130,-2528.115143,4293.194464
1092.483663,3256.906145,-536.266849,6291.750507
1092.483993,3404.947333,-1149.143247,8142.265362
1092.484323,296.082377,1608.800546,9918.759623
1092.484652,-3034.844362,3907.087040,12139.377449
1092.484982,-4219.173869,5286.058936,14285.974681
1092.485311,-4441.235652,5056.230287,15840.407159
1092.485641,-4589.276840,2604.724693,15026.180623
1092.485971,-3997.112087,-919.314598,13249.686362
1092.486300,-2368.659014,-4136.915689,9104.533087
1092.486630,0.000000,-4213.525239,7031.956449
1092.486959,2664.741391,-4366.744339,7031.956449
1092.487289,4367.215058,-3370.820191,9474.636058
1092.487619,4071.132681,1838.629195,11251.130318
1092.487948,1036.288319,3677.258390,11769.274478
1092.488278,-1036.288319,4903.011187,11843.295072
1092.488607,-2368.659014,5669.106685,13989.892304
1092.488937,-2368.659014,4213.525239,15988.448347
1092.489266,-2738.761985,2451.505594,14656.077652
1092.489596,-4145.153275,-536.266849,10881.027347
1092.489926,-3627.009116,-2528.115143,7254.018232
1092.490255,-1702.473667,-3370.820191,6143.709319
1092.490585,740.205942,-3217.601092,5995.668130
1092.490914,3404.947333,-306.438199,6069.688724
1092.491244,3701.029710,2068.457845,6365.771101
1092.491574,1776.494261,4519.963438,6143.709319
1092.491903,-740.205942,5592.497135,8142.265362
1092.492233,-1850.514855,5439.278036,12287.418637
1092.492562,-2664.741391,6818.249932,13841.851115
1092.492892,-5181.441594,6281.983084,10140.821405
1092.493222,-6069.688724,1378.971896,4663.297435
1092.493551,-4145.153275,-4749.792088,3182.885551
1092.493881,-1628.453072,-6741.640382,4145.153275
1092.494210,0.000000,-3600.648841,5773.606348
1092.494540,814.226536,-2221.676944,6217.729913
1092.494870,-740.205942,1532.190996,7179.997637
1092.495199,-2146.597232,4366.744339,9696.697840
1092.495529,-3108.864956,3524.039291,11843.295072
1092.495858,-2368.659014,4903.011187,12509.480420
1092.496188,-1850.514855,5362.668486,13175.665768
1092.496517,-1258.350101,3140.991542,13767.830521
1092.496847,-2738.761985,-536.266849,12287.418637
1092.497177,-3923.091493,-2528.115143,8734.430116
1092.497506,-1702.473667,-3907.087040,7550.100608
1092.497836,1850.514855,-3983.696590,9474.636058
1092.498165,4737.318029,-536.266849,10732.986159
1092.498495,4071.132681,76.609550,10807.006753
1092.498825,518.144159,-306.438199,11251.130318
1092.499154,-2368.659014,3753.867940,12953.603985
1092.499484,-3701.029710,6741.640382,15618.345376
1092.499813,-3404.947333,5592.497135,16358.551318
1092.500143,-3182.885551,2221.676944,14137.933492
1092.500473,-3627.009116,-1762.019645,10658.965565
1092.500802,-2220.617826,-4136.915689,7105.977043
1092.501132,296.082377,-4903.011187,5847.626942
1092.501461,2812.782580,-2757.943793,6439.791695
1092.501791,3256.906145,153.219100,7105.977043
1092.502120,2072.576638,2757.943793,7698.141797
1092.502450,370.102971,4366.744339,8290.306550
1092.502780,-888.247130,5209.449386,8660.409521
1092.503109,-1110.308913,6818.249932,9918.759623
1092.503439,-1184.329507,5898.935335,10955.047942
1092.503768,-2220.617826,2374.896044,10066.800811
1092.504098,-3478.967927,76.609550,6291.750507
1092.504428,-3256.906145,-2374.896044,3478.967927
1092.504757,-1258.350101,-4290.134789,3478.967927
1092.505087,518.144159,-3140.991542,5329.482782
1092.505416,1184.329507,-612.876398,7179.997637
1092.505746,666.185348,1378.971896,8068.244768
1092.506076,-2368.659014,2834.553343,8956.491898
1092.506405,-4515.256246,4979.620737,10658.965565
1092.506735,-4367.215058,5822.325785,12879.583391
1092.507064,-3849.070898,3983.696590,13249.686362
1092.507394,-3478.967927,1072.533697,11769.274478
1092.507724,-3552.988522,-1608.800546,8808.450710
1092.508053,-2368.659014,-3677.258390,6661.853478
1092.508383,-444.123565,-4749.792088,7402.059420
1092.508713,1850.514855,-3217.601092,10362.883188
1092.509042,2738.761985,0.000000,11103.089130
1092.509372,1554.432478,2987.772442,11695.253884
1092.509702,-370.102971,3370.820191,12065.356855
1092.510031,-962.267725,4519.963438,14137.933492
1092.510361,-888.247130,4060.306139,16062.468941
1092.510691,-592.164754,3294.210641,16506.592507
1092.511020,-2442.679609,2068.457845,13841.851115
1092.511350,-3923.091493,-459.657299,10140.821405
1092.511680,-2738.761985,-2068.457845,7328.038826
1092.512009,666.185348,-4366.744339,6957.935855
1092.512339,3627.009116,-3600.648841,6809.894666
1092.512668,4959.379811,-76.609550,5847.626942
1092.512998,2738.761985,1762.019645,6883.915261
1092.513328,296.082377,2987.772442,11325.150913
1092.513657,-3701.029710,6741.640382,12731.542202
1092.513987,-5403.503377,9882.631924,10510.924376
1092.514317,-3849.070898,5132.839837,8364.327145
1092.514646,-2072.576638,-459.657299,7772.162391
1092.514976,-1258.350101,-1762.019645,5995.668130
1092.515306,-1406.391290,-4443.353888,3404.947333
1092.515635,-1258.350101,-4903.011187,2886.803174
1092.515965,148.041188,0.000000,4737.318029
1092.516295,1702.473667,2145.067394,6809.894666
1092.516624,888.247130,536.266849,9104.533087
1092.516954,-1776.494261,2834.553343,9178.553681
1092.517284,-3404.947333,6665.030833,9770.718434
1092.517613,-2146.597232,4826.401637,12213.398043
1092.517943,-1850.514855,2681.334243,13027.624579
1092.518272,-4219.173869,1608.800546,11473.192101
1092.518602,-4737.318029,-2911.162892,8216.285956
1092.518932,-2886.803174,-4519.963438,6809.894666
1092.519261,296.082377,-3447.429741,7920.203579
1092.519591,2960.823768,-2451.505594,9252.574275
1092.519921,2590.720797,-1762.019645,10436.903782
1092.520250,518.144159,1838.629195,11769.274478
1092.520580,-1332.370696,3983.696590,13989.892304
1092.520910,-1776.494261,5439.278036,15692.365970
1092.521239,-2738.761985,5745.716235,16876.695478
1092.521569,-3256.906145,2757.943793,16284.530724
1092.521899,-3997.112087,-536.266849,13545.768739
1092.522228,-3330.926739,-2451.505594,9474.636058
1092.522558,-1554.432478,-3600.648841,7105.977043
1092.522888,1480.411884,-4213.525239,6809.894666
1092.523217,4145.153275,-2068.457845,6883.915261
1092.523547,4367.215058,0.000000,7105.977043
1092.523876,2442.679609,2834.553343,8142.265362
1092.524206,-740.205942,6205.373534,9918.759623
1092.524536,-2220.617826,7890.783629,12213.398043
1092.524865,-1998.556043,7048.078582,13027.624579
1092.525195,-2516.700203,4903.011187,11843.295072
1092.525525,-2812.782580,1608.800546,8660.409521
1092.525854,-3404.947333,-2451.505594,4959.379811
1092.526184,-3478.967927,-3983.696590,2738.761985
1092.526514,-1332.370696,-3524.039291,3182.885551
1092.526843,2442.679609,-2145.067394,4737.318029
1092.527173,2368.659014,0.000000,5403.503377
1092.527503,-518.144159,2528.115143,5773.606348
1092.527832,-3478.967927,4596.572988,8216.285956
1092.528162,-4145.153275,5745.716235,10584.944971
1092.528492,-3108.864956,6818.249932,12731.542202
1092.528821,-3478.967927,4903.011187,12213.398043
1092.529151,-4589.276840,995.924147,10066.800811
1092.529480,-4219.173869,-3294.210641,6735.874072
1092.529810,-2072.576638,-5362.668486,5773.606348
1092.530140,222.061783,-4673.182538,7031.956449
1092.530469,3108.864956,-2221.676944,9548.656652
1092.530799,2294.638420,-612.876398,10881.027347
1092.531129,74.020594,1225.752797,12509.480420
1092.531458,-2516.700203,2834.553343,14211.954086
1092.531788,-2368.659014,5286.058936,16284.530724
1092.532118,-1258.350101,4979.620737,16358.551318
1092.532447,-814.226536,2604.724693,14952.160028
1092.532777,-1628.453072,-842.705048,12287.418637
1092.533107,-1924.535449,-3447.429741,9474.636058
1092.533436,-148.041188,-4673.182538,8068.244768
1092.533766,1628.453072,-2911.162892,8512.368333
1092.534096,3775.050304,-153.219100,9770.718434
1092.534425,2886.803174,1302.362347,9474.636058
1092.534755,-1184.329507,1991.848295,8660.409521
1092.535084,-3627.009116,3600.648841,10584.944971
1092.535414,-3552.988522,7354.516781,12065.356855
1092.535744,-2516.700203,5975.544884,12509.480420
1092.536073,-2738.761985,2604.724693,10658.965565
1092.536403,-3701.029710,76.609550,7624.121203
1092.536733,-3034.844362,-2145.067394,3701.029710
1092.537062,-888.247130,-5209.449386,1998.556043
1092.537392,1702.473667,-3600.648841,4441.235652
1092.537722,2442.679609,1532.190996,5995.668130
1092.538051,1850.514855,2681.334243,7328.038826
1092.538381,-370.102971,2528.115143,7254.018232
1092.538711,-2738.761985,5056.230287,8068.244768
1092.539040,-3108.864956,6435.202183,9992.780217
1092.539370,-1776.494261,4673.182538,12065.356855
1092.539700,-1924.535449,2681.334243,11177.109724
1092.540029,-3552.988522,-383.047749,8512.368333
1092.540359,-3701.029710,-3447.429741,5477.523971
1092.540689,-2072.576638,-4213.525239,5403.503377
1092.541018,1332.370696,-2911.162892,7402.059420
1092.541348,2664.741391,-1149.143247,9326.594869
1092.541677,2146.597232,1149.143247,10436.903782
1092.542007,0.000000,2374.896044,11473.192101
1092.542337,-1776.494261,2681.334243,13767.830521
1092.542666,-2294.638420,5209.449386,17098.757260
1092.542996,-2368.659014,6128.763984,18431.127956
1092.543326,-3256.906145,2681.334243,15618.345376
1092.543655,-3701.029710,-1225.752797,11917.315666
1092.543985,-2146.597232,-2221.676944,8586.388927
1092.544315,1702.473667,-3907.087040,7476.080014
1092.544644,3923.091493,-4443.353888,8660.409521
1092.544974,3627.009116,-306.438199,9104.533087
1092.545304,814.226536,3140.991542,9622.677246
1092.545633,-1628.453072,3983.696590,9992.780217
1092.545963,-2442.679609,4749.792088,11473.192101
1092.546293,-1628.453072,6205.373534,13175.665768
1092.546622,-1332.370696,4749.792088,12509.480420
1092.546952,-1924.535449,1455.581446,9548.656652
1092.547281,-3256.906145,-766.095498,6513.812290
1092.547611,-2590.720797,-1608.800546,4811.338623
1092.547941,-592.164754,-2528.115143,5181.441594
1092.548270,1480.411884,-995.924147,4885.359217
1092.548600,2368.659014,919.314598,5033.400406
1092.548930,962.267725,1378.971896,5625.565159
1092.549259,-1258.350101,2374.896044,6587.832884
1092.549589,-3330.926739,4136.915689,9178.553681
1092.549919,-3997.112087,5209.449386,11251.130318
1092.550248,-4145.153275,4903.011187,11843.295072
1092.550578,-4811.338623,1991.848295,9770.718434
1092.550908,-5181.441594,-2298.286494,6439.791695
1092.551237,-3923.091493,-3983.696590,4441.235652
1092.551567,-1258.350101,-3983.696590,6439.791695
1092.551897,1184.329507,-1915.238745,8290.306550
1092.552226,1554.432478,0.000000,9474.636058
1092.552556,-518.144159,1532.190996,10732.986159
1092.552885,-2812.782580,2757.943793,12139.377449
1092.553215,-3404.947333,4290.134789,13545.768739
1092.553545,-2294.638420,3983.696590,15470.304188
1092.553874,-666.185348,2221.676944,15914.427753
1092.554204,-1110.308913,-689.485948,13915.871710
1092.554534,-1332.370696,-3600.648841,10732.986159
1092.554863,296.082377,-3677.258390,9548.656652
1092.555193,1776.494261,-2451.505594,9696.697840
1092.555523,3108.864956,612.876398,9548.656652
1092.555852,3182.885551,229.828649,9844.739029
1092.556182,2294.638420,1072.533697,11621.233289
1092.556512,-962.267725,3907.087040,12213.398043
1092.556841,-3849.070898,4366.744339,12879.583391
1092.557171,-4293.194464,4903.011187,13175.665768
1092.557501,-2738.761985,4519.963438,12435.459826
1092.557830,-1776.494261,-459.657299,9326.594869
1092.558160,-814.226536,-4366.744339,4737.318029
1092.558489,-962.267725,-3140.991542,2146.597232
1092.558819,1036.288319,-1225.752797,3552.988522
1092.559149,3404.947333,0.000000,6439.791695
1092.559478,3108.864956,2911.162892,6957.935855
1092.559808,296.082377,3524.039291,7179.997637
1092.560138,-1628.453072,3064.381992,7994.224174
1092.560467,-2886.803174,5362.668486,10362.883188
1092.560797,-2516.700203,4903.011187,12065.356855
1092.561127,-2664.741391,2451.505594,11547.212695
1092.561456,-3849.070898,1149.143247,8660.409521
1092.561786,-3775.050304,-1302.362347,4885.359217
1092.562116,-1406.391290,-4060.306139,3923.091493
1092.562445,1110.308913,-3370.820191,5551.544565
1092.562775,2294.638420,229.828649,7476.080014
1092.563105,1850.514855,1608.800546,9326.594869
1092.563434,-444.123565,2451.505594,10288.862594
1092.563764,-3478.967927,4519.963438,11843.295072
1092.564093,-4737.318029,4213.525239,14656.077652
1092.564423,-4959.379811,3447.429741,15544.324782
1092.564753,-4367.215058,1838.629195,14508.036463
1092.565082,-3330.926739,-1378.971896,11843.295072
1092.565412,-2368.659014,-3524.039291,8512.368333
1092.565742,-592.164754,-4903.011187,7920.203579
1092.566071,1332.370696,-4060.306139,9918.759623
1092.566401,2738.761985,0.000000,11843.295072
1092.566731,1776.494261,4519.963438,11843.295072
1092.567060,148.041188,4596.572988,11769.274478
1092.567390,-1332.370696,3370.820191,12361.439231
1092.567720,-2368.659014,3983.696590,14137.933492
1092.568049,-3034.844362,4443.353888,13841.851115
1092.568379,-2516.700203,2374.896044,11177.109724
1092.568709,-2664.741391,0.000000,7846.182985
1092.569038,-2886.803174,-2528.115143,5255.462188
1092.569368,-1036.288319,-4213.525239,4145.153275
1092.569697,2368.659014,-2911.162892,4885.359217
1092.570027,4219.173869,306.438199,5699.585753
1092.570357,2886.803174,4060.306139,5995.668130
1092.570686,-444.123565,3140.991542,7179.997637
1092.571016,-2738.761985,3983.696590,9622.677246
1092.571346,-3627.009116,5822.325785,11547.212695
1092.571675,-4441.235652,5515.887586,11029.068536
1092.572005,-3404.947333,2834.553343,8956.491898
1092.572335,-2146.597232,-2451.505594,6735.874072
1092.572664,-1406.391290,-4749.792088,4515.256246
1092.572994,-148.041188,-5056.230287,3775.050304
1092.573324,1776.494261,-2374.896044,5995.668130
1092.573653,3701.029710,995.924147,8364.327145
1092.573983,2220.617826,2604.724693,10436.903782
1092.574313,-962.267725,3447.429741,11473.192101
1092.574642,-2442.679609,4443.353888,11843.295072
1092.574972,-2146.597232,3753.867940,14137.933492
1092.575301,-1480.411884,2834.553343,14656.077652
1092.575631,-1850.514855,0.000000,14137.933492
1092.575961,-1702.473667,-2757.943793,11769.274478
1092.576290,-1332.370696,-3983.696590,8512.368333
1092.576620,-740.205942,-3830.477490,7254.018232
1092.576950,1332.370696,-2068.457845,9474.636058
1092.577279,3849.070898,306.438199,12287.418637
1092.577609,2442.679609,2298.286494,12731.542202
1092.577939,-1036.288319,2911.162892,13101.645173
1092.578268,-4145.153275,4979.620737,13545.768739
1092.578598,-4145.153275,6358.592633,15248.242405
1092.578928,-2738.761985,3064.381992,14211.954086
1092.579257,-2368.659014,-306.438199,11177.109724
1092.579587,-3108.864956,-1072.533697,6513.812290
1092.579917,-2368.659014,-2528.115143,4367.215058
1092.580246,370.102971,-4290.134789,5033.400406
1092.580576,2368.659014,-1378.971896,5625.565159
1092.580905,2886.803174,2681.334243,4959.379811
1092.581235,2072.576638,2987.772442,5477.523971
1092.581565,-222.061783,3524.039291,7402.059420
1092.581894,-2294.638420,5362.668486,9918.759623
1092.582224,-4145.153275,5592.497135,11769.274478
1092.582554,-4589.276840,4826.401637,11325.150913
1092.582883,-4515.256246,2757.943793,9400.615463
1092.583213,-4367.215058,-1915.238745,6439.791695
1092.583543,-3182.885551,-4366.744339,3923.091493
1092.583872,-814.226536,-2987.772442,3627.009116
1092.584202,2368.659014,-1991.848295,5329.482782
1092.584532,3849.070898,76.609550,7624.121203
1092.584861,1184.329507,3064.381992,9622.677246
1092.585191,-2812.782580,4290.134789,11029.068536
1092.585521,-5181.441594,4366.744339,12213.398043
1092.585850,-5033.400406,4749.792088,14730.098246
1092.586180,-3182.885551,3753.867940,14508.036463
1092.586510,-1924.535449,-689.485948,11843.295072
1092.586839,-1554.432478,-4979.620737,8290.306550
1092.587169,-814.226536,-6435.202183,7105.977043
1092.587498,814.226536,-4290.134789,9696.697840
1092.587828,3627.009116,0.000000,11769.274478
1092.588158,4367.215058,2451.505594,12287.418637
1092.588487,2368.659014,3524.039291,12657.521608
1092.588817,296.082377,3294.210641,13397.727550
1092.589147,-740.205942,4136.915689,14730.098246
1092.589476,-1776.494261,3983.696590,15840.407159
1092.589806,-2960.823768,3447.429741,13767.830521
1092.590136,-3775.050304,2298.286494,11843.295072
1092.590465,-2960.823768,-1991.848295,7476.080014
1092.590795,-888.247130,-6511.811733,3627.009116
1092.591125,1998.556043,-5898.935335,3552.988522
1092.591454,4293.194464,-919.314598,4737.318029
1092.591784,4885.359217,2987.772442,6069.688724
1092.592114,2146.597232,3370.820191,7328.038826
1092.592443,-1480.411884,4979.620737,8586.388927
1092.592773,-3256.906145,6818.249932,9622.677246
1092.593102,-2886.803174,6205.373534,11399.171507
1092.593432,-2960.823768,3064.381992,11547.212695
1092.593762,-3701.029710,229.828649,9770.718434
1092.594091,-5255.462188,-2451.505594,5551.544565
1092.594421,-4515.256246,-5822.325785,2590.720797
1092.594751,-1036.288319,-4979.620737,4367.215058
1092.595080,1998.556043,-689.485948,5995.668130
1092.595410,2738.761985,2451.505594,7550.100608
1092.595740,740.205942,2911.162892,7846.182985
1092.596069,-2072.576638,3983.696590,8882.471304
1092.596399,-3404.947333,6511.811733,11029.068536
1092.596729,-3701.029710,6052.154434,14137.933492
1092.597058,-4515.256246,3524.039291,15100.201217
1092.597388,-6587.832884,-995.924147,14063.912898
1092.597718,-8216.285956,-4290.134789,11917.315666
1092.598047,-8586.388927,-5669.106685,9326.594869
1092.598377,-6217.729913,-5286.058936,9030.512492
1092.598706,-2516.700203,-4596.572988,9992.780217
1092.599036,222.061783,-2451.505594,11251.130318
1092.599366,74.020594,1149.143247,10955.047942
1092.599695,-1110.308913,3294.210641,10732.986159
1092.600025,-1702.473667,6894.859482,12509.480420
1092.600355,-1776.494261,8733.488677,14359.995275
1092.600684,-1258.350101,7431.126331,14211.954086
1092.601014,-1776.494261,2068.457845,11769.274478
1092.601344,-3182.885551,0.000000,9178.553681
1092.601673,-5477.523971,-1991.848295,7550.100608
1092.602003,-6439.791695,-4596.572988,7698.141797
1092.602333,-6291.750507,-3370.820191,9178.553681
1092.602662,-6069.688724,76.609550,7994.224174
1092.602992,-5329.482782,1225.752797,6957.935855
1092.603322,-4441.235652,689.485948,6883.915261
1092.603651,-4145.153275,3907.087040,6883.915261
1092.603981,-4071.132681,5209.449386,7179.997637
1092.604310,-3701.029710,4596.572988,6883.915261
1092.604640,-3552.988522,4979.620737,6957.935855
1092.604970,-3552.988522,2221.676944,6439.791695
1092.605299,-3034.844362,-1302.362347,6143.709319
1092.605629,-2590.720797,-2374.896044,5625.565159
1092.605959,-2664.741391,-1838.629195,6291.750507
1092.606288,-2812.782580,-766.095498,8068.244768
1092.606618,-2738.761985,1455.581446,11177.109724
1092.606948,-3256.906145,3677.258390,12361.439231
1092.607277,-3923.091493,2911.162892,12435.459826
1092.607607,-5329.482782,2834.553343,11843.295072
1092.607937,-6365.771101,3677.258390,11843.295072
1092.608266,-6291.750507,2681.334243,11769.274478
1092.608596,-4663.297435,229.828649,9992.780217
1092.608925,-2072.576638,-2451.505594,7402.059420
1092.609255,0.000000,-4366.744339,5773.606348
1092.609585,444.123565,-5056.230287,6809.894666
1092.609914,-518.144159,-3140.991542,8734.430116
1092.610244,-2516.700203,689.485948,12287.418637
1092.610574,-4441.235652,4979.620737,15396.283594
1092.610903,-4885.359217,7890.783629,16728.654289
1092.611233,-4737.318029,6281.983084,16580.613101
1092.611562,-4737.318029,4136.915689,14804.118840
1092.611892,-5181.441594,1378.971896,12139.377449
1092.612222,-6735.874072,-1608.800546,10658.965565
1092.612551,-7846.182985,-1149.143247,9770.718434
1092.612881,-7846.182985,-1915.238745,8438.347739
1092.613210,-5477.523971,-3600.648841,7179.997637
1092.613540,-3182.885551,-4519.963438,4515.256246
1092.613870,-1332.370696,-2451.505594,2886.803174
1092.614199,1480.411884,-229.828649,3701.029710
1092.614529,2664.741391,2298.286494,7328.038826
1092.614859,444.123565,6358.592633,10436.903782
1092.615188,-2886.803174,9499.584175,11103.089130
1092.615518,-5551.544565,8810.098227,11251.130318
1092.615847,-6143.709319,5362.668486,11177.109724
1092.616177,-5107.421000,2451.505594,9696.697840
1092.616507,-4071.132681,-995.924147,7698.141797
1092.616836,-3701.029710,-4596.572988,6587.832884
1092.617166,-4885.359217,-5822.325785,5995.668130
1092.617495,-6513.812290,-4060.306139,5699.585753
1092.617825,-6735.874072,-689.485948,5921.647536
1092.618155,-5403.503377,612.876398,7698.141797
1092.618484,-3404.947333,2451.505594,10140.821405
1092.618814,-2590.720797,4903.011187,10658.965565
1092.619143,-1998.556043,4596.572988,9918.759623
1092.619473,-1110.308913,3370.820191,10658.965565
1092.619803,-2664.741391,3140.991542,12435.459826
1092.620132,-5329.482782,3370.820191,13027.624579
1092.620462,-7624.121203,1685.410096,11991.336260
1092.620792,-8364.327145,-612.876398,10584.944971
1092.621121,-7254.018232,-1455.581446,10214.842000
1092.621451,-4811.338623,-3830.477490,10732.986159
1092.621780,-3108.864956,-3294.210641,9474.636058
1092.622110,-2220.617826,-1991.848295,7476.080014
1092.622440,-1406.391290,-612.876398,8290.306550
1092.622769,-1628.453072,2451.505594,11399.171507
1092.623099,-2960.823768,4749.792088,13323.706956
1092.623428,-5403.503377,5056.230287,13101.645173
1092.623758,-6513.812290,3753.867940,12509.480420
1092.624088,-6143.709319,2757.943793,12065.356855
1092.624417,-4737.318029,459.657299,11029.068536
1092.624747,-4145.153275,-2221.676944,8438.347739
1092.625076,-3478.967927,-2987.772442,5107.421000
1092.625406,-1850.514855,-2068.457845,4959.379811
1092.625736,-296.082377,-383.047749,6883.915261
1092.626065,-962.267725,2068.457845,8290.306550
1092.626395,-3997.112087,3524.039291,8808.450710
1092.626725,-6365.771101,4979.620737,9474.636058
1092.627054,-7476.080014,5286.058936,10807.006753
1092.627384,-7402.059420,3600.648841,10955.047942
1092.627713,-6661.853478,306.438199,10214.842000
1092.628043,-5033.400406,-2757.943793,8290.306550
1092.628373,-3034.844362,-3907.087040,6809.894666
1092.628702,-1406.391290,-3677.258390,5847.626942
1092.629032,666.185348,-1685.410096,6439.791695
1092.629361,2072.576638,153.219100,7698.141797
1092.629691,1332.370696,2068.457845,9696.697840
1092.630021,-296.082377,5362.668486,11177.109724
1092.630350,-2442.679609,6052.154434,12361.439231
1092.630680,-4663.297435,5132.839837,12953.603985
1092.631009,-5921.647536,3830.477490,13101.645173
1092.631339,-6883.915261,2068.457845,11547.212695
1092.631669,-5329.482782,-689.485948,9104.533087
1092.631998,-3256.906145,-3600.648841,7402.059420
1092.632328,-2368.659014,-4366.744339,7105.977043
1092.632658,-2294.638420,-1838.629195,7550.100608
1092.632987,-1628.453072,-153.219100,7846.182985
1092.633317,-1554.432478,2221.676944,9030.512492
1092.633646,-2516.700203,4136.915689,10584.944971
1092.633976,-4737.318029,5439.278036,11991.336260
1092.634306,-7328.038826,4749.792088,12879.583391
1092.634635,-9474.636058,3600.648841,13693.809927
1092.634965,-10214.842000,1225.752797,13693.809927
1092.635294,-9030.512492,-995.924147,11473.192101
1092.635624,-7105.977043,-2987.772442,8734.430116
1092.635954,-3849.070898,-4673.182538,6587.832884
1092.636283,0.000000,-4366.744339,5107.421000
1092.636613,2886.803174,-689.485948,5107.421000
1092.636942,3701.029710,2987.772442,5699.585753
1092.637272,2368.659014,5745.716235,7550.100608
1092.637602,0.000000,8273.831378,9918.759623
1092.637931,-2146.597232,8044.002729,10955.047942
1092.638261,-4663.297435,4903.011187,12065.356855
1092.638591,-7550.100608,1149.143247,12435.459826
1092.638920,-9770.718434,0.000000,12213.398043
1092.639250,-11399.171507,-2451.505594,10214.842000
1092.639579,-10288.862594,-4979.620737,8068.244768
1092.639909,-7476.080014,-5745.716235,6217.729913
1092.640239,-4145.153275,-4596.572988,5255.462188
1092.640568,-740.205942,-1302.362347,5773.606348
1092.640898,444.123565,2451.505594,6513.812290
1092.641227,0.000000,5056.230287,8290.306550
1092.641557,-1184.329507,7660.954980,9474.636058
1092.641887,-2960.823768,7507.735880,11843.295072
1092.642216,-5921.647536,5515.887586,13989.892304
1092.642546,-8438.347739,2528.115143,13693.809927
1092.642876,-10288.862594,-459.657299,12213.398043
1092.643205,-10288.862594,-4366.744339,11399.171507
1092.643535,-8956.491898,-7124.688131,10436.903782
1092.643864,-6143.709319,-6435.202183,9252.574275
1092.644194,-2368.659014,-3524.039291,7476.080014
1092.644524,296.082377,-842.705048,6291.750507
1092.644853,2738.761985,1685.410096,7476.080014
1092.645183,3701.029710,4749.792088,9104.533087
1092.645512,3330.926739,7737.564530,10658.965565
1092.645842,1036.288319,7354.516781,11399.171507
1092.646172,-2294.638420,5132.839837,13101.645173
1092.646501,-5699.585753,1915.238745,14804.118840
1092.646831,-9474.636058,536.266849,13693.809927
1092.647160,-11251.130318,-1685.410096,10436.903782
1092.647490,-9622.677246,-5286.058936,7105.977043
1092.647820,-5921.647536,-6281.983084,5107.421000
1092.648149,-2664.741391,-4903.011187,4441.235652
1092.648479,-518.144159,-2221.676944,4663.297435
1092.648809,0.000000,2451.505594,5107.421000
1092.649138,-666.185348,7048.078582,7105.977043
1092.649468,-1628.453072,9652.803275,9474.636058
1092.649797,-3108.864956,9346.365076,12065.356855
1092.650127,-5551.544565,6818.249932,12361.439231
1092.650457,-6587.832884,2528.115143,12213.398043
1092.650786,-7105.977043,-612.876398,12287.418637
1092.651116,-7772.162391,-2451.505594,11325.150913
1092.651445,-8512.368333,-3677.258390,9622.677246
1092.651775,-6217.729913,-3677.258390,8216.285956
1092.652105,-3034.844362,-766.095498,7402.059420
1092.652434,518.144159,995.924147,6809.894666
1092.652764,2516.700203,2451.505594,7105.977043
1092.653093,2368.659014,6128.763984,7994.224174
1092.653423,888.247130,8273.831378,9548.656652
1092.653753,-518.144159,7660.954980,11547.212695
1092.654082,-2664.741391,5975.544884,12435.459826
1092.654412,-4589.276840,4519.963438,12361.439231
1092.654742,-5551.544565,1685.410096,11399.171507
1092.655071,-5477.523971,-1225.752797,9548.656652
1092.655401,-4441.235652,-2528.115143,8438.347739
1092.655730,-3330.926739,-2068.457845,8142.265362
1092.656060,-3404.947333,766.095498,8142.265362
1092.656390,-3404.947333,2834.553343,8364.327145
1092.656719,-2590.720797,4443.353888,9548.656652
1092.657049,-2368.659014,6358.592633,10436.903782
1092.657378,-2294.638420,7354.516781,10658.965565
1092.657708,-2294.638420,5975.544884,11029.068536
1092.658038,-2220.617826,4903.011187,10955.047942
1092.658367,-814.226536,3753.867940,10510.924376
1092.658697,-888.247130,2451.505594,8956.491898
1092.659026,-814.226536,1532.190996,7846.182985
1092.659356,-666.185348,1685.410096,7772.162391
1092.659686,296.082377,2528.115143,8956.491898
1092.660015,888.247130,5209.449386,9400.615463
1092.660345,-370.102971,7277.907231,9918.759623
1092.660675,-1702.473667,7584.345430,9918.759623
1092.661004,-2294.638420,7201.297681,9770.718434
1092.661334,-2664.741391,6435.202183,9104.533087
1092.661663,-3034.844362,5056.230287,7994.224174
1092.661993,-2220.617826,2604.724693,6661.853478
1092.662323,-1110.308913,689.485948,6143.709319
1092.662652,-1110.308913,0.000000,7031.956449
1092.662982,-1924.535449,612.876398,7920.203579
1092.663311,-3182.885551,2681.334243,8734.430116
1092.663641,-3701.029710,5286.058936,9844.739029
1092.663971,-3775.050304,6741.640382,11621.233289
1092.664300,-3108.864956,6971.469032,11991.336260
1092.664630,-1850.514855,6128.763984,11251.130318
1092.664959,-666.185348,4903.011187,10140.821405
1092.665289,74.020594,4443.353888,9844.739029
1092.665619,-370.102971,3447.429741,9992.780217
1092.665948,-370.102971,2834.553343,9622.677246
1092.666278,-296.082377,2681.334243,9104.533087
1092.666608,148.041188,2451.505594,8660.409521
1092.666937,740.205942,2528.115143,9252.574275
1092.667267,1406.391290,1991.848295,9548.656652
1092.667596,0.000000,3217.601092,10510.924376
1092.667926,-1332.370696,5056.230287,11399.171507
1092.668256,-2072.576638,6358.592633,11843.295072
1092.668585,-1924.535449,6281.983084,11843.295072
1092.668915,-1184.329507,4673.182538,11029.068536
1092.669244,-1258.350101,4213.525239,9696.697840
1092.669574,-740.205942,3677.258390,8660.409521
1092.669904,-148.041188,3677.258390,8660.409521
1092.670233,74.020594,4903.011187,8586.388927
1092.670563,0.000000,4596.572988,7550.100608
1092.670893,-370.102971,3830.477490,6883.915261
1092.671222,-296.082377,2681.334243,6439.791695
1092.671552,-1036.288319,2298.286494,7254.018232
1092.671881,-1924.535449,2298.286494,8586.388927
1092.672211,-3478.967927,2604.724693,9400.615463
1092.672541,-4145.153275,2911.162892,9770.718434
1092.672870,-3923.091493,3677.258390,10584.944971
1092.673200,-2220.617826,4060.306139,11103.089130
1092.673529,-962.267725,4596.572988,10658.965565
1092.673859,-222.061783,5286.058936,9474.636058
1092.674189,370.102971,5362.668486,9400.615463
1092.674518,666.185348,6128.763984,9474.636058
1092.674848,592.164754,6205.373534,9474.636058
1092.675177,74.020594,6052.154434,8956.491898
1092.675507,-740.205942,4903.011187,8142.265362
1092.675837,-1406.391290,2451.505594,7698.141797
1092.676166,-1850.514855,919.314598,7476.080014
1092.676496,-2516.700203,0.000000,8068.244768
1092.676826,-2738.761985,-76.609550,9104.533087
1092.677155,-2590.720797,842.705048,9992.780217
1092.677485,-1998.556043,1991.848295,10584.944971
1092.677814,-370.102971,3064.381992,11473.192101
1092.678144,0.000000,4903.011187,11991.336260
1092.678474,0.000000,6665.030833,12657.521608
1092.678803,0.000000,7584.345430,12435.459826
1092.679133,222.061783,6511.811733,11177.109724
1092.679462,0.000000,5209.449386,10584.944971
1092.679792,-592.164754,3524.039291,9770.718434
1092.680122,-1776.494261,2757.943793,9252.574275
1092.680451,-2368.659014,2528.115143,8734.430116
1092.680781,-2220.617826,1915.238745,7698.141797
1092.681110,-1406.391290,1455.581446,7254.018232
1092.681440,-592.164754,995.924147,7624.121203
1092.681770,74.020594,2298.286494,8438.347739
1092.682099,148.041188,3830.477490,8660.409521
1092.682429,-444.123565,4979.620737,9326.594869
1092.682759,-888.247130,6665.030833,10658.965565
1092.683088,-1332.370696,7354.516781,12287.418637
1092.683418,-2146.597232,7354.516781,12509.480420
1092.683747,-3034.844362,6971.469032,11769.274478
1092.684077,-3701.029710,5898.935335,9622.677246
1092.684407,-2886.803174,4673.182538,7179.997637
1092.684736,-962.267725,2528.115143,4441.235652
1092.685066,2294.638420,459.657299,4219.173869
1092.685395,3256.906145,995.924147,4219.173869
1092.685725,2368.659014,2757.943793,5255.462188
1092.686055,222.061783,4290.134789,7550.100608
1092.686384,-2146.597232,6205.373534,9844.739029
1092.686714,-3627.009116,7277.907231,13027.624579
1092.687043,-4219.173869,7201.297681,14952.160028
1092.687373,-4293.194464,6052.154434,15100.201217
1092.687703,-4589.276840,4903.011187,13915.871710
1092.688032,-4885.359217,3370.820191,11325.150913
1092.688362,-3701.029710,2757.943793,9326.594869
1092.688692,-814.226536,1455.581446,7476.080014
1092.689021,2368.659014,1915.238745,5921.647536
1092.689351,4441.235652,2604.724693,4885.359217
1092.689680,4737.318029,3217.601092,5107.421000
1092.690010,3701.029710,4826.401637,7179.997637
1092.690340,74.020594,6435.202183,9918.759623
1092.690669,-3256.906145,8733.488677,13175.665768
1092.690999,-4737.318029,8580.269578,14508.036463
1092.691328,-4219.173869,5209.449386,14063.912898
1092.691658,-2368.659014,2221.676944,12139.377449
1092.691988,-1406.391290,612.876398,9770.718434
1092.692317,-444.123565,0.000000,7179.997637
1092.692647,-518.144159,536.266849,7254.018232
1092.692976,-740.205942,3294.210641,9178.553681
1092.693306,-1406.391290,6128.763984,9178.553681
1092.693636,-1480.411884,5286.058936,7254.018232
1092.693965,-666.185348,2681.334243,6217.729913
1092.694295,-296.082377,1225.752797,7402.059420
1092.694625,-1258.350101,2451.505594,10066.800811
1092.694954,-2072.576638,3907.087040,12139.377449
1092.695284,-2664.741391,4749.792088,12657.521608
1092.695613,-2664.741391,5592.497135,12509.480420
1092.695943,-1702.473667,4979.620737,11103.089130
1092.696273,-740.205942,3370.820191,8290.306550
1092.696602,888.247130,1685.410096,6291.750507
1092.696932,2294.638420,1378.971896,5699.585753
1092.697261,1924.535449,3524.039291,6957.935855
1092.697591,1850.514855,3983.696590,8290.306550
1092.697921,814.226536,3907.087040,9474.636058
1092.698250,-1258.350101,4213.525239,11103.089130
1092.698580,-3034.844362,4903.011187,11843.295072
1092.698910,-3034.844362,5362.668486,11547.212695
1092.699239,-2072.576638,3217.601092,12139.377449
1092.699569,-1776.494261,2298.286494,12139.377449
1092.699898,-2220.617826,2298.286494,10436.903782
1092.700228,-2146.597232,2528.115143,8586.388927
1092.700558,-1110.308913,3217.601092,8068.244768
1092.700887,-370.102971,5515.887586,7624.121203
1092.701217,888.247130,5209.449386,6957.935855
1092.701546,2664.741391,3064.381992,6291.750507
1092.701876,2886.803174,2298.286494,6069.688724
1092.702206,962.267725,3983.696590,7846.182985
1092.702535,-444.123565,4979.620737,11621.233289
1092.702865,-2664.741391,6741.640382,14285.974681
1092.703194,-4737.318029,8656.879127,14730.098246
1092.703524,-4737.318029,7890.783629,13693.809927
1092.703854,-2368.659014,5669.106685,12065.356855
1092.704183,-1332.370696,2451.505594,10140.821405
1092.704513,-1924.535449,2068.457845,8068.244768
1092.704843,-3256.906145,3064.381992,6069.688724
1092.705172,-2738.761985,3753.867940,4885.359217
1092.705502,-962.267725,4290.134789,4441.235652
1092.705831,1258.350101,4136.915689,5033.400406
1092.706161,2146.597232,4290.134789,4737.318029
1092.706491,1776.494261,5056.230287,5107.421000
1092.706820,2368.659014,5669.106685,7624.121203
1092.707150,1258.350101,6894.859482,11399.171507
1092.707479,-1110.308913,7890.783629,14063.912898
1092.707809,-3182.885551,7431.126331,14804.118840
1092.708139,-3478.967927,4979.620737,14211.954086
1092.708468,-3552.988522,3600.648841,12435.459826
1092.708798,-3552.988522,2834.553343,10288.862594
1092.709127,-3478.967927,229.828649,8068.244768
1092.709457,-2516.700203,-689.485948,5625.565159
1092.709786,-1332.370696,-689.485948,3404.947333
1092.710116,1406.391290,-1378.971896,2960.823768
1092.710445,3256.906145,-306.438199,4293.194464
1092.710775,2516.700203,2068.457845,6291.750507
1092.711104,2220.617826,4903.011187,10140.821405
1092.711434,1628.453072,5515.887586,13693.809927
1092.711764,814.226536,5975.544884,16876.695478
1092.712093,-1110.308913,6741.640382,18209.066173
1092.712423,-3478.967927,4903.011187,17024.736666
1092.712752,-4737.318029,2451.505594,14063.912898
1092.713082,-4515.256246,-689.485948,11325.150913
1092.713411,-2960.823768,-3677.258390,7920.203579
1092.713741,-444.123565,-3907.087040,6217.729913
1092.714070,1776.494261,-3983.696590,5773.606348
1092.714400,3108.864956,229.828649,5033.400406
1092.714730,2738.761985,1915.238745,3849.070898
1092.715059,3182.885551,2987.772442,5625.565159
1092.715389,3478.967927,5056.230287,9992.780217
1092.715718,1480.411884,8120.612279,14211.954086
1092.716048,-1110.308913,10035.851024,15618.345376
1092.716377,-3701.029710,6971.469032,13397.727550
1092.716707,-5921.647536,1455.581446,11251.130318
1092.717036,-7402.059420,-2528.115143,9104.533087
1092.717366,-7328.038826,-5286.058936,7402.059420
1092.717695,-5329.482782,-6281.983084,4737.318029
1092.718025,-3256.906145,-5975.544884,2368.659014
1092.718355,-1702.473667,-5898.935335,1406.391290
1092.718684,1036.288319,-2834.553343,3849.070898
1092.719014,2664.741391,1838.629195,7920.203579
1092.719343,3552.988522,6665.030833,12657.521608
1092.719673,2220.617826,10189.070123,15396.283594
1092.720002,-740.205942,11874.480219,16802.674883
1092.720332,-2368.659014,8427.050478,16802.674883
1092.720661,-2442.679609,2911.162892,15396.283594
1092.720991,-1258.350101,153.219100,11621.233289
1092.721321,-296.082377,-2374.896044,7476.080014
1092.721650,-296.082377,-6205.373534,4737.318029
1092.721980,-1332.370696,-7967.393179,2516.700203
1092.722309,-814.226536,-7277.907231,3330.926739
1092.722639,1776.494261,-3677.258390,4959.379811
1092.722968,3701.029710,689.485948,7772.162391
1092.723298,2368.659014,3370.820191,11917.315666
1092.723627,0.000000,5362.668486,15100.201217
1092.723957,-2442.679609,8044.002729,16876.695478
1092.724286,-3552.988522,9652.803275,17912.983796
1092.724616,-3552.988522,6971.469032,17320.819043
1092.724946,-2516.700203,2451.505594,12879.583391
1092.725275,-2294.638420,-2374.896044,6513.812290
1092.725605,-518.144159,-7737.564530,1036.288319
1092.725934,2368.659014,-8656.879127,1110.308913
1092.726264,2664.741391,-5592.497135,3997.112087
1092.726593,1554.432478,-1225.752797,6587.832884
1092.726923,-666.185348,1685.410096,10881.027347
1092.727252,-3552.988522,4519.963438,13101.645173
1092.727582,-3552.988522,7201.297681,14359.995275
1092.727911,-1480.411884,7584.345430,15100.201217
1092.728241,370.102971,5362.668486,15026.180623
1092.728571,444.123565,4443.353888,13249.686362
1092.728900,-296.082377,2757.943793,8660.409521
1092.729230,148.041188,-383.047749,3849.070898
1092.729559,962.267725,-3064.381992,1554.432478
1092.729889,2146.597232,-3370.820191,2368.659014
1092.730218,2072.576638,-2374.896044,4293.194464
1092.730548,-444.123565,-1685.410096,5477.523971
1092.730877,-3923.091493,1378.971896,6291.750507
1092.731207,-6513.812290,2757.943793,8956.491898
1092.731537,-5403.503377,2451.505594,12879.583391
1092.731866,-3256.906145,2911.162892,15544.324782
1092.732196,-2368.659014,3600.648841,15396.283594
1092.732525,-2664.741391,2528.115143,11103.089130
1092.732855,-592.164754,-919.314598,6809.894666
1092.733184,2220.617826,-4673.182538,6365.771101
1092.733514,3256.906145,-4443.353888,8512.368333
1092.733843,1998.556043,-459.657299,10214.842000
1092.734173,-1036.288319,2068.457845,10881.027347
1092.734502,-2812.782580,1838.629195,10584.944971
1092.734832,-3256.906145,153.219100,11843.295072
1092.735162,-1924.535449,0.000000,13471.748144
1092.735491,-296.082377,1149.143247,14730.098246
1092.735821,666.185348,2911.162892,13397.727550
1092.736150,962.267725,2911.162892,10658.965565
1092.736480,2146.597232,612.876398,8364.327145
1092.736809,3997.112087,-1762.019645,8142.265362
1092.737139,4515.256246,-766.095498,9030.512492
1092.737468,1850.514855,2451.505594,9992.780217
1092.737798,-1406.391290,3140.991542,9622.677246
1092.738128,-3997.112087,919.314598,9326.594869
1092.738457,-5181.441594,-229.828649,9992.780217
1092.738787,-5033.400406,-995.924147,9548.656652
1092.739116,-3182.885551,383.047749,9696.697840
1092.739446,-2516.700203,1532.190996,9252.574275
1092.739775,-2294.638420,2145.067394,7476.080014
1092.740105,-740.205942,1455.581446,5995.668130
1092.740434,1702.473667,1072.533697,6513.812290
1092.740764,2960.823768,1762.019645,7254.018232
1092.741093,888.247130,3140.991542,8734.430116
1092.741423,-2220.617826,3677.258390,9918.759623
1092.741753,-3923.091493,2068.457845,9622.677246
1092.742082,-4441.235652,0.000000,9548.656652
1092.742412,-3108.864956,-1455.581446,8808.450710
1092.742741,-1184.329507,-1608.800546,8734.430116
1092.743071,-666.185348,-1149.143247,9104.533087
1092.743400,-962.267725,-383.047749,7550.100608
1092.743730,518.144159,919.314598,6587.832884
1092.744059,3108.864956,1991.848295,8586.388927
1092.744389,4885.359217,3830.477490,10140.821405
1092.744719,3552.988522,4060.306139,11547.212695
1092.745048,0.000000,3064.381992,11473.192101
1092.745378,-3256.906145,1149.143247,10881.027347
1092.745707,-4589.276840,766.095498,11547.212695
1092.746037,-4293.194464,-229.828649,12213.398043
1092.746366,-3478.967927,-2451.505594,10658.965565
1092.746696,-2368.659014,-4290.134789,9252.574275
1092.747025,-1480.411884,-3983.696590,7698.141797
1092.747355,0.000000,-1991.848295,7402.059420
1092.747684,1850.514855,689.485948,8586.388927
1092.748014,3330.926739,2145.067394,11251.130318
1092.748344,2146.597232,4290.134789,13841.851115
1092.748673,-1110.308913,4903.011187,14730.098246
1092.749003,-3701.029710,4903.011187,13323.706956
1092.749332,-4145.153275,2528.115143,11547.212695
1092.749662,-2812.782580,-536.266849,10658.965565
1092.749991,-962.267725,-1608.800546,10510.924376
1092.750321,-1406.391290,-2298.286494,8586.388927
1092.750650,-2590.720797,-2528.115143,4737.318029
1092.750980,-2146.597232,-2145.067394,3701.029710
1092.751310,444.123565,0.000000,5403.503377
1092.751639,3034.844362,2298.286494,8142.265362
1092.751969,2442.679609,3753.867940,9622.677246
1092.752298,-518.144159,4366.744339,9104.533087
1092.752628,-2664.741391,3753.867940,8512.368333
1092.752957,-3627.009116,2604.724693,10066.800811
1092.753287,-2812.782580,2145.067394,10436.903782
1092.753616,-2368.659014,-229.828649,8956.491898
1092.753946,-2146.597232,-3524.039291,7105.977043
1092.754275,-2294.638420,-3677.258390,6069.688724
1092.754605,-2146.597232,-842.705048,5847.626942
1092.754935,370.102971,-153.219100,6957.935855
1092.755264,3330.926739,-459.657299,8882.471304
1092.755594,2960.823768,1378.971896,11843.295072
1092.755923,0.000000,4060.306139,13397.727550
1092.756253,-3108.864956,4213.525239,13175.665768
1092.756582,-3478.967927,2451.505594,12583.501014
1092.756912,-2442.679609,919.314598,13619.789333
1092.757241,-592.164754,229.828649,14211.954086
1092.757571,-444.123565,-919.314598,11695.253884
1092.757901,-888.247130,-3907.087040,7698.141797
1092.758230,0.000000,-5056.230287,5551.544565
1092.758560,1628.453072,-2757.943793,8068.244768
1092.758889,3404.947333,383.047749,11843.295072
1092.759219,1998.556043,4290.134789,13545.768739
1092.759548,-1480.411884,5822.325785,11547.212695
1092.759878,-2220.617826,4290.134789,10436.903782
1092.760207,-1406.391290,2221.676944,11621.233289
1092.760537,-1332.370696,2911.162892,12287.418637
1092.760866,-1554.432478,2451.505594,10288.862594
1092.761196,-2294.638420,153.219100,7105.977043
1092.761526,-2072.576638,-1149.143247,3849.070898
1092.761855,-888.247130,-2374.896044,4293.194464
1092.762185,74.020594,-2298.286494,6439.791695
1092.762514,-370.102971,612.876398,7698.141797
1092.762844,-2738.761985,3064.381992,8956.491898
1092.763173,-5107.421000,3907.087040,9474.636058
1092.763503,-5625.565159,3064.381992,10288.862594
1092.763832,-3627.009116,1072.533697,10510.924376
1092.764162,-2368.659014,766.095498,9770.718434
1092.764492,-1480.411884,995.924147,8586.388927
1092.764821,-1184.329507,306.438199,7031.956449
1092.765151,-444.123565,-1149.143247,5773.606348
1092.765480,814.226536,-1225.752797,6365.771101
1092.765810,2294.638420,-383.047749,8364.327145
1092.766139,3182.885551,1225.752797,9474.636058
1092.766469,1998.556043,1608.800546,11325.150913
1092.766798,-1036.288319,995.924147,11769.274478
1092.767128,-3182.885551,766.095498,11769.274478
1092.767457,-2664.741391,766.095498,12657.521608
1092.767787,-518.144159,153.219100,13249.686362
1092.768117,0.000000,0.000000,12287.418637
1092.768446,-888.247130,-306.438199,9326.594869
1092.768776,0.000000,-2374.896044,6957.935855
1092.769105,1998.556043,-3370.820191,7328.038826
1092.769435,2590.720797,-229.828649,10510.924376
1092.769764,1628.453072,2681.334243,12583.501014
1092.770094,-1850.514855,3907.087040,13175.665768
1092.770423,-4885.359217,2681.334243,12139.377449
1092.770753,-4663.297435,1685.410096,12805.562797
1092.771083,-3775.050304,1149.143247,13027.624579
1092.771412,-2368.659014,76.609550,11769.274478
1092.771742,-2516.700203,-536.266849,9474.636058
1092.772071,-2738.761985,-995.924147,6661.853478
1092.772401,-1110.308913,-383.047749,5107.421000
1092.772730,962.267725,-306.438199,5921.647536
1092.773060,2516.700203,1532.190996,7402.059420
1092.773389,1776.494261,3294.210641,8364.327145
1092.773719,-1406.391290,4060.306139,9400.615463
1092.774048,-2886.803174,4443.353888,8956.491898
1092.774378,-3404.947333,3370.820191,9030.512492
1092.774708,-1998.556043,1455.581446,8660.409521
1092.775037,-962.267725,0.000000,7624.121203
1092.775367,-1184.329507,-459.657299,7328.038826
1092.775696,-962.267725,536.266849,6291.750507
1092.776026,-592.164754,0.000000,4515.256246
1092.776355,888.247130,76.609550,5551.544565
1092.776685,2368.659014,536.266849,7994.224174
1092.777014,1332.370696,1991.848295,10362.883188
1092.777344,-1702.473667,3064.381992,11251.130318
1092.777674,-4515.256246,2604.724693,10732.986159
1092.778003,-4737.318029,1455.581446,11917.315666
1092.778333,-3108.864956,306.438199,13619.789333
1092.778662,-1406.391290,-612.876398,14063.912898
1092.778992,-1702.473667,-766.095498,11251.130318
1092.779321,-1776.494261,-1149.143247,7254.018232
1092.779651,370.102971,-2221.676944,6809.894666
1092.779980,2664.741391,-1532.190996,10066.800811
1092.780310,3552.988522,1378.971896,12583.501014
1092.780639,1702.473667,3600.648841,13619.789333
1092.780969,-1554.432478,4366.744339,13101.645173
1092.781299,-3108.864956,3524.039291,12509.480420
1092.781628,-2146.597232,2374.896044,13249.686362
1092.781958,-592.164754,306.438199,12805.562797
1092.782287,-888.247130,-306.438199,10658.965565
1092.782617,-2442.679609,229.828649,8438.347739
1092.782946,-2812.782580,0.000000,6217.729913
1092.783276,-1480.411884,0.000000,5551.544565
1092.783605,370.102971,153.219100,6291.750507
1092.783935,1184.329507,1302.362347,6809.894666
1092.784265,-518.144159,2298.286494,8290.306550
1092.784594,-3404.947333,3907.087040,9474.636058
1092.784924,-5699.585753,4826.401637,9400.615463
1092.785253,-5551.544565,3370.820191,9326.594869
1092.785583,-3404.947333,1149.143247,9696.697840
1092.785912,-2072.576638,153.219100,9252.574275
1092.786242,-2368.659014,76.609550,8068.244768
1092.786571,-2368.659014,0.000000,5329.482782
1092.786901,-592.164754,-995.924147,4663.297435
1092.787230,1776.494261,-153.219100,6587.832884
1092.787560,3330.926739,1378.971896,8956.491898
1092.787890,1850.514855,2298.286494,10510.924376
1092.788219,-1184.329507,3064.381992,11029.068536
1092.788549,-2886.803174,2757.943793,11103.089130
1092.788878,-2368.659014,1685.410096,12657.521608
1092.789208,-592.164754,1072.533697,13323.706956
1092.789537,0.000000,612.876398,11399.171507
1092.789867,296.082377,-1838.629195,9104.533087
1092.790196,444.123565,-2298.286494,6661.853478
1092.790526,1184.329507,-995.924147,7624.121203
1092.790856,1776.494261,689.485948,9844.739029
1092.791185,1554.432478,1838.629195,12139.377449
1092.791515,-740.205942,2451.505594,12879.583391
1092.791844,-3923.091493,2451.505594,13101.645173
1092.792174,-5477.523971,1378.971896,11991.336260
1092.792503,-4811.338623,-383.047749,12805.562797
1092.792833,-3552.988522,-536.266849,12509.480420
1092.793162,-3108.864956,-459.657299,11695.253884
1092.793492,-2664.741391,-229.828649,10066.800811
1092.793821,-2146.597232,0.000000,8068.244768
1092.794151,-370.102971,306.438199,6365.771101
1092.794481,1480.411884,766.095498,6735.874072
1092.794810,2368.659014,1378.971896,8068.244768
1092.795140,888.247130,3217.601092,9696.697840
1092.795469,-1998.556043,4366.744339,10732.986159
1092.795799,-3552.988522,4749.792088,10436.903782
1092.796128,-3404.947333,3753.867940,9844.739029
1092.796458,-1480.411884,1302.362347,8956.491898
1092.796787,-370.102971,0.000000,7920.203579
1092.797117,0.000000,-229.828649,7179.997637
1092.797447,-592.164754,766.095498,4737.318029
1092.797776,0.000000,1225.752797,4145.153275
1092.798106,1406.391290,1072.533697,5847.626942
1092.798435,1628.453072,2681.334243,7994.224174
1092.798765,-444.123565,4060.306139,9696.697840
1092.799094,-2812.782580,3370.820191,9918.759623
1092.799424,-4293.194464,1915.238745,9844.739029
1092.799753,-4589.276840,612.876398,10732.986159
1092.800083,-3034.844362,459.657299,11843.295072
1092.800412,-2590.720797,0.000000,11399.171507
1092.800742,-1776.494261,0.000000,10584.944971
1092.801072,-1258.350101,536.266849,8956.491898
1092.801401,0.000000,229.828649,9252.574275
1092.801731,1924.535449,0.000000,10436.903782
1092.802060,2590.720797,1991.848295,11843.295072
1092.802390,740.205942,3217.601092,12879.583391
1092.802719,-1850.514855,3064.381992,11843.295072
1092.803049,-2886.803174,1608.800546,11621.233289
1092.803378,-1850.514855,153.219100,12657.521608
1092.803708,-370.102971,76.609550,12287.418637
1092.804038,-74.020594,153.219100,11325.150913
1092.804367,0.000000,536.266849,8364.327145
1092.804697,518.144159,0.000000,5921.647536
1092.805026,1850.514855,-459.657299,6587.832884
1092.805356,2368.659014,1685.410096,8586.388927
1092.805685,666.185348,3524.039291,9474.636058
1092.806015,-2294.638420,4826.401637,9844.739029
1092.806344,-4441.235652,3294.210641,9622.677246
1092.806674,-4293.194464,1378.971896,10214.842000
1092.807003,-4145.153275,383.047749,10214.842000
1092.807333,-4145.153275,383.047749,8290.306550
1092.807663,-4145.153275,-383.047749,6513.812290
1092.807992,-3478.967927,-689.485948,5551.544565
1092.808322,-1850.514855,-1149.143247,5477.523971
1092.808651,296.082377,76.609550,7179.997637
1092.808981,1480.411884,1378.971896,7476.080014
1092.809310,444.123565,2298.286494,7772.162391
1092.809640,-1702.473667,1608.800546,9474.636058
1092.809969,-2886.803174,1455.581446,11251.130318
1092.810299,-3108.864956,2298.286494,12361.439231
1092.810629,-2220.617826,1685.410096,12287.418637
1092.810958,-518.144159,689.485948,10881.027347
1092.811288,444.123565,-1532.190996,9622.677246
1092.811618,518.144159,-1915.238745,8734.430116
1092.811947,1036.288319,-306.438199,7402.059420
1092.812277,2072.576638,76.609550,7920.203579
1092.812607,3404.947333,383.047749,9622.677246
1092.812936,1702.473667,1225.752797,11621.233289
1092.813266,-1554.432478,2451.505594,13101.645173
1092.813596,-3997.112087,2298.286494,12657.521608
1092.813925,-4145.153275,2145.067394,12879.583391
1092.814255,-2368.659014,1685.410096,12879.583391
1092.814584,-1332.370696,-229.828649,12139.377449
1092.814914,-1850.514855,-612.876398,10881.027347
1092.815244,-1998.556043,76.609550,8216.285956
1092.815573,-888.247130,842.705048,7179.997637
1092.815903,444.123565,1915.238745,8142.265362
1092.816233,888.247130,2451.505594,9474.636058
1092.816562,0.000000,3064.381992,10658.965565
1092.816892,-2516.700203,3753.867940,10436.903782
1092.817222,-3627.009116,3217.601092,9326.594869
1092.817551,-3256.906145,2298.286494,9770.718434
1092.817881,-2442.679609,2068.457845,10214.842000
1092.818210,-1924.535449,1455.581446,9252.574275
1092.818540,-2294.638420,919.314598,7179.997637
1092.818870,-1036.288319,1762.019645,5403.503377
1092.819199,1110.308913,2068.457845,4515.256246
1092.819529,2294.638420,1072.533697,4145.153275
1092.819859,2886.803174,842.705048,5995.668130
1092.820188,1480.411884,1532.190996,7772.162391
1092.820518,-1776.494261,3753.867940,9622.677246
1092.820848,-4811.338623,4979.620737,9992.780217
1092.821177,-5033.400406,2451.505594,10436.903782
1092.821507,-3034.844362,-383.047749,10955.047942
1092.821836,-1554.432478,-995.924147,10510.924376
1092.822166,-1554.432478,-1685.410096,9178.553681
1092.822496,-1776.494261,-1608.800546,6957.935855
1092.822825,-888.247130,-2068.457845,6365.771101
1092.823155,888.247130,-1762.019645,8734.430116
1092.823485,2294.638420,-306.438199,12731.542202
1092.823814,740.205942,2221.676944,15026.180623
1092.824144,-2664.741391,3753.867940,13545.768739
1092.824474,-4293.194464,689.485948,11621.233289
1092.824803,-2516.700203,-2374.896044,12805.562797
1092.825133,74.020594,-1991.848295,14434.015869
1092.825463,0.000000,0.000000,13619.789333
1092.825792,-962.267725,1302.362347,11325.150913
1092.826122,-592.164754,229.828649,8216.285956
1092.826451,1332.370696,-1302.362347,7550.100608
1092.826781,3478.967927,-919.314598,9400.615463
1092.827111,2886.803174,689.485948,9992.780217
1092.827440,0.000000,2834.553343,10214.842000
1092.827770,-2960.823768,3217.601092,10214.842000
1092.828100,-4589.276840,1991.848295,9770.718434
1092.828429,-4663.297435,0.000000,9992.780217
1092.828759,-3849.070898,0.000000,10510.924376
1092.829089,-3404.947333,1302.362347,8290.306550
1092.829418,-3552.988522,536.266849,6513.812290
1092.829748,-2368.659014,-459.657299,3923.091493
1092.830077,370.102971,-995.924147,3627.009116
1092.830407,1628.453072,-229.828649,5329.482782
1092.830737,1924.535449,2298.286494,7402.059420
1092.831066,-370.102971,4213.525239,9918.759623
1092.831396,-3552.988522,4749.792088,10732.986159
1092.831726,-5107.421000,3677.258390,10510.924376
1092.832055,-3849.070898,1225.752797,10658.965565
1092.832385,-1332.370696,229.828649,10362.883188
1092.832715,0.000000,-612.876398,9326.594869
1092.833044,74.020594,-1302.362347,7846.182985
1092.833374,148.041188,-1532.190996,6143.709319
1092.833703,1554.432478,-1302.362347,6439.791695
1092.834033,3849.070898,842.705048,9252.574275
1092.834363,4293.194464,2451.505594,11695.253884
1092.834692,2294.638420,3140.991542,13027.624579
1092.835022,-1258.350101,2604.724693,12361.439231
1092.835352,-2886.803174,1455.581446,12213.398043
1092.835681,-2368.659014,842.705048,14730.098246
1092.836011,-1924.535449,1915.238745,15618.345376
1092.836341,-2368.659014,1532.190996,12805.562797
1092.836670,-1850.514855,-995.924147,9252.574275
1092.837000,-1036.288319,-2451.505594,6291.750507
1092.837329,962.267725,-1455.581446,6513.812290
1092.837659,1480.411884,766.095498,8734.430116
1092.837989,296.082377,1455.581446,9178.553681
1092.838318,-2294.638420,2528.115143,10732.986159
1092.838648,-4589.276840,3370.820191,11621.233289
1092.838978,-4959.379811,2451.505594,10362.883188
1092.839307,-4589.276840,-383.047749,10066.800811
1092.839637,-3108.864956,-1225.752797,9474.636058
1092.839967,-2294.638420,-536.266849,9548.656652
1092.840296,-1776.494261,1225.752797,9030.512492
1092.840626,-888.247130,2451.505594,5773.606348
1092.840956,1480.411884,1072.533697,3182.885551
1092.841285,3923.091493,-919.314598,4737.318029
1092.841615,3997.112087,1532.190996,8068.244768
1092.841944,888.247130,4519.963438,10066.800811
1092.842274,-2368.659014,4826.401637,9992.780217
1092.842604,-3701.029710,2911.162892,9474.636058
1092.842933,-3404.947333,995.924147,10066.800811
1092.843263,-1776.494261,-919.314598,10658.965565
1092.843593,-1332.370696,-2221.676944,8512.368333
1092.843922,-1480.411884,-2068.457845,6217.729913
1092.844252,-1184.329507,-1685.410096,5107.421000
1092.844582,0.000000,-1455.581446,7105.977043
1092.844911,1184.329507,-766.095498,9104.533087
1092.845241,1554.432478,689.485948,10955.047942
1092.845570,-370.102971,2068.457845,11991.336260
1092.845900,-2516.700203,1302.362347,12213.398043
1092.846230,-3108.864956,76.609550,13989.892304
1092.846559,-2590.720797,-766.095498,15618.345376
1092.846889,-1554.432478,383.047749,15026.180623
1092.847219,-814.226536,-153.219100,12805.562797
1092.847548,0.000000,-1608.800546,10214.842000
1092.847878,740.205942,-2374.896044,7846.182985
1092.848208,2664.741391,-1915.238745,9474.636058
1092.848537,3552.988522,919.314598,10584.944971
1092.848867,2368.659014,2681.334243,10955.047942
1092.849196,-444.123565,3524.039291,11251.130318
1092.849526,-2664.741391,2987.772442,11251.130318
1092.849856,-2960.823768,1225.752797,10807.006753
1092.850185,-3034.844362,459.657299,10510.924376
1092.850515,-2812.782580,0.000000,9178.553681
1092.850845,-2960.823768,0.000000,8808.450710
1092.851174,-3034.844362,1149.143247,7105.977043
1092.851504,-1850.514855,1302.362347,4219.173869
1092.851834,1110.308913,153.219100,3108.864956
1092.852163,2442.679609,0.000000,3997.112087
1092.852493,1702.473667,2068.457845,6883.915261
1092.852823,-1776.494261,4903.011187,10140.821405
1092.853152,-5403.503377,4749.792088,10140.821405
1092.853482,-5551.544565,4213.525239,10658.965565
1092.853811,-4441.235652,2068.457845,10658.965565
1092.854141,-2516.700203,-995.924147,9844.739029
1092.854471,-1850.514855,-2374.896044,8586.388927
1092.854800,-1406.391290,-1762.019645,6809.894666
1092.855130,-222.061783,0.000000,6291.750507
1092.855460,1332.370696,229.828649,7031.956449
1092.855789,2664.741391,995.924147,8808.450710
1092.856119,3034.844362,1455.581446,10510.924376
1092.856449,888.247130,1685.410096,11843.295072
1092.856778,-1110.308913,3217.601092,11473.192101
1092.857108,-1776.494261,1915.238745,12435.459826
1092.857437,-740.205942,-153.219100,14211.954086
1092.857767,-222.061783,229.828649,14508.036463
1092.858097,-370.102971,1532.190996,12731.542202
1092.858426,-74.020594,229.828649,9178.553681
1092.858756,518.144159,-1302.362347,6661.853478
1092.859086,1776.494261,-1149.143247,8290.306550
1092.859415,2664.741391,842.705048,11177.109724
1092.859745,814.226536,2681.334243,12139.377449
1092.860075,-2812.782580,4366.744339,10288.862594
1092.860404,-5033.400406,2911.162892,9474.636058
1092.860734,-4589.276840,0.000000,10140.821405
1092.861063,-3404.947333,-689.485948,11251.130318
1092.861393,-2590.720797,-459.657299,10658.965565
1092.861723,-3256.906145,459.657299,8290.306550
1092.862052,-3108.864956,766.095498,5625.565159
1092.862382,-962.267725,-995.924147,4885.359217
1092.862712,1776.494261,-689.485948,6365.771101
1092.863041,2664.741391,842.705048,7105.977043
1092.863371,1184.329507,3370.820191,9252.574275
1092.863701,-1702.473667,4979.620737,10066.800811
1092.864030,-3552.988522,3600.648841,9844.739029
1092.864360,-3034.844362,1378.971896,9622.677246
1092.864689,-1110.308913,-995.924147,9474.636058
1092.865019,0.000000,-1149.143247,9030.512492
1092.865349,-592.164754,-306.438199,7994.224174
1092.865678,-1184.329507,-689.485948,6883.915261
1092.866008,-518.144159,-919.314598,6439.791695
1092.866338,1406.391290,76.609550,7846.182985
1092.866667,2590.720797,1455.581446,8882.471304
1092.866997,2220.617826,1225.752797,9474.636058
1092.867327,-370.102971,229.828649,10807.006753
1092.867656,-3256.906145,919.314598,11399.171507
1092.867986,-4515.256246,842.705048,13471.748144
1092.868316,-3256.906145,459.657299,14359.995275
1092.868645,-1776.494261,459.657299,14063.912898
1092.868975,-1628.453072,-612.876398,10955.047942
1092.869304,-888.247130,-2911.162892,8068.244768
1092.869634,370.102971,-3217.601092,7328.038826
1092.869964,2146.597232,-459.657299,9400.615463
1092.870293,2886.803174,2298.286494,11399.171507
1092.870623,1258.350101,2834.553343,13175.665768
1092.870953,-1036.288319,3140.991542,13175.665768
1092.871282,-2516.700203,2451.505594,11621.233289
1092.871612,-2516.700203,1302.362347,11399.171507
1092.871942,-814.226536,536.266849,11103.089130
1092.872271,-444.123565,306.438199,10584.944971
1092.872601,-1258.350101,1149.143247,8956.491898
1092.872930,-1406.391290,1378.971896,6513.812290
1092.873260,296.082377,1608.800546,5033.400406
1092.873590,1924.535449,1532.190996,5181.441594
1092.873919,1998.556043,1302.362347,6365.771101
1092.874249,-592.164754,2451.505594,7846.182985
1092.874579,-3404.947333,3677.258390,8882.471304
1092.874908,-5181.441594,4290.134789,8438.347739
1092.875238,-4737.318029,2757.943793,9030.512492
1092.875568,-3108.864956,919.314598,9030.512492
1092.875897,-2516.700203,0.000000,7920.203579
1092.876227,-2368.659014,-689.485948,7624.121203
1092.876556,-1924.535449,229.828649,7254.018232
1092.876886,-1110.308913,1225.752797,6883.915261
1092.877216,592.164754,1149.143247,7772.162391
1092.877545,2664.741391,1149.143247,9104.533087
1092.877875,1332.370696,1608.800546,11177.109724
1092.878205,0.000000,3140.991542,11769.274478
1092.878534,-2146.597232,3140.991542,11843.295072
1092.878864,-1850.514855,995.924147,12731.542202
1092.879194,-666.185348,689.485948,13175.665768
1092.879523,0.000000,919.314598,12805.562797
1092.879853,0.000000,-612.876398,10510.924376
1092.880183,-148.041188,-1532.190996,7328.038826
1092.880512,740.205942,-1072.533697,7402.059420
1092.880842,3404.947333,-612.876398,10362.883188
1092.881171,3552.988522,1378.971896,12509.480420
1092.881501,1184.329507,3983.696590,12287.418637
1092.881831,-1850.514855,4519.963438,10584.944971
1092.882160,-2590.720797,1225.752797,10066.800811
1092.882490,-2368.659014,995.924147,11769.274478
1092.882820,-1628.453072,2298.286494,11991.336260
1092.883149,-2146.597232,1915.238745,10436.903782
1092.883479,-3034.844362,995.924147,8068.244768
1092.883809,-3034.844362,-306.438199,5551.544565
1092.884138,-1110.308913,-1532.190996,6217.729913
1092.884468,518.144159,-1915.238745,7698.141797
1092.884797,74.020594,1378.971896,8216.285956
1092.885127,-2442.679609,3294.210641,9400.615463
1092.885457,-4441.235652,3983.696590,9474.636058
1092.885786,-4219.173869,3753.867940,10288.862594
1092.886116,-1924.535449,1991.848295,9992.780217
1092.886446,-296.082377,1302.362347,8586.388927
1092.886775,296.082377,459.657299,7328.038826
1092.887105,-222.061783,0.000000,6957.935855
1092.887435,-222.061783,0.000000,5995.668130
1092.887764,814.226536,0.000000,6513.812290
1092.888094,2368.659014,229.828649,7772.162391
1092.888423,1776.494261,612.876398,9326.594869
1092.888753,0.000000,1455.581446,11103.089130
1092.889083,-1998.556043,1455.581446,11473.192101
1092.889412,-3108.864956,689.485948,10807.006753
1092.889742,-2442.679609,229.828649,11399.171507
1092.890072,-1258.350101,229.828649,11621.233289
1092.890401,-592.164754,0.000000,11621.233289
1092.890731,-1332.370696,-1532.190996,8808.450710
1092.891061,-1258.350101,-2451.505594,7476.080014
1092.891390,0.000000,-2834.553343,9104.533087
1092.891720,1332.370696,-383.047749,12139.377449
1092.892049,296.082377,1685.410096,13323.706956
1092.892379,-1924.535449,1302.362347,12953.603985
1092.892709,-3330.926739,1072.533697,12361.439231
1092.893038,-3182.885551,1072.533697,13175.665768
1092.893368,-1924.535449,2987.772442,13989.892304
1092.893698,-518.144159,2528.115143,12287.418637
1092.894027,-222.061783,1991.848295,9696.697840
1092.894357,0.000000,1302.362347,6661.853478
1092.894687,740.205942,-153.219100,5477.523971
1092.895016,1480.411884,76.609550,5921.647536
1092.895346,1184.329507,1378.971896,6809.894666
1092.895676,-370.102971,2145.067394,8364.327145
1092.896005,-2664.741391,2757.943793,10214.842000
1092.896335,-4737.318029,4060.306139,9992.780217
1092.896664,-4441.235652,3600.648841,8808.450710
1092.896994,-2590.720797,2374.896044,7846.182985
1092.897324,-888.247130,1762.019645,7031.956449
1092.897653,-666.185348,2451.505594,7179.997637
1092.897983,-1258.350101,2451.505594,6143.709319
1092.898313,-1258.350101,2068.457845,4219.173869
1092.898642,296.082377,1455.581446,5477.523971
1092.898972,1258.350101,1225.752797,8216.285956
1092.899302,0.000000,1915.238745,10288.862594
1092.899631,-2738.761985,1685.410096,11251.130318
1092.899961,-4589.276840,2451.505594,10955.047942
1092.900290,-4145.153275,1762.019645,11399.171507
1092.900620,-1702.473667,1072.533697,12509.480420
1092.900950,222.061783,842.705048,12657.521608
1092.901279,444.123565,689.485948,10214.842000
1092.901609,592.164754,153.219100,7254.018232
1092.901939,1850.514855,-689.485948,7031.956449
1092.902268,2738.761985,0.000000,8364.327145
1092.902598,3404.947333,306.438199,11251.130318
1092.902928,1184.329507,459.657299,13101.645173
1092.903257,-1554.432478,2145.067394,13545.768739
1092.903587,-3923.091493,1838.629195,12805.562797
1092.903916,-3404.947333,-229.828649,13027.624579
1092.904246,-2072.576638,-536.266849,12879.583391
1092.904576,-814.226536,-306.438199,12065.356855
1092.904905,-1332.370696,1455.581446,9844.739029
1092.905235,-1036.288319,1302.362347,6809.894666
1092.905565,222.061783,306.438199,5403.503377
1092.905894,962.267725,-306.438199,6735.874072
1092.906224,1036.288319,459.657299,7920.203579
1092.906554,-1406.391290,1378.971896,9992.780217
1092.906883,-4515.256246,1991.848295,10584.944971
1092.907213,-6809.894666,2221.676944,9992.780217
1092.907543,-5403.503377,1455.581446,11103.089130
1092.907872,-3627.009116,0.000000,10881.027347
1092.908202,-2368.659014,536.266849,9548.656652
1092.908531,-1924.535449,1455.581446,7179.997637
1092.908861,-962.267725,1072.533697,5107.421000
1092.909191,888.247130,842.705048,4219.173869
1092.909520,2516.700203,1378.971896,5329.482782
1092.909850,3182.885551,1378.971896,6957.935855
1092.910180,1258.350101,1455.581446,8660.409521
1092.910510,-1332.370696,2068.457845,9770.718434
1092.910839,-3182.885551,842.705048,10658.965565
1092.911169,-2590.720797,-995.924147,11399.171507
1092.911499,-1480.411884,-536.266849,11991.336260
1092.911828,-888.247130,229.828649,11843.295072
1092.912158,-888.247130,76.609550,10584.944971
1092.912488,-666.185348,0.000000,7920.203579
1092.912817,740.205942,-919.314598,7550.100608
1092.913147,2738.761985,-766.095498,9326.594869
1092.913477,2812.782580,1149.143247,10658.965565
1092.913806,370.102971,2681.334243,11991.336260
1092.914136,-2442.679609,2528.115143,11843.295072
1092.914466,-4145.153275,995.924147,12139.377449
1092.914796,-3478.967927,536.266849,13693.809927
1092.915125,-2368.659014,1149.143247,14434.015869
1092.915455,-2072.576638,383.047749,12583.501014
1092.915785,-2516.700203,383.047749,9178.553681
1092.916114,-1554.432478,-612.876398,6883.915261
1092.916444,962.267725,-536.266849,6957.935855
1092.916774,1406.391290,766.095498,8512.368333
1092.917103,1258.350101,2757.943793,8586.388927
1092.917433,-814.226536,3524.039291,9400.615463
1092.917763,-2664.741391,2681.334243,9178.553681
1092.918092,-3034.844362,2298.286494,8660.409521
1092.918422,-2368.659014,1225.752797,9918.759623
1092.918752,-1998.556043,1915.238745,10140.821405
1092.919082,-2516.700203,3294.210641,8882.471304
1092.919411,-2516.700203,2374.896044,7550.100608
1092.919741,-1850.514855,766.095498,5625.565159
1092.920071,-222.061783,459.657299,5477.523971
1092.920400,592.164754,919.314598,6143.709319
1092.920730,740.205942,1302.362347,7772.162391
1092.921060,-1110.308913,1685.410096,9474.636058
1092.921389,-3404.947333,2834.553343,9844.739029
1092.921719,-4219.173869,766.095498,10140.821405
1092.922049,-3478.967927,153.219100,11325.150913
1092.922378,-1184.329507,0.000000,11103.089130
1092.922708,-592.164754,0.000000,10732.986159
1092.923038,-296.082377,76.609550,9474.636058
1092.923368,0.000000,689.485948,7698.141797
1092.923697,1998.556043,1455.581446,7402.059420
1092.924027,4441.235652,1532.190996,8660.409521
1092.924357,4071.132681,1532.190996,10140.821405
1092.924686,1184.329507,2528.115143,11547.212695
1092.925016,-2442.679609,1455.581446,11325.150913
1092.925346,-4219.173869,76.609550,11917.315666
1092.925675,-4145.153275,-842.705048,12879.583391
1092.926005,-3108.864956,-1072.533697,12953.603985
1092.926335,-2442.679609,-1455.581446,11547.212695
1092.926664,-2368.659014,-2298.286494,8734.430116
1092.926994,-1332.370696,-1225.752797,7179.997637
1092.927324,370.102971,689.485948,8734.430116
1092.927654,1628.453072,1915.238745,10140.821405
1092.927983,1406.391290,2681.334243,10807.006753
1092.928313,-592.164754,2451.505594,10881.027347
1092.928643,-2590.720797,2987.772442,9844.739029
1092.928972,-3330.926739,1608.800546,10066.800811
1092.929302,-2516.700203,842.705048,11473.192101
1092.929632,-2072.576638,459.657299,11177.109724
1092.929961,-2442.679609,306.438199,9622.677246
1092.930291,-2590.720797,612.876398,7328.038826
1092.930621,-1554.432478,-229.828649,5329.482782
1092.930950,370.102971,-1072.533697,4811.338623
1092.931280,1406.391290,-536.266849,6291.750507
1092.931610,666.185348,766.095498,8660.409521
1092.931940,-2368.659014,3447.429741,10066.800811
1092.932269,-4663.297435,4136.915689,9770.718434
1092.932599,-5033.400406,1455.581446,9178.553681
1092.932929,-3256.906145,-1762.019645,8734.430116
1092.933258,-1332.370696,-2528.115143,9326.594869
1092.933588,-1110.308913,-2221.676944,9918.759623
1092.933918,-3034.844362,-306.438199,8660.409521
1092.934247,-2738.761985,612.876398,7105.977043
1092.934577,0.000000,-536.266849,8290.306550
1092.934907,3256.906145,0.000000,10288.862594
1092.935236,3478.967927,1302.362347,12139.377449
1092.935566,1406.391290,1838.629195,12361.439231
1092.935896,-814.226536,1455.581446,11325.150913
1092.936226,-2368.659014,689.485948,12065.356855
1092.936555,-1258.350101,766.095498,14359.995275
1092.936885,-222.061783,459.657299,14063.912898
1092.937215,-296.082377,0.000000,11843.295072
1092.937544,-962.267725,-842.705048,8438.347739
1092.937874,-370.102971,-1378.971896,7031.956449
1092.938204,1628.453072,-995.924147,8512.368333
1092.938533,2368.659014,1072.533697,9030.512492
1092.938863,1998.556043,2834.553343,9474.636058
1092.939193,-370.102971,3217.601092,10066.800811
1092.939522,-2960.823768,4366.744339,10214.842000
1092.939852,-3923.091493,4213.525239,10732.986159
1092.940182,-3256.906145,2221.676944,11029.068536
1092.940511,-2960.823768,1455.581446,10510.924376
1092.940841,-3775.050304,2221.676944,9326.594869
1092.941171,-3849.070898,842.705048,6513.812290
1092.941501,-2738.761985,-1225.752797,3997.112087
1092.941830,-962.267725,-1072.533697,4367.215058
1092.942160,222.061783,842.705048,7328.038826
1092.942490,-962.267725,3677.258390,9770.718434
1092.942819,-3478.967927,4903.011187,10288.862594
1092.943149,-4589.276840,4136.915689,8364.327145
1092.943479,-2960.823768,536.266849,7772.162391
1092.943808,-1036.288319,-536.266849,9178.553681
1092.944138,74.020594,919.314598,9844.739029
1092.944468,-370.102971,1685.410096,9474.636058
1092.944797,-1702.473667,1302.362347,7698.141797
1092.945127,-962.267725,229.828649,7402.059420
1092.945457,1332.370696,-536.266849,9178.553681
1092.945787,2960.823768,0.000000,9622.677246
1092.946116,2590.720797,1149.143247,9918.759623
1092.946446,592.164754,229.828649,10436.903782
1092.946776,-1406.391290,76.609550,11399.171507
1092.947105,-2738.761985,306.438199,13693.809927
1092.947435,-2368.659014,1302.362347,14359.995275
1092.947765,-1776.494261,536.266849,12731.542202
1092.948094,-1850.514855,-1149.143247,10584.944971
1092.948424,-1702.473667,-2145.067394,8956.491898
1092.948754,-1332.370696,-2604.724693,7920.203579
1092.949083,0.000000,-995.924147,9104.533087
1092.949413,1628.453072,689.485948,11177.109724
1092.949743,148.041188,1685.410096,12583.501014
1092.950073,-2590.720797,2681.334243,12509.480420
1092.950402,-4145.153275,1685.410096,11473.192101
1092.950732,-2886.803174,689.485948,10436.903782
1092.951062,-1184.329507,766.095498,10510.924376
1092.951391,-370.102971,1378.971896,10066.800811
1092.951721,-1036.288319,1302.362347,8882.471304
1092.952051,-1776.494261,0.000000,6439.791695
1092.952380,-1036.288319,-536.266849,5107.421000
1092.952710,666.185348,383.047749,6217.729913
1092.953040,1702.473667,1455.581446,7772.162391
1092.953369,0.000000,3370.820191,8734.430116
1092.953699,-2368.659014,3140.991542,7105.977043
1092.954029,-2516.700203,1915.238745,6809.894666
1092.954359,-1924.535449,1225.752797,8068.244768
1092.954688,-1628.453072,2221.676944,9178.553681
1092.955018,-1628.453072,2681.334243,9400.615463
1092.955348,-2812.782580,-153.219100,7920.203579
1092.955677,-3701.029710,-766.095498,5921.647536
1092.956007,-2368.659014,-1685.410096,6513.812290
1092.956337,0.000000,-1991.848295,8438.347739
1092.956666,1554.432478,0.000000,10362.883188
1092.956996,222.061783,1378.971896,12065.356855
1092.957326,-1924.535449,1915.238745,12953.603985
1092.957655,-3182.885551,1838.629195,13619.789333
1092.957985,-2368.659014,2068.457845,14211.954086
1092.958315,-296.082377,1225.752797,13545.768739
1092.958645,0.000000,76.609550,12213.398043
1092.958974,0.000000,383.047749,10881.027347
1092.959304,-222.061783,153.219100,8808.450710
1092.959634,222.061783,-766.095498,8438.347739
1092.959963,2294.638420,-229.828649,9548.656652
1092.960293,3108.864956,76.609550,11251.130318
1092.960623,1702.473667,1608.800546,11621.233289
1092.960952,-1036.288319,1838.629195,9844.739029
1092.961282,-3182.885551,1991.848295,9548.656652
1092.961612,-2368.659014,1838.629195,10807.006753
1092.961941,-2072.576638,2757.943793,11991.336260
1092.962271,-2220.617826,3370.820191,11473.192101
1092.962601,-3256.906145,2145.067394,7698.141797
1092.962931,-3330.926739,-459.657299,4293.194464
1092.963260,-1406.391290,-1302.362347,4515.256246
1092.963590,74.020594,383.047749,5699.585753
1092.963920,-592.164754,2604.724693,7846.182985
1092.964249,-2442.679609,3294.210641,8660.409521
1092.964579,-4515.256246,3064.381992,8438.347739
1092.964909,-4293.194464,2528.115143,9178.553681
1092.965238,-2368.659014,1455.581446,9474.636058
1092.965568,-444.123565,689.485948,8364.327145
1092.965898,-444.123565,306.438199,7846.182985
1092.966227,-1184.329507,-383.047749,7624.121203
1092.966557,-1702.473667,-383.047749,7105.977043
1092.966887,-962.267725,0.000000,7698.141797
1092.967216,1184.329507,-153.219100,8586.388927
1092.967546,3034.844362,689.485948,10584.944971
1092.967876,2442.679609,1608.800546,11917.315666
1092.968206,148.041188,1762.019645,10658.965565
1092.968535,-888.247130,383.047749,10436.903782
1092.968865,-592.164754,612.876398,12139.377449
1092.969195,0.000000,1838.629195,13619.789333
1092.969524,-1110.308913,1149.143247,13693.809927
1092.969854,-2516.700203,0.000000,10732.986159
1092.970184,-2738.761985,-1991.848295,7698.141797
1092.970513,-814.226536,-2911.162892,8438.347739
1092.970843,1554.432478,-1455.581446,10584.944971
1092.971173,740.205942,0.000000,11843.295072
1092.971502,-1480.411884,1225.752797,11843.295072
1092.971832,-3997.112087,1991.848295,11843.295072
1092.972162,-4071.132681,2757.943793,12435.459826
1092.972492,-2516.700203,2528.115143,12509.480420
1092.972821,-592.164754,2068.457845,11177.109724
1092.973151,-296.082377,1302.362347,9030.512492
1092.973481,-1184.329507,76.609550,6217.729913
1092.973810,-962.267725,-459.657299,5329.482782
1092.974140,296.082377,0.000000,5773.606348
1092.974470,888.247130,612.876398,7328.038826
1092.974799,222.061783,3064.381992,9178.553681
1092.975129,-1258.350101,3600.648841,9326.594869
1092.975459,-2516.700203,3064.381992,7772.162391
1092.975788,-1998.556043,1991.848295,7031.956449
1092.976118,-740.205942,1915.238745,7624.121203
1092.976448,296.082377,2145.067394,9178.553681
1092.976778,-888.247130,2451.505594,8660.409521
1092.977107,-2738.761985,2068.457845,6883.915261
1092.977437,-2812.782580,0.000000,4959.379811
1092.977767,-962.267725,-1762.019645,6291.750507
1092.978096,1036.288319,-229.828649,9104.533087
1092.978426,222.061783,1915.238745,10510.924376
1092.978756,-1258.350101,1532.190996,10066.800811
1092.979085,-2886.803174,153.219100,10066.800811
1092.979415,-3108.864956,229.828649,12583.501014
1092.979745,-2146.597232,2145.067394,15026.180623
1092.980074,-1110.308913,3447.429741,14656.077652
1092.980404,-1258.350101,1838.629195,11917.315666
1092.980734,-1406.391290,-383.047749,8586.388927
1092.981064,-444.123565,-2068.457845,7846.182985
1092.981393,1628.453072,-1532.190996,9992.780217
1092.981723,2738.761985,842.705048,11251.130318
1092.982053,1998.556043,1915.238745,11103.089130
1092.982382,0.000000,1302.362347,11251.130318
1092.982712,-1554.432478,766.095498,11621.233289
1092.983042,-1702.473667,1991.848295,11325.150913
1092.983371,0.000000,2987.772442,11177.109724
1092.983701,518.144159,2298.286494,10288.862594
1092.984031,74.020594,2451.505594,9030.512492
1092.984360,-1480.411884,1532.190996,7328.038826
1092.984690,-1702.473667,-306.438199,5551.544565
1092.985020,-444.123565,0.000000,5625.565159
1092.985350,0.000000,1378.971896,7476.080014
1092.985679,-1628.453072,2145.067394,9252.574275
1092.986009,-3701.029710,1608.800546,8956.491898
1092.986339,-4589.276840,1455.581446,7402.059420
1092.986668,-3627.009116,459.657299,7698.141797
1092.986998,-1850.514855,1149.143247,9030.512492
1092.987328,-1406.391290,842.705048,9326.594869
1092.987657,-2368.659014,-1072.533697,8216.285956
1092.987987,-2960.823768,-919.314598,6365.771101
1092.988317,-2590.720797,-689.485948,5995.668130
1092.988646,-518.144159,-306.438199,6883.915261
1092.988976,2146.597232,-1685.410096,7846.182985
1092.989306,2812.782580,-2757.943793,9918.759623
1092.989636,1184.329507,-536.266849,11695.253884
1092.989965,-1332.370696,1991.848295,11547.212695
1092.990295,-1332.370696,1762.019645,12731.542202
1092.990625,148.041188,-306.438199,13027.624579
1092.990954,888.247130,-689.485948,12583.501014
1092.991284,666.185348,-1302.362347,11399.171507
1092.991614,444.123565,-3370.820191,8438.347739
1092.991943,296.082377,-4213.525239,6661.853478
1092.992273,222.061783,-4749.792088,8068.244768
1092.992603,740.205942,-4749.792088,11103.089130
1092.992932,-444.123565,-1991.848295,14137.933492
1092.993262,-2738.761985,0.000000,14063.912898
1092.993592,-5403.503377,842.705048,12657.521608
1092.993921,-4959.379811,-612.876398,12583.501014
1092.994251,-2664.741391,-1302.362347,13175.665768
1092.994581,-1110.308913,-536.266849,12065.356855
1092.994911,-888.247130,-1072.533697,9548.656652
1092.995240,-888.247130,-2604.724693,6217.729913
1092.995570,-962.267725,-3753.867940,4293.194464
1092.995900,-296.082377,-4366.744339,4737.318029
1092.996229,1480.411884,-4366.744339,6661.853478
1092.996559,1924.535449,-3064.381992,8586.388927
1092.996889,296.082377,-1608.800546,9474.636058
1092.997218,-1776.494261,-1455.581446,10288.862594
1092.997548,-2886.803174,-383.047749,12065.356855
1092.997878,-2368.659014,2604.724693,13101.645173
1092.998207,-1258.350101,3064.381992,10732.986159
1092.998537,518.144159,153.219100,7920.203579
1092.998867,1924.535449,-2528.115143,6143.709319
1092.999197,1628.453072,-2757.943793,4811.338623
1092.999526,666.185348,-1762.019645,3182.885551
1092.999856,296.082377,-2374.896044,3330.926739
1093.000186,-222.061783,-3677.258390,4885.359217
1093.000515,-1480.411884,-4366.744339,9178.553681
1093.000845,-3034.844362,-5209.449386,13619.789333
1093.001175,-4811.338623,-2911.162892,14582.057057
1093.001504,-6069.688724,-689.485948,14359.995275
1093.001834,-6143.709319,-995.924147,14656.077652
1093.002164,-5033.400406,-536.266849,14878.139434
1093.002493,-3552.988522,-1149.143247,12435.459826
1093.002823,0.000000,-3064.381992,9104.533087
1093.003153,2368.659014,-4596.572988,5551.544565
1093.003483,2664.741391,-4213.525239,5107.421000
1093.003812,3478.967927,-3370.820191,7476.080014
1093.004142,2368.659014,-2451.505594,9844.739029
1093.004472,1702.473667,-1302.362347,11251.130318
1093.004801,444.123565,-842.705048,12805.562797
1093.005131,-666.185348,-1685.410096,14656.077652
1093.005461,-1332.370696,-1378.971896,16728.654289
1093.005790,-2442.679609,-1149.143247,15692.365970
1093.006120,-3478.967927,-536.266849,12953.603985
1093.006450,-3849.070898,-612.876398,9548.656652
1093.006779,-2442.679609,-2221.676944,6661.853478
1093.007109,0.000000,-3907.087040,3552.988522
1093.007439,1998.556043,-5209.449386,370.102971
1093.007769,3182.885551,-5209.449386,222.061783
1093.008098,3256.906145,-4596.572988,2812.782580
1093.008428,1184.329507,-1762.019645,7328.038826
1093.008758,-1332.370696,1302.362347,12509.480420
1093.009087,-3997.112087,3370.820191,15248.242405
1093.009417,-6217.729913,3983.696590,15840.407159
1093.009747,-5699.585753,2451.505594,15544.324782
1093.010076,-4145.153275,-229.828649,14878.139434
1093.010406,-3108.864956,-2298.286494,11399.171507
1093.010736,-2072.576638,-3140.991542,6735.874072
1093.011065,-370.102971,-3064.381992,4145.153275
1093.011395,814.226536,-2987.772442,4071.132681
1093.011725,296.082377,-2145.067394,3923.091493
1093.012054,370.102971,-2451.505594,3330.926739
1093.012384,2664.741391,-3524.039291,3849.070898
1093.012713,3775.050304,-3907.087040,6661.853478
1093.013043,2960.823768,-1991.848295,10510.924376
1093.013373,666.185348,-1302.362347,14285.974681
1093.013702,-1480.411884,-536.266849,17320.819043
1093.014032,-3701.029710,2451.505594,19245.354492
1093.014361,-4219.173869,3447.429741,17987.004391
1093.014691,-3849.070898,459.657299,14359.995275
1093.015021,-2442.679609,-3600.648841,9770.718434
1093.015350,-296.082377,-5898.935335,5477.523971
1093.015680,1702.473667,-6205.373534,3923.091493
1093.016010,2072.576638,-6205.373534,3552.988522
1093.016339,962.267725,-3753.867940,4885.359217
1093.016669,-1258.350101,-2528.115143,7698.141797
1093.016998,-2886.803174,-1072.533697,10881.027347
1093.017328,-3182.885551,-536.266849,13397.727550
1093.017658,-2812.782580,-612.876398,13915.871710
1093.017987,-3256.906145,-2604.724693,12287.418637
1093.018317,-3108.864956,-4366.744339,11251.130318
1093.018646,-2146.597232,-4979.620737,10288.862594
1093.018976,-814.226536,-5439.278036,9252.574275
1093.019306,0.000000,-4903.011187,8142.265362
1093.019635,0.000000,-2757.943793,7105.977043
1093.019965,518.144159,-1685.410096,6439.791695
1093.020294,1998.556043,-3064.381992,6513.812290
1093.020624,2812.782580,-3907.087040,7476.080014
1093.020954,1258.350101,-1378.971896,9548.656652
1093.021283,-1554.432478,1149.143247,11695.253884
1093.021613,-3034.844362,1532.190996,12805.562797
1093.021942,-2886.803174,-1072.533697,11843.295072
1093.022272,-1480.411884,-3370.820191,9992.780217
1093.022602,-296.082377,-5669.106685,8660.409521
1093.022931,444.123565,-6205.373534,8142.265362
1093.023261,740.205942,-5822.325785,7105.977043
1093.023591,74.020594,-4596.572988,7698.141797
1093.023920,-1406.391290,-3217.601092,9400.615463
1093.024250,-2516.700203,-1225.752797,12287.418637
1093.024579,-3256.906145,1302.362347,14359.995275
1093.024909,-2590.720797,2374.896044,13619.789333
1093.025239,-1850.514855,919.314598,11547.212695
1093.025568,-518.144159,-1302.362347,9770.718434
1093.025898,148.041188,-2374.896044,9548.656652
1093.026227,592.164754,-3370.820191,9400.615463
1093.026557,444.123565,-2451.505594,8512.368333
1093.026887,-518.144159,-2298.286494,7476.080014
1093.027216,-1184.329507,-2987.772442,8068.244768
1093.027546,-1406.391290,-3294.210641,9030.512492
1093.027875,-1554.432478,-2451.505594,9400.615463
1093.028205,-1036.288319,-1455.581446,9622.677246
1093.028535,-666.185348,-383.047749,10362.883188
1093.028864,-1036.288319,76.609550,11917.315666
1093.029194,-1998.556043,1072.533697,12583.501014
1093.029523,-2368.659014,1991.848295,11177.109724
1093.029853,-1850.514855,2757.943793,8808.450710
1093.030183,0.000000,1532.190996,6883.915261
1093.030512,1406.391290,-3217.601092,4293.194464
1093.030842,2146.597232,-5745.716235,3849.070898
1093.031172,962.267725,-5975.544884,4589.276840
1093.031501,-1110.308913,-3753.867940,7105.977043
1093.031831,-3256.906145,-1685.410096,10584.944971
1093.032160,-4737.318029,-766.095498,13249.686362
1093.032490,-4737.318029,0.000000,14582.057057
1093.032820,-3478.967927,-689.485948,14656.077652
1093.033149,-2072.576638,-536.266849,13323.706956
1093.033479,-1332.370696,-383.047749,10955.047942
1093.033808,-962.267725,-919.314598,8882.471304
1093.034138,222.061783,-1072.533697,7476.080014
1093.034468,1702.473667,-1762.019645,7105.977043
1093.034797,1924.535449,-2451.505594,6291.750507
1093.035127,1036.288319,-3907.087040,5181.441594
1093.035456,-222.061783,-5362.668486,5255.462188
1093.035786,-1258.350101,-6052.154434,7920.203579
1093.036116,-1776.494261,-5669.106685,10881.027347
1093.036445,-1702.473667,-4443.353888,13397.727550
1093.036775,-2146.597232,-3294.210641,14359.995275
1093.037105,-2368.659014,-1838.629195,14137.933492
1093.037434,-2368.659014,-995.924147,14285.974681
1093.037764,-1480.411884,-1378.971896,13027.624579
1093.038093,-592.164754,-1378.971896,10807.006753
1093.038423,-444.123565,-1532.190996,9474.636058
1093.038753,-1258.350101,-2221.676944,8364.327145
1093.039082,-1628.453072,-3830.477490,7328.038826
1093.039412,-2738.761985,-4979.620737,6217.729913
1093.039741,-3034.844362,-5132.839837,6439.791695
1093.040071,-2886.803174,-4443.353888,7624.121203
1093.040401,-1998.556043,-4519.963438,8808.450710
1093.040730,-592.164754,-4749.792088,9104.533087
1093.041060,148.041188,-5515.887586,8882.471304
1093.041389,0.000000,-4213.525239,10362.883188
1093.041719,-592.164754,-1915.238745,12065.356855
1093.042049,-1258.350101,-306.438199,12805.562797
1093.042378,-1110.308913,-229.828649,12435.459826
1093.042708,-1036.288319,-1302.362347,10881.027347
1093.043037,-1184.329507,-2221.676944,9844.739029
1093.043367,-444.123565,-2451.505594,9030.512492
1093.043697,0.000000,-2298.286494,8142.265362
1093.044026,0.000000,-1302.362347,7994.224174
1093.044356,0.000000,-153.219100,8438.347739
1093.044686,-444.123565,0.000000,9104.533087
1093.045015,-1036.288319,306.438199,9474.636058
1093.045345,-1332.370696,153.219100,9844.739029
1093.045674,-2294.638420,-919.314598,10140.821405
1093.046004,-3849.070898,-1225.752797,10584.944971
1093.046334,-5181.441594,-1685.410096,11843.295072
1093.046663,-5773.606348,-1378.971896,12287.418637
1093.046993,-6069.688724,-689.485948,11621.233289
