#time,accel_x,accel_y,accel_z
1014.512393,-1036.288319,995.924147,9400.615463
1014.512722,-1036.288319,919.314598,9474.636058
1014.513052,-962.267725,1072.533697,9622.677246
1014.513381,-1184.329507,919.314598,9326.594869
1014.513710,-1184.329507,1149.143247,9400.615463
1014.514040,-962.267725,766.095498,9474.636058
1014.514369,-1110.308913,842.705048,9474.636058
1014.514698,-1258.350101,1072.533697,9474.636058
1014.515028,-592.164754,1225.752797,9474.636058
1014.515357,-962.267725,1149.143247,9548.656652
1014.515687,-1110.308913,842.705048,9696.697840
1014.516016,-1036.288319,842.705048,9548.656652
1014.516345,-888.247130,689.485948,9696.697840
1014.516675,-740.205942,459.657299,9400.615463
1014.517004,-1184.329507,766.095498,9548.656652
1014.517333,-1036.288319,919.314598,9770.718434
1014.517663,-1258.350101,1072.533697,9474.636058
1014.517992,-1110.308913,1072.533697,9474.636058
1014.518321,-1110.308913,919.314598,9696.697840
1014.518651,-1036.288319,995.924147,9474.636058
1014.518980,-888.247130,842.705048,9548.656652
1014.519310,-1036.288319,919.314598,9622.677246
1014.519639,-962.267725,919.314598,9400.615463
1014.519968,-1110.308913,689.485948,9474.636058
1014.520298,-740.205942,1149.143247,9622.677246
1014.520627,-740.205942,842.705048,9770.718434
1014.520956,-962.267725,1072.533697,9474.636058
1014.521286,-962.267725,919.314598,9474.636058
1014.521615,-962.267725,995.924147,9474.636058
1014.521944,-1406.391290,1072.533697,9178.553681
1014.522274,-962.267725,1149.143247,9400.615463
1014.522603,-1184.329507,919.314598,9474.636058
1014.522933,-1110.308913,766.095498,9326.594869
1014.523262,-962.267725,1072.533697,9474.636058
1014.523591,-962.267725,1149.143247,9104.533087
1014.523921,-1110.308913,919.314598,9104.533087
1014.524250,-1110.308913,1072.533697,9474.636058
1014.524579,-962.267725,842.705048,9400.615463
1014.524909,-1110.308913,919.314598,9548.656652
1014.525238,-1036.288319,842.705048,9548.656652
1014.525567,-888.247130,1149.143247,9474.636058
1014.525897,-962.267725,1072.533697,9770.718434
1014.526226,-1110.308913,612.876398,9548.656652
1014.526556,-1036.288319,766.095498,9548.656652
1014.526885,-962.267725,842.705048,9770.718434
1014.527214,-962.267725,842.705048,9474.636058
1014.527544,-962.267725,689.485948,9548.656652
1014.527873,-1184.329507,995.924147,9474.636058
1014.528202,-1036.288319,919.314598,9770.718434
1014.528532,-1036.288319,995.924147,9696.697840
1014.528861,-1036.288319,842.705048,9622.677246
1014.529190,-444.123565,766.095498,9992.780217
1014.529520,-1036.288319,919.314598,9770.718434
1014.529849,-1036.288319,842.705048,9696.697840
1014.530179,-962.267725,919.314598,9622.677246
1014.530508,-1184.329507,919.314598,9622.677246
1014.530837,-1184.329507,1225.752797,9030.512492
1014.531167,-888.247130,919.314598,9474.636058
1014.531496,-1036.288319,842.705048,9474.636058
1014.531825,-962.267725,919.314598,9474.636058
1014.532155,-962.267725,1225.752797,9474.636058
1014.532484,-962.267725,1532.190996,9400.615463
1014.532813,-740.205942,459.657299,9178.553681
1014.533143,-888.247130,919.314598,9474.636058
1014.533472,-962.267725,919.314598,9474.636058
1014.533802,-1184.329507,919.314598,9696.697840
1014.534131,-1184.329507,995.924147,9400.615463
1014.534460,-1110.308913,1072.533697,9104.533087
1014.534790,-1184.329507,919.314598,9326.594869
1014.535119,-1036.288319,842.705048,9548.656652
1014.535448,-962.267725,995.924147,9548.656652
1014.535778,-1036.288319,766.095498,9400.615463
1014.536107,-814.226536,1225.752797,9400.615463
1014.536436,-888.247130,1149.143247,9474.636058
1014.536766,-962.267725,995.924147,9622.677246
1014.537095,-1036.288319,919.314598,9474.636058
1014.537425,-962.267725,1072.533697,9696.697840
1014.537754,-740.205942,1378.971896,9474.636058
1014.538083,-222.061783,383.047749,8956.491898
1014.538413,370.102971,689.485948,9252.574275
1014.538742,962.267725,383.047749,9474.636058
1014.539071,962.267725,383.047749,9474.636058
1014.539401,666.185348,1072.533697,9622.677246
1014.539730,0.000000,459.657299,10140.821405
1014.540059,-444.123565,1149.143247,10510.924376
1014.540389,-518.144159,919.314598,10658.965565
1014.540718,-296.082377,459.657299,10288.862594
1014.541048,74.020594,0.000000,9548.656652
1014.541377,1184.329507,689.485948,9326.594869
1014.541706,1628.453072,229.828649,9326.594869
1014.542036,2368.659014,459.657299,9030.512492
1014.542365,3034.844362,995.924147,8808.450710
1014.542694,3108.864956,1378.971896,9178.553681
1014.543024,3478.967927,2068.457845,9104.533087
1014.543353,3552.988522,1915.238745,9474.636058
1014.543682,2738.761985,1072.533697,9992.780217
1014.544012,2072.576638,919.314598,10288.862594
1014.544341,1332.370696,612.876398,10658.965565
1014.544671,1184.329507,153.219100,10436.903782
1014.545000,1776.494261,-689.485948,10140.821405
1014.545329,2146.597232,-153.219100,9474.636058
1014.545659,3034.844362,0.000000,9178.553681
1014.545988,4071.132681,0.000000,8956.491898
1014.546317,4515.256246,995.924147,8956.491898
1014.546647,4737.318029,2374.896044,9400.615463
1014.546976,3701.029710,2757.943793,9696.697840
1014.547305,2220.617826,3140.991542,10362.883188
1014.547635,148.041188,2987.772442,10362.883188
1014.547964,-1554.432478,2451.505594,9844.739029
1014.548294,-1998.556043,1378.971896,9178.553681
1014.548623,-1332.370696,-229.828649,8142.265362
1014.548952,148.041188,-1532.190996,7179.997637
1014.549282,1924.535449,-1608.800546,6661.853478
1014.549611,2886.803174,-919.314598,6587.832884
1014.549940,4145.153275,383.047749,7476.080014
1014.550270,3256.906145,2145.067394,9400.615463
1014.550599,2590.720797,3983.696590,11177.109724
1014.550928,1554.432478,4366.744339,12361.439231
1014.551258,518.144159,3447.429741,12657.521608
1014.551587,-222.061783,2068.457845,12435.459826
1014.551917,-888.247130,0.000000,11695.253884
1014.552246,-1110.308913,-1608.800546,10807.006753
1014.552575,-370.102971,-2221.676944,9770.718434
1014.552905,592.164754,-2068.457845,8586.388927
1014.553234,2220.617826,-1225.752797,8068.244768
1014.553563,3923.091493,-229.828649,7328.038826
1014.553893,4811.338623,842.705048,7254.018232
1014.554222,4959.379811,2221.676944,7402.059420
1014.554551,4811.338623,3447.429741,8586.388927
1014.554881,4145.153275,3983.696590,10214.842000
1014.555210,3182.885551,4366.744339,11029.068536
1014.555540,2146.597232,3217.601092,10955.047942
1014.555869,444.123565,1225.752797,11029.068536
1014.556198,-518.144159,-383.047749,10658.965565
1014.556528,-1406.391290,-1072.533697,10288.862594
1014.556857,-1776.494261,-1532.190996,9992.780217
1014.557186,-1554.432478,-1455.581446,9474.636058
1014.557516,-1332.370696,-1225.752797,9252.574275
1014.557845,-296.082377,-383.047749,8956.491898
1014.558174,1110.308913,229.828649,8290.306550
1014.558504,2886.803174,0.000000,8068.244768
1014.558833,4663.297435,459.657299,8438.347739
1014.559163,5403.503377,536.266849,8586.388927
1014.559492,5477.523971,766.095498,9474.636058
1014.559821,5107.421000,919.314598,10214.842000
1014.560151,4145.153275,1685.410096,10658.965565
1014.560480,2812.782580,2451.505594,10584.944971
1014.560809,2886.803174,1838.629195,11251.130318
1014.561139,2664.741391,1455.581446,10955.047942
1014.561468,2442.679609,2068.457845,10140.821405
1014.561797,2220.617826,842.705048,9104.533087
1014.562127,2516.700203,383.047749,7846.182985
1014.562456,2738.761985,842.705048,7624.121203
1014.562786,2072.576638,459.657299,8068.244768
1014.563115,1184.329507,919.314598,8734.430116
1014.563444,222.061783,842.705048,9178.553681
1014.563774,-1110.308913,612.876398,9474.636058
1014.564103,-1776.494261,689.485948,10214.842000
1014.564432,-2072.576638,76.609550,11399.171507
1014.564762,-2368.659014,-306.438199,12065.356855
1014.565091,-2516.700203,0.000000,11399.171507
1014.565420,-1924.535449,0.000000,10436.903782
1014.565750,-296.082377,0.000000,9178.553681
1014.566079,2294.638420,459.657299,8882.471304
1014.566409,4663.297435,1149.143247,7846.182985
1014.566738,7105.977043,2451.505594,7105.977043
1014.567067,9104.533087,2757.943793,7254.018232
1014.567397,9844.739029,3830.477490,8438.347739
1014.567726,8364.327145,5056.230287,9474.636058
1014.568055,6513.812290,5745.716235,10807.006753
1014.568385,3849.070898,4519.963438,11695.253884
1014.568714,962.267725,2528.115143,13249.686362
1014.569043,-2960.823768,995.924147,13841.851115
1014.569373,-6957.935855,-383.047749,12583.501014
1014.569702,-7476.080014,-1991.848295,11251.130318
1014.570032,-6513.812290,-2451.505594,8216.285956
1014.570361,-2812.782580,-2987.772442,4293.194464
1014.570690,2886.803174,-4903.011187,2072.576638
1014.571020,7550.100608,-3983.696590,1998.556043
1014.571349,8882.471304,1149.143247,3923.091493
1014.571678,7846.182985,5439.278036,7105.977043
1014.572008,6513.812290,7660.954980,9992.780217
1014.572337,3627.009116,8810.098227,13249.686362
1014.572666,74.020594,7584.345430,14878.139434
1014.572996,-2516.700203,4136.915689,16580.613101
1014.573325,-4367.215058,612.876398,16284.530724
1014.573655,-4811.338623,-2528.115143,13989.892304
1014.573984,-4071.132681,-5056.230287,10732.986159
1014.574313,-518.144159,-6665.030833,8438.347739
1014.574643,4145.153275,-6741.640382,5699.585753
1014.574972,7772.162391,-3677.258390,3182.885551
1014.575301,11695.253884,-995.924147,3552.988522
1014.575631,12805.562797,2145.067394,6217.729913
1014.575960,10214.842000,5975.544884,9622.677246
1014.576289,5107.421000,8733.488677,12805.562797
1014.576619,-444.123565,8273.831378,13693.809927
1014.576948,-3849.070898,5745.716235,14952.160028
1014.577278,-4441.235652,1838.629195,13915.871710
1014.577607,-3923.091493,-3983.696590,11621.233289
1014.577936,-3182.885551,-7354.516781,7105.977043
1014.578266,-740.205942,-7507.735880,4737.318029
1014.578595,1184.329507,-7124.688131,5477.523971
1014.578924,1406.391290,-2528.115143,7105.977043
1014.579254,444.123565,1915.238745,8364.327145
1014.579583,0.000000,3677.258390,9474.636058
1014.579912,1036.288319,6205.373534,11177.109724
1014.580242,1036.288319,6052.154434,11547.212695
1014.580571,1332.370696,2757.943793,11991.336260
1014.580901,148.041188,-689.485948,11769.274478
1014.581230,-1554.432478,-1838.629195,11843.295072
1014.581559,-2960.823768,-2298.286494,11473.192101
1014.581889,-4737.318029,-2987.772442,9622.677246
1014.582218,-3849.070898,-3217.601092,7550.100608
1014.582547,-222.061783,-3907.087040,6661.853478
1014.582877,4959.379811,-2374.896044,7846.182985
1014.583206,6661.853478,1302.362347,7254.018232
1014.583535,6217.729913,4749.792088,6365.771101
1014.583865,4737.318029,5056.230287,7550.100608
1014.584194,2442.679609,6052.154434,11917.315666
1014.584524,-888.247130,7354.516781,14656.077652
1014.584853,-4737.318029,5975.544884,14878.139434
1014.585183,-6513.812290,2528.115143,12731.542202
1014.585513,-7698.141797,-1302.362347,10584.944971
1014.585842,-7031.956449,-4673.182538,8586.388927
1014.586172,-5329.482782,-6358.592633,7105.977043
1014.586502,-3256.906145,-4749.792088,6365.771101
1014.586831,-2220.617826,-919.314598,6513.812290
1014.587161,-2146.597232,2604.724693,7254.018232
1014.587491,-1628.453072,4749.792088,7550.100608
1014.587820,1110.308913,3753.867940,7994.224174
1014.588150,3627.009116,4290.134789,10066.800811
1014.588480,3627.009116,6435.202183,11843.295072
1014.588809,2738.761985,6435.202183,11325.150913
1014.589139,2442.679609,3677.258390,9844.739029
1014.589469,1998.556043,-153.219100,9326.594869
1014.589798,444.123565,-76.609550,10510.924376
1014.590128,-1184.329507,2298.286494,11547.212695
1014.590458,-1628.453072,2834.553343,10732.986159
1014.590787,-1702.473667,1991.848295,8586.388927
1014.591117,-1406.391290,842.705048,6883.915261
1014.591447,814.226536,229.828649,6069.688724
1014.591776,2960.823768,612.876398,7105.977043
1014.592106,2072.576638,1838.629195,8438.347739
1014.592436,-1554.432478,4136.915689,8512.368333
1014.592765,-4441.235652,2911.162892,8808.450710
1014.593095,-3923.091493,306.438199,9622.677246
1014.593425,-2886.803174,536.266849,10584.944971
1014.593754,-1184.329507,383.047749,10362.883188
1014.594084,74.020594,-1455.581446,8734.430116
1014.594414,74.020594,-1532.190996,8290.306550
1014.594743,-1184.329507,-306.438199,9474.636058
1014.595073,-2812.782580,1991.848295,10881.027347
1014.595403,-3256.906145,2987.772442,12287.418637
1014.595732,-2368.659014,2911.162892,11843.295072
1014.596062,-2072.576638,1532.190996,11473.192101
1014.596392,-1110.308913,-1378.971896,9844.739029
1014.596721,1184.329507,-3217.601092,8734.430116
1014.597051,1998.556043,-3830.477490,8882.471304
1014.597381,0.000000,-1608.800546,9400.615463
1014.597710,-2886.803174,76.609550,10732.986159
1014.598040,-3256.906145,229.828649,11843.295072
1014.598370,-1554.432478,-153.219100,11695.253884
1014.598699,-296.082377,0.000000,10881.027347
1014.599029,1036.288319,-76.609550,8882.471304
1014.599359,3034.844362,-459.657299,7920.203579
1014.599688,3404.947333,-766.095498,8438.347739
1014.600018,1184.329507,919.314598,10214.842000
1014.600348,-2516.700203,3064.381992,11325.150913
1014.600678,-4885.359217,3983.696590,10955.047942
1014.601007,-4811.338623,2681.334243,10955.047942
1014.601337,-4663.297435,229.828649,10362.883188
1014.601667,-4145.153275,-1378.971896,9178.553681
1014.601996,-3552.988522,-3064.381992,7846.182985
1014.602326,-3330.926739,-1991.848295,8068.244768
1014.602656,-4293.194464,919.314598,8216.285956
1014.602985,-4589.276840,1072.533697,8438.347739
1014.603315,-3849.070898,1378.971896,8142.265362
1014.603645,-1480.411884,1072.533697,7476.080014
1014.603974,1776.494261,1838.629195,7550.100608
1014.604304,4219.173869,1762.019645,8364.327145
1014.604634,5551.544565,2528.115143,8660.409521
1014.604963,4219.173869,3753.867940,9548.656652
1014.605293,1628.453072,4519.963438,10955.047942
1014.605623,-148.041188,5592.497135,11843.295072
1014.605952,-444.123565,5132.839837,11547.212695
1014.606282,-666.185348,3447.429741,11325.150913
1014.606612,-1258.350101,1608.800546,9548.656652
1014.606941,-962.267725,0.000000,7994.224174
1014.607271,0.000000,-766.095498,7105.977043
1014.607601,0.000000,-306.438199,7402.059420
1014.607930,-1554.432478,459.657299,8586.388927
1014.608260,-2812.782580,1915.238745,9622.677246
1014.608590,-2738.761985,2451.505594,9474.636058
1014.608919,-1110.308913,1838.629195,8956.491898
1014.609249,518.144159,1455.581446,8734.430116
1014.609579,1702.473667,1455.581446,7920.203579
1014.609908,2368.659014,1838.629195,8882.471304
1014.610238,3034.844362,1225.752797,10584.944971
1014.610568,1480.411884,2834.553343,11547.212695
1014.610897,-1332.370696,3600.648841,11177.109724
1014.611227,-2442.679609,2068.457845,11103.089130
1014.611557,-2072.576638,383.047749,11473.192101
1014.611886,-1480.411884,536.266849,11473.192101
1014.612216,-518.144159,-306.438199,9844.739029
1014.612546,-666.185348,-1302.362347,7402.059420
1014.612875,-888.247130,-2451.505594,6883.915261
1014.613205,-1850.514855,-1608.800546,8290.306550
1014.613535,-2886.803174,-766.095498,10066.800811
1014.613864,-3478.967927,-383.047749,10214.842000
1014.614194,-3404.947333,0.000000,9474.636058
1014.614524,-2960.823768,919.314598,8512.368333
1014.614853,-222.061783,-306.438199,7550.100608
1014.615183,2516.700203,-1378.971896,7920.203579
1014.615513,2442.679609,-153.219100,9696.697840
1014.615842,-296.082377,2221.676944,11177.109724
1014.616172,-3330.926739,2757.943793,12287.418637
1014.616502,-4663.297435,2068.457845,12287.418637
1014.616831,-4293.194464,1149.143247,12065.356855
1014.617161,-3849.070898,-842.705048,11843.295072
1014.617491,-2590.720797,-1838.629195,11399.171507
1014.617820,-1850.514855,-1991.848295,9474.636058
1014.618150,-2664.741391,-2298.286494,8734.430116
1014.618480,-4441.235652,-1225.752797,9030.512492
1014.618809,-4737.318029,536.266849,9252.574275
1014.619139,-3108.864956,-229.828649,9326.594869
1014.619469,-518.144159,0.000000,8290.306550
1014.619798,1110.308913,1532.190996,7179.997637
1014.620128,3627.009116,842.705048,5847.626942
1014.620458,4663.297435,-766.095498,7105.977043
1014.620787,4737.318029,2068.457845,9844.739029
1014.621117,2294.638420,5975.544884,11843.295072
1014.621447,-370.102971,6358.592633,12361.439231
1014.621777,-1924.535449,4673.182538,11325.150913
1014.622106,-2368.659014,3447.429741,9474.636058
1014.622436,-814.226536,76.609550,8956.491898
1014.622766,740.205942,-919.314598,9400.615463
1014.623095,0.000000,612.876398,8956.491898
1014.623425,-2072.576638,995.924147,7772.162391
1014.623755,-3478.967927,536.266849,7698.141797
1014.624084,-3256.906145,0.000000,8512.368333
1014.624414,-1332.370696,1608.800546,8808.450710
1014.624744,-518.144159,2528.115143,8364.327145
1014.625073,74.020594,2221.676944,7476.080014
1014.625403,1480.411884,1991.848295,6661.853478
1014.625733,2072.576638,306.438199,7105.977043
1014.626062,2516.700203,1378.971896,9992.780217
1014.626392,740.205942,3064.381992,12435.459826
1014.626722,-1480.411884,4749.792088,13175.665768
1014.627051,-2294.638420,3294.210641,11547.212695
1014.627381,-1406.391290,153.219100,10658.965565
1014.627711,444.123565,-689.485948,11103.089130
1014.628040,740.205942,0.000000,10881.027347
1014.628370,296.082377,1225.752797,10362.883188
1014.628700,-296.082377,1378.971896,9326.594869
1014.629029,-1258.350101,-459.657299,7920.203579
1014.629359,-2590.720797,-1302.362347,7402.059420
1014.629689,-3108.864956,-995.924147,8882.471304
1014.630018,-2368.659014,0.000000,10066.800811
1014.630348,-2220.617826,76.609550,10140.821405
1014.630678,-1850.514855,0.000000,8882.471304
1014.631007,-1406.391290,383.047749,7698.141797
1014.631337,-666.185348,0.000000,8586.388927
1014.631667,-888.247130,536.266849,10510.924376
1014.631996,-2368.659014,2834.553343,11547.212695
1014.632326,-3997.112087,3753.867940,11177.109724
1014.632656,-4293.194464,1378.971896,11251.130318
1014.632985,-4293.194464,0.000000,11917.315666
1014.633315,-3627.009116,-459.657299,11399.171507
1014.633645,-2442.679609,-919.314598,9622.677246
1014.633974,-2368.659014,-2374.896044,8660.409521
1014.634304,-3182.885551,-1072.533697,8364.327145
1014.634634,-3701.029710,-1072.533697,7846.182985
1014.634963,-2072.576638,-995.924147,8364.327145
1014.635293,-444.123565,383.047749,8216.285956
1014.635623,518.144159,2068.457845,7624.121203
1014.635952,2220.617826,2145.067394,7031.956449
1014.636282,4959.379811,689.485948,7846.182985
1014.636612,4885.359217,1608.800546,9474.636058
1014.636941,1628.453072,4290.134789,11177.109724
1014.637271,-1850.514855,4826.401637,12065.356855
1014.637601,-3182.885551,4060.306139,12213.398043
1014.637930,-3034.844362,2145.067394,11103.089130
1014.638260,-2590.720797,229.828649,10214.842000
1014.638590,-1184.329507,-995.924147,9104.533087
1014.638919,0.000000,-1608.800546,7846.182985
1014.639249,-1110.308913,-1072.533697,7254.018232
1014.639579,-2590.720797,689.485948,7254.018232
1014.639908,-3701.029710,1302.362347,8068.244768
1014.640238,-2442.679609,1838.629195,9400.615463
1014.640568,-1480.411884,1991.848295,10140.821405
1014.640897,148.041188,3064.381992,9030.512492
1014.641227,2368.659014,1685.410096,7105.977043
1014.641557,4515.256246,-766.095498,7254.018232
1014.641886,3849.070898,612.876398,9548.656652
1014.642216,1036.288319,3217.601092,11917.315666
1014.642546,-1628.453072,4290.134789,12657.521608
1014.642876,-2812.782580,3677.258390,12287.418637
1014.643205,-2442.679609,2221.676944,11621.233289
1014.643535,-1628.453072,306.438199,10881.027347
1014.643865,-222.061783,-1455.581446,9918.759623
1014.644194,296.082377,-995.924147,8660.409521
1014.644524,-888.247130,-842.705048,8290.306550
1014.644854,-3701.029710,0.000000,7624.121203
1014.645183,-4589.276840,0.000000,7698.141797
1014.645513,-3330.926739,-842.705048,8882.471304
1014.645843,-1850.514855,229.828649,9770.718434
1014.646172,-962.267725,1838.629195,9104.533087
1014.646502,888.247130,995.924147,7402.059420
1014.646832,1110.308913,-306.438199,6661.853478
1014.647161,0.000000,383.047749,9178.553681
1014.647491,-1998.556043,2145.067394,11621.233289
1014.647821,-3775.050304,3217.601092,13545.768739
1014.648150,-4589.276840,3600.648841,13027.624579
1014.648480,-4441.235652,1608.800546,12583.501014
1014.648810,-3256.906145,-1991.848295,10955.047942
1014.649139,-1628.453072,-3294.210641,9918.759623
1014.649469,-444.123565,-1685.410096,9548.656652
1014.649799,-1184.329507,-766.095498,9992.780217
1014.650128,-2368.659014,-229.828649,8734.430116
1014.650458,-2590.720797,766.095498,7624.121203
1014.650788,-814.226536,-306.438199,7402.059420
1014.651117,1332.370696,-536.266849,8068.244768
1014.651447,2146.597232,1915.238745,7772.162391
1014.651777,3256.906145,2604.724693,7994.224174
1014.652106,3404.947333,1378.971896,8068.244768
1014.652436,1776.494261,1991.848295,9178.553681
1014.652766,-814.226536,2834.553343,11177.109724
1014.653095,-2738.761985,3447.429741,13249.686362
1014.653425,-3997.112087,3983.696590,13175.665768
1014.653755,-3997.112087,3294.210641,11473.192101
1014.654084,-2812.782580,995.924147,9104.533087
1014.654414,-814.226536,-1378.971896,7031.956449
1014.654744,0.000000,-1915.238745,6735.874072
1014.655073,-1702.473667,-766.095498,7402.059420
1014.655403,-3997.112087,1378.971896,7994.224174
1014.655733,-5329.482782,2987.772442,7698.141797
1014.656062,-3478.967927,1225.752797,8364.327145
1014.656392,-888.247130,536.266849,8660.409521
1014.656722,1184.329507,842.705048,8290.306550
1014.657051,3701.029710,153.219100,7920.203579
1014.657381,4441.235652,842.705048,8586.388927
1014.657711,3330.926739,3064.381992,10140.821405
1014.658040,888.247130,4519.963438,11769.274478
1014.658370,-962.267725,5056.230287,13323.706956
1014.658700,-1184.329507,4366.744339,13471.748144
1014.659029,-1184.329507,3447.429741,12731.542202
1014.659359,-1184.329507,536.266849,11547.212695
1014.659689,-962.267725,-766.095498,9474.636058
1014.660018,-1184.329507,-2068.457845,7846.182985
1014.660348,-2220.617826,-2604.724693,7994.224174
1014.660678,-4145.153275,0.000000,7994.224174
1014.661007,-5033.400406,612.876398,8216.285956
1014.661337,-3775.050304,0.000000,8734.430116
1014.661667,-2220.617826,76.609550,8660.409521
1014.661996,-592.164754,229.828649,7994.224174
1014.662326,814.226536,76.609550,7698.141797
1014.662656,1258.350101,1072.533697,7550.100608
1014.662985,74.020594,2451.505594,8808.450710
1014.663315,-1406.391290,2298.286494,10510.924376
1014.663645,-2664.741391,2604.724693,12139.377449
1014.663975,-3330.926739,3140.991542,12657.521608
1014.664304,-3849.070898,229.828649,12065.356855
1014.664634,-3330.926739,-995.924147,11843.295072
1014.664964,-1998.556043,-1149.143247,10584.944971
1014.665293,-962.267725,-2451.505594,9548.656652
1014.665623,-1998.556043,-2451.505594,9030.512492
1014.665953,-3552.988522,153.219100,8216.285956
1014.666282,-3478.967927,689.485948,8290.306550
1014.666612,-1184.329507,0.000000,8734.430116
1014.666942,-296.082377,766.095498,7698.141797
1014.667271,814.226536,995.924147,6735.874072
1014.667601,2368.659014,-229.828649,6661.853478
1014.667931,2812.782580,306.438199,8586.388927
1014.668260,1110.308913,1608.800546,10955.047942
1014.668590,-2368.659014,3294.210641,12953.603985
1014.668920,-4367.215058,4903.011187,13693.809927
1014.669249,-4293.194464,3677.258390,12953.603985
1014.669579,-3701.029710,1225.752797,11325.150913
1014.669909,-2368.659014,0.000000,9326.594869
1014.670238,-592.164754,-1225.752797,7624.121203
1014.670568,518.144159,-1532.190996,7476.080014
1014.670898,-1110.308913,0.000000,7698.141797
1014.671227,-2516.700203,1838.629195,7550.100608
1014.671557,-2516.700203,1991.848295,7624.121203
1014.671887,-1258.350101,995.924147,7920.203579
1014.672216,148.041188,2374.896044,8142.265362
1014.672546,1998.556043,2068.457845,7624.121203
1014.672876,3627.009116,1072.533697,7550.100608
1014.673205,3404.947333,1762.019645,9104.533087
1014.673535,1258.350101,3753.867940,10881.027347
1014.673865,-1776.494261,5056.230287,11399.171507
1014.674194,-2516.700203,4213.525239,11695.253884
1014.674524,-2072.576638,3217.601092,11843.295072
1014.674854,-2220.617826,2068.457845,12065.356855
1014.675183,-1850.514855,842.705048,10436.903782
1014.675513,-1110.308913,-229.828649,8438.347739
1014.675843,-1110.308913,-1685.410096,7550.100608
1014.676172,-2368.659014,-995.924147,8364.327145
1014.676502,-4293.194464,536.266849,8290.306550
1014.676832,-3701.029710,536.266849,8364.327145
1014.677161,-2220.617826,-76.609550,8216.285956
1014.677491,-962.267725,383.047749,7846.182985
1014.677821,666.185348,-459.657299,7698.141797
1014.678150,2664.741391,-306.438199,8290.306550
1014.678480,2812.782580,459.657299,9548.656652
1014.678810,740.205942,3217.601092,10955.047942
1014.679139,-1998.556043,3983.696590,11621.233289
1014.679469,-3330.926739,2604.724693,12139.377449
1014.679799,-3404.947333,1149.143247,12509.480420
1014.680128,-2960.823768,0.000000,12435.459826
1014.680458,-2960.823768,-1149.143247,11473.192101
1014.680788,-1924.535449,-2298.286494,9548.656652
1014.681117,-2220.617826,-3064.381992,8808.450710
1014.681447,-2812.782580,-2451.505594,8364.327145
1014.681777,-3330.926739,-1149.143247,8586.388927
1014.682106,-2590.720797,-459.657299,8290.306550
1014.682436,-1258.350101,306.438199,8216.285956
1014.682766,370.102971,153.219100,7772.162391
1014.683095,1702.473667,0.000000,7402.059420
1014.683425,3478.967927,-536.266849,7624.121203
1014.683755,3552.988522,612.876398,10436.903782
1014.684085,1332.370696,2604.724693,12435.459826
1014.684414,-1776.494261,4290.134789,13101.645173
1014.684744,-2368.659014,3677.258390,12287.418637
1014.685074,-1776.494261,1302.362347,11547.212695
1014.685403,-1776.494261,0.000000,10362.883188
1014.685733,-2146.597232,76.609550,8512.368333
1014.686063,-1776.494261,-919.314598,7402.059420
1014.686392,-1924.535449,-1378.971896,7254.018232
1014.686722,-3923.091493,153.219100,8216.285956
1014.687052,-4441.235652,1225.752797,8734.430116
1014.687381,-3256.906145,459.657299,8364.327145
1014.687711,-1406.391290,0.000000,7402.059420
1014.688041,962.267725,229.828649,7179.997637
1014.688371,3182.885551,919.314598,6957.935855
1014.688701,4737.318029,1762.019645,8290.306550
1014.689030,4219.173869,4213.525239,10732.986159
1014.689360,1554.432478,6205.373534,11843.295072
1014.689690,-444.123565,5975.544884,11917.315666
1014.690020,-1480.411884,3907.087040,11695.253884
1014.690349,-1554.432478,3064.381992,12065.356855
1014.690679,-1702.473667,1915.238745,12065.356855
1014.691009,-1998.556043,76.609550,10362.883188
1014.691339,-1998.556043,-536.266849,8438.347739
1014.691669,-2442.679609,-1225.752797,7402.059420
1014.691998,-2960.823768,-1608.800546,8438.347739
1014.692328,-3552.988522,766.095498,8438.347739
1014.692658,-3701.029710,1991.848295,7402.059420
1014.692988,-2368.659014,1072.533697,6735.874072
1014.693317,-740.205942,689.485948,7476.080014
1014.693647,888.247130,1225.752797,8734.430116
1014.693977,1480.411884,1302.362347,9252.574275
1014.694307,518.144159,2451.505594,10214.842000
1014.694637,-1776.494261,3370.820191,11177.109724
1014.694966,-3256.906145,3600.648841,11695.253884
1014.695296,-3330.926739,1838.629195,12139.377449
1014.695626,-2442.679609,76.609550,11843.295072
1014.695956,-2368.659014,-229.828649,11029.068536
1014.696285,-1554.432478,-612.876398,10214.842000
1014.696615,-962.267725,-1378.971896,9474.636058
1014.696945,-1332.370696,-1149.143247,8734.430116
1014.697275,-2220.617826,-1302.362347,8290.306550
1014.697605,-2664.741391,0.000000,8438.347739
1014.697934,-1776.494261,76.609550,8882.471304
1014.698264,-444.123565,-306.438199,8438.347739
1014.698594,518.144159,-995.924147,7550.100608
1014.698924,1554.432478,-1072.533697,7920.203579
1014.699253,2738.761985,0.000000,9474.636058
1014.699583,2220.617826,995.924147,11251.130318
1014.699913,-296.082377,1915.238745,12213.398043
1014.700243,-3034.844362,3447.429741,12361.439231
1014.700573,-3256.906145,2757.943793,11769.274478
1014.700902,-2368.659014,919.314598,11029.068536
1014.701232,-1480.411884,-842.705048,9918.759623
1014.701562,-666.185348,-1532.190996,9474.636058
1014.701892,0.000000,-1225.752797,9030.512492
1014.702221,-814.226536,-1149.143247,8586.388927
1014.702551,-2738.761985,0.000000,7624.121203
1014.702881,-2590.720797,229.828649,7698.141797
1014.703211,-1480.411884,459.657299,8364.327145
1014.703541,518.144159,766.095498,9252.574275
1014.703870,1702.473667,2068.457845,8808.450710
1014.704200,2738.761985,2374.896044,7550.100608
1014.704530,3627.009116,1532.190996,7254.018232
1014.704860,2664.741391,2298.286494,9548.656652
1014.705189,222.061783,4213.525239,11399.171507
1014.705519,-1850.514855,4826.401637,11843.295072
1014.705849,-2294.638420,3907.087040,11695.253884
1014.706179,-2146.597232,2757.943793,10807.006753
1014.706508,-1628.453072,1302.362347,9622.677246
1014.706838,-592.164754,-536.266849,9326.594869
1014.707168,-444.123565,-919.314598,9178.553681
1014.707498,-2368.659014,1149.143247,9326.594869
1014.707828,-4293.194464,1685.410096,9030.512492
1014.708157,-4737.318029,1991.848295,8512.368333
1014.708487,-3256.906145,1149.143247,8068.244768
1014.708817,-1110.308913,383.047749,7920.203579
1014.709147,444.123565,919.314598,7402.059420
1014.709476,1850.514855,1149.143247,7254.018232
1014.709806,1628.453072,1302.362347,8586.388927
1014.710136,0.000000,2528.115143,10732.986159
1014.710466,-2590.720797,3983.696590,12509.480420
1014.710796,-3701.029710,4903.011187,13397.727550
1014.711125,-3701.029710,3064.381992,11917.315666
1014.711455,-3182.885551,1149.143247,10436.903782
1014.711785,-1406.391290,-612.876398,9104.533087
1014.712115,-444.123565,-2681.334243,8216.285956
1014.712444,-370.102971,-2451.505594,8216.285956
1014.712774,-1998.556043,-459.657299,9030.512492
1014.713104,-3627.009116,689.485948,9622.677246
1014.713434,-3775.050304,306.438199,8660.409521
1014.713764,-2072.576638,-612.876398,8290.306550
1014.714093,0.000000,-536.266849,8660.409521
1014.714423,1628.453072,0.000000,8660.409521
1014.714753,2886.803174,306.438199,8956.491898
1014.715083,3404.947333,995.924147,9104.533087
1014.715412,1628.453072,1378.971896,10214.842000
1014.715742,-962.267725,1838.629195,11843.295072
1014.716072,-3997.112087,3370.820191,12287.418637
1014.716402,-4885.359217,2757.943793,11843.295072
1014.716732,-4441.235652,76.609550,11029.068536
1014.717061,-3330.926739,-1608.800546,8956.491898
1014.717391,-1480.411884,-2911.162892,8068.244768
1014.717721,0.000000,-4366.744339,8290.306550
1014.718051,-962.267725,-2681.334243,8586.388927
1014.718380,-2368.659014,76.609550,8364.327145
1014.718710,-2516.700203,1378.971896,8808.450710
1014.719040,-518.144159,995.924147,9326.594869
1014.719370,2220.617826,1685.410096,10362.883188
1014.719700,3701.029710,2681.334243,10214.842000
1014.720029,4737.318029,2451.505594,8956.491898
1014.720359,4811.338623,1302.362347,8734.430116
1014.720689,2664.741391,2451.505594,10140.821405
1014.721019,74.020594,3140.991542,11695.253884
1014.721348,-1628.453072,3677.258390,12213.398043
1014.721678,-2072.576638,2757.943793,10881.027347
1014.722008,-1628.453072,1149.143247,9548.656652
1014.722338,-592.164754,-919.314598,8808.450710
1014.722668,74.020594,-689.485948,8216.285956
1014.722997,-370.102971,0.000000,8068.244768
1014.723327,-2072.576638,1455.581446,8438.347739
1014.723657,-3923.091493,2987.772442,8660.409521
1014.723987,-3923.091493,2911.162892,8438.347739
1014.724316,-2368.659014,1532.190996,8068.244768
1014.724646,-1406.391290,383.047749,8290.306550
1014.724976,-592.164754,1149.143247,8586.388927
1014.725306,0.000000,1762.019645,8808.450710
1014.725636,592.164754,995.924147,9400.615463
1014.725965,-740.205942,1915.238745,10288.862594
1014.726295,-2368.659014,2987.772442,10881.027347
1014.726625,-3701.029710,3140.991542,11103.089130
1014.726955,-2738.761985,2145.067394,11769.274478
1014.727284,-2220.617826,1455.581446,11103.089130
1014.727614,-1776.494261,459.657299,9474.636058
1014.727944,-296.082377,-1685.410096,8216.285956
1014.728274,0.000000,-2451.505594,7698.141797
1014.728604,-1258.350101,-1225.752797,8512.368333
1014.728933,-2960.823768,536.266849,9252.574275
1014.729263,-3256.906145,1532.190996,9474.636058
1014.729593,-2146.597232,306.438199,9474.636058
1014.729923,-444.123565,-306.438199,9474.636058
1014.730252,962.267725,0.000000,9178.553681
1014.730582,2072.576638,0.000000,9548.656652
1014.730912,2368.659014,1762.019645,9548.656652
1014.731242,222.061783,2604.724693,10436.903782
1014.731572,-2368.659014,2298.286494,11177.109724
1014.731901,-3627.009116,1838.629195,11843.295072
1014.732231,-4219.173869,1608.800546,11991.336260
1014.732561,-3775.050304,1072.533697,11621.233289
1014.732891,-2664.741391,-1072.533697,9992.780217
1014.733220,-1332.370696,-1532.190996,7994.224174
1014.733550,-1332.370696,-2757.943793,6365.771101
1014.733880,-1702.473667,-2451.505594,7254.018232
1014.734210,-2368.659014,76.609550,8512.368333
1014.734540,-1702.473667,2451.505594,9474.636058
1014.734869,-740.205942,1762.019645,9178.553681
1014.735199,222.061783,1685.410096,7846.182985
1014.735529,2294.638420,919.314598,7402.059420
1014.735859,4441.235652,383.047749,8364.327145
1014.736188,4959.379811,1608.800546,10436.903782
1014.736518,2072.576638,3753.867940,11917.315666
1014.736848,-962.267725,4673.182538,11991.336260
1014.737178,-2516.700203,3600.648841,10881.027347
1014.737508,-1924.535449,2068.457845,10584.944971
1014.737837,-666.185348,536.266849,11029.068536
1014.738167,-370.102971,459.657299,9622.677246
1014.738497,-444.123565,842.705048,7920.203579
1014.738827,-444.123565,229.828649,6883.915261
1014.739156,-1332.370696,229.828649,6957.935855
1014.739486,-2516.700203,1225.752797,8364.327145
1014.739816,-2294.638420,1532.190996,8438.347739
1014.740146,-1702.473667,2145.067394,8734.430116
1014.740476,-1184.329507,2298.286494,9326.594869
1014.740805,-592.164754,1915.238745,9474.636058
1014.741135,74.020594,1072.533697,9696.697840
1014.741465,814.226536,842.705048,10584.944971
1014.741795,-296.082377,1762.019645,12583.501014
1014.742124,-2368.659014,2757.943793,13175.665768
1014.742454,-3330.926739,2834.553343,11917.315666
1014.742784,-2886.803174,1072.533697,10510.924376
1014.743114,-1332.370696,76.609550,9918.759623
1014.743444,814.226536,-306.438199,8216.285956
1014.743773,1702.473667,-689.485948,7031.956449
1014.744103,1702.473667,-919.314598,6957.935855
1014.744433,-888.247130,76.609550,7624.121203
1014.744763,-2516.700203,1608.800546,8290.306550
1014.745092,-2294.638420,1915.238745,9252.574275
1014.745422,-1110.308913,229.828649,9770.718434
1014.745752,-888.247130,306.438199,9622.677246
1014.746082,-1332.370696,766.095498,9030.512492
1014.746412,-888.247130,-766.095498,9474.636058
1014.746741,-1036.288319,-612.876398,10066.800811
1014.747071,-3182.885551,1685.410096,11177.109724
1014.747401,-5329.482782,1608.800546,10807.006753
1014.747731,-4737.318029,229.828649,10584.944971
1014.748060,-3256.906145,-689.485948,10510.924376
1014.748390,-1480.411884,-919.314598,9400.615463
1014.748720,-666.185348,-1762.019645,8068.244768
1014.749050,370.102971,-1838.629195,8512.368333
1014.749379,296.082377,-229.828649,9622.677246
1014.749709,-888.247130,612.876398,10066.800811
1014.750039,-1776.494261,1685.410096,9844.739029
1014.750369,-1036.288319,995.924147,9252.574275
1014.750699,666.185348,-229.828649,9696.697840
1014.751028,1480.411884,153.219100,10140.821405
1014.751358,1850.514855,842.705048,9770.718434
1014.751688,2368.659014,536.266849,9696.697840
1014.752018,1850.514855,1302.362347,10140.821405
1014.752347,0.000000,2987.772442,11547.212695
1014.752677,-1480.411884,3907.087040,11325.150913
1014.753007,-1628.453072,2451.505594,10510.924376
1014.753337,-1628.453072,1225.752797,9696.697840
1014.753667,-1702.473667,2221.676944,9030.512492
1014.753996,-370.102971,995.924147,8438.347739
1014.754326,666.185348,0.000000,7624.121203
1014.754656,0.000000,612.876398,7328.038826
1014.754986,-1776.494261,1762.019645,7402.059420
1014.755315,-2072.576638,1608.800546,7031.956449
1014.755645,-1184.329507,1685.410096,7846.182985
1014.755975,296.082377,2298.286494,9326.594869
1014.756305,444.123565,3294.210641,9770.718434
1014.756635,740.205942,2604.724693,9030.512492
1014.756964,1628.453072,1455.581446,9104.533087
1014.757294,1702.473667,459.657299,10807.006753
1014.757624,-370.102971,2451.505594,12435.459826
1014.757954,-2442.679609,3524.039291,12435.459826
1014.758283,-3256.906145,2374.896044,10658.965565
1014.758613,-3182.885551,842.705048,8956.491898
1014.758943,-1554.432478,-766.095498,8586.388927
1014.759273,74.020594,-1378.971896,7994.224174
1014.759603,518.144159,-459.657299,7476.080014
1014.759932,-888.247130,229.828649,7920.203579
1014.760262,-2886.803174,1532.190996,8364.327145
1014.760592,-3849.070898,1762.019645,8956.491898
1014.760922,-3775.050304,-229.828649,9474.636058
1014.761251,-3034.844362,-229.828649,11029.068536
1014.761581,-2368.659014,383.047749,11621.233289
1014.761911,-1480.411884,76.609550,10584.944971
1014.762241,-444.123565,-689.485948,9326.594869
1014.762571,-666.185348,-76.609550,9326.594869
1014.762900,-962.267725,459.657299,10881.027347
1014.763230,-1850.514855,2221.676944,12065.356855
1014.763560,-2294.638420,3064.381992,11695.253884
1014.763890,-2294.638420,919.314598,10658.965565
1014.764219,-2664.741391,-383.047749,10140.821405
1014.764549,-1332.370696,-689.485948,9474.636058
1014.764879,-666.185348,-1685.410096,9178.553681
1014.765209,-1036.288319,-1991.848295,9030.512492
1014.765539,-3330.926739,-612.876398,8734.430116
1014.765868,-3923.091493,-306.438199,8068.244768
1014.766198,-2960.823768,-842.705048,8586.388927
1014.766528,-1184.329507,-1149.143247,9178.553681
1014.766858,222.061783,1072.533697,9622.677246
1014.767187,1776.494261,1838.629195,9400.615463
1014.767517,2812.782580,1455.581446,9400.615463
1014.767847,1924.535449,3064.381992,9252.574275
1014.768177,296.082377,2911.162892,9844.739029
1014.768507,-1776.494261,2757.943793,11399.171507
1014.768836,-2146.597232,3294.210641,12509.480420
1014.769166,-2516.700203,2681.334243,11473.192101
1014.769496,-1110.308913,689.485948,9326.594869
1014.769826,74.020594,-1762.019645,7105.977043
1014.770155,1110.308913,-1838.629195,6587.832884
1014.770485,740.205942,-1149.143247,7402.059420
1014.770815,-740.205942,1608.800546,7920.203579
1014.771145,-1480.411884,4903.011187,8142.265362
1014.771475,-592.164754,3983.696590,7994.224174
1014.771804,740.205942,2604.724693,8290.306550
1014.772134,1184.329507,2451.505594,9104.533087
1014.772464,1702.473667,1991.848295,10140.821405
1014.772794,1480.411884,2374.896044,11103.089130
1014.773123,-370.102971,3447.429741,11843.295072
1014.773453,-2886.803174,2298.286494,12361.439231
1014.773783,-4071.132681,1455.581446,11917.315666
1014.774113,-3849.070898,1149.143247,10436.903782
1014.774443,-2220.617826,536.266849,9696.697840
1014.774772,-74.020594,-153.219100,9030.512492
1014.775102,592.164754,153.219100,8290.306550
1014.775432,592.164754,0.000000,7550.100608
1014.775762,-518.144159,76.609550,7624.121203
1014.776091,-2664.741391,2451.505594,7402.059420
1014.776421,-3256.906145,2374.896044,7254.018232
1014.776751,-2738.761985,0.000000,8660.409521
1014.777081,-2442.679609,-919.314598,9696.697840
1014.777411,-1998.556043,-689.485948,10140.821405
1014.777740,-814.226536,-1149.143247,10436.903782
1014.778070,-370.102971,-689.485948,11029.068536
1014.778400,-740.205942,995.924147,11769.274478
1014.778730,-1850.514855,1608.800546,10881.027347
1014.779059,-2146.597232,1532.190996,10362.883188
1014.779389,-1332.370696,689.485948,11325.150913
1014.779719,-1702.473667,459.657299,12287.418637
1014.780049,-1850.514855,306.438199,11399.171507
1014.780379,-1480.411884,-919.314598,9474.636058
1014.780708,-888.247130,-2145.067394,7179.997637
1014.781038,-1480.411884,-2987.772442,7105.977043
1014.781368,-1924.535449,-2451.505594,7698.141797
1014.781698,-2220.617826,-612.876398,8068.244768
1014.782027,-1036.288319,0.000000,8882.471304
1014.782357,-518.144159,766.095498,9400.615463
1014.782687,370.102971,2068.457845,9622.677246
1014.783017,1332.370696,1915.238745,9696.697840
1014.783347,1702.473667,1225.752797,10288.862594
1014.783676,592.164754,1455.581446,11769.274478
1014.784006,-1184.329507,3064.381992,12065.356855
1014.784336,-2738.761985,2221.676944,12509.480420
1014.784666,-3849.070898,1608.800546,12213.398043
1014.784995,-4293.194464,1225.752797,11177.109724
1014.785325,-2516.700203,0.000000,9030.512492
1014.785655,370.102971,-1072.533697,7031.956449
1014.785985,1850.514855,-766.095498,6291.750507
1014.786314,1702.473667,229.828649,6365.771101
1014.786644,592.164754,2145.067394,6439.791695
1014.786974,-296.082377,3600.648841,6439.791695
1014.787303,-592.164754,4826.401637,7476.080014
1014.787633,370.102971,3907.087040,9252.574275
1014.787963,1258.350101,3907.087040,9918.759623
1014.788292,2220.617826,2451.505594,9474.636058
1014.788622,1998.556043,842.705048,10140.821405
1014.788952,-296.082377,1838.629195,11251.130318
1014.789282,-2368.659014,2681.334243,12879.583391
1014.789611,-4441.235652,3064.381992,12879.583391
1014.789941,-5107.421000,3524.039291,11251.130318
1014.790271,-3701.029710,2528.115143,9918.759623
1014.790600,-1628.453072,383.047749,8364.327145
1014.790930,0.000000,-536.266849,6587.832884
1014.791260,0.000000,-536.266849,5921.647536
1014.791589,-1628.453072,0.000000,6883.915261
1014.791919,-3849.070898,1378.971896,7772.162391
1014.792249,-4811.338623,1991.848295,8290.306550
1014.792578,-3701.029710,995.924147,9548.656652
1014.792908,-2146.597232,-689.485948,10140.821405
1014.793238,-666.185348,229.828649,10066.800811
1014.793568,666.185348,-153.219100,9326.594869
1014.793897,1036.288319,0.000000,10214.842000
1014.794227,0.000000,1149.143247,11843.295072
1014.794557,-2368.659014,2911.162892,12879.583391
1014.794886,-3330.926739,2834.553343,12287.418637
1014.795216,-2516.700203,766.095498,11769.274478
1014.795546,-1406.391290,-229.828649,11399.171507
1014.795875,-444.123565,-1991.848295,10288.862594
1014.796205,0.000000,-3140.991542,8734.430116
1014.796535,-592.164754,-2834.553343,7846.182985
1014.796864,-1776.494261,-1915.238745,8512.368333
1014.797194,-3182.885551,-383.047749,8660.409521
1014.797524,-3627.009116,0.000000,8364.327145
1014.797854,-1554.432478,-612.876398,8512.368333
1014.798183,-296.082377,0.000000,9178.553681
1014.798513,1036.288319,459.657299,9400.615463
1014.798843,1184.329507,766.095498,8882.471304
1014.799172,222.061783,689.485948,9474.636058
1014.799502,-814.226536,1532.190996,11473.192101
1014.799832,-2738.761985,3217.601092,12953.603985
1014.800161,-3182.885551,2221.676944,12361.439231
1014.800491,-3034.844362,1378.971896,10881.027347
1014.800821,-2516.700203,459.657299,9770.718434
1014.801150,-222.061783,-459.657299,8808.450710
1014.801480,1850.514855,-919.314598,7772.162391
1014.801810,1628.453072,-306.438199,7179.997637
1014.802140,0.000000,1225.752797,6957.935855
1014.802469,-1110.308913,2604.724693,7476.080014
1014.802799,-740.205942,3294.210641,7920.203579
1014.803129,-296.082377,3217.601092,8586.388927
1014.803458,74.020594,3064.381992,9326.594869
1014.803788,888.247130,3983.696590,9252.574275
1014.804118,1850.514855,2528.115143,9104.533087
1014.804447,1332.370696,1532.190996,9474.636058
1014.804777,-962.267725,2911.162892,10658.965565
1014.805107,-3330.926739,3447.429741,12583.501014
1014.805436,-4219.173869,3677.258390,12361.439231
1014.805766,-4441.235652,3370.820191,11399.171507
1014.806096,-3701.029710,1762.019645,10214.842000
1014.806426,-2072.576638,153.219100,8512.368333
1014.806755,-592.164754,-229.828649,7105.977043
1014.807085,-666.185348,919.314598,6291.750507
1014.807415,-2368.659014,1762.019645,5847.626942
1014.807744,-3701.029710,1608.800546,6809.894666
1014.808074,-3775.050304,1072.533697,8808.450710
1014.808404,-3404.947333,612.876398,10288.862594
1014.808733,-3108.864956,1915.238745,10807.006753
1014.809063,-1554.432478,1225.752797,9844.739029
1014.809393,222.061783,0.000000,9622.677246
1014.809722,666.185348,229.828649,9400.615463
1014.810052,0.000000,-153.219100,9474.636058
1014.810382,-962.267725,842.705048,10807.006753
1014.810712,-2220.617826,1762.019645,12509.480420
1014.811041,-2516.700203,1762.019645,13175.665768
1014.811371,-2146.597232,-153.219100,12213.398043
1014.811701,-518.144159,-1455.581446,9992.780217
1014.812030,1110.308913,-1762.019645,7920.203579
1014.812360,1480.411884,-3140.991542,7624.121203
1014.812690,0.000000,-2604.724693,8438.347739
1014.813019,-2220.617826,459.657299,8290.306550
1014.813349,-2664.741391,995.924147,7994.224174
1014.813679,-814.226536,-612.876398,8512.368333
1014.814008,1110.308913,-229.828649,9696.697840
1014.814338,1406.391290,-306.438199,9178.553681
1014.814668,1554.432478,-1149.143247,8734.430116
1014.814998,814.226536,-383.047749,9918.759623
1014.815327,-518.144159,1608.800546,13101.645173
1014.815657,-3034.844362,1608.800546,14211.954086
1014.815987,-4885.359217,2298.286494,13027.624579
1014.816316,-4515.256246,842.705048,10658.965565
1014.816646,-1924.535449,-1915.238745,9326.594869
1014.816976,2072.576638,-1915.238745,8734.430116
1014.817305,3997.112087,-689.485948,7105.977043
1014.817635,3330.926739,-536.266849,6217.729913
1014.817965,1184.329507,995.924147,6661.853478
1014.818294,-444.123565,3983.696590,7624.121203
1014.818624,-148.041188,4060.306139,8808.450710
1014.818954,888.247130,2221.676944,10288.862594
1014.819284,518.144159,3524.039291,10881.027347
1014.819613,666.185348,2374.896044,9844.739029
1014.819943,1480.411884,0.000000,9326.594869
1014.820273,0.000000,-229.828649,10066.800811
1014.820602,-2072.576638,2987.772442,12287.418637
1014.820932,-4367.215058,4136.915689,12435.459826
1014.821262,-4663.297435,4213.525239,11029.068536
1014.821591,-3552.988522,3217.601092,8956.491898
1014.821921,-2294.638420,2068.457845,7402.059420
1014.822251,0.000000,766.095498,7402.059420
1014.822580,148.041188,689.485948,7550.100608
1014.822910,-1406.391290,2068.457845,7476.080014
1014.823240,-3775.050304,2757.943793,7550.100608
1014.823570,-4737.318029,2528.115143,7698.141797
1014.823899,-3923.091493,1072.533697,8512.368333
1014.824229,-1850.514855,0.000000,9178.553681
1014.824559,-740.205942,1455.581446,10362.883188
1014.824888,222.061783,2221.676944,9030.512492
1014.825218,740.205942,1685.410096,8290.306550
1014.825548,296.082377,842.705048,9252.574275
1014.825877,-1110.308913,1762.019645,11843.295072
1014.826207,-2442.679609,3294.210641,12805.562797
1014.826537,-3478.967927,3217.601092,11991.336260
1014.826866,-4145.153275,1225.752797,10362.883188
1014.827196,-3330.926739,-1378.971896,9622.677246
1014.827526,-1480.411884,-2604.724693,8438.347739
1014.827856,74.020594,-3217.601092,7846.182985
1014.828185,-666.185348,-1762.019645,8142.265362
1014.828515,-2442.679609,0.000000,8290.306550
1014.828845,-3330.926739,459.657299,9030.512492
1014.829174,-2516.700203,536.266849,9696.697840
1014.829504,-518.144159,306.438199,10362.883188
1014.829834,518.144159,612.876398,10066.800811
1014.830163,1776.494261,536.266849,9622.677246
1014.830493,2220.617826,-306.438199,9548.656652
1014.830823,1628.453072,-1149.143247,10436.903782
1014.831152,-592.164754,-612.876398,12139.377449
1014.831482,-2442.679609,1532.190996,12731.542202
1014.831812,-2590.720797,1225.752797,12509.480420
1014.832142,-1998.556043,-612.876398,11843.295072
1014.832471,-666.185348,-995.924147,10732.986159
1014.832801,1184.329507,-1149.143247,8808.450710
1014.833131,1924.535449,-1608.800546,7031.956449
1014.833460,1702.473667,-536.266849,6587.832884
1014.833790,222.061783,1072.533697,7994.224174
1014.834120,-1036.288319,2145.067394,8512.368333
1014.834449,-1776.494261,2987.772442,8216.285956
1014.834779,-592.164754,2604.724693,8586.388927
1014.835109,592.164754,1685.410096,8586.388927
1014.835438,1702.473667,995.924147,7846.182985
1014.835768,1924.535449,0.000000,8512.368333
1014.836098,740.205942,383.047749,10436.903782
1014.836428,-1184.329507,2834.553343,12509.480420
1014.836757,-3849.070898,4673.182538,12509.480420
1014.837087,-3997.112087,4213.525239,12065.356855
1014.837417,-3256.906145,1608.800546,11029.068536
1014.837746,-1184.329507,1608.800546,10288.862594
1014.838076,1258.350101,1149.143247,7772.162391
1014.838406,1924.535449,766.095498,5625.565159
1014.838735,0.000000,1225.752797,4589.276840
1014.839065,-2516.700203,1762.019645,6365.771101
1014.839395,-3552.988522,2451.505594,8660.409521
1014.839724,-3552.988522,3140.991542,9696.697840
1014.840054,-3701.029710,2528.115143,10066.800811
1014.840384,-2368.659014,1762.019645,9770.718434
1014.840714,-444.123565,612.876398,9252.574275
1014.841043,888.247130,-612.876398,9104.533087
1014.841373,222.061783,383.047749,10510.924376
1014.841703,-2072.576638,2451.505594,12139.377449
1014.842032,-4367.215058,4366.744339,13175.665768
1014.842362,-4441.235652,3447.429741,13175.665768
1014.842692,-3701.029710,1378.971896,11103.089130
1014.843021,-2220.617826,-306.438199,8438.347739
1014.843351,296.082377,-2528.115143,6439.791695
1014.843681,1776.494261,-3524.039291,6661.853478
1014.844010,-222.061783,-1608.800546,7698.141797
1014.844340,-3108.864956,459.657299,8734.430116
1014.844670,-4293.194464,1532.190996,8956.491898
1014.845000,-2442.679609,1225.752797,9548.656652
1014.845329,-814.226536,0.000000,10140.821405
1014.845659,740.205942,-153.219100,10510.924376
1014.845989,2072.576638,536.266849,9844.739029
1014.846318,2368.659014,153.219100,8956.491898
1014.846648,1184.329507,-229.828649,10436.903782
1014.846978,-1406.391290,1225.752797,12065.356855
1014.847307,-2960.823768,1991.848295,13175.665768
1014.847637,-3256.906145,919.314598,12435.459826
1014.847967,-2294.638420,0.000000,11103.089130
1014.848296,-148.041188,-306.438199,9326.594869
1014.848626,1628.453072,-2298.286494,7105.977043
1014.848956,2146.597232,-3217.601092,6587.832884
1014.849286,740.205942,-919.314598,8068.244768
1014.849615,-1406.391290,2298.286494,9252.574275
1014.849945,-1850.514855,3447.429741,9474.636058
1014.850275,-740.205942,2528.115143,9178.553681
1014.850604,444.123565,1608.800546,8808.450710
1014.850934,2294.638420,229.828649,8586.388927
1014.851264,3701.029710,-306.438199,8586.388927
1014.851593,3256.906145,689.485948,9770.718434
1014.851923,518.144159,3064.381992,11547.212695
1014.852253,-1924.535449,3370.820191,12139.377449
1014.852582,-3256.906145,3830.477490,11695.253884
1014.852912,-2590.720797,3217.601092,10955.047942
1014.853242,-1702.473667,1838.629195,10214.842000
1014.853572,518.144159,1532.190996,9770.718434
1014.853901,888.247130,0.000000,7105.977043
1014.854231,0.000000,0.000000,6513.812290
1014.854561,-2072.576638,1225.752797,7254.018232
1014.854890,-3330.926739,2834.553343,8068.244768
1014.855220,-3256.906145,2987.772442,8438.347739
1014.855550,-1924.535449,2374.896044,8586.388927
1014.855879,-962.267725,1378.971896,8290.306550
1014.856209,-444.123565,919.314598,8364.327145
1014.856539,148.041188,919.314598,9030.512492
1014.856868,-296.082377,2068.457845,10584.944971
1014.857198,-1850.514855,2451.505594,11547.212695
1014.857528,-3701.029710,3524.039291,12213.398043
1014.857858,-4441.235652,2911.162892,12213.398043
1014.858187,-4441.235652,1532.190996,11029.068536
1014.858517,-3034.844362,229.828649,10140.821405
1014.858847,-1258.350101,0.000000,8956.491898
1014.859176,0.000000,-383.047749,7179.997637
1014.859506,0.000000,-2068.457845,7031.956449
1014.859836,-1850.514855,-842.705048,7624.121203
1014.860165,-3478.967927,1685.410096,8660.409521
1014.860495,-3034.844362,1532.190996,9178.553681
1014.860825,-1702.473667,229.828649,9992.780217
1014.861154,-740.205942,383.047749,9770.718434
1014.861484,222.061783,229.828649,10066.800811
1014.861814,1036.288319,-459.657299,9770.718434
1014.862144,1258.350101,76.609550,10288.862594
1014.862473,296.082377,306.438199,11547.212695
1014.862803,-1480.411884,842.705048,12361.439231
1014.863133,-2664.741391,1838.629195,12657.521608
1014.863462,-2886.803174,919.314598,11843.295072
1014.863792,-2146.597232,-229.828649,11029.068536
1014.864122,-666.185348,-536.266849,9104.533087
1014.864451,1628.453072,-1378.971896,7772.162391
1014.864781,1702.473667,-2757.943793,7105.977043
1014.865111,0.000000,-1685.410096,8216.285956
1014.865440,-1554.432478,1915.238745,9178.553681
1014.865770,-1554.432478,2604.724693,9252.574275
1014.866100,-370.102971,2145.067394,8068.244768
1014.866430,740.205942,1762.019645,7476.080014
1014.866759,2960.823768,536.266849,8216.285956
1014.867089,4737.318029,-612.876398,8956.491898
1014.867419,3404.947333,1225.752797,10288.862594
1014.867748,0.000000,3447.429741,11177.109724
1014.868078,-2886.803174,3294.210641,12805.562797
1014.868408,-3627.009116,2221.676944,12731.542202
1014.868737,-2738.761985,1762.019645,12213.398043
1014.869067,-1480.411884,1072.533697,10214.842000
1014.869397,222.061783,-153.219100,7402.059420
1014.869726,1184.329507,229.828649,4663.297435
1014.870056,814.226536,-383.047749,3775.050304
1014.870386,-888.247130,76.609550,6661.853478
1014.870716,-2516.700203,2681.334243,9844.739029
1014.871045,-4663.297435,5132.839837,11029.068536
1014.871375,-4293.194464,3983.696590,9844.739029
1014.871705,-2886.803174,919.314598,8882.471304
1014.872034,-444.123565,0.000000,8734.430116
1014.872364,1258.350101,-1072.533697,9326.594869
1014.872694,814.226536,-153.219100,11325.150913
1014.873023,-1998.556043,3140.991542,13027.624579
1014.873353,-4515.256246,4673.182538,12361.439231
1014.873683,-5107.421000,2757.943793,11103.089130
1014.874012,-3256.906145,995.924147,10510.924376
1014.874342,-1110.308913,919.314598,9770.718434
1014.874672,1110.308913,0.000000,8586.388927
1014.875002,1110.308913,-842.705048,6957.935855
1014.875331,-444.123565,0.000000,6735.874072
1014.875661,-2368.659014,-689.485948,7920.203579
1014.875991,-3404.947333,689.485948,9696.697840
1014.876320,-3034.844362,1532.190996,10436.903782
1014.876650,-2146.597232,1225.752797,10066.800811
1014.876980,-740.205942,-306.438199,9696.697840
1014.877309,148.041188,0.000000,8660.409521
1014.877639,1554.432478,-383.047749,8956.491898
1014.877969,1702.473667,-536.266849,10584.944971
1014.878298,-962.267725,2298.286494,11991.336260
1014.878628,-3775.050304,3677.258390,12287.418637
1014.878958,-3701.029710,2145.067394,10955.047942
1014.879287,-2072.576638,0.000000,9844.739029
1014.879617,-222.061783,-1455.581446,9178.553681
1014.879947,1406.391290,-2145.067394,8216.285956
1014.880277,2072.576638,-1991.848295,7254.018232
1014.880606,814.226536,-1378.971896,7994.224174
1014.880936,-888.247130,766.095498,9474.636058
1014.881266,-2294.638420,2451.505594,9178.553681
1014.881595,-1406.391290,2221.676944,9030.512492
1014.881925,814.226536,-229.828649,8882.471304
1014.882255,2220.617826,1072.533697,9474.636058
1014.882584,3256.906145,612.876398,9400.615463
1014.882914,3034.844362,153.219100,9104.533087
1014.883244,1850.514855,1685.410096,9992.780217
1014.883573,-666.185348,3217.601092,11177.109724
1014.883903,-2072.576638,3064.381992,11917.315666
1014.884233,-2368.659014,2451.505594,11473.192101
1014.884563,-2442.679609,1762.019645,10288.862594
1014.884892,-1924.535449,766.095498,9252.574275
1014.885222,-814.226536,229.828649,8216.285956
1014.885552,222.061783,-766.095498,7031.956449
1014.885881,-814.226536,-536.266849,7179.997637
1014.886211,-2368.659014,1072.533697,8290.306550
1014.886541,-2960.823768,2987.772442,8734.430116
1014.886870,-2368.659014,2451.505594,8808.450710
1014.887200,-1332.370696,1685.410096,8956.491898
1014.887530,-666.185348,1455.581446,9474.636058
1014.887859,888.247130,1302.362347,9326.594869
1014.888189,1628.453072,1302.362347,9400.615463
1014.888519,592.164754,1991.848295,10362.883188
1014.888849,-1850.514855,2068.457845,11177.109724
1014.889178,-3330.926739,2757.943793,11621.233289
1014.889508,-4145.153275,2221.676944,11251.130318
1014.889838,-3701.029710,1302.362347,10510.924376
1014.890167,-2812.782580,612.876398,9400.615463
1014.890497,-1110.308913,-383.047749,7846.182985
1014.890827,-296.082377,-1455.581446,6883.915261
1014.891156,-1036.288319,-1455.581446,6809.894666
1014.891486,-2738.761985,-306.438199,7550.100608
1014.891816,-3627.009116,919.314598,8586.388927
1014.892145,-3478.967927,995.924147,9400.615463
1014.892475,-2368.659014,459.657299,9548.656652
1014.892805,-666.185348,536.266849,10214.842000
1014.893135,1480.411884,306.438199,9326.594869
1014.893464,2072.576638,0.000000,8882.471304
1014.893794,1480.411884,0.000000,10362.883188
1014.894124,0.000000,1225.752797,12805.562797
1014.894453,-2368.659014,3064.381992,13693.809927
1014.894783,-3627.009116,3217.601092,12139.377449
1014.895113,-2442.679609,306.438199,11103.089130
1014.895442,-666.185348,-2068.457845,10658.965565
1014.895772,74.020594,-2681.334243,9918.759623
1014.896102,148.041188,-2528.115143,7920.203579
1014.896431,-148.041188,-1762.019645,8068.244768
1014.896761,-1110.308913,919.314598,8142.265362
1014.897091,-1998.556043,1838.629195,7698.141797
1014.897421,-592.164754,612.876398,7624.121203
1014.897750,1036.288319,229.828649,7698.141797
1014.898080,2442.679609,2068.457845,9252.574275
1014.898410,2960.823768,2528.115143,9770.718434
1014.898739,2590.720797,1302.362347,10214.842000
1014.899069,1184.329507,1455.581446,11695.253884
1014.899399,-1332.370696,2374.896044,12435.459826
1014.899728,-2812.782580,3677.258390,12287.418637
1014.900058,-3256.906145,3524.039291,10510.924376
1014.900388,-2368.659014,2068.457845,8660.409521
1014.900717,-1110.308913,-229.828649,7476.080014
1014.901047,518.144159,-1762.019645,7105.977043
1014.901377,0.000000,-536.266849,6735.874072
1014.901707,-1850.514855,612.876398,7624.121203
1014.902036,-3256.906145,2068.457845,9030.512492
1014.902366,-3701.029710,3447.429741,8882.471304
1014.902696,-2146.597232,2221.676944,7994.224174
1014.903025,74.020594,612.876398,7994.224174
1014.903355,1036.288319,1378.971896,9326.594869
1014.903685,1924.535449,2834.553343,10288.862594
1014.904014,1406.391290,1762.019645,10658.965565
1014.904344,-222.061783,1991.848295,11251.130318
1014.904674,-2664.741391,4519.963438,11695.253884
1014.905003,-3478.967927,3983.696590,12139.377449
1014.905333,-2960.823768,1991.848295,11917.315666
1014.905663,-3108.864956,1838.629195,10881.027347
1014.905993,-2516.700203,612.876398,8808.450710
1014.906322,-888.247130,-1455.581446,7105.977043
1014.906652,-592.164754,-2145.067394,6735.874072
1014.906982,-2072.576638,-1302.362347,7994.224174
1014.907311,-4367.215058,612.876398,8956.491898
1014.907641,-5107.421000,1455.581446,8956.491898
1014.907971,-3923.091493,1532.190996,9474.636058
1014.908300,-2220.617826,842.705048,8882.471304
1014.908630,-666.185348,-306.438199,8808.450710
1014.908960,444.123565,-536.266849,8586.388927
1014.909289,1258.350101,-919.314598,9622.677246
1014.909619,148.041188,1072.533697,10807.006753
1014.909949,-2072.576638,2451.505594,12139.377449
1014.910279,-3256.906145,2451.505594,11621.233289
1014.910608,-2516.700203,689.485948,11547.212695
1014.910938,-1406.391290,-766.095498,11473.192101
1014.911268,-296.082377,-689.485948,10732.986159
1014.911597,370.102971,-1225.752797,9104.533087
1014.911927,592.164754,-1685.410096,7846.182985
1014.912257,-222.061783,-1685.410096,8290.306550
1014.912586,-1184.329507,-612.876398,9030.512492
1014.912916,-1554.432478,919.314598,9178.553681
1014.913246,-1480.411884,919.314598,8956.491898
1014.913575,-592.164754,1838.629195,8142.265362
1014.913905,1480.411884,919.314598,7994.224174
1014.914235,3478.967927,-383.047749,7994.224174
1014.914565,2812.782580,-306.438199,9474.636058
1014.914894,444.123565,1455.581446,11621.233289
1014.915224,-2516.700203,3830.477490,12731.542202
1014.915554,-3997.112087,3753.867940,12361.439231
1014.915883,-3108.864956,2221.676944,11251.130318
1014.916213,-1184.329507,995.924147,10214.842000
1014.916543,444.123565,-383.047749,8882.471304
1014.916872,2072.576638,-919.314598,7698.141797
1014.917202,1332.370696,-306.438199,7031.956449
1014.917532,-1036.288319,1378.971896,7328.038826
1014.917861,-2516.700203,2298.286494,8364.327145
1014.918191,-2368.659014,3524.039291,9474.636058
1014.918521,-962.267725,3524.039291,8956.491898
1014.918851,0.000000,1991.848295,7994.224174
1014.919180,1184.329507,995.924147,7328.038826
1014.919510,2220.617826,766.095498,8364.327145
1014.919840,1332.370696,1378.971896,10362.883188
1014.920169,-740.205942,3064.381992,12361.439231
1014.920499,-3330.926739,5669.106685,12657.521608
1014.920829,-4885.359217,4519.963438,11473.192101
1014.921158,-3997.112087,2068.457845,11029.068536
1014.921488,-2664.741391,1072.533697,11103.089130
1014.921818,-1406.391290,536.266849,9992.780217
1014.922147,-1258.350101,-306.438199,7624.121203
1014.922477,-2516.700203,-689.485948,6661.853478
1014.922807,-3034.844362,229.828649,7105.977043
1014.923137,-3701.029710,766.095498,8290.306550
1014.923466,-3108.864956,842.705048,8142.265362
1014.923796,-2220.617826,919.314598,7698.141797
1014.924126,-1036.288319,383.047749,8290.306550
1014.924455,148.041188,0.000000,9030.512492
1014.924785,666.185348,459.657299,9474.636058
1014.925115,222.061783,536.266849,10658.965565
1014.925444,-888.247130,1149.143247,12213.398043
1014.925774,-2812.782580,2757.943793,12879.583391
1014.926104,-3997.112087,2298.286494,12065.356855
1014.926434,-3330.926739,0.000000,11917.315666
1014.926763,-2368.659014,-536.266849,11399.171507
1014.927093,-1184.329507,-306.438199,10066.800811
1014.927423,0.000000,-2221.676944,7994.224174
1014.927752,74.020594,-2681.334243,7476.080014
1014.928082,-1184.329507,-1072.533697,8364.327145
1014.928412,-2442.679609,153.219100,9252.574275
1014.928741,-2220.617826,1225.752797,9030.512492
1014.929071,-444.123565,1149.143247,8512.368333
1014.929401,1258.350101,306.438199,9030.512492
1014.929730,2590.720797,153.219100,8808.450710
1014.930060,2664.741391,229.828649,8586.388927
1014.930390,1554.432478,1608.800546,8660.409521
1014.930720,-592.164754,2757.943793,10214.842000
1014.931049,-2368.659014,2987.772442,11843.295072
1014.931379,-2960.823768,2604.724693,12731.542202
1014.931709,-3552.988522,995.924147,12139.377449
1014.932038,-3256.906145,459.657299,10732.986159
1014.932368,-962.267725,-536.266849,9696.697840
1014.932698,1332.370696,-1072.533697,8364.327145
1014.933027,1702.473667,-1608.800546,6587.832884
1014.933357,740.205942,-383.047749,7402.059420
1014.933687,-296.082377,3140.991542,7476.080014
1014.934016,-444.123565,4060.306139,7772.162391
1014.934346,1036.288319,2681.334243,7846.182985
1014.934676,1776.494261,2987.772442,7772.162391
1014.935006,2886.803174,2987.772442,7994.224174
1014.935335,2886.803174,1225.752797,8068.244768
1014.935665,1480.411884,919.314598,10066.800811
1014.935995,-1554.432478,2834.553343,12657.521608
1014.936324,-4145.153275,4213.525239,13693.809927
1014.936654,-4737.318029,3753.867940,12583.501014
1014.936984,-4515.256246,2145.067394,11251.130318
1014.937313,-3404.947333,-153.219100,9548.656652
1014.937643,-1628.453072,-1225.752797,8882.471304
1014.937973,-592.164754,-383.047749,8586.388927
1014.938302,-1258.350101,306.438199,8216.285956
1014.938632,-3330.926739,1608.800546,7772.162391
1014.938962,-4441.235652,1838.629195,7698.141797
1014.939292,-3997.112087,1225.752797,7402.059420
1014.939621,-2368.659014,229.828649,8586.388927
1014.939951,0.000000,766.095498,9474.636058
1014.940281,814.226536,1149.143247,9178.553681
1014.940610,666.185348,306.438199,8364.327145
1014.940940,-444.123565,153.219100,9178.553681
1014.941270,-1702.473667,459.657299,11917.315666
1014.941599,-3034.844362,2528.115143,13841.851115
1014.941929,-3849.070898,2451.505594,13175.665768
1014.942259,-3775.050304,1608.800546,11769.274478
1014.942588,-2738.761985,-919.314598,9844.739029
1014.942918,-666.185348,-3370.820191,8882.471304
1014.943248,518.144159,-3064.381992,7772.162391
1014.943578,370.102971,-1838.629195,8142.265362
1014.943907,-1406.391290,766.095498,8438.347739
1014.944237,-2664.741391,2068.457845,7994.224174
1014.944567,-2146.597232,689.485948,7624.121203
1014.944896,0.000000,-383.047749,8364.327145
1014.945226,1036.288319,-229.828649,8734.430116
1014.945556,1776.494261,1455.581446,9622.677246
1014.945885,1628.453072,842.705048,9622.677246
1014.946215,222.061783,229.828649,10955.047942
1014.946545,-2072.576638,995.924147,12065.356855
1014.946874,-3478.967927,919.314598,12139.377449
1014.947204,-3404.947333,842.705048,11843.295072
1014.947534,-2516.700203,689.485948,11399.171507
1014.947864,-1332.370696,0.000000,10436.903782
1014.948193,518.144159,-689.485948,8216.285956
1014.948523,1998.556043,-612.876398,6661.853478
1014.948853,2294.638420,0.000000,7105.977043
1014.949182,888.247130,1762.019645,7846.182985
1014.949512,-296.082377,3600.648841,8068.244768
1014.949842,0.000000,2757.943793,7920.203579
1014.950171,740.205942,1991.848295,8586.388927
1014.950501,814.226536,1532.190996,8956.491898
1014.950831,1332.370696,1762.019645,9696.697840
1014.951160,1406.391290,1225.752797,10807.006753
1014.951490,0.000000,1608.800546,11251.130318
1014.951820,-2368.659014,2834.553343,11843.295072
1014.952150,-3552.988522,3140.991542,11769.274478
1014.952479,-3923.091493,2528.115143,11029.068536
1014.952809,-3330.926739,1915.238745,10881.027347
1014.953139,-2368.659014,2145.067394,9992.780217
1014.953468,-962.267725,1455.581446,7994.224174
1014.953798,0.000000,306.438199,6439.791695
1014.954128,-592.164754,-459.657299,6513.812290
1014.954457,-2442.679609,766.095498,7994.224174
1014.954787,-3923.091493,2068.457845,9030.512492
1014.955117,-3997.112087,2298.286494,8808.450710
1014.955446,-2590.720797,2145.067394,8438.347739
1014.955776,-962.267725,536.266849,8290.306550
1014.956106,814.226536,-842.705048,9252.574275
1014.956436,888.247130,153.219100,9474.636058
1014.956765,-592.164754,995.924147,10510.924376
1014.957095,-2294.638420,2451.505594,11547.212695
1014.957425,-3775.050304,3217.601092,11547.212695
1014.957754,-3997.112087,1762.019645,11473.192101
1014.958084,-3552.988522,0.000000,11547.212695
1014.958414,-2516.700203,-612.876398,10584.944971
1014.958743,-1184.329507,-1455.581446,9252.574275
1014.959073,-666.185348,-2451.505594,8512.368333
1014.959403,-1184.329507,-1838.629195,8364.327145
1014.959732,-1850.514855,0.000000,8808.450710
1014.960062,-2072.576638,153.219100,8142.265362
1014.960392,-1406.391290,1149.143247,8068.244768
1014.960722,-962.267725,1685.410096,7698.141797
1014.961051,444.123565,1838.629195,8956.491898
1014.961381,1110.308913,383.047749,9400.615463
1014.961711,888.247130,383.047749,10436.903782
1014.962040,-962.267725,383.047749,11547.212695
1014.962370,-3034.844362,459.657299,12953.603985
1014.962700,-4293.194464,766.095498,13545.768739
1014.963029,-3552.988522,306.438199,12657.521608
1014.963359,-2294.638420,-919.314598,11103.089130
1014.963689,-222.061783,-995.924147,9696.697840
1014.964018,1628.453072,-306.438199,8216.285956
1014.964348,2664.741391,-612.876398,7031.956449
1014.964678,2590.720797,229.828649,7105.977043
1014.965008,962.267725,2834.553343,7179.997637
1014.965337,0.000000,3830.477490,7179.997637
1014.965667,962.267725,2298.286494,7402.059420
1014.965997,1998.556043,1072.533697,8364.327145
1014.966326,2516.700203,1532.190996,9474.636058
1014.966656,1776.494261,842.705048,9326.594869
1014.966986,740.205942,995.924147,10214.842000
1014.967315,-592.164754,2451.505594,11843.295072
1014.967645,-2812.782580,2834.553343,12805.562797
1014.967975,-3701.029710,3217.601092,11991.336260
1014.968304,-3478.967927,2451.505594,10436.903782
1014.968634,-2664.741391,1225.752797,10066.800811
1014.968964,-1184.329507,1302.362347,9474.636058
1014.969294,0.000000,689.485948,7698.141797
1014.969623,74.020594,153.219100,5847.626942
1014.969953,-1332.370696,0.000000,6587.832884
1014.970283,-2442.679609,1915.238745,8586.388927
1014.970612,-2442.679609,3524.039291,8808.450710
1014.970942,-1924.535449,2298.286494,8734.430116
1014.971272,-222.061783,1378.971896,9030.512492
1014.971601,0.000000,1302.362347,9030.512492
1014.971931,1110.308913,689.485948,9104.533087
1014.972261,1332.370696,229.828649,9844.739029
1014.972590,-592.164754,1455.581446,11843.295072
1014.972920,-3627.009116,3140.991542,13027.624579
1014.973250,-4663.297435,3064.381992,12065.356855
1014.973580,-4515.256246,842.705048,11029.068536
1014.973909,-3923.091493,-612.876398,10214.842000
1014.974239,-2294.638420,-1072.533697,9622.677246
1014.974569,-592.164754,-1608.800546,8142.265362
1014.974898,-518.144159,-1378.971896,6883.915261
1014.975228,-1406.391290,-766.095498,7105.977043
1014.975558,-3256.906145,536.266849,7550.100608
1014.975887,-3108.864956,1149.143247,8882.471304
1014.976217,-1702.473667,689.485948,10066.800811
1014.976547,-888.247130,1608.800546,10658.965565
1014.976876,0.000000,2298.286494,9622.677246
1014.977206,1184.329507,76.609550,8364.327145
1014.977536,1998.556043,-1378.971896,8882.471304
1014.977866,592.164754,-689.485948,11325.150913
1014.978195,-1850.514855,1378.971896,13323.706956
1014.978525,-3627.009116,2757.943793,12879.583391
1014.978855,-4145.153275,1532.190996,11769.274478
1014.979184,-3108.864956,76.609550,10732.986159
1014.979514,-1036.288319,-1072.533697,9622.677246
1014.979844,1702.473667,-1991.848295,7920.203579
1014.980173,2960.823768,-1532.190996,6883.915261
1014.980503,1406.391290,0.000000,6883.915261
1014.980833,-370.102971,1762.019645,8142.265362
1014.981162,-1406.391290,2451.505594,8512.368333
1014.981492,-888.247130,2528.115143,8882.471304
1014.981822,148.041188,2298.286494,9696.697840
1014.982152,1850.514855,2681.334243,9474.636058
1014.982481,2960.823768,1378.971896,9178.553681
1014.982811,2220.617826,-306.438199,9474.636058
1014.983141,0.000000,1072.533697,11029.068536
1014.983470,-2368.659014,3524.039291,12213.398043
1014.983800,-2960.823768,3370.820191,12139.377449
1014.984130,-2886.803174,2221.676944,11251.130318
1014.984459,-2516.700203,1225.752797,9770.718434
1014.984789,-148.041188,612.876398,8734.430116
1014.985119,1924.535449,-919.314598,7624.121203
1014.985448,1406.391290,0.000000,7179.997637
1014.985778,-1258.350101,1302.362347,7994.224174
1014.986108,-2960.823768,2374.896044,8660.409521
1014.986438,-3034.844362,2681.334243,8734.430116
1014.986767,-2368.659014,2528.115143,8734.430116
1014.987097,-666.185348,1685.410096,8586.388927
1014.987427,814.226536,1149.143247,8956.491898
1014.987756,1480.411884,536.266849,9252.574275
1014.988086,296.082377,1225.752797,10214.842000
1014.988416,-1924.535449,2145.067394,11991.336260
1014.988745,-4293.194464,3294.210641,13027.624579
1014.989075,-4959.379811,3600.648841,12657.521608
1014.989405,-4663.297435,1225.752797,11547.212695
1014.989734,-2812.782580,-689.485948,10066.800811
1014.990064,-1110.308913,-1608.800546,8586.388927
1014.990394,0.000000,-1915.238745,6439.791695
1014.990723,-222.061783,-3064.381992,6069.688724
1014.991053,-962.267725,-1532.190996,7994.224174
1014.991383,-2294.638420,1762.019645,8808.450710
1014.991713,-2812.782580,2681.334243,8586.388927
1014.992042,-2368.659014,1838.629195,8068.244768
1014.992372,-814.226536,1455.581446,8734.430116
1014.992702,1036.288319,995.924147,9992.780217
1014.993031,1258.350101,0.000000,10288.862594
1014.993361,-518.144159,306.438199,10510.924376
1014.993691,-2590.720797,995.924147,11473.192101
1014.994020,-4219.173869,766.095498,12879.583391
1014.994350,-3923.091493,766.095498,12805.562797
1014.994680,-2738.761985,229.828649,11399.171507
1014.995009,-1924.535449,-689.485948,9770.718434
1014.995339,-518.144159,-766.095498,8364.327145
1014.995669,1332.370696,-1225.752797,7624.121203
1014.995998,2220.617826,-1072.533697,7550.100608
1014.996328,444.123565,306.438199,7550.100608
1014.996658,-740.205942,2145.067394,8142.265362
1014.996987,-370.102971,2451.505594,8364.327145
1014.997317,444.123565,919.314598,8660.409521
1014.997647,1406.391290,306.438199,9326.594869
1014.997976,1924.535449,1072.533697,9992.780217
1014.998306,2368.659014,1532.190996,10140.821405
1014.998636,1850.514855,919.314598,10584.944971
1014.998965,-296.082377,1225.752797,11547.212695
1014.999295,-2516.700203,2987.772442,11843.295072
1014.999625,-2516.700203,3064.381992,11325.150913
1014.999954,-1924.535449,1838.629195,11029.068536
1015.000284,-1110.308913,1991.848295,9992.780217
1015.000614,0.000000,995.924147,8364.327145
1015.000943,1036.288319,-612.876398,6957.935855
1015.001273,592.164754,-383.047749,5995.668130
1015.001603,-1332.370696,1225.752797,7105.977043
1015.001932,-1628.453072,2451.505594,8364.327145
1015.002262,-1702.473667,2221.676944,8586.388927
1015.002592,-1406.391290,1762.019645,8734.430116
1015.002921,-888.247130,1302.362347,8512.368333
1015.003251,1036.288319,1608.800546,9252.574275
1015.003581,2590.720797,1378.971896,10288.862594
1015.003910,1184.329507,1455.581446,10955.047942
1015.004240,-2146.597232,2145.067394,11769.274478
1015.004570,-4071.132681,1915.238745,12213.398043
1015.004899,-4293.194464,2298.286494,11917.315666
1015.005229,-3775.050304,1685.410096,11325.150913
1015.005559,-2294.638420,919.314598,9696.697840
1015.005888,-222.061783,-1225.752797,7624.121203
1015.006218,814.226536,-2298.286494,5255.462188
1015.006548,222.061783,-1838.629195,5699.585753
1015.006878,-1036.288319,-536.266849,7550.100608
1015.007207,-3256.906145,1991.848295,8734.430116
1015.007537,-3849.070898,2145.067394,9252.574275
1015.007867,-2812.782580,766.095498,9844.739029
1015.008196,-1110.308913,383.047749,10214.842000
1015.008526,666.185348,0.000000,10510.924376
1015.008856,814.226536,-689.485948,10140.821405
1015.009185,-222.061783,-612.876398,11251.130318
1015.009515,-2368.659014,842.705048,12287.418637
1015.009845,-4219.173869,2145.067394,12213.398043
1015.010174,-4515.256246,1378.971896,11251.130318
1015.010504,-3256.906145,153.219100,11029.068536
1015.010834,-1258.350101,-536.266849,10584.944971
1015.011163,296.082377,-1149.143247,9252.574275
1015.011493,888.247130,-2145.067394,7254.018232
1015.011823,-296.082377,-1762.019645,7105.977043
1015.012152,-1628.453072,459.657299,8586.388927
1015.012482,-2664.741391,1608.800546,9030.512492
1015.012812,-1924.535449,2068.457845,9400.615463
1015.013141,-444.123565,1455.581446,8956.491898
1015.013471,666.185348,612.876398,9030.512492
1015.013801,2368.659014,919.314598,9696.697840
1015.014130,2072.576638,995.924147,10140.821405
1015.014460,1110.308913,2145.067394,10510.924376
1015.014790,-962.267725,3217.601092,10881.027347
1015.015119,-1776.494261,3830.477490,10881.027347
1015.015449,-1554.432478,2451.505594,10214.842000
1015.015779,-1332.370696,842.705048,10214.842000
1015.016108,-888.247130,1302.362347,9252.574275
1015.016438,-370.102971,1378.971896,7624.121203
1015.016768,888.247130,612.876398,6439.791695
1015.017097,1332.370696,-919.314598,6735.874072
1015.017427,-444.123565,229.828649,7402.059420
1015.017757,-1702.473667,2145.067394,8364.327145
1015.018086,-1850.514855,2298.286494,8808.450710
1015.018416,-1110.308913,2681.334243,9474.636058
1015.018746,-518.144159,2987.772442,9992.780217
1015.019075,1110.308913,1532.190996,9992.780217
1015.019405,1332.370696,919.314598,10288.862594
1015.019735,148.041188,1225.752797,11103.089130
1015.020064,-1850.514855,2068.457845,11843.295072
1015.020394,-2886.803174,3753.867940,12065.356855
1015.020724,-3108.864956,2681.334243,10436.903782
1015.021053,-2294.638420,995.924147,9696.697840
1015.021383,-888.247130,0.000000,8882.471304
1015.021713,148.041188,-383.047749,7402.059420
1015.022043,592.164754,-1072.533697,7402.059420
1015.022372,-888.247130,-1991.848295,8512.368333
1015.022702,-3256.906145,306.438199,9770.718434
1015.023032,-4219.173869,1608.800546,10436.903782
1015.023361,-3256.906145,766.095498,9770.718434
1015.023691,-2146.597232,536.266849,9030.512492
1015.024021,-1036.288319,306.438199,8068.244768
1015.024350,740.205942,-919.314598,8290.306550
1015.024680,1628.453072,-1072.533697,9252.574275
1015.025010,-148.041188,306.438199,10881.027347
1015.025339,-3330.926739,2604.724693,12213.398043
1015.025669,-5107.421000,3217.601092,12139.377449
1015.025999,-4441.235652,1608.800546,12065.356855
1015.026328,-3034.844362,-306.438199,11029.068536
1015.026658,-1554.432478,-2145.067394,9770.718434
1015.026988,0.000000,-2604.724693,8956.491898
1015.027317,-296.082377,-2298.286494,7994.224174
1015.027647,-1110.308913,-995.924147,7772.162391
1015.027977,-2516.700203,-229.828649,7846.182985
1015.028306,-2960.823768,1915.238745,8142.265362
1015.028636,-1702.473667,1915.238745,8512.368333
1015.028966,-370.102971,842.705048,8956.491898
1015.029295,666.185348,1608.800546,9252.574275
1015.029625,1184.329507,1302.362347,8956.491898
1015.029955,1480.411884,689.485948,8956.491898
1015.030284,222.061783,842.705048,10807.006753
1015.030614,-2368.659014,2604.724693,12657.521608
1015.030944,-4367.215058,3447.429741,12879.583391
1015.031273,-5255.462188,2911.162892,11547.212695
1015.031603,-5033.400406,1838.629195,11103.089130
1015.031933,-3478.967927,842.705048,10288.862594
1015.032262,-1924.535449,0.000000,8364.327145
1015.032592,-1036.288319,-1072.533697,6143.709319
1015.032922,-1702.473667,-612.876398,5181.441594
1015.033251,-2442.679609,1378.971896,7254.018232
1015.033581,-3034.844362,3140.991542,9030.512492
1015.033911,-3108.864956,3753.867940,9178.553681
1015.034240,-2886.803174,3064.381992,9104.533087
1015.034570,-1776.494261,2604.724693,9252.574275
1015.034900,-814.226536,2451.505594,9548.656652
1015.035229,-666.185348,1072.533697,9770.718434
1015.035559,-1924.535449,1072.533697,10362.883188
1015.035889,-3849.070898,2604.724693,12213.398043
1015.036218,-5921.647536,3677.258390,13323.706956
1015.036548,-8438.347739,2528.115143,11251.130318
1015.036878,-8142.265362,1532.190996,9400.615463
1015.037208,-6291.750507,0.000000,8438.347739
1015.037537,-3849.070898,-689.485948,8290.306550
1015.037867,-2886.803174,-919.314598,6957.935855
1015.038197,-2368.659014,-842.705048,5033.400406
1015.038526,-2294.638420,-306.438199,5551.544565
1015.038856,-2220.617826,1455.581446,8438.347739
1015.039186,-3478.967927,2528.115143,10732.986159
1015.039515,-5847.626942,2604.724693,11029.068536
1015.039845,-7328.038826,2757.943793,11103.089130
1015.040175,-6957.935855,1532.190996,11843.295072
1015.040504,-5773.606348,536.266849,11843.295072
1015.040834,-4737.318029,-995.924147,10214.842000
1015.041164,-3478.967927,-2068.457845,7772.162391
1015.041493,-1776.494261,-1838.629195,7846.182985
1015.041823,-592.164754,-536.266849,9326.594869
1015.042153,-666.185348,919.314598,10807.006753
1015.042482,-3182.885551,1762.019645,11251.130318
1015.042812,-6365.771101,2451.505594,11177.109724
1015.043142,-7772.162391,2451.505594,11399.171507
1015.043471,-7624.121203,612.876398,11399.171507
1015.043801,-6587.832884,-1149.143247,10066.800811
1015.044131,-5107.421000,-2757.943793,8586.388927
1015.044460,-3627.009116,-3600.648841,7105.977043
1015.044790,-1554.432478,-2911.162892,6809.894666
1015.045120,222.061783,-995.924147,7105.977043
1015.045449,814.226536,536.266849,9030.512492
1015.045779,-296.082377,3064.381992,10066.800811
1015.046109,-2516.700203,4673.182538,10955.047942
1015.046438,-4959.379811,4979.620737,12287.418637
1015.046768,-7105.977043,4136.915689,12805.562797
1015.047098,-8364.327145,3217.601092,13175.665768
1015.047427,-7846.182985,612.876398,10732.986159
1015.047757,-5699.585753,-2298.286494,8216.285956
1015.048087,-3182.885551,-4366.744339,6143.709319
1015.048416,-1332.370696,-3447.429741,5107.421000
1015.048746,-370.102971,-919.314598,5847.626942
1015.049076,296.082377,1532.190996,7105.977043
1015.049405,0.000000,4903.011187,9030.512492
1015.049735,-1406.391290,7354.516781,10436.903782
1015.050065,-3478.967927,6894.859482,11251.130318
1015.050394,-5773.606348,4749.792088,11695.253884
1015.050724,-7698.141797,2604.724693,12139.377449
1015.051054,-8586.388927,459.657299,12879.583391
1015.051383,-8734.430116,-536.266849,11547.212695
1015.051713,-7550.100608,-2451.505594,9030.512492
1015.052043,-4515.256246,-2987.772442,6513.812290
1015.052373,-814.226536,-2604.724693,5329.482782
1015.052702,2664.741391,229.828649,5699.585753
1015.053032,4219.173869,3677.258390,6809.894666
1015.053362,3256.906145,5822.325785,8216.285956
1015.053691,740.205942,7967.393179,10584.944971
1015.054021,-2516.700203,8273.831378,12361.439231
1015.054351,-6069.688724,6205.373534,13619.789333
1015.054680,-8956.491898,2374.896044,13841.851115
1015.055010,-11177.109724,-995.924147,13101.645173
1015.055340,-11695.253884,-3753.867940,11399.171507
1015.055669,-10288.862594,-5975.544884,8142.265362
1015.055999,-7179.997637,-6971.469032,5477.523971
1015.056329,-3256.906145,-5132.839837,3923.091493
1015.056658,0.000000,-1532.190996,4515.256246
1015.056988,1332.370696,1991.848295,6217.729913
1015.057318,1628.453072,6052.154434,8882.471304
1015.057647,370.102971,9193.145976,9474.636058
1015.057977,-1480.411884,8810.098227,11325.150913
1015.058307,-3701.029710,5362.668486,12657.521608
1015.058636,-6661.853478,1532.190996,12509.480420
1015.058966,-9474.636058,-1685.410096,11621.233289
1015.059296,-10955.047942,-4749.792088,11251.130318
1015.059625,-11103.089130,-6281.983084,10510.924376
1015.059955,-8882.471304,-6665.030833,9622.677246
1015.060285,-5921.647536,-5132.839837,7698.141797
1015.060614,-1850.514855,-2834.553343,5995.668130
1015.060944,1924.535449,-306.438199,6143.709319
1015.061274,3701.029710,2681.334243,7105.977043
1015.061603,3182.885551,6358.592633,9474.636058
1015.061933,296.082377,7584.345430,11177.109724
1015.062263,-2146.597232,5898.935335,13175.665768
1015.062592,-4811.338623,3140.991542,14656.077652
1015.062922,-7402.059420,536.266849,14359.995275
1015.063252,-9622.677246,-1991.848295,11843.295072
1015.063581,-9252.574275,-5286.058936,8808.450710
1015.063911,-6809.894666,-6128.763984,7031.956449
1015.064241,-4293.194464,-4596.572988,6143.709319
1015.064570,-1776.494261,-2145.067394,5995.668130
1015.064900,0.000000,766.095498,6365.771101
1015.065230,-74.020594,4903.011187,7698.141797
1015.065559,-592.164754,8963.317327,9474.636058
1015.065889,-1184.329507,8810.098227,11251.130318
1015.066219,-3034.844362,5898.935335,11621.233289
1015.066548,-5033.400406,3983.696590,13249.686362
1015.066878,-6291.750507,1532.190996,13249.686362
1015.067208,-7624.121203,0.000000,12139.377449
1015.067538,-8512.368333,-1991.848295,10140.821405
1015.067867,-6957.935855,-2911.162892,8068.244768
1015.068197,-4293.194464,-919.314598,6809.894666
1015.068527,-814.226536,919.314598,6217.729913
1015.068856,1554.432478,2374.896044,5921.647536
1015.069186,1702.473667,4903.011187,6365.771101
1015.069516,888.247130,7431.126331,7772.162391
1015.069845,-148.041188,7814.174080,9918.759623
1015.070175,-1850.514855,6894.859482,11103.089130
1015.070505,-3701.029710,5669.106685,11251.130318
1015.070834,-4219.173869,3294.210641,10584.944971
1015.071164,-4145.153275,459.657299,9400.615463
1015.071494,-3552.988522,-1378.971896,8364.327145
1015.071823,-3182.885551,-1378.971896,8290.306550
1015.072153,-2812.782580,1302.362347,8586.388927
1015.072483,-2738.761985,3294.210641,8808.450710
1015.072812,-2738.761985,4136.915689,9400.615463
1015.073142,-2368.659014,5898.935335,9992.780217
1015.073472,-1924.535449,6435.202183,10066.800811
1015.073801,-1554.432478,6128.763984,10658.965565
1015.074131,-1702.473667,4596.572988,10510.924376
1015.074461,-2072.576638,2987.772442,10732.986159
1015.074790,-1702.473667,2221.676944,9918.759623
1015.075120,-1702.473667,1532.190996,9252.574275
1015.075450,-1850.514855,1608.800546,9474.636058
1015.075779,-1480.411884,2681.334243,9992.780217
1015.076109,-888.247130,3983.696590,10584.944971
1015.076439,-1554.432478,5745.716235,10658.965565
1015.076768,-2146.597232,6665.030833,10288.862594
1015.077098,-2368.659014,6205.373534,9696.697840
1015.077428,-2368.659014,5975.544884,9104.533087
1015.077757,-2146.597232,4903.011187,8216.285956
1015.078087,-1554.432478,2451.505594,7105.977043
1015.078417,-814.226536,1225.752797,5995.668130
1015.078746,-888.247130,0.000000,6365.771101
1015.079076,-1554.432478,1072.533697,7698.141797
1015.079406,-2442.679609,2604.724693,8882.471304
1015.079735,-2812.782580,4060.306139,9622.677246
1015.080065,-2812.782580,5286.058936,10510.924376
1015.080395,-2072.576638,6435.202183,10881.027347
1015.080724,-1406.391290,6435.202183,10584.944971
1015.081054,-370.102971,5209.449386,9918.759623
1015.081384,0.000000,4749.792088,9696.697840
1015.081713,-222.061783,4136.915689,9696.697840
1015.082043,-592.164754,3907.087040,9474.636058
1015.082373,-888.247130,2681.334243,8734.430116
1015.082703,-518.144159,2068.457845,8438.347739
1015.083032,148.041188,2068.457845,9030.512492
1015.083362,370.102971,2068.457845,9474.636058
1015.083692,-148.041188,2451.505594,9918.759623
1015.084021,-1850.514855,4443.353888,10955.047942
1015.084351,-2368.659014,5362.668486,11547.212695
1015.084681,-1776.494261,5822.325785,11917.315666
1015.085010,-1184.329507,5286.058936,11769.274478
1015.085340,-962.267725,4903.011187,10658.965565
1015.085670,-370.102971,5056.230287,9992.780217
1015.085999,0.000000,4596.572988,9178.553681
1015.086329,444.123565,4903.011187,8956.491898
1015.086659,592.164754,4979.620737,8068.244768
1015.086988,148.041188,4213.525239,6809.894666
1015.087318,222.061783,2757.943793,6291.750507
1015.087648,0.000000,1378.971896,7031.956449
1015.087977,-1628.453072,1991.848295,8290.306550
1015.088307,-3478.967927,2681.334243,9474.636058
1015.088637,-4293.194464,3600.648841,10658.965565
1015.088966,-4219.173869,4443.353888,11177.109724
1015.089297,-3256.906145,4290.134789,11029.068536
1015.089627,-2072.576638,5056.230287,11103.089130
1015.089957,-1036.288319,5286.058936,9770.718434
1015.090286,0.000000,6128.763984,9030.512492
1015.090616,1258.350101,6358.592633,9030.512492
1015.090945,1184.329507,5439.278036,8660.409521
1015.091275,-444.123565,5515.887586,7105.977043
1015.091605,-814.226536,4060.306139,6883.915261
1015.091934,-888.247130,2528.115143,6883.915261
1015.092264,-1036.288319,1149.143247,7105.977043
1015.092594,-1554.432478,383.047749,7328.038826
1015.092923,-2146.597232,-306.438199,8364.327145
1015.093253,-2072.576638,383.047749,10584.944971
1015.093583,-2072.576638,3140.991542,12065.356855
1015.093912,-1554.432478,4826.401637,12879.583391
1015.094242,-1184.329507,5515.887586,12953.603985
1015.094572,-592.164754,5975.544884,13175.665768
1015.094901,-296.082377,6818.249932,12139.377449
1015.095231,0.000000,5745.716235,10955.047942
1015.095561,-222.061783,4443.353888,9992.780217
1015.095890,-592.164754,3600.648841,9030.512492
1015.096220,-1406.391290,2834.553343,7698.141797
1015.096550,-1850.514855,1915.238745,7698.141797
1015.096879,-1554.432478,1762.019645,7846.182985
1015.097209,-1258.350101,1762.019645,7994.224174
1015.097539,-814.226536,2145.067394,8290.306550
1015.097868,0.000000,2221.676944,9178.553681
1015.098198,296.082377,2911.162892,9992.780217
1015.098528,-592.164754,4290.134789,11177.109724
1015.098857,-1850.514855,6588.421283,11695.253884
1015.099187,-2072.576638,7431.126331,12583.501014
1015.099517,-1628.453072,6894.859482,12435.459826
1015.099846,-2368.659014,6435.202183,11325.150913
1015.100176,-3108.864956,5975.544884,9326.594869
1015.100506,-2664.741391,4366.744339,6365.771101
1015.100835,-444.123565,2834.553343,4145.153275
1015.101165,2146.597232,2068.457845,3108.864956
1015.101495,3478.967927,2451.505594,4145.153275
1015.101824,3108.864956,2451.505594,5329.482782
1015.102154,814.226536,3753.867940,7402.059420
1015.102484,-2368.659014,5822.325785,9696.697840
1015.102813,-4441.235652,7048.078582,12731.542202
1015.103143,-4737.318029,6894.859482,15174.221811
1015.103473,-5033.400406,5898.935335,15396.283594
1015.103802,-5625.565159,4519.963438,13471.748144
1015.104132,-4885.359217,2987.772442,10732.986159
1015.104461,-2738.761985,2145.067394,8660.409521
1015.104791,0.000000,1838.629195,6661.853478
1015.105121,3034.844362,1532.190996,5403.503377
1015.105450,4885.359217,2987.772442,4737.318029
1015.105780,5033.400406,4060.306139,5403.503377
1015.106110,3478.967927,5132.839837,7254.018232
1015.106439,148.041188,6741.640382,10362.883188
1015.106769,-2738.761985,7890.783629,12583.501014
1015.107099,-4145.153275,6281.983084,14137.933492
1015.107428,-4145.153275,3600.648841,13619.789333
1015.107758,-3775.050304,229.828649,11547.212695
1015.108088,-2960.823768,-2298.286494,9326.594869
1015.108417,-1850.514855,-2145.067394,6809.894666
1015.108747,-1480.411884,-536.266849,6957.935855
1015.109077,-296.082377,1072.533697,8216.285956
1015.109406,0.000000,2681.334243,8882.471304
1015.109736,-296.082377,3600.648841,7550.100608
1015.110066,0.000000,3370.820191,7105.977043
1015.110395,740.205942,2374.896044,8586.388927
1015.110725,444.123565,2298.286494,11843.295072
1015.111055,-1184.329507,2911.162892,13471.748144
1015.111384,-2738.761985,3447.429741,13619.789333
1015.111714,-2960.823768,2681.334243,12657.521608
1015.112044,-2516.700203,1608.800546,12287.418637
1015.112373,-2072.576638,689.485948,9474.636058
1015.112703,-814.226536,-1225.752797,6217.729913
1015.113033,962.267725,-2911.162892,5033.400406
1015.113362,1850.514855,-2528.115143,5477.523971
1015.113692,1258.350101,-1072.533697,6365.771101
1015.114022,74.020594,229.828649,8808.450710
1015.114351,-1628.453072,1685.410096,11251.130318
1015.114681,-2960.823768,3294.210641,13545.768739
1015.115011,-3552.988522,4826.401637,14359.995275
1015.115340,-2664.741391,3907.087040,12509.480420
1015.115670,-1258.350101,842.705048,9844.739029
1015.116000,74.020594,-1455.581446,8660.409521
1015.116329,962.267725,-1532.190996,8142.265362
1015.116659,962.267725,306.438199,8586.388927
1015.116988,0.000000,2987.772442,8660.409521
1015.117318,-1184.329507,3447.429741,9548.656652
1015.117648,-1998.556043,3217.601092,9548.656652
1015.117977,-1702.473667,1838.629195,8956.491898
1015.118307,-1184.329507,536.266849,7994.224174
1015.118637,-740.205942,-383.047749,8586.388927
1015.118966,-296.082377,153.219100,9622.677246
1015.119296,-962.267725,842.705048,11325.150913
1015.119626,-1776.494261,2834.553343,12065.356855
1015.119955,-2368.659014,4519.963438,12361.439231
1015.120285,-2368.659014,5209.449386,11621.233289
1015.120615,-1258.350101,3983.696590,9992.780217
1015.120944,370.102971,2528.115143,7772.162391
1015.121274,1258.350101,842.705048,6513.812290
1015.121604,1036.288319,459.657299,6439.791695
1015.121933,-592.164754,1302.362347,6809.894666
1015.122263,-1702.473667,2451.505594,7772.162391
1015.122593,-2146.597232,4290.134789,9030.512492
1015.122922,-2368.659014,4213.525239,9696.697840
1015.123252,-1776.494261,2604.724693,7846.182985
1015.123582,-518.144159,-383.047749,6439.791695
1015.123911,888.247130,-1685.410096,7254.018232
1015.124241,518.144159,-689.485948,8660.409521
1015.124571,-666.185348,1149.143247,9400.615463
1015.124900,-1480.411884,1915.238745,10658.965565
1015.125230,-2072.576638,2528.115143,12509.480420
1015.125560,-2886.803174,3907.087040,12731.542202
1015.125889,-2590.720797,2757.943793,10658.965565
1015.126219,-814.226536,-536.266849,8734.430116
1015.126549,962.267725,-2681.334243,8660.409521
1015.126878,888.247130,-1302.362347,9770.718434
1015.127208,-592.164754,536.266849,10584.944971
1015.127538,-1924.535449,1455.581446,10658.965565
1015.127867,-2146.597232,1685.410096,11621.233289
1015.128197,-2072.576638,2221.676944,11547.212695
1015.128527,-1628.453072,612.876398,9770.718434
1015.128856,0.000000,-3370.820191,7994.224174
1015.129186,962.267725,-5745.716235,7105.977043
1015.129516,444.123565,-5209.449386,7846.182985
1015.129845,-444.123565,-2834.553343,9696.697840
1015.130175,-888.247130,-766.095498,12139.377449
1015.130504,-1702.473667,1991.848295,13915.871710
1015.130834,-2812.782580,4290.134789,13767.830521
1015.131164,-1850.514855,2911.162892,11695.253884
1015.131493,74.020594,0.000000,9844.739029
1015.131823,1184.329507,-2145.067394,8660.409521
1015.132153,592.164754,-1915.238745,8290.306550
1015.132482,-518.144159,0.000000,8956.491898
1015.132812,-1036.288319,689.485948,9178.553681
1015.133142,-2516.700203,919.314598,9696.697840
1015.133471,-2960.823768,1455.581446,8956.491898
1015.133801,-1924.535449,612.876398,7476.080014
1015.134131,518.144159,-1991.848295,6439.791695
1015.134460,1554.432478,-2757.943793,6513.812290
1015.134790,592.164754,-536.266849,7772.162391
1015.135120,-296.082377,1225.752797,9992.780217
1015.135449,-1406.391290,3600.648841,11991.336260
1015.135779,-2516.700203,6511.811733,13397.727550
1015.136109,-2960.823768,7048.078582,12361.439231
1015.136438,-1480.411884,4136.915689,10214.842000
1015.136768,148.041188,229.828649,7254.018232
1015.137098,1258.350101,-1302.362347,6439.791695
1015.137427,1184.329507,0.000000,7105.977043
1015.137757,-370.102971,2145.067394,8438.347739
1015.138087,-2368.659014,3677.258390,9622.677246
1015.138416,-3404.947333,4979.620737,11103.089130
1015.138746,-3849.070898,5439.278036,11177.109724
1015.139076,-2738.761985,4290.134789,9030.512492
1015.139405,-1036.288319,612.876398,7476.080014
1015.139735,518.144159,-995.924147,7105.977043
1015.140065,444.123565,-842.705048,8290.306550
1015.140394,-888.247130,1378.971896,9474.636058
1015.140724,-1776.494261,2604.724693,10510.924376
1015.141054,-2146.597232,4519.963438,12065.356855
1015.141383,-2220.617826,5745.716235,11843.295072
1015.141713,-740.205942,3600.648841,9326.594869
1015.142043,962.267725,383.047749,7698.141797
1015.142372,2442.679609,-995.924147,7402.059420
1015.142702,1850.514855,-306.438199,7846.182985
1015.143031,444.123565,995.924147,9474.636058
1015.143361,-814.226536,1915.238745,10658.965565
1015.143691,-2590.720797,3447.429741,11103.089130
1015.144020,-3108.864956,3294.210641,10362.883188
1015.144350,-2294.638420,153.219100,8216.285956
1015.144680,-666.185348,-3370.820191,7105.977043
1015.145009,0.000000,-4826.401637,7105.977043
1015.145339,-370.102971,-3370.820191,7846.182985
1015.145669,-1110.308913,-1762.019645,9474.636058
1015.145998,-1628.453072,-383.047749,11843.295072
1015.146328,-2812.782580,1838.629195,13619.789333
1015.146658,-3701.029710,2911.162892,13323.706956
1015.146987,-2516.700203,1991.848295,11547.212695
1015.147317,-148.041188,-1838.629195,9474.636058
1015.147647,1258.350101,-3217.601092,8660.409521
1015.147976,1258.350101,-3600.648841,8956.491898
1015.148306,592.164754,-2451.505594,10510.924376
1015.148636,-296.082377,153.219100,11399.171507
1015.148965,-1776.494261,1685.410096,11769.274478
1015.149295,-2220.617826,2298.286494,11029.068536
1015.149625,-888.247130,-459.657299,8882.471304
1015.149954,1628.453072,-3524.039291,7846.182985
1015.150284,2220.617826,-4060.306139,7920.203579
1015.150614,1776.494261,-3064.381992,8660.409521
1015.150943,0.000000,-1149.143247,10362.883188
1015.151273,-1998.556043,842.705048,11917.315666
1015.151603,-3849.070898,3217.601092,13175.665768
1015.151932,-4219.173869,4519.963438,12435.459826
1015.152262,-2442.679609,3064.381992,9992.780217
1015.152592,-444.123565,-689.485948,7550.100608
1015.152921,592.164754,-2221.676944,6365.771101
1015.153251,518.144159,-1455.581446,7105.977043
1015.153581,-296.082377,995.924147,8290.306550
1015.153910,-2220.617826,3907.087040,9326.594869
1015.154240,-2664.741391,5898.935335,9992.780217
1015.154570,-3256.906145,4826.401637,9178.553681
1015.154899,-1776.494261,2145.067394,7328.038826
1015.155229,740.205942,-1072.533697,6513.812290
1015.155559,1554.432478,-2221.676944,6365.771101
1015.155888,962.267725,76.609550,7698.141797
1015.156218,-518.144159,1532.190996,9770.718434
1015.156547,-1850.514855,3753.867940,11325.150913
1015.156877,-2812.782580,5822.325785,12657.521608
1015.157207,-2738.761985,6741.640382,11843.295072
1015.157536,-1332.370696,4519.963438,9326.594869
1015.157866,740.205942,919.314598,6809.894666
1015.158196,2072.576638,-842.705048,6513.812290
1015.158525,1702.473667,-536.266849,7772.162391
1015.158855,0.000000,2068.457845,9400.615463
1015.159185,-2220.617826,4136.915689,11029.068536
1015.159514,-3701.029710,4519.963438,11917.315666
1015.159844,-4145.153275,3753.867940,10881.027347
1015.160174,-3108.864956,536.266849,8808.450710
1015.160503,-888.247130,-2451.505594,7550.100608
1015.160833,296.082377,-3677.258390,7476.080014
1015.161163,296.082377,-2757.943793,8438.347739
1015.161492,-370.102971,-995.924147,10436.903782
1015.161822,-1776.494261,919.314598,11991.336260
1015.162152,-2738.761985,3524.039291,13323.706956
1015.162481,-2442.679609,4060.306139,12805.562797
1015.162811,-592.164754,1991.848295,10214.842000
1015.163141,1110.308913,-1532.190996,8068.244768
1015.163470,2368.659014,-3753.867940,7550.100608
1015.163800,1850.514855,-3217.601092,8216.285956
1015.164130,518.144159,-766.095498,9992.780217
1015.164459,-888.247130,1072.533697,11843.295072
1015.164789,-2590.720797,2451.505594,11695.253884
1015.165119,-2738.761985,2068.457845,10288.862594
1015.165448,-666.185348,-689.485948,8290.306550
1015.165778,1480.411884,-3830.477490,6439.791695
1015.166108,1776.494261,-4749.792088,6661.853478
1015.166437,1184.329507,-2528.115143,7994.224174
1015.166767,-666.185348,76.609550,10436.903782
1015.167097,-2664.741391,2911.162892,12139.377449
1015.167426,-4293.194464,4290.134789,12435.459826
1015.167756,-3997.112087,3140.991542,10955.047942
1015.168086,-2368.659014,306.438199,8808.450710
1015.168415,-296.082377,-2604.724693,7254.018232
1015.168745,370.102971,-3524.039291,6957.935855
1015.169074,-592.164754,-1455.581446,7698.141797
1015.169404,-1850.514855,919.314598,9474.636058
1015.169734,-2664.741391,3217.601092,11251.130318
1015.170063,-3034.844362,4673.182538,12435.459826
1015.170393,-2368.659014,4213.525239,11103.089130
1015.170723,-740.205942,1532.190996,7994.224174
1015.171052,888.247130,-1991.848295,6735.874072
1015.171382,1776.494261,-3140.991542,7920.203579
1015.171712,1184.329507,0.000000,10140.821405
1015.172041,-888.247130,2451.505594,11399.171507
1015.172371,-2664.741391,4366.744339,12583.501014
1015.172701,-3330.926739,5362.668486,13249.686362
1015.173030,-2738.761985,5362.668486,11621.233289
1015.173360,-1332.370696,2528.115143,7772.162391
1015.173690,1184.329507,-1685.410096,5847.626942
1015.174019,2442.679609,-2451.505594,5921.647536
1015.174349,1332.370696,-306.438199,7698.141797
1015.174679,-962.267725,2374.896044,9400.615463
1015.175008,-2516.700203,3753.867940,11177.109724
1015.175338,-3775.050304,5209.449386,11917.315666
1015.175668,-3997.112087,4443.353888,10510.924376
1015.175997,-2072.576638,1072.533697,8364.327145
1015.176327,0.000000,-2987.772442,6587.832884
1015.176657,740.205942,-3677.258390,6291.750507
1015.176986,296.082377,-1225.752797,8068.244768
1015.177316,-1406.391290,689.485948,10140.821405
1015.177646,-2368.659014,2528.115143,12065.356855
1015.177975,-3182.885551,4903.011187,12657.521608
1015.178305,-2664.741391,3677.258390,10807.006753
1015.178635,-518.144159,306.438199,7846.182985
1015.178964,1406.391290,-2834.553343,6735.874072
1015.179294,2146.597232,-3217.601092,7402.059420
1015.179624,1332.370696,-1072.533697,9104.533087
1015.179953,0.000000,1762.019645,10955.047942
1015.180283,-1258.350101,2681.334243,11843.295072
1015.180613,-1776.494261,3140.991542,11917.315666
1015.180942,-1776.494261,2298.286494,10140.821405
1015.181272,148.041188,-306.438199,8290.306550
1015.181602,2294.638420,-3753.867940,8068.244768
1015.181931,1628.453072,-3447.429741,8734.430116
1015.182261,-518.144159,-459.657299,10214.842000
1015.182590,-2886.803174,1455.581446,12213.398043
1015.182920,-3923.091493,2987.772442,13915.871710
1015.183250,-4737.318029,4826.401637,13471.748144
1015.183579,-4515.256246,3064.381992,10807.006753
1015.183909,-2220.617826,-306.438199,7920.203579
1015.184239,222.061783,-3370.820191,6661.853478
1015.184568,592.164754,-2757.943793,6809.894666
1015.184898,-592.164754,153.219100,7698.141797
1015.185228,-1554.432478,2528.115143,9178.553681
1015.185557,-1554.432478,3753.867940,10288.862594
1015.185887,-2442.679609,5286.058936,10436.903782
1015.186217,-1406.391290,4213.525239,8660.409521
1015.186546,888.247130,383.047749,7031.956449
1015.186876,2516.700203,-2145.067394,6883.915261
1015.187206,2220.617826,-766.095498,8216.285956
1015.187535,444.123565,1455.581446,9400.615463
1015.187865,-518.144159,2221.676944,10584.944971
1015.188195,-1998.556043,4519.963438,11991.336260
1015.188524,-3034.844362,6818.249932,12213.398043
1015.188854,-2960.823768,5592.497135,10140.821405
1015.189184,-1184.329507,2068.457845,7105.977043
1015.189513,222.061783,-1455.581446,5403.503377
1015.189843,222.061783,-1991.848295,6365.771101
1015.190173,-962.267725,229.828649,8216.285956
1015.190502,-2368.659014,1762.019645,9918.759623
1015.190832,-4219.173869,2834.553343,11399.171507
1015.191162,-4737.318029,4290.134789,11695.253884
1015.191491,-4293.194464,2604.724693,10362.883188
1015.191821,-1998.556043,-919.314598,8956.491898
1015.192151,0.000000,-3064.381992,7698.141797
1015.192480,740.205942,-2681.334243,8290.306550
1015.192810,888.247130,-995.924147,10510.924376
1015.193140,222.061783,842.705048,12287.418637
1015.193470,-1258.350101,2834.553343,14211.954086
1015.193799,-2516.700203,4903.011187,14211.954086
1015.194129,-1850.514855,4213.525239,12213.398043
1015.194459,222.061783,612.876398,9474.636058
1015.194788,2072.576638,-3064.381992,7698.141797
1015.195118,2368.659014,-3600.648841,8290.306550
1015.195448,740.205942,-1072.533697,9178.553681
1015.195777,-1258.350101,995.924147,9548.656652
1015.196107,-2368.659014,1608.800546,10066.800811
1015.196437,-2812.782580,1915.238745,10066.800811
1015.196767,-2516.700203,689.485948,8882.471304
1015.197096,-666.185348,-1532.190996,7254.018232
1015.197426,1110.308913,-3830.477490,6735.874072
1015.197756,1110.308913,-2987.772442,7920.203579
1015.198085,0.000000,-383.047749,9622.677246
1015.198415,-1850.514855,2145.067394,12065.356855
1015.198745,-3182.885551,4519.963438,13249.686362
1015.199074,-4071.132681,5975.544884,12435.459826
1015.199404,-3330.926739,3907.087040,9918.759623
1015.199734,-666.185348,76.609550,8068.244768
1015.200064,1184.329507,-1991.848295,7254.018232
1015.200393,518.144159,-1149.143247,6365.771101
1015.200723,-962.267725,459.657299,6735.874072
1015.201053,-1776.494261,1838.629195,8660.409521
1015.201382,-2220.617826,2987.772442,10658.965565
1015.201712,-2738.761985,5362.668486,10362.883188
1015.202042,-1998.556043,3753.867940,8068.244768
1015.202371,296.082377,76.609550,6957.935855
1015.202701,2072.576638,-1991.848295,8068.244768
1015.203031,1332.370696,612.876398,9178.553681
1015.203361,-444.123565,2451.505594,10362.883188
1015.203690,-1850.514855,3677.258390,12213.398043
1015.204020,-2960.823768,5362.668486,13545.768739
1015.204350,-3627.009116,6588.421283,13027.624579
1015.204679,-2886.803174,4519.963438,10955.047942
1015.205009,-962.267725,1532.190996,8364.327145
1015.205339,74.020594,-612.876398,6809.894666
1015.205668,-222.061783,153.219100,7031.956449
1015.205998,-1480.411884,1149.143247,8068.244768
1015.206328,-2368.659014,1991.848295,9400.615463
1015.206658,-3330.926739,3907.087040,10288.862594
1015.206987,-3923.091493,3983.696590,9622.677246
1015.207317,-2516.700203,1991.848295,7846.182985
1015.207647,-296.082377,-1915.238745,6883.915261
1015.207976,1332.370696,-3524.039291,7402.059420
1015.208306,1332.370696,-1991.848295,8660.409521
1015.208636,444.123565,919.314598,10214.842000
1015.208965,-296.082377,2757.943793,11547.212695
1015.209295,-1332.370696,4443.353888,12953.603985
1015.209625,-1776.494261,4290.134789,12361.439231
1015.209955,-740.205942,2221.676944,10584.944971
1015.210284,740.205942,0.000000,8216.285956
1015.210614,1258.350101,-2451.505594,6809.894666
1015.210944,814.226536,-2604.724693,7402.059420
1015.211273,-370.102971,-1685.410096,9326.594869
1015.211603,-1850.514855,76.609550,11029.068536
1015.211933,-3701.029710,1915.238745,11695.253884
1015.212262,-4811.338623,2757.943793,10066.800811
1015.212592,-2664.741391,-842.705048,8142.265362
1015.212922,0.000000,-4213.525239,7105.977043
1015.213252,1110.308913,-4673.182538,7920.203579
1015.213581,444.123565,-2451.505594,9326.594869
1015.213911,-962.267725,-306.438199,11029.068536
1015.214241,-2812.782580,1455.581446,12583.501014
1015.214570,-3330.926739,3524.039291,14063.912898
1015.214900,-2960.823768,3907.087040,13767.830521
1015.215230,-1554.432478,2068.457845,10362.883188
1015.215559,888.247130,-1225.752797,7698.141797
1015.215889,2072.576638,-3217.601092,8216.285956
1015.216219,962.267725,-842.705048,9326.594869
1015.216549,-1258.350101,1915.238745,9548.656652
1015.216878,-2146.597232,2987.772442,10362.883188
1015.217208,-2664.741391,4213.525239,10807.006753
1015.217538,-2812.782580,4213.525239,9474.636058
1015.217867,-1184.329507,1378.971896,7846.182985
1015.218197,0.000000,-1838.629195,6069.688724
1015.218527,592.164754,-2145.067394,6069.688724
1015.218856,-296.082377,0.000000,8142.265362
1015.219186,-1480.411884,1915.238745,10436.903782
1015.219516,-2664.741391,4290.134789,11769.274478
1015.219846,-3849.070898,6741.640382,11917.315666
1015.220175,-3182.885551,6435.202183,10288.862594
1015.220505,-1184.329507,3677.258390,7920.203579
1015.220835,1480.411884,612.876398,6069.688724
1015.221164,1998.556043,-689.485948,5773.606348
1015.221494,814.226536,766.095498,7105.977043
1015.221824,-962.267725,3064.381992,8808.450710
1015.222153,-2072.576638,4290.134789,10362.883188
1015.222483,-3034.844362,4519.963438,11473.192101
1015.222813,-2960.823768,4136.915689,10436.903782
1015.223143,-1702.473667,1378.971896,8734.430116
1015.223472,296.082377,-1455.581446,7402.059420
1015.223802,1184.329507,-2604.724693,7624.121203
1015.224132,296.082377,-919.314598,9474.636058
1015.224461,-888.247130,2068.457845,11325.150913
1015.224791,-2368.659014,3370.820191,12213.398043
1015.225121,-2812.782580,4443.353888,12805.562797
1015.225450,-2368.659014,4366.744339,11695.253884
1015.225780,-666.185348,1149.143247,9400.615463
1015.226110,962.267725,-2757.943793,7846.182985
1015.226440,1258.350101,-3294.210641,7994.224174
1015.226769,370.102971,-1225.752797,10214.842000
1015.227099,-1998.556043,1608.800546,11177.109724
1015.227429,-3552.988522,1991.848295,11695.253884
1015.227758,-3627.009116,2068.457845,11621.233289
1015.228088,-2072.576638,842.705048,10658.965565
1015.228418,-962.267725,-1149.143247,8216.285956
1015.228747,592.164754,-3983.696590,6587.832884
1015.229077,962.267725,-4596.572988,7031.956449
1015.229407,-370.102971,-2604.724693,8734.430116
1015.229737,-1554.432478,229.828649,10955.047942
1015.230066,-2886.803174,2451.505594,12509.480420
1015.230396,-3775.050304,4213.525239,12805.562797
1015.230726,-2738.761985,3217.601092,10584.944971
1015.231055,-962.267725,0.000000,8364.327145
1015.231385,1406.391290,-2604.724693,7105.977043
1015.231715,1776.494261,-2911.162892,7476.080014
1015.232044,0.000000,0.000000,8586.388927
1015.232374,-1184.329507,1532.190996,9844.739029
1015.232704,-1554.432478,1991.848295,11177.109724
1015.233034,-2442.679609,2987.772442,11103.089130
1015.233363,-2442.679609,3294.210641,9326.594869
1015.233693,-518.144159,306.438199,7846.182985
1015.234023,1184.329507,-2298.286494,7105.977043
1015.234352,1184.329507,-2451.505594,7624.121203
1015.234682,-222.061783,0.000000,9252.574275
1015.235012,-1406.391290,2528.115143,10955.047942
1015.235341,-2516.700203,4366.744339,11843.295072
1015.235671,-2812.782580,5822.325785,11917.315666
1015.236001,-2664.741391,5056.230287,10288.862594
1015.236331,-1036.288319,2451.505594,7624.121203
1015.236660,962.267725,0.000000,6291.750507
1015.236990,1702.473667,-1072.533697,6217.729913
1015.237320,-148.041188,766.095498,7772.162391
1015.237649,-1850.514855,2451.505594,9992.780217
1015.237979,-3108.864956,3983.696590,11399.171507
1015.238309,-3849.070898,4673.182538,11843.295072
1015.238638,-2886.803174,3524.039291,10436.903782
1015.238968,-888.247130,689.485948,8660.409521
1015.239298,740.205942,-2451.505594,6957.935855
1015.239628,1036.288319,-2757.943793,7550.100608
1015.239957,0.000000,0.000000,9326.594869
1015.240287,-666.185348,1608.800546,11177.109724
1015.240617,-2294.638420,3907.087040,13323.706956
1015.240946,-3478.967927,5592.497135,13397.727550
1015.241276,-3108.864956,3753.867940,11251.130318
1015.241606,-888.247130,0.000000,8438.347739
1015.241935,1628.453072,-2298.286494,7105.977043
1015.242265,1850.514855,-2911.162892,7476.080014
1015.242595,74.020594,-1608.800546,9104.533087
1015.242925,-1184.329507,689.485948,10288.862594
1015.243254,-2516.700203,1991.848295,11251.130318
1015.243584,-3182.885551,2604.724693,10436.903782
1015.243914,-2146.597232,229.828649,8586.388927
1015.244243,-148.041188,-2681.334243,7550.100608
1015.244573,1628.453072,-4979.620737,7328.038826
1015.244903,1258.350101,-4213.525239,8364.327145
1015.245232,0.000000,-1915.238745,9400.615463
1015.245562,-1924.535449,-306.438199,11325.150913
1015.245892,-2738.761985,2068.457845,13471.748144
1015.246222,-3330.926739,4366.744339,13767.830521
1015.246551,-2664.741391,3140.991542,11177.109724
1015.246881,-518.144159,-383.047749,7698.141797
1015.247211,1480.411884,-3830.477490,6439.791695
1015.247540,2072.576638,-4060.306139,7328.038826
1015.247870,0.000000,-1072.533697,8956.491898
1015.248200,-2072.576638,1225.752797,9992.780217
1015.248529,-3034.844362,2145.067394,10955.047942
1015.248859,-3256.906145,2604.724693,11399.171507
1015.249189,-1998.556043,1762.019645,9918.759623
1015.249519,-518.144159,-689.485948,8068.244768
1015.249848,1036.288319,-2911.162892,6957.935855
1015.250178,740.205942,-2145.067394,8216.285956
1015.250508,-740.205942,153.219100,10584.944971
1015.250837,-1924.535449,2528.115143,12139.377449
1015.251167,-3108.864956,5132.839837,12583.501014
1015.251497,-3182.885551,6281.983084,12139.377449
1015.251826,-1998.556043,4366.744339,10140.821405
1015.252156,-148.041188,919.314598,7698.141797
1015.252486,1184.329507,-1149.143247,6365.771101
1015.252816,814.226536,0.000000,6735.874072
1015.253145,-222.061783,1991.848295,8216.285956
1015.253475,-1332.370696,3524.039291,9696.697840
1015.253805,-2442.679609,4060.306139,10584.944971
1015.254134,-3256.906145,4366.744339,10214.842000
1015.254464,-2146.597232,3294.210641,8438.347739
1015.254794,-222.061783,536.266849,6439.791695
1015.255123,1480.411884,-1915.238745,6217.729913
1015.255453,1406.391290,-1532.190996,7624.121203
1015.255783,74.020594,842.705048,9622.677246
1015.256113,-1110.308913,4213.525239,11251.130318
1015.256442,-2516.700203,5669.106685,12435.459826
1015.256772,-2738.761985,5592.497135,11843.295072
1015.257102,-1406.391290,3217.601092,10214.842000
1015.257431,370.102971,76.609550,8216.285956
1015.257761,1480.411884,-995.924147,6883.915261
1015.258091,888.247130,-1149.143247,7476.080014
1015.258421,-740.205942,383.047749,8660.409521
1015.258750,-2368.659014,1225.752797,10362.883188
1015.259080,-3256.906145,1532.190996,11769.274478
1015.259410,-3627.009116,2221.676944,10881.027347
1015.259739,-2590.720797,0.000000,8956.491898
1015.260069,-518.144159,-3753.867940,7476.080014
1015.260399,1036.288319,-5209.449386,7846.182985
1015.260728,518.144159,-3217.601092,9474.636058
1015.261058,-518.144159,-689.485948,10881.027347
1015.261388,-1480.411884,1149.143247,12213.398043
1015.261718,-2442.679609,3064.381992,13619.789333
1015.262047,-2664.741391,3600.648841,13027.624579
1015.262377,-1110.308913,995.924147,10807.006753
1015.262707,1036.288319,-1532.190996,8512.368333
1015.263036,1924.535449,-2987.772442,7772.162391
1015.263366,1554.432478,-2911.162892,8882.471304
1015.263696,-444.123565,0.000000,10214.842000
1015.264025,-1776.494261,306.438199,10881.027347
1015.264355,-2664.741391,1991.848295,11547.212695
1015.264685,-2960.823768,2145.067394,9992.780217
1015.265015,-1628.453072,229.828649,8142.265362
1015.265344,444.123565,-2528.115143,6661.853478
1015.265674,1332.370696,-4366.744339,6587.832884
1015.266004,222.061783,-1838.629195,7846.182985
1015.266333,-1332.370696,1225.752797,9918.759623
1015.266663,-2368.659014,3064.381992,11547.212695
1015.266993,-3330.926739,4673.182538,12287.418637
1015.267322,-3256.906145,4366.744339,11399.171507
1015.267652,-1332.370696,2604.724693,8808.450710
1015.267982,666.185348,153.219100,7105.977043
1015.268312,1998.556043,-919.314598,6735.874072
1015.268641,888.247130,842.705048,7550.100608
1015.268971,-296.082377,2681.334243,9252.574275
1015.269301,-1184.329507,3983.696590,10362.883188
1015.269630,-2294.638420,4826.401637,11103.089130
1015.269960,-3034.844362,4826.401637,9770.718434
1015.270290,-1702.473667,1685.410096,7772.162391
1015.270619,222.061783,-1991.848295,6735.874072
1015.270949,888.247130,-2374.896044,7476.080014
1015.271279,-370.102971,229.828649,9326.594869
1015.271609,-1480.411884,1915.238745,10658.965565
1015.271938,-2368.659014,3294.210641,11769.274478
1015.272268,-3034.844362,4366.744339,12583.501014
1015.272598,-2516.700203,4903.011187,12139.377449
1015.272927,-1332.370696,3447.429741,10066.800811
1015.273257,592.164754,229.828649,7846.182985
1015.273587,1924.535449,-1072.533697,7105.977043
1015.273916,740.205942,-689.485948,8512.368333
1015.274246,-518.144159,1685.410096,10214.842000
1015.274576,-1776.494261,2911.162892,11251.130318
1015.274906,-2590.720797,3140.991542,11399.171507
1015.275235,-2072.576638,2757.943793,10510.924376
1015.275565,-1332.370696,-689.485948,7994.224174
1015.275895,444.123565,-3753.867940,6661.853478
1015.276224,1554.432478,-4596.572988,7402.059420
1015.276554,148.041188,-2221.676944,9104.533087
1015.276884,-1258.350101,1532.190996,10584.944971
1015.277213,-2368.659014,2374.896044,11621.233289
1015.277543,-2442.679609,3294.210641,12213.398043
1015.277873,-2146.597232,3677.258390,11251.130318
1015.278203,-740.205942,1302.362347,8882.471304
1015.278532,1332.370696,-2068.457845,7254.018232
1015.278862,1850.514855,-3524.039291,7328.038826
1015.279192,0.000000,-1608.800546,8882.471304
1015.279521,-1924.535449,1072.533697,10288.862594
1015.279851,-2516.700203,1838.629195,11621.233289
1015.280181,-3034.844362,2834.553343,11473.192101
1015.280510,-3034.844362,1991.848295,9696.697840
1015.280840,-1332.370696,-919.314598,8216.285956
1015.281170,888.247130,-2911.162892,7402.059420
1015.281500,1480.411884,-2681.334243,7846.182985
1015.281829,296.082377,-536.266849,9104.533087
1015.282159,-1110.308913,1532.190996,10807.006753
1015.282489,-1924.535449,4136.915689,13027.624579
1015.282818,-2294.638420,5898.935335,12731.542202
1015.283148,-2220.617826,5056.230287,10584.944971
1015.283478,0.000000,2145.067394,8216.285956
1015.283807,1480.411884,-919.314598,7476.080014
1015.284137,1776.494261,-306.438199,7698.141797
1015.284467,-296.082377,1455.581446,7846.182985
1015.284797,-2072.576638,2145.067394,8660.409521
1015.285126,-2664.741391,2681.334243,10510.924376
1015.285456,-3330.926739,4443.353888,11769.274478
1015.285786,-2886.803174,4213.525239,9918.759623
1015.286115,-1628.453072,766.095498,7105.977043
1015.286445,518.144159,-1915.238745,6069.688724
1015.286775,1258.350101,-1762.019645,7550.100608
1015.287104,296.082377,842.705048,10436.903782
1015.287434,-1776.494261,3217.601092,11177.109724
1015.287764,-2590.720797,4596.572988,11695.253884
1015.288094,-3182.885551,5362.668486,12065.356855
1015.288423,-2294.638420,4443.353888,11547.212695
1015.288753,-518.144159,1838.629195,9178.553681
1015.289083,1036.288319,-842.705048,7031.956449
1015.289412,1628.453072,-1532.190996,6587.832884
1015.289742,666.185348,229.828649,8216.285956
1015.290072,-592.164754,1608.800546,9770.718434
1015.290401,-1850.514855,2757.943793,10955.047942
1015.290731,-2812.782580,3907.087040,11103.089130
1015.291061,-2146.597232,2911.162892,9548.656652
1015.291390,-592.164754,-612.876398,7254.018232
1015.291720,1110.308913,-4213.525239,6513.812290
1015.292050,1110.308913,-4060.306139,7698.141797
1015.292379,-592.164754,-1378.971896,9622.677246
1015.292709,-1850.514855,1608.800546,10955.047942
1015.293039,-3182.885551,2298.286494,12435.459826
1015.293368,-3330.926739,3370.820191,12509.480420
1015.293698,-2368.659014,2451.505594,11177.109724
1015.294028,-222.061783,0.000000,8956.491898
1015.294357,1332.370696,-2681.334243,7179.997637
1015.294687,1332.370696,-2604.724693,8068.244768
1015.295017,74.020594,-229.828649,9918.759623
1015.295346,-1332.370696,1072.533697,11251.130318
1015.295676,-2146.597232,2145.067394,11769.274478
1015.296006,-2590.720797,2834.553343,11103.089130
1015.296335,-1998.556043,1072.533697,8882.471304
1015.296665,-370.102971,-2298.286494,7402.059420
1015.296995,1480.411884,-4290.134789,7698.141797
1015.297324,1184.329507,-2757.943793,8512.368333
1015.297654,-666.185348,229.828649,9548.656652
1015.297984,-1628.453072,1608.800546,11251.130318
1015.298313,-2442.679609,3600.648841,12583.501014
1015.298643,-2886.803174,4673.182538,12435.459826
1015.298972,-2220.617826,4519.963438,10288.862594
1015.299302,0.000000,1915.238745,7994.224174
1015.299632,1258.350101,-1072.533697,7179.997637
1015.299961,962.267725,-1378.971896,7550.100608
1015.300291,-814.226536,842.705048,9104.533087
1015.300621,-2220.617826,3524.039291,9918.759623
1015.300950,-3108.864956,4903.011187,10362.883188
1015.301280,-3108.864956,4060.306139,9844.739029
1015.301610,-2220.617826,2528.115143,8142.265362
1015.301939,-148.041188,-459.657299,6957.935855
1015.302269,1036.288319,-1378.971896,6513.812290
1015.302599,370.102971,0.000000,7105.977043
1015.302928,-666.185348,1302.362347,9178.553681
1015.303258,-1924.535449,2451.505594,11325.150913
1015.303588,-2516.700203,4903.011187,12953.603985
1015.303917,-3108.864956,7201.297681,12657.521608
1015.304247,-2220.617826,5132.839837,9548.656652
1015.304577,74.020594,842.705048,6957.935855
1015.304906,2294.638420,-2374.896044,6587.832884
1015.305236,1924.535449,-1225.752797,7846.182985
1015.305566,148.041188,2681.334243,9178.553681
1015.305895,-1628.453072,3983.696590,9918.759623
1015.306225,-3182.885551,3830.477490,10066.800811
1015.306555,-3552.988522,2834.553343,10288.862594
1015.306884,-2368.659014,536.266849,9696.697840
1015.307214,0.000000,-1532.190996,7920.203579
1015.307544,1184.329507,-2911.162892,7254.018232
1015.307873,222.061783,-2987.772442,8364.327145
1015.308203,-962.267725,-1608.800546,10584.944971
1015.308533,-2072.576638,1302.362347,12879.583391
1015.308862,-2664.741391,4290.134789,13915.871710
1015.309192,-3108.864956,4826.401637,12435.459826
1015.309522,-1850.514855,1532.190996,10214.842000
1015.309851,592.164754,-1915.238745,8808.450710
1015.310181,1924.535449,-3370.820191,8216.285956
1015.310510,1776.494261,-2451.505594,8290.306550
1015.310840,0.000000,0.000000,9918.759623
1015.311170,-1776.494261,1149.143247,11621.233289
1015.311499,-2886.803174,2145.067394,12287.418637
1015.311829,-3182.885551,2374.896044,10881.027347
1015.312159,-1702.473667,459.657299,8438.347739
1015.312488,740.205942,-2911.162892,6735.874072
1015.312818,1702.473667,-4443.353888,7031.956449
1015.313148,592.164754,-2834.553343,8290.306550
1015.313477,-1480.411884,-229.828649,9326.594869
1015.313807,-2886.803174,2221.676944,10584.944971
1015.314137,-3552.988522,3830.477490,12213.398043
1015.314466,-3330.926739,4290.134789,12509.480420
1015.314796,-2368.659014,2604.724693,10362.883188
1015.315126,-592.164754,0.000000,7328.038826
1015.315455,518.144159,-2987.772442,5625.565159
1015.315785,370.102971,-1455.581446,7402.059420
1015.316115,-888.247130,1532.190996,9696.697840
1015.316444,-1776.494261,3753.867940,11177.109724
1015.316774,-2220.617826,4443.353888,10807.006753
1015.317104,-2220.617826,4213.525239,9178.553681
1015.317433,-370.102971,1378.971896,8068.244768
1015.317763,1184.329507,-1532.190996,7105.977043
1015.318093,1776.494261,-1915.238745,7846.182985
1015.318422,1036.288319,919.314598,9178.553681
1015.318752,-444.123565,2911.162892,10362.883188
1015.319082,-1998.556043,4366.744339,11547.212695
1015.319411,-2886.803174,4749.792088,12731.542202
1015.319741,-2812.782580,5362.668486,12657.521608
1015.320071,-2294.638420,4213.525239,9696.697840
1015.320400,-666.185348,766.095498,6365.771101
1015.320730,1036.288319,-2451.505594,6587.832884
1015.321059,518.144159,-1378.971896,8216.285956
1015.321389,-1110.308913,2145.067394,10288.862594
1015.321719,-2960.823768,4213.525239,10955.047942
1015.322048,-3701.029710,4903.011187,10732.986159
1015.322378,-3701.029710,4060.306139,10066.800811
1015.322708,-1850.514855,1685.410096,8956.491898
1015.323037,444.123565,-2221.676944,7550.100608
1015.323367,1628.453072,-3140.991542,7179.997637
1015.323697,518.144159,-995.924147,7994.224174
1015.324026,-888.247130,689.485948,9474.636058
1015.324356,-1628.453072,1838.629195,11547.212695
1015.324686,-1480.411884,3370.820191,12953.603985
1015.325015,-1998.556043,3983.696590,11695.253884
1015.325345,-1036.288319,1532.190996,9030.512492
1015.325675,222.061783,-1915.238745,7550.100608
1015.326004,1258.350101,-4366.744339,7105.977043
1015.326334,74.020594,-2298.286494,9178.553681
1015.326664,-1332.370696,383.047749,10584.944971
1015.326993,-2368.659014,1762.019645,11547.212695
1015.327323,-2886.803174,1762.019645,11547.212695
