#time,accel_x,accel_y,accel_z
944.739917,-962.267725,919.314598,9622.677246
944.740246,-1184.329507,1455.581446,9844.739029
944.740576,-814.226536,919.314598,9400.615463
944.740906,-1036.288319,919.314598,9474.636058
944.741235,-1332.370696,919.314598,9474.636058
944.741565,-1258.350101,1072.533697,9474.636058
944.741894,-740.205942,766.095498,9548.656652
944.742224,-1036.288319,842.705048,9104.533087
944.742554,-888.247130,995.924147,9622.677246
944.742883,-888.247130,766.095498,9474.636058
944.743213,-1110.308913,842.705048,9696.697840
944.743543,-1036.288319,766.095498,9474.636058
944.743872,-1184.329507,383.047749,9400.615463
944.744202,-1184.329507,995.924147,9252.574275
944.744531,-1036.288319,842.705048,9474.636058
944.744861,-962.267725,842.705048,9474.636058
944.745191,-962.267725,919.314598,9548.656652
944.745520,-814.226536,689.485948,9326.594869
944.745850,-1110.308913,766.095498,9474.636058
944.746179,-1036.288319,995.924147,9696.697840
944.746509,-1110.308913,766.095498,9696.697840
944.746839,-962.267725,919.314598,9548.656652
944.747168,-1036.288319,1225.752797,9474.636058
944.747498,-740.205942,1225.752797,9326.594869
944.747827,-1036.288319,459.657299,9474.636058
944.748157,-1036.288319,919.314598,9474.636058
944.748487,-1110.308913,842.705048,9622.677246
944.748816,-1036.288319,842.705048,9474.636058
944.749146,-814.226536,842.705048,9622.677246
944.749475,-814.226536,766.095498,9548.656652
944.749805,-1036.288319,766.095498,9474.636058
944.750135,-1258.350101,842.705048,9474.636058
944.750464,-1184.329507,842.705048,9474.636058
944.750794,-740.205942,1225.752797,9696.697840
944.751123,-1110.308913,766.095498,9178.553681
944.751453,-814.226536,536.266849,9474.636058
944.751783,-962.267725,919.314598,9474.636058
944.752112,-962.267725,919.314598,9474.636058
944.752442,-740.205942,919.314598,9844.739029
944.752771,-740.205942,766.095498,9474.636058
944.753101,-1036.288319,919.314598,9474.636058
944.753431,-1258.350101,842.705048,9474.636058
944.753760,-1184.329507,842.705048,9474.636058
944.754090,-1110.308913,689.485948,9252.574275
944.754419,-1110.308913,842.705048,9400.615463
944.754749,-888.247130,995.924147,9622.677246
944.755079,-1036.288319,612.876398,9474.636058
944.755408,-888.247130,842.705048,9474.636058
944.755738,-1036.288319,1072.533697,9696.697840
944.756068,-1110.308913,1302.362347,9400.615463
944.756397,-1036.288319,1072.533697,9326.594869
944.756727,-962.267725,919.314598,9548.656652
944.757056,-1036.288319,995.924147,9548.656652
944.757386,-962.267725,842.705048,9474.636058
944.757716,-1184.329507,842.705048,9474.636058
944.758045,-666.185348,1149.143247,9326.594869
944.758375,-814.226536,995.924147,9696.697840
944.758704,-1036.288319,919.314598,9474.636058
944.759034,-1110.308913,842.705048,9474.636058
944.759364,-1036.288319,842.705048,9548.656652
944.759693,-1184.329507,1225.752797,9326.594869
944.760023,-592.164754,1072.533697,9622.677246
944.760352,-962.267725,995.924147,9474.636058
944.760682,-1036.288319,995.924147,9474.636058
944.761012,-1184.329507,842.705048,9474.636058
944.761341,-814.226536,1072.533697,9474.636058
944.761671,-1036.288319,689.485948,9252.574275
944.762000,-1036.288319,919.314598,9474.636058
944.762330,-1110.308913,1072.533697,9622.677246
944.762660,-1184.329507,995.924147,9548.656652
944.762989,-1036.288319,612.876398,9104.533087
944.763319,-962.267725,1455.581446,9474.636058
944.763648,-1184.329507,842.705048,9474.636058
944.763978,-888.247130,1149.143247,9474.636058
944.764308,-962.267725,995.924147,9474.636058
944.764637,-962.267725,689.485948,8956.491898
944.764967,222.061783,995.924147,8956.491898
944.765296,444.123565,536.266849,9104.533087
944.765626,1184.329507,536.266849,9474.636058
944.765956,814.226536,842.705048,9474.636058
944.766285,370.102971,612.876398,9992.780217
944.766615,0.000000,995.924147,10140.821405
944.766944,-740.205942,995.924147,10214.842000
944.767274,-592.164754,459.657299,10510.924376
944.767604,-296.082377,459.657299,9844.739029
944.767933,148.041188,153.219100,9178.553681
944.768263,1406.391290,0.000000,9252.574275
944.768593,2072.576638,229.828649,8808.450710
944.768922,3034.844362,612.876398,8660.409521
944.769252,3627.009116,1149.143247,9252.574275
944.769581,3627.009116,1915.238745,9400.615463
944.769911,3404.947333,1915.238745,9844.739029
944.770241,2738.761985,1225.752797,10066.800811
944.770570,2368.659014,842.705048,10510.924376
944.770900,1406.391290,842.705048,10807.006753
944.771229,1036.288319,229.828649,10955.047942
944.771559,1480.411884,-383.047749,10510.924376
944.771889,1998.556043,-383.047749,9770.718434
944.772218,2516.700203,-229.828649,9474.636058
944.772548,3478.967927,-229.828649,9104.533087
944.772877,4219.173869,766.095498,9252.574275
944.773207,4515.256246,1838.629195,9178.553681
944.773537,3923.091493,2451.505594,9474.636058
944.773866,2664.741391,3294.210641,10214.842000
944.774196,1258.350101,2757.943793,10658.965565
944.774525,-740.205942,2528.115143,10288.862594
944.774855,-2146.597232,2145.067394,9622.677246
944.775185,-1776.494261,536.266849,8660.409521
944.775514,-370.102971,-766.095498,7698.141797
944.775844,1776.494261,-1149.143247,7105.977043
944.776173,3034.844362,-919.314598,6365.771101
944.776503,4293.194464,0.000000,7031.956449
944.776833,4071.132681,1608.800546,8364.327145
944.777162,2960.823768,3600.648841,9918.759623
944.777492,1850.514855,4213.525239,11843.295072
944.777821,666.185348,3983.696590,12657.521608
944.778151,-222.061783,2757.943793,12953.603985
944.778481,-1110.308913,536.266849,12361.439231
944.778810,-1702.473667,-1378.971896,11547.212695
944.779140,-962.267725,-1991.848295,9992.780217
944.779470,-222.061783,-2221.676944,8882.471304
944.779799,1332.370696,-1762.019645,8142.265362
944.780129,2960.823768,-612.876398,7624.121203
944.780458,4367.215058,536.266849,7254.018232
944.780788,4367.215058,1378.971896,7254.018232
944.781118,4663.297435,3294.210641,7994.224174
944.781447,3997.112087,3753.867940,9252.574275
944.781777,3404.947333,3830.477490,10510.924376
944.782106,2220.617826,2987.772442,11325.150913
944.782436,962.267725,2068.457845,11251.130318
944.782766,222.061783,459.657299,11399.171507
944.783095,-518.144159,-1072.533697,10732.986159
944.783425,-518.144159,-1378.971896,10955.047942
944.783754,-444.123565,-1225.752797,10881.027347
944.784084,148.041188,-612.876398,9918.759623
944.784414,1110.308913,76.609550,9548.656652
944.784743,1850.514855,459.657299,8438.347739
944.785073,2960.823768,536.266849,7994.224174
944.785402,4219.173869,766.095498,7846.182985
944.785732,4737.318029,1532.190996,7920.203579
944.786062,5033.400406,1225.752797,7772.162391
944.786391,4367.215058,919.314598,8734.430116
944.786721,3256.906145,1149.143247,9474.636058
944.787050,2220.617826,1532.190996,10214.842000
944.787380,1332.370696,1838.629195,11103.089130
944.787710,1258.350101,1991.848295,10881.027347
944.788039,1036.288319,2068.457845,11103.089130
944.788369,1036.288319,1838.629195,10436.903782
944.788698,1480.411884,1302.362347,8956.491898
944.789028,2442.679609,229.828649,7994.224174
944.789358,2738.761985,536.266849,7994.224174
944.789687,2664.741391,459.657299,7994.224174
944.790017,1110.308913,766.095498,9104.533087
944.790346,0.000000,1149.143247,9696.697840
944.790676,-1406.391290,766.095498,9844.739029
944.791006,-1850.514855,459.657299,10955.047942
944.791335,-1924.535449,76.609550,11473.192101
944.791665,-2220.617826,0.000000,11769.274478
944.791995,-2220.617826,0.000000,11103.089130
944.792324,-1480.411884,0.000000,10214.842000
944.792654,222.061783,76.609550,9400.615463
944.792983,2146.597232,689.485948,8438.347739
944.793313,3108.864956,1915.238745,8216.285956
944.793643,4959.379811,2757.943793,7920.203579
944.793972,6217.729913,3140.991542,8290.306550
944.794302,5847.626942,3907.087040,8882.471304
944.794631,3923.091493,4749.792088,9474.636058
944.794961,1628.453072,4826.401637,10732.986159
944.795291,-296.082377,3447.429741,11695.253884
944.795620,-2442.679609,1838.629195,11695.253884
944.795950,-4515.256246,-153.219100,11103.089130
944.796279,-6883.915261,-2757.943793,10658.965565
944.796609,-8068.244768,-2987.772442,9992.780217
944.796939,-8142.265362,-2757.943793,9030.512492
944.797268,-5773.606348,-1991.848295,7550.100608
944.797598,-1998.556043,-1608.800546,5921.647536
944.797927,2886.803174,-1378.971896,5033.400406
944.798257,6291.750507,-153.219100,5699.585753
944.798587,6587.832884,2681.334243,7031.956449
944.798916,5773.606348,6205.373534,8364.327145
944.799246,3923.091493,7431.126331,10955.047942
944.799575,1480.411884,7201.297681,14137.933492
944.799905,-1480.411884,6052.154434,15544.324782
944.800235,-4367.215058,3447.429741,14582.057057
944.800564,-6735.874072,383.047749,12287.418637
944.800894,-7328.038826,-2757.943793,10288.862594
944.801223,-6513.812290,-4903.011187,8660.409521
944.801553,-3775.050304,-5439.278036,7105.977043
944.801883,74.020594,-4903.011187,5403.503377
944.802212,3404.947333,-1991.848295,4293.194464
944.802542,6069.688724,919.314598,4589.276840
944.802872,6883.915261,2068.457845,6587.832884
944.803201,6661.853478,4673.182538,9696.697840
944.803531,4293.194464,7354.516781,11843.295072
944.803860,222.061783,7890.783629,13989.892304
944.804190,-3923.091493,4060.306139,16136.489536
944.804520,-8512.368333,612.876398,16284.530724
944.804849,-11103.089130,-1455.581446,13989.892304
944.805179,-10288.862594,-4519.963438,10658.965565
944.805508,-6217.729913,-5515.887586,7550.100608
944.805838,-888.247130,-6435.202183,4737.318029
944.806168,4071.132681,-6588.421283,2812.782580
944.806497,6661.853478,-3064.381992,2294.638420
944.806827,7179.997637,3370.820191,2738.761985
944.807156,7920.203579,7660.954980,6217.729913
944.807486,6587.832884,8656.879127,11917.315666
944.807816,1924.535449,8810.098227,16210.510130
944.808145,-4293.194464,7354.516781,16802.674883
944.808475,-9326.594869,3907.087040,15248.242405
944.808804,-11399.171507,-842.705048,13989.892304
944.809134,-11251.130318,-5209.449386,11843.295072
944.809464,-8586.388927,-9193.145976,8512.368333
944.809793,-3552.988522,-10035.851024,5403.503377
944.810123,1480.411884,-7277.907231,4219.173869
944.810452,5551.544565,-1838.629195,3182.885551
944.810782,6735.874072,2068.457845,3256.906145
944.811112,7550.100608,5056.230287,6217.729913
944.811441,7328.038826,8733.488677,11769.274478
944.811771,2812.782580,11644.651570,16062.468941
944.812100,-3627.009116,11108.384721,16654.633695
944.812430,-9622.677246,6358.592633,16210.510130
944.812760,-12435.459826,0.000000,14359.995275
944.813089,-11103.089130,-4979.620737,11177.109724
944.813419,-7254.018232,-9422.974625,8216.285956
944.813748,-2664.741391,-9193.145976,4441.235652
944.814078,1184.329507,-5056.230287,666.185348
944.814407,5551.544565,-3140.991542,-222.061783
944.814737,8734.430116,229.828649,2590.720797
944.815066,9178.553681,5822.325785,7772.162391
944.815396,5995.668130,11491.432470,13841.851115
944.815725,-296.082377,14709.033562,17468.860231
944.816055,-6217.729913,13253.452115,17690.922014
944.816384,-9474.636058,4903.011187,16876.695478
944.816714,-9918.759623,-4060.306139,15618.345376
944.817043,-9770.718434,-5592.497135,11843.295072
944.817373,-7105.977043,-6971.469032,6735.874072
944.817702,-1480.411884,-9729.412825,2960.823768
944.818032,3627.009116,-8656.879127,962.267725
944.818361,8216.285956,-3370.820191,592.164754
944.818691,11251.130318,1149.143247,2146.597232
944.819020,11473.192101,9116.536426,6069.688724
944.819350,8364.327145,15704.957709,11251.130318
944.819679,2886.803174,14096.157163,15988.448347
944.820009,-4293.194464,10878.556072,17764.942608
944.820339,-10436.903782,5898.935335,17394.839637
944.820668,-12657.521608,0.000000,16654.633695
944.820998,-12435.459826,-3524.039291,13545.768739
944.821327,-9252.574275,-8733.488677,8512.368333
944.821657,-3256.906145,-13253.452115,3108.864956
944.821986,2072.576638,-11261.603821,814.226536
944.822316,6661.853478,-4366.744339,888.247130
944.822645,9030.512492,2068.457845,3256.906145
944.822975,8142.265362,8197.221829,7105.977043
944.823304,4589.276840,13866.328514,11917.315666
944.823634,444.123565,13406.671215,16136.489536
944.823963,-3404.947333,11874.480219,17764.942608
944.824293,-7476.080014,7048.078582,17172.777854
944.824622,-10066.800811,-612.876398,14878.139434
944.824952,-9548.656652,-5822.325785,11621.233289
944.825281,-5921.647536,-9959.241474,7402.059420
944.825611,-592.164754,-11261.603821,3849.070898
944.825940,3330.926739,-8656.879127,2368.659014
944.826270,6513.812290,-2834.553343,2220.617826
944.826599,9252.574275,2681.334243,3627.009116
944.826929,9474.636058,7277.907231,7476.080014
944.827258,7328.038826,12104.308868,12139.377449
944.827588,1480.411884,13253.452115,15840.407159
944.827917,-5477.523971,10189.070123,17394.839637
944.828247,-11399.171507,5132.839837,16654.633695
944.828576,-14508.036463,-842.705048,14211.954086
944.828906,-13841.851115,-6128.763984,9474.636058
944.829235,-9104.533087,-12870.404366,5773.606348
944.829565,-3182.885551,-15245.300410,3849.070898
944.829894,1406.391290,-10648.727422,962.267725
944.830224,5551.544565,-4136.915689,-666.185348
944.830553,9178.553681,-383.047749,1702.473667
944.830883,10436.903782,5592.497135,8438.347739
944.831212,8142.265362,12104.308868,15470.304188
944.831542,1776.494261,15245.300410,18727.210333
944.831871,-4589.276840,14019.547613,19245.354492
944.832201,-9474.636058,6741.640382,18653.189738
944.832530,-9770.718434,-1225.752797,17172.777854
944.832860,-8364.327145,-7201.297681,13101.645173
944.833189,-4737.318029,-11261.603821,6809.894666
944.833519,0.000000,-13176.842566,2146.597232
944.833848,3701.029710,-11184.994271,518.144159
944.834178,7624.121203,-4903.011187,1332.370696
944.834507,9400.615463,76.609550,4145.153275
944.834837,8142.265362,7890.783629,7846.182985
944.835166,4367.215058,15704.957709,12139.377449
944.835496,-814.226536,15168.690860,15840.407159
944.835825,-6439.791695,10112.460574,16580.613101
944.836155,-11103.089130,3677.258390,15026.180623
944.836484,-12583.501014,-2068.457845,13767.830521
944.836814,-11621.233289,-5439.278036,11621.233289
944.837143,-8512.368333,-9806.022374,8808.450710
944.837473,-3627.009116,-10342.289223,3701.029710
944.837802,1036.288319,-7507.735880,-518.144159
944.838132,6957.935855,-3753.867940,-0.000000
944.838461,10881.027347,1072.533697,4811.338623
944.838791,8586.388927,8656.879127,11399.171507
944.839120,2886.803174,15704.957709,15914.427753
944.839450,-4219.173869,16547.662757,16506.592507
944.839779,-8142.265362,11951.089769,16876.695478
944.840109,-9030.512492,2911.162892,16876.695478
944.840438,-8364.327145,-3447.429741,13693.809927
944.840768,-7328.038826,-6128.763984,8068.244768
944.841097,-3034.844362,-10572.117872,3034.844362
944.841427,2072.576638,-11644.651570,1406.391290
944.841756,6513.812290,-6818.249932,1628.453072
944.842086,8364.327145,306.438199,2516.700203
944.842415,9474.636058,6052.154434,5551.544565
944.842745,7920.203579,13023.623466,10066.800811
944.843074,4071.132681,15398.519510,14730.098246
944.843404,-2368.659014,13789.718964,17098.757260
944.843733,-8438.347739,9652.803275,17320.819043
944.844063,-12435.459826,3524.039291,15470.304188
944.844392,-12953.603985,-2451.505594,12657.521608
944.844722,-10288.862594,-8733.488677,8956.491898
944.845051,-5403.503377,-13176.842566,5107.421000
944.845381,-1628.453072,-13406.671215,3182.885551
944.845710,2812.782580,-5056.230287,888.247130
944.846040,7402.059420,1149.143247,1554.432478
944.846369,9548.656652,3370.820191,5551.544565
944.846699,8142.265362,9959.241474,10584.944971
944.847029,3256.906145,14019.547613,14285.974681
944.847358,-1406.391290,13713.109414,15914.427753
944.847688,-5847.626942,9116.536426,17172.777854
944.848017,-8882.471304,2145.067394,16432.571912
944.848347,-9326.594869,-3983.696590,13545.768739
944.848676,-6513.812290,-10418.898773,9400.615463
944.849006,-1406.391290,-11644.651570,4663.297435
944.849335,2516.700203,-10418.898773,2590.720797
944.849665,6291.750507,-6665.030833,2442.679609
944.849994,8808.450710,-766.095498,4219.173869
944.850324,9178.553681,4596.572988,7994.224174
944.850653,7402.059420,12793.794817,11917.315666
944.850983,2220.617826,15628.348159,14211.954086
944.851312,-3256.906145,11721.261119,15470.304188
944.851642,-8216.285956,4596.572988,15914.427753
944.851971,-11695.253884,-1225.752797,14063.912898
944.852301,-11843.295072,-4673.182538,10881.027347
944.852630,-8882.471304,-10189.070123,7254.018232
944.852960,-4885.359217,-13483.280765,5773.606348
944.853289,-1628.453072,-11414.822920,2442.679609
944.853619,3256.906145,-4903.011187,518.144159
944.853948,7846.182985,-306.438199,2590.720797
944.854278,9104.533087,4903.011187,8142.265362
944.854607,6365.771101,11874.480219,13841.851115
944.854937,740.205942,14096.157163,17172.777854
944.855266,-4293.194464,12487.356617,17912.983796
944.855596,-8882.471304,8273.831378,17616.901420
944.855925,-10732.986159,919.314598,15026.180623
944.856255,-9252.574275,-5898.935335,11325.150913
944.856584,-5477.523971,-11721.261119,7328.038826
944.856914,-814.226536,-13483.280765,3997.112087
944.857243,2516.700203,-10725.336972,2516.700203
944.857573,5625.565159,-3830.477490,2368.659014
944.857902,7698.141797,1149.143247,3849.070898
944.858232,7624.121203,7201.297681,7698.141797
944.858561,6439.791695,13636.499864,11473.192101
944.858891,1776.494261,14785.643111,15100.201217
944.859220,-4219.173869,10801.946522,16728.654289
944.859550,-9844.739029,6741.640382,15692.365970
944.859879,-13027.624579,1149.143247,12509.480420
944.860209,-11473.192101,-5745.716235,10732.986159
944.860538,-8364.327145,-10112.460574,6883.915261
944.860868,-4219.173869,-10495.508323,2886.803174
944.861197,518.144159,-8656.879127,148.041188
944.861527,5107.421000,-4136.915689,1036.288319
944.861856,7846.182985,1762.019645,5699.585753
944.862186,6587.832884,8197.221829,11177.109724
944.862515,2590.720797,14325.985813,14878.139434
944.862845,-3034.844362,16394.443657,17468.860231
944.863174,-6217.729913,12640.575717,16136.489536
944.863504,-7476.080014,3294.210641,14952.160028
944.863833,-7402.059420,-3677.258390,13323.706956
944.864163,-6661.853478,-6588.421283,9474.636058
944.864492,-4219.173869,-9806.022374,4367.215058
944.864822,148.041188,-10878.556072,2294.638420
944.865151,4663.297435,-7967.393179,2072.576638
944.865481,8216.285956,-1915.238745,3701.029710
944.865810,9844.739029,3140.991542,6661.853478
944.866140,8882.471304,11184.994271,10362.883188
944.866469,5033.400406,17160.539155,13989.892304
944.866799,-592.164754,14709.033562,15914.427753
944.867128,-6217.729913,9116.536426,17024.736666
944.867458,-10436.903782,2987.772442,16062.468941
944.867787,-11251.130318,-1225.752797,12509.480420
944.868117,-9326.594869,-6741.640382,8142.265362
944.868446,-4959.379811,-12487.356617,3923.091493
944.868776,-1184.329507,-14325.985813,1850.514855
944.869105,2664.741391,-9422.974625,1332.370696
944.869435,5847.626942,-1149.143247,3256.906145
944.869764,6957.935855,6052.154434,6217.729913
944.870094,5921.647536,11184.994271,10510.924376
944.870423,3701.029710,13713.109414,15100.201217
944.870753,-814.226536,13176.842566,15914.427753
944.871082,-4293.194464,9039.926876,16062.468941
944.871412,-7698.141797,2145.067394,15618.345376
944.871741,-9918.759623,-2604.724693,13471.748144
944.872071,-7846.182985,-7354.516781,9548.656652
944.872400,-3034.844362,-13023.623466,5107.421000
944.872730,1184.329507,-12487.356617,3034.844362
944.873059,4959.379811,-6971.469032,2664.741391
944.873389,8734.430116,-1378.971896,4515.256246
944.873719,9474.636058,4596.572988,8290.306550
944.874048,7179.997637,12410.747068,11029.068536
944.874378,2664.741391,14938.862211,14508.036463
944.874707,-2738.761985,12257.527968,16876.695478
944.875037,-9178.553681,8503.660028,17024.736666
944.875366,-13101.645173,1608.800546,13323.706956
944.875696,-12435.459826,-4979.620737,9696.697840
944.876025,-9030.512492,-12027.699319,6143.709319
944.876355,-4071.132681,-16624.272307,4441.235652
944.876684,-1628.453072,-14096.157163,2590.720797
944.877014,740.205942,-5975.544884,666.185348
944.877343,4885.359217,536.266849,2960.823768
944.877673,8142.265362,4979.620737,9252.574275
944.878002,7402.059420,11644.651570,14730.098246
944.878332,3256.906145,15475.129060,17394.839637
944.878661,-1924.535449,15245.300410,17468.860231
944.878991,-5921.647536,10342.289223,17098.757260
944.879320,-7698.141797,1762.019645,15322.262999
944.879650,-7476.080014,-5209.449386,11251.130318
944.879979,-5773.606348,-10418.898773,6513.812290
944.880309,-2146.597232,-12947.013916,2812.782580
944.880638,1406.391290,-11874.480219,2146.597232
944.880968,4145.153275,-6205.373534,1554.432478
944.881297,5921.647536,-459.657299,3997.112087
944.881627,6217.729913,4979.620737,7772.162391
944.881956,4737.318029,13866.328514,12139.377449
944.882286,1036.288319,16164.615008,15470.304188
944.882615,-3330.926739,13100.233016,15544.324782
944.882945,-8956.491898,6665.030833,14508.036463
944.883274,-10807.006753,306.438199,12287.418637
944.883604,-9696.697840,-4673.182538,10807.006753
944.883933,-7698.141797,-9652.803275,9326.594869
944.884263,-5255.462188,-9652.803275,5699.585753
944.884592,-2516.700203,-8427.050478,1850.514855
944.884922,3478.967927,-5362.668486,1332.370696
944.885251,8216.285956,-459.657299,5107.421000
944.885581,7994.224174,6128.763984,10807.006753
944.885910,4663.297435,13636.499864,14656.077652
944.886240,-1554.432478,16777.491406,16802.674883
944.886569,-5255.462188,14249.376263,16432.571912
944.886899,-6809.894666,6665.030833,15544.324782
944.887228,-6439.791695,-1762.019645,13027.624579
944.887558,-5625.565159,-5822.325785,8660.409521
944.887887,-3627.009116,-10265.679673,4663.297435
944.888217,444.123565,-11874.480219,2738.761985
944.888546,3108.864956,-8886.707777,2368.659014
944.888876,5625.565159,-3217.601092,3775.050304
944.889205,7105.977043,2451.505594,7328.038826
944.889535,6957.935855,9959.241474,11473.192101
944.889864,4737.318029,16011.395908,13989.892304
944.890194,222.061783,14785.643111,14434.015869
944.890523,-4663.297435,8963.317327,14730.098246
944.890853,-8586.388927,3447.429741,14656.077652
944.891182,-9844.739029,-766.095498,12731.542202
944.891512,-9252.574275,-5362.668486,9178.553681
944.891841,-7031.956449,-10572.117872,5699.585753
944.892171,-3182.885551,-12487.356617,3552.988522
944.892500,1332.370696,-8963.317327,1110.308913
944.892830,6439.791695,-3370.820191,1924.535449
944.893159,8142.265362,2528.115143,5625.565159
944.893489,6365.771101,9882.631924,10732.986159
944.893818,2886.803174,14096.157163,14137.933492
944.894148,-2072.576638,14249.376263,16062.468941
944.894477,-5107.421000,11568.042020,15988.448347
944.894807,-7254.018232,4749.792088,15840.407159
944.895136,-7105.977043,-3217.601092,13471.748144
944.895466,-5847.626942,-8350.440928,9030.512492
944.895795,-2886.803174,-11414.822920,4959.379811
944.896125,888.247130,-12257.527968,3256.906145
944.896454,3997.112087,-7890.783629,3108.864956
944.896784,5921.647536,-1838.629195,5107.421000
944.897113,7476.080014,3753.867940,9030.512492
944.897443,6291.750507,11031.775171,12065.356855
944.897772,2812.782580,14938.862211,14137.933492
944.898102,-1850.514855,13176.842566,14211.954086
944.898431,-6365.771101,6435.202183,15248.242405
944.898761,-9474.636058,1149.143247,14211.954086
944.899090,-10362.883188,-2757.943793,11177.109724
944.899420,-8734.430116,-8886.707777,8142.265362
944.899749,-4959.379811,-12410.747068,5699.585753
944.900079,-2220.617826,-11261.603821,3775.050304
944.900409,1998.556043,-6435.202183,1776.494261
944.900738,5921.647536,-919.314598,2738.761985
944.901068,7624.121203,4290.134789,7179.997637
944.901397,5995.668130,10648.727422,12213.398043
944.901727,1258.350101,12870.404366,16432.571912
944.902056,-4367.215058,13866.328514,17024.736666
944.902386,-7772.162391,10418.898773,15988.448347
944.902715,-8586.388927,1685.410096,13989.892304
944.903045,-7402.059420,-5132.839837,11103.089130
944.903374,-4737.318029,-10648.727422,7179.997637
944.903704,-1406.391290,-13023.623466,3478.967927
944.904033,1184.329507,-10342.289223,2294.638420
944.904363,4367.215058,-4366.744339,2812.782580
944.904692,6513.812290,383.047749,5255.462188
944.905022,7105.977043,4903.011187,8660.409521
944.905351,5699.585753,12180.918418,11843.295072
944.905681,1628.453072,14632.424012,14063.912898
944.906010,-3775.050304,11644.651570,14656.077652
944.906340,-8734.430116,5592.497135,15174.221811
944.906669,-11103.089130,0.000000,13397.727550
944.906999,-9622.677246,-5286.058936,11399.171507
944.907328,-7179.997637,-10189.070123,9030.512492
944.907658,-3997.112087,-9882.631924,5329.482782
944.907987,-740.205942,-7354.516781,666.185348
944.908317,4145.153275,-5439.278036,296.082377
944.908646,8364.327145,-1302.362347,4737.318029
944.908976,7550.100608,7354.516781,9918.759623
944.909305,3775.050304,13483.280765,14582.057057
944.909635,-2368.659014,15168.690860,18135.045579
944.909964,-7328.038826,13942.938064,17246.798449
944.910294,-8882.471304,6435.202183,15396.283594
944.910623,-7698.141797,-4443.353888,12953.603985
944.910953,-6069.688724,-7354.516781,10732.986159
944.911282,-4959.379811,-8810.098227,5699.585753
944.911612,-1036.288319,-12180.918418,2738.761985
944.911941,2960.823768,-8963.317327,2516.700203
944.912271,6217.729913,-1838.629195,3701.029710
944.912600,8512.368333,2451.505594,7254.018232
944.912930,7920.203579,8810.098227,11029.068536
944.913259,5255.462188,16700.881856,13249.686362
944.913589,740.205942,14785.643111,13989.892304
944.913918,-3849.070898,7354.516781,15396.283594
944.914248,-8364.327145,4213.525239,15174.221811
944.914577,-10140.821405,689.485948,11695.253884
944.914907,-8216.285956,-6435.202183,8512.368333
944.915236,-4811.338623,-10495.508323,6143.709319
944.915566,-1480.411884,-10112.460574,3849.070898
944.915895,2812.782580,-7584.345430,1110.308913
944.916225,5921.647536,-1532.190996,1776.494261
944.916554,7550.100608,5056.230287,5181.441594
944.916883,6143.709319,9729.412825,10658.965565
944.917213,2368.659014,12257.527968,15248.242405
944.917542,-3256.906145,14172.766713,16062.468941
944.917872,-7254.018232,9806.022374,15692.365970
944.918201,-8364.327145,459.657299,16580.613101
944.918531,-8586.388927,-3447.429741,15100.201217
944.918860,-7328.038826,-8044.002729,9548.656652
944.919190,-2516.700203,-11874.480219,3627.009116
944.919519,2442.679609,-10342.289223,1258.350101
944.919849,7254.018232,-6435.202183,1850.514855
944.920178,9844.739029,-1685.410096,4145.153275
944.920508,8734.430116,4366.744339,8290.306550
944.920837,5921.647536,13483.280765,12139.377449
944.921167,1628.453072,16317.834107,15248.242405
944.921496,-3330.926739,12870.404366,16728.654289
944.921826,-8142.265362,6052.154434,16728.654289
944.922155,-10288.862594,-2145.067394,14211.954086
944.922485,-9992.780217,-5898.935335,10658.965565
944.922814,-7328.038826,-9806.022374,7846.182985
944.923144,-3923.091493,-12410.747068,5847.626942
944.923473,-1258.350101,-10418.898773,2886.803174
944.923803,2516.700203,-4903.011187,1554.432478
944.924132,7476.080014,612.876398,3627.009116
944.924462,9252.574275,6281.983084,7698.141797
944.924791,7105.977043,11797.870669,11917.315666
944.925120,1628.453072,13330.061665,15026.180623
944.925450,-4293.194464,12410.747068,15322.262999
944.925779,-7698.141797,7048.078582,16580.613101
944.926109,-9548.656652,229.828649,16284.530724
944.926438,-10288.862594,-4903.011187,12879.583391
944.926768,-8364.327145,-10189.070123,6809.894666
944.927097,-2738.761985,-13406.671215,3552.988522
944.927427,2220.617826,-11031.775171,2072.576638
944.927756,5847.626942,-4826.401637,2072.576638
944.928086,7846.182985,-459.657299,4219.173869
944.928415,7550.100608,6665.030833,8364.327145
944.928745,5329.482782,14785.643111,11917.315666
944.929074,1776.494261,15475.129060,14656.077652
944.929404,-3256.906145,11644.651570,15766.386565
944.929733,-8586.388927,6052.154434,14730.098246
944.930063,-10288.862594,-1225.752797,13323.706956
944.930392,-9548.656652,-5898.935335,11029.068536
944.930722,-7402.059420,-10265.679673,7920.203579
944.931051,-4589.276840,-10955.165621,5551.544565
944.931381,-1332.370696,-8656.879127,1924.535449
944.931710,3997.112087,-3370.820191,296.082377
944.932040,8660.409521,153.219100,3034.844362
944.932369,9400.615463,5592.497135,8586.388927
944.932699,5847.626942,12410.747068,14137.933492
944.933028,-1184.329507,14709.033562,17468.860231
944.933358,-7031.956449,14096.157163,16876.695478
944.933687,-10436.903782,7431.126331,16062.468941
944.934016,-9918.759623,-2221.676944,14804.118840
944.934346,-7994.224174,-7737.564530,11769.274478
944.934675,-4885.359217,-11108.384721,6883.915261
944.935005,-296.082377,-11797.870669,3627.009116
944.935334,2886.803174,-9729.412825,1554.432478
944.935664,6069.688724,-2757.943793,2664.741391
944.935993,8734.430116,1532.190996,5995.668130
944.936323,9474.636058,8350.440928,10362.883188
944.936652,6957.935855,17390.367805,12953.603985
944.936982,1332.370696,16011.395908,13619.789333
944.937311,-3849.070898,8886.707777,14730.098246
944.937641,-8956.491898,3064.381992,15322.262999
944.937970,-11029.068536,-383.047749,13397.727550
944.938300,-9474.636058,-5515.887586,9696.697840
944.938629,-6365.771101,-10725.336972,6291.750507
944.938959,-2738.761985,-12257.527968,3182.885551
944.939288,2220.617826,-9882.631924,1258.350101
944.939618,6661.853478,-3217.601092,1850.514855
944.939947,8290.306550,4443.353888,4811.338623
944.940277,7105.977043,10878.556072,9918.759623
944.940606,3478.967927,14709.033562,14434.015869
944.940936,-2738.761985,14938.862211,16210.510130
944.941265,-6661.853478,11261.603821,15618.345376
944.941595,-9178.553681,3677.258390,15248.242405
944.941924,-9326.594869,-2604.724693,13767.830521
944.942254,-7846.182985,-7967.393179,9770.718434
944.942583,-3997.112087,-13253.452115,4885.359217
944.942912,296.082377,-13406.671215,3034.844362
944.943242,4293.194464,-7507.735880,2664.741391
944.943571,7254.018232,-1225.752797,4737.318029
944.943901,9030.512492,4060.306139,8142.265362
944.944230,7698.141797,11797.870669,11621.233289
944.944560,4145.153275,16624.272307,14211.954086
944.944889,-740.205942,14785.643111,15322.262999
944.945219,-5329.482782,7967.393179,16210.510130
944.945548,-9696.697840,2374.896044,14434.015869
944.945878,-11103.089130,-3140.991542,11695.253884
944.946207,-8586.388927,-9269.755526,8808.450710
944.946537,-4959.379811,-12563.966167,6365.771101
944.946866,-2146.597232,-11644.651570,3627.009116
944.947196,1776.494261,-7201.297681,1036.288319
944.947525,5921.647536,-919.314598,2368.659014
944.947855,8290.306550,4290.134789,6957.935855
944.948184,6069.688724,11338.213370,11991.336260
944.948514,1406.391290,15092.081311,15840.407159
944.948843,-3849.070898,14479.204912,16506.592507
944.949173,-7402.059420,9116.536426,15766.386565
944.949502,-9252.574275,1225.752797,13989.892304
944.949832,-8660.409521,-5362.668486,11473.192101
944.950161,-6513.812290,-11338.213370,7698.141797
944.950491,-2664.741391,-13406.671215,4737.318029
944.950820,666.185348,-11491.432470,3404.947333
944.951150,4663.297435,-5669.106685,3034.844362
944.951479,7550.100608,-612.876398,4663.297435
944.951808,8734.430116,4749.792088,7772.162391
944.952138,7846.182985,12870.404366,11325.150913
944.952467,4071.132681,16164.615008,13767.830521
944.952797,-1480.411884,12870.404366,15100.201217
944.953126,-6735.874072,6205.373534,15914.427753
944.953456,-10140.821405,995.924147,13619.789333
944.953785,-10436.903782,-3983.696590,10066.800811
944.954115,-7402.059420,-11721.261119,7105.977043
944.954444,-3627.009116,-13176.842566,5773.606348
944.954774,-1480.411884,-9959.241474,2516.700203
944.955103,2368.659014,-5056.230287,740.205942
944.955433,6661.853478,-306.438199,3552.988522
944.955762,7328.038826,5898.935335,9178.553681
944.956092,4663.297435,13176.842566,13841.851115
944.956421,-666.185348,14402.595362,17320.819043
944.956751,-6661.853478,14172.766713,16950.716072
944.957080,-9844.739029,7814.174080,15988.448347
944.957410,-9770.718434,-2451.505594,14730.098246
944.957739,-8068.244768,-7814.174080,11399.171507
944.958069,-5403.503377,-11644.651570,6513.812290
944.958398,-1332.370696,-13483.280765,3034.844362
944.958728,3182.885551,-10725.336972,2368.659014
944.959057,7254.018232,-3140.991542,3330.926739
944.959387,9622.677246,1302.362347,6365.771101
944.959716,9326.594869,8810.098227,10214.842000
944.960046,7031.956449,17926.634653,13101.645173
944.960375,2146.597232,17773.415554,14582.057057
944.960704,-2738.761985,10955.165621,15396.283594
944.961034,-7772.162391,4979.620737,14804.118840
944.961363,-9992.780217,0.000000,11843.295072
944.961693,-8808.450710,-6741.640382,9252.574275
944.962022,-6735.874072,-11261.603821,6291.750507
944.962352,-4293.194464,-12410.747068,3701.029710
944.962681,-592.164754,-9652.803275,1258.350101
944.963011,3627.009116,-2451.505594,1480.411884
944.963340,6735.874072,3524.039291,5255.462188
944.963670,6365.771101,9652.803275,10955.047942
944.963999,3404.947333,15168.690860,14730.098246
944.964329,-2368.659014,17313.758255,15766.386565
944.964658,-5329.482782,10955.165621,15840.407159
944.964988,-7179.997637,3294.210641,15988.448347
944.965317,-8956.491898,-1072.533697,13323.706956
944.965647,-8142.265362,-6128.763984,7994.224174
944.965976,-4367.215058,-12257.527968,2960.823768
944.966306,888.247130,-13406.671215,1480.411884
944.966635,5477.523971,-9729.412825,2146.597232
944.966965,7624.121203,-3830.477490,4737.318029
944.967294,7254.018232,4136.915689,8512.368333
944.967624,5773.606348,13406.671215,12657.521608
944.967953,4071.132681,16777.491406,14804.118840
944.968283,222.061783,14096.157163,15914.427753
944.968612,-3404.947333,7814.174080,16432.571912
944.968942,-7179.997637,1762.019645,15174.221811
944.969271,-8882.471304,-1991.848295,11769.274478
944.969600,-7698.141797,-7737.564530,8438.347739
944.969930,-5107.421000,-11951.089769,5699.585753
944.970259,-2368.659014,-12640.575717,3775.050304
944.970589,1998.556043,-8580.269578,2738.761985
944.970918,5995.668130,-1378.971896,3182.885551
944.971248,7550.100608,4213.525239,6365.771101
944.971577,5847.626942,10112.460574,11769.274478
944.971907,1702.473667,14709.033562,15026.180623
944.972236,-3256.906145,14479.204912,15692.365970
944.972566,-6735.874072,7890.783629,15618.345376
944.972895,-9178.553681,1225.752797,14656.077652
944.973225,-9770.718434,-3217.601092,11917.315666
944.973554,-7105.977043,-10112.460574,7920.203579
944.973884,-2960.823768,-14479.204912,4737.318029
944.974213,222.061783,-10725.336972,2664.741391
944.974543,3552.988522,-5898.935335,2368.659014
944.974872,6957.935855,-2451.505594,5107.421000
944.975202,7846.182985,5515.887586,9474.636058
944.975531,6957.935855,14402.595362,12435.459826
944.975861,3330.926739,15015.471761,14137.933492
944.976190,-1406.391290,12717.185267,15322.262999
944.976520,-6513.812290,7048.078582,15840.407159
944.976849,-9326.594869,842.705048,13915.871710
944.977179,-9622.677246,-3600.648841,10066.800811
944.977508,-7328.038826,-9806.022374,6809.894666
944.977837,-4293.194464,-12793.794817,4737.318029
944.978167,-1628.453072,-10572.117872,1110.308913
944.978496,2516.700203,-5362.668486,-74.020594
944.978826,6957.935855,-1762.019645,3256.906145
944.979155,6809.894666,4903.011187,9992.780217
944.979485,2738.761985,13023.623466,15470.304188
944.979814,-2368.659014,15858.176809,18431.127956
944.980144,-6513.812290,15092.081311,17246.798449
944.980473,-8808.450710,6588.421283,15618.345376
944.980803,-8142.265362,-2987.772442,13693.809927
944.981132,-7550.100608,-8197.221829,10510.924376
944.981462,-5551.544565,-10418.898773,7031.956449
944.981791,-2590.720797,-11874.480219,3849.070898
944.982121,1628.453072,-9193.145976,2812.782580
944.982450,6439.791695,-3294.210641,2590.720797
944.982780,9770.718434,-536.266849,4737.318029
944.983109,9770.718434,6971.469032,8956.491898
944.983439,7476.080014,17237.148705,12213.398043
944.983768,2886.803174,16930.710506,14582.057057
944.984098,-2664.741391,11031.775171,16210.510130
944.984427,-7476.080014,6052.154434,15988.448347
944.984757,-10510.924376,536.266849,13545.768739
944.985086,-9400.615463,-5362.668486,9770.718434
944.985416,-6735.874072,-10418.898773,6365.771101
944.985745,-2960.823768,-12487.356617,3404.947333
944.986075,444.123565,-11568.042020,1332.370696
944.986404,4959.379811,-5056.230287,2812.782580
944.986733,6587.832884,3677.258390,6143.709319
944.987063,5403.503377,10495.508323,9992.780217
944.987392,3775.050304,15398.519510,12805.562797
944.987722,-444.123565,14709.033562,14804.118840
944.988051,-3478.967927,10955.165621,15322.262999
944.988381,-6439.791695,4519.963438,15470.304188
944.988710,-8586.388927,-1455.581446,14211.954086
944.989040,-8808.450710,-5132.839837,10436.903782
944.989369,-5625.565159,-10725.336972,5403.503377
944.989699,-592.164754,-12793.794817,3701.029710
944.990028,4515.256246,-9039.926876,2516.700203
944.990358,7254.018232,-2757.943793,3404.947333
944.990687,8734.430116,2757.943793,6957.935855
944.991017,7402.059420,10418.898773,10955.047942
944.991346,4737.318029,16241.224558,13249.686362
944.991676,-222.061783,15092.081311,15322.262999
944.992005,-4885.359217,9422.974625,16580.613101
944.992335,-9178.553681,4519.963438,15396.283594
944.992664,-10658.965565,-1455.581446,11991.336260
944.992994,-7698.141797,-7660.954980,8512.368333
944.993323,-4515.256246,-12410.747068,5625.565159
944.993653,-2072.576638,-12563.966167,3182.885551
944.993982,814.226536,-8733.488677,1924.535449
944.994312,4145.153275,-1532.190996,2516.700203
944.994641,6069.688724,4749.792088,6069.688724
944.994971,5773.606348,9499.584175,10732.986159
944.995300,2220.617826,13559.890315,15914.427753
944.995629,-3775.050304,15245.300410,16728.654289
944.995959,-7105.977043,9422.974625,15766.386565
944.996288,-9400.615463,2451.505594,14508.036463
944.996618,-9030.512492,-3064.381992,13027.624579
944.996947,-6587.832884,-9806.022374,8586.388927
944.997277,-2516.700203,-13176.842566,5329.482782
944.997606,1332.370696,-11184.994271,3627.009116
944.997936,4959.379811,-6588.421283,2812.782580
944.998265,8142.265362,-1608.800546,4145.153275
944.998595,8882.471304,3830.477490,7698.141797
944.998924,7179.997637,12027.699319,11399.171507
944.999254,3182.885551,15628.348159,13989.892304
944.999583,-1628.453072,12793.794817,15544.324782
944.999913,-6513.812290,6281.983084,16580.613101
945.000242,-10288.862594,536.266849,14434.015869
945.000572,-10362.883188,-3217.601092,10066.800811
945.000901,-7624.121203,-9499.584175,6957.935855
945.001231,-3923.091493,-12947.013916,4737.318029
945.001560,-1258.350101,-11338.213370,3108.864956
945.001890,1850.514855,-6052.154434,1628.453072
945.002219,4885.359217,612.876398,3775.050304
945.002549,5403.503377,6435.202183,8512.368333
945.002878,3404.947333,11644.651570,14137.933492
945.003208,-1036.288319,14402.595362,17098.757260
945.003537,-6143.709319,13330.061665,16062.468941
945.003867,-8438.347739,5286.058936,16506.592507
945.004196,-9252.574275,-1455.581446,15026.180623
945.004525,-8808.450710,-4519.963438,11547.212695
945.004855,-5255.462188,-10725.336972,5773.606348
945.005184,-148.041188,-12027.699319,2368.659014
945.005514,4663.297435,-9039.926876,740.205942
945.005843,8882.471304,-4366.744339,1554.432478
945.006173,9918.759623,229.828649,5625.565159
945.006502,7994.224174,8886.707777,10288.862594
945.006832,4737.318029,17543.586904,13989.892304
945.007161,148.041188,16394.443657,15248.242405
945.007491,-4441.235652,10878.556072,16062.468941
945.007820,-8956.491898,3294.210641,15692.365970
945.008150,-11325.150913,-2068.457845,13397.727550
945.008479,-10658.965565,-4673.182538,10066.800811
945.008809,-7550.100608,-10572.117872,6439.791695
945.009138,-3849.070898,-12487.356617,3775.050304
945.009468,-592.164754,-10265.679673,1924.535449
945.009797,4145.153275,-3907.087040,2368.659014
945.010127,7179.997637,3294.210641,5181.441594
945.010456,7179.997637,10725.336972,9770.718434
945.010786,5699.585753,16011.395908,12287.418637
945.011115,444.123565,13866.328514,14730.098246
945.011445,-3923.091493,8810.098227,16876.695478
945.011774,-8734.430116,5286.058936,17172.777854
945.012104,-11621.233289,2068.457845,13915.871710
945.012433,-9770.718434,-4596.572988,8438.347739
945.012763,-3997.112087,-13176.842566,5329.482782
945.013092,1036.288319,-14479.204912,2590.720797
945.013421,5329.482782,-9499.584175,1036.288319
945.013751,8142.265362,-4060.306139,3330.926739
945.014080,8438.347739,5286.058936,7698.141797
945.014410,6587.832884,12717.185267,11769.274478
945.014736,4663.297435,15092.081311,13989.892304
945.015065,666.185348,13023.623466,16802.674883
945.015395,-3775.050304,9346.365076,17616.901420
945.015724,-8364.327145,4826.401637,16432.571912
945.016053,-10510.924376,-612.876398,11769.274478
945.016383,-8512.368333,-7048.078582,7179.997637
945.016712,-4441.235652,-12717.185267,3182.885551
945.017042,0.000000,-14479.204912,2368.659014
945.017371,3330.926739,-9269.755526,3034.844362
945.017700,4959.379811,0.000000,3552.988522
945.018030,5107.421000,6741.640382,5699.585753
945.018359,4441.235652,10112.460574,10658.965565
945.018689,2072.576638,13559.890315,15396.283594
945.019018,-3034.844362,14402.595362,16358.551318
945.019348,-6809.894666,8120.612279,16062.468941
945.019677,-10066.800811,1455.581446,14952.160028
945.020006,-10732.986159,-2451.505594,13471.748144
945.020336,-8068.244768,-9499.584175,9474.636058
945.020665,-3997.112087,-13636.499864,5847.626942
945.020995,740.205942,-10725.336972,2960.823768
945.021324,5403.503377,-6128.763984,1924.535449
945.021654,9548.656652,-2451.505594,3404.947333
945.021983,9696.697840,4366.744339,7105.977043
945.022312,7550.100608,12104.308868,10288.862594
945.022642,4293.194464,14709.033562,14434.015869
945.022971,-1258.350101,13100.233016,16728.654289
945.023301,-6883.915261,8197.221829,17542.880825
945.023630,-10066.800811,1455.581446,14359.995275
945.023959,-9548.656652,-4596.572988,10436.903782
945.024289,-6883.915261,-9576.193725,6365.771101
945.024618,-2960.823768,-12640.575717,4219.173869
945.024948,296.082377,-12487.356617,3775.050304
945.025277,2294.638420,-5975.544884,3404.947333
945.025607,3256.906145,1838.629195,4515.256246
945.025936,4441.235652,7124.688131,8364.327145
945.026265,3923.091493,11108.384721,13101.645173
945.026595,-222.061783,13559.890315,15396.283594
945.026924,-5329.482782,11874.480219,14285.974681
945.027254,-7920.203579,4366.744339,15100.201217
945.027583,-9178.553681,-995.924147,14359.995275
945.027913,-10066.800811,-3830.477490,11621.233289
945.028242,-7624.121203,-9806.022374,7105.977043
945.028571,-2072.576638,-12717.185267,3923.091493
945.028901,2960.823768,-9959.241474,2294.638420
945.029230,7920.203579,-4749.792088,2368.659014
945.029560,10214.842000,0.000000,5181.441594
945.029889,9252.574275,7354.516781,8734.430116
945.030218,6143.709319,14785.643111,11843.295072
945.030548,1184.329507,14862.252661,14804.118840
945.030877,-3849.070898,11491.432470,17024.736666
945.031207,-8438.347739,5439.278036,17320.819043
945.031536,-11103.089130,-766.095498,14508.036463
945.031866,-10510.924376,-4443.353888,9770.718434
945.032195,-7031.956449,-11031.775171,5625.565159
945.032524,-2368.659014,-13866.328514,3552.988522
945.032854,814.226536,-10725.336972,2960.823768
945.033183,3330.926739,-3294.210641,2812.782580
945.033513,5403.503377,3983.696590,5255.462188
945.033842,5847.626942,9499.584175,9474.636058
945.034172,4293.194464,13942.938064,13397.727550
945.034501,-962.267725,14785.643111,14878.139434
945.034830,-4885.359217,10955.165621,14211.954086
945.035160,-7179.997637,3294.210641,15174.221811
945.035489,-9474.636058,-995.924147,13841.851115
945.035819,-9400.615463,-4673.182538,11251.130318
945.036148,-5699.585753,-10878.556072,6735.874072
945.036478,-222.061783,-12257.527968,4071.132681
945.036807,5181.441594,-7277.907231,2368.659014
945.037136,9326.594869,-2298.286494,2960.823768
945.037466,11103.089130,2451.505594,6069.688724
945.037795,8364.327145,10955.165621,9400.615463
945.038125,4737.318029,15858.176809,13249.686362
945.038454,74.020594,13483.280765,17098.757260
945.038783,-5329.482782,9882.631924,18135.045579
945.039113,-10732.986159,5439.278036,15470.304188
945.039442,-10955.047942,-1608.800546,11177.109724
945.039772,-7698.141797,-7890.783629,6291.750507
945.040101,-3404.947333,-12793.794817,3034.844362
945.040431,518.144159,-13559.890315,1332.370696
945.040760,2368.659014,-8810.098227,2146.597232
945.041089,4071.132681,766.095498,4737.318029
945.041419,4885.359217,8044.002729,7698.141797
945.041748,4737.318029,11491.432470,11029.068536
945.042078,2664.741391,14019.547613,14434.015869
945.042407,-2072.576638,13483.280765,15322.262999
945.042737,-5477.523971,7201.297681,15470.304188
945.043066,-8068.244768,229.828649,15544.324782
945.043395,-10362.883188,-2834.553343,13619.789333
945.043725,-9844.739029,-7890.783629,9400.615463
945.044054,-4737.318029,-13406.671215,5477.523971
945.044384,1036.288319,-11874.480219,3923.091493
945.044713,6365.771101,-6358.592633,2368.659014
945.045042,10214.842000,-2298.286494,3923.091493
945.045372,10214.842000,3677.258390,7624.121203
945.045701,6883.915261,12487.356617,10510.924376
945.046031,3330.926739,15704.957709,13841.851115
945.046360,-1036.288319,12410.747068,16506.592507
945.046690,-5995.668130,7277.907231,17690.922014
945.047019,-9844.739029,1532.190996,14804.118840
945.047348,-10362.883188,-4519.963438,10436.903782
945.047678,-7105.977043,-9806.022374,5995.668130
945.048007,-3404.947333,-13483.280765,4219.173869
945.048337,-740.205942,-13100.233016,3627.009116
945.048666,1998.556043,-6894.859482,3923.091493
945.048996,3552.988522,766.095498,5995.668130
945.049325,4441.235652,8273.831378,10066.800811
945.049654,3404.947333,13942.938064,12657.521608
945.049984,888.247130,14938.862211,13323.706956
945.050313,-2294.638420,9346.365076,15100.201217
945.050643,-5477.523971,1608.800546,16950.716072
945.050972,-9104.533087,1302.362347,14434.015869
945.051301,-11399.171507,-2298.286494,9844.739029
945.051631,-8068.244768,-9806.022374,5551.544565
945.051960,-1850.514855,-12410.747068,2812.782580
945.052290,4441.235652,-11568.042020,740.205942
945.052619,9104.533087,-7431.126331,1554.432478
945.052949,10288.862594,1378.971896,5255.462188
945.053278,6957.935855,10955.165621,10066.800811
945.053607,3627.009116,16164.615008,13249.686362
945.053937,0.000000,15475.129060,14730.098246
945.054266,-3404.947333,11261.603821,16580.613101
945.054596,-6291.750507,3294.210641,16654.633695
945.054925,-10140.821405,-383.047749,14211.954086
945.055255,-11177.109724,-4060.306139,9474.636058
945.055584,-8216.285956,-11644.651570,5699.585753
945.055913,-3923.091493,-13253.452115,2886.803174
945.056243,962.267725,-9882.631924,2368.659014
945.056572,5107.421000,-4673.182538,3627.009116
945.056902,6439.791695,2987.772442,7031.956449
945.057231,4737.318029,12180.918418,9474.636058
945.057560,2960.823768,15628.348159,11695.253884
945.057890,-1332.370696,12257.527968,15914.427753
945.058219,-5329.482782,9346.365076,18875.251521
945.058549,-9622.677246,5286.058936,17542.880825
945.058878,-10955.047942,-919.314598,13175.665768
945.059208,-8660.409521,-6052.154434,7920.203579
945.059537,-3997.112087,-12640.575717,3997.112087
945.059866,2294.638420,-14555.814462,1480.411884
945.060196,6883.915261,-9499.584175,1184.329507
945.060525,9696.697840,-1302.362347,5033.400406
945.060855,10066.800811,7890.783629,8882.471304
945.061184,7476.080014,14172.766713,11325.150913
945.061514,5477.523971,17083.929605,12065.356855
945.061843,1258.350101,13253.452115,14359.995275
945.062172,-2146.597232,6894.859482,18061.024985
945.062502,-7624.121203,4060.306139,16950.716072
945.062831,-11621.233289,76.609550,11917.315666
945.063161,-11029.068536,-7660.954980,6513.812290
945.063490,-6957.935855,-12563.966167,2146.597232
945.063819,-1406.391290,-14709.033562,444.123565
945.064149,4145.153275,-11491.432470,1332.370696
945.064478,5773.606348,-2374.896044,4959.379811
945.064808,4737.318029,8427.050478,8216.285956
945.065137,3034.844362,13559.890315,11029.068536
945.065467,2072.576638,15245.300410,13249.686362
945.065796,-2294.638420,14555.814462,15470.304188
945.066125,-4737.318029,5898.935335,18653.189738
945.066455,-7105.977043,1225.752797,17394.839637
945.066784,-9474.636058,-229.828649,12805.562797
945.067114,-7254.018232,-7737.564530,7772.162391
945.067443,-3478.967927,-13100.233016,3997.112087
945.067773,1702.473667,-12640.575717,2294.638420
945.068102,7105.977043,-7814.174080,2368.659014
945.068431,10066.800811,-1532.190996,5625.565159
945.068761,9104.533087,8197.221829,8882.471304
945.069090,6217.729913,14479.204912,10584.944971
945.069420,3182.885551,13483.280765,13693.809927
945.069749,-814.226536,12104.308868,16136.489536
945.070079,-4737.318029,6435.202183,18209.066173
945.070408,-8808.450710,689.485948,15692.365970
945.070737,-11473.192101,-2451.505594,10732.986159
945.071067,-10066.800811,-9193.145976,6735.874072
945.071396,-4663.297435,-14249.376263,4145.153275
945.071726,-296.082377,-13713.109414,3034.844362
945.072055,2812.782580,-8656.879127,3256.906145
945.072384,4441.235652,0.000000,5699.585753
945.072714,3478.967927,8350.440928,9400.615463
945.073043,3182.885551,13253.452115,11991.336260
945.073373,1110.308913,14479.204912,13767.830521
945.073702,-1702.473667,11644.651570,14656.077652
945.074032,-4441.235652,3294.210641,17098.757260
945.074361,-7550.100608,153.219100,15248.242405
945.074690,-10140.821405,-2145.067394,10436.903782
945.075020,-7846.182985,-9499.584175,5847.626942
945.075349,-2886.803174,-12870.404366,3330.926739
945.075679,2590.720797,-10878.556072,1332.370696
945.076008,7402.059420,-7584.345430,2294.638420
945.076338,9400.615463,-383.047749,5329.482782
945.076667,7105.977043,9116.536426,9548.656652
945.076996,3849.070898,14785.643111,11917.315666
945.077326,296.082377,14632.424012,14285.974681
945.077655,-3478.967927,10495.508323,17246.798449
945.077985,-6957.935855,4903.011187,17912.983796
945.078314,-9696.697840,229.828649,14137.933492
945.078643,-10288.862594,-4060.306139,8586.388927
945.078973,-7476.080014,-10955.165621,4885.359217
945.079302,-3108.864956,-14785.643111,3330.926739
945.079632,0.000000,-11951.089769,3478.967927
945.079961,2442.679609,-4596.572988,4737.318029
945.080291,3997.112087,3753.867940,6883.915261
945.080620,4515.256246,9729.412825,10066.800811
945.080949,4515.256246,13559.890315,12657.521608
945.081279,666.185348,13789.718964,14359.995275
945.081608,-3034.844362,11184.994271,14582.057057
945.081938,-5921.647536,4060.306139,16062.468941
945.082267,-8438.347739,536.266849,15248.242405
945.082597,-9400.615463,-3140.991542,11103.089130
945.082926,-6735.874072,-10265.679673,6365.771101
945.083255,-1036.288319,-12563.966167,3552.988522
945.083585,4293.194464,-8427.050478,1850.514855
945.083914,8586.388927,-3983.696590,3182.885551
945.084244,9918.759623,1225.752797,5255.462188
945.084573,7105.977043,10878.556072,8808.450710
945.084902,4367.215058,14172.766713,13915.871710
945.085232,0.000000,13636.499864,17394.839637
945.085561,-5477.523971,12104.308868,17912.983796
945.085891,-8586.388927,6205.373534,14804.118840
945.086220,-8438.347739,-1149.143247,9770.718434
945.086550,-5699.585753,-5745.716235,5181.441594
945.086879,-2368.659014,-11721.261119,1628.453072
945.087208,444.123565,-14096.157163,1924.535449
945.087538,1924.535449,-7737.564530,3701.029710
945.087867,2368.659014,1762.019645,5625.565159
945.088197,3701.029710,6818.249932,8364.327145
945.088526,4145.153275,11108.384721,11103.089130
945.088856,2146.597232,14019.547613,13397.727550
945.089185,-740.205942,13253.452115,12583.501014
945.089514,-3108.864956,5286.058936,14878.139434
945.089844,-6143.709319,383.047749,16358.551318
945.090173,-10362.883188,306.438199,14730.098246
945.090503,-10658.965565,-5822.325785,9622.677246
945.090832,-4811.338623,-11491.432470,5403.503377
945.091161,1332.370696,-11184.994271,2886.803174
945.091491,7920.203579,-8963.317327,1628.453072
945.091820,10807.006753,-4136.915689,3775.050304
945.092150,9548.656652,4136.915689,7476.080014
945.092479,5403.503377,13483.280765,11177.109724
945.092809,1924.535449,13483.280765,16284.530724
945.093138,-2294.638420,11951.089769,19171.333898
945.093467,-6735.874072,8886.707777,18949.272115
945.093797,-9992.780217,995.924147,14952.160028
945.094126,-9178.553681,-3907.087040,9770.718434
945.094456,-6735.874072,-8656.879127,5477.523971
945.094785,-2738.761985,-13483.280765,2812.782580
945.095115,-370.102971,-13942.938064,2664.741391
945.095444,1628.453072,-6588.421283,3923.091493
945.095773,2886.803174,2451.505594,6069.688724
945.096103,3404.947333,6971.469032,9696.697840
945.096432,3256.906145,12717.185267,12139.377449
945.096762,1036.288319,14402.595362,11547.212695
945.097091,-1258.350101,6435.202183,14359.995275
945.097420,-4515.256246,1838.629195,17542.880825
945.097750,-10658.965565,3447.429741,15914.427753
945.098079,-12509.480420,-1378.971896,10658.965565
945.098409,-8068.244768,-8810.098227,6143.709319
945.098738,-1628.453072,-12027.699319,2368.659014
945.099068,5329.482782,-12180.918418,-0.000000
945.099397,9474.636058,-9116.536426,1110.308913
945.099726,9326.594869,1455.581446,4811.338623
945.100056,5625.565159,12027.699319,9770.718434
945.100385,3330.926739,13636.499864,12583.501014
945.100715,592.164754,13100.233016,16284.530724
945.101044,-3182.885551,9346.365076,19689.478057
945.101374,-7105.977043,3677.258390,19763.498651
945.101703,-10066.800811,1685.410096,15100.201217
945.102032,-10140.821405,-2681.334243,9030.512492
945.102362,-6439.791695,-10035.851024,2812.782580
945.102691,-2220.617826,-13483.280765,-666.185348
945.103021,2442.679609,-13789.718964,1702.473667
945.103350,5403.503377,-5975.544884,5699.585753
945.103680,2812.782580,5209.449386,8586.388927
945.104009,1628.453072,12487.356617,10732.986159
945.104338,2516.700203,13866.328514,12657.521608
945.104668,814.226536,12870.404366,13175.665768
945.104997,-1184.329507,7201.297681,15692.365970
945.105327,-4219.173869,-1608.800546,18505.148550
945.105656,-8956.491898,1838.629195,16728.654289
945.105985,-11547.212695,76.609550,11843.295072
945.106315,-7328.038826,-9652.803275,7698.141797
945.106644,-370.102971,-9959.241474,3404.947333
945.106974,6513.812290,-7890.783629,-444.123565
945.107303,12583.501014,-6741.640382,-0.000000
945.107633,12805.562797,2145.067394,3330.926739
945.107962,7846.182985,12793.794817,7994.224174
945.108291,4071.132681,13713.109414,13027.624579
945.108621,-1776.494261,11874.480219,17542.880825
945.108950,-7624.121203,13483.280765,18949.272115
945.109280,-9770.718434,5515.887586,16728.654289
945.109609,-9622.677246,-2681.334243,12065.356855
945.109939,-8512.368333,-5209.449386,6365.771101
945.110268,-5033.400406,-11644.651570,1702.473667
945.110597,-740.205942,-13789.718964,-296.082377
945.110927,2812.782580,-8810.098227,1554.432478
945.111256,4145.153275,-229.828649,6069.688724
945.111586,3701.029710,7354.516781,9030.512492
945.111915,2294.638420,13100.233016,10584.944971
945.112244,1998.556043,14862.252661,12509.480420
945.112574,-370.102971,11261.603821,13989.892304
945.112903,-2738.761985,4903.011187,18061.024985
945.113233,-6661.853478,306.438199,18579.169144
945.113562,-10510.924376,-306.438199,14359.995275
945.113892,-10140.821405,-4443.353888,8364.327145
945.114221,-4219.173869,-9193.145976,4885.359217
945.114550,2738.761985,-11414.822920,2442.679609
945.114880,8882.471304,-7890.783629,1480.411884
945.115209,12065.356855,-3140.991542,3404.947333
945.115539,10510.924376,5822.325785,6439.791695
945.115868,5699.585753,13713.109414,10362.883188
945.116198,962.267725,11644.651570,15544.324782
945.116527,-4811.338623,10878.556072,19097.313304
945.116856,-9326.594869,8810.098227,20429.683999
945.117186,-11029.068536,2221.676944,17320.819043
945.117516,-10362.883188,-3294.210641,11029.068536
945.117845,-8068.244768,-8503.660028,4959.379811
945.118175,-3256.906145,-14402.595362,592.164754
945.118504,1702.473667,-14938.862211,1110.308913
945.118834,4589.276840,-6435.202183,3034.844362
945.119163,4515.256246,3447.429741,5699.585753
945.119493,3182.885551,8197.221829,8438.347739
945.119822,3256.906145,13330.061665,11547.212695
945.120152,1036.288319,13636.499864,12879.583391
945.120481,-1184.329507,9422.974625,14359.995275
945.120811,-4737.318029,1225.752797,17468.860231
945.121140,-9104.533087,-536.266849,17172.777854
945.121470,-11843.295072,-995.924147,13027.624579
945.121799,-8586.388927,-8120.612279,7105.977043
945.122129,-1850.514855,-11644.651570,3701.029710
945.122459,4515.256246,-10342.289223,296.082377
945.122788,9474.636058,-7124.688131,296.082377
945.123118,11991.336260,-383.047749,3330.926739
945.123447,8734.430116,8886.707777,7846.182985
945.123777,4293.194464,14249.376263,11843.295072
945.124106,-666.185348,12104.308868,17024.736666
945.124436,-6217.729913,11031.775171,19393.395680
945.124765,-10288.862594,5592.497135,18653.189738
945.125095,-11177.109724,-1302.362347,15100.201217
945.125424,-10510.924376,-4596.572988,8956.491898
945.125754,-6735.874072,-10112.460574,4071.132681
945.126083,-1554.432478,-14938.862211,1924.535449
945.126413,2146.597232,-11797.870669,2516.700203
945.126742,4145.153275,-2834.553343,4071.132681
945.127072,3997.112087,5362.668486,6143.709319
945.127402,3923.091493,10418.898773,9992.780217
945.127731,3775.050304,14172.766713,13249.686362
945.128061,0.000000,13789.718964,15322.262999
945.128390,-3404.947333,9269.755526,15026.180623
945.128720,-6587.832884,1302.362347,16802.674883
945.129049,-9918.759623,-995.924147,16062.468941
945.129379,-11473.192101,-2911.162892,11621.233289
945.129708,-7179.997637,-9959.241474,6365.771101
945.130038,0.000000,-11874.480219,3404.947333
945.130367,5625.565159,-7890.783629,592.164754
945.130697,10214.842000,-3983.696590,1998.556043
945.131026,11547.212695,2145.067394,5107.421000
945.131356,7772.162391,11491.432470,7994.224174
945.131686,3775.050304,14555.814462,12805.562797
945.132015,-1258.350101,12487.356617,17542.880825
945.132345,-6809.894666,11261.603821,19689.478057
945.132674,-10658.965565,5669.106685,17024.736666
945.133004,-10807.006753,-1532.190996,11991.336260
945.133333,-8438.347739,-5362.668486,6217.729913
945.133663,-3552.988522,-11568.042020,1776.494261
945.133992,1258.350101,-14862.252661,1036.288319
945.134322,3849.070898,-8810.098227,2294.638420
945.134651,4811.338623,1149.143247,4959.379811
945.134981,5107.421000,7584.345430,7476.080014
945.135310,4071.132681,13253.452115,10436.903782
945.135640,1776.494261,15168.690860,13619.789333
945.135969,-1406.391290,12793.794817,14582.057057
945.136299,-4145.153275,5362.668486,16802.674883
945.136629,-7698.141797,766.095498,17246.798449
945.136958,-10955.047942,-1149.143247,14211.954086
945.137288,-10362.883188,-6588.421283,9030.512492
945.137617,-4515.256246,-11491.432470,5107.421000
945.137947,1628.453072,-11644.651570,2072.576638
945.138276,7105.977043,-7507.735880,888.247130
945.138606,10881.027347,-1532.190996,2738.761985
945.138935,10584.944971,4903.011187,7031.956449
945.139265,6439.791695,13253.452115,11029.068536
945.139594,1554.432478,14325.985813,15618.345376
945.139924,-3997.112087,12410.747068,18431.127956
945.140253,-8438.347739,8580.269578,19171.333898
945.140583,-11399.171507,1608.800546,16506.592507
945.140912,-10881.027347,-3370.820191,11695.253884
945.141242,-8512.368333,-8733.488677,5551.544565
945.141572,-3330.926739,-13942.938064,1110.308913
945.141901,1184.329507,-14479.204912,1332.370696
945.142231,4219.173869,-7124.688131,3404.947333
945.142560,4663.297435,2911.162892,5181.441594
945.142890,4071.132681,8656.879127,8808.450710
945.143219,3478.967927,14862.252661,11769.274478
945.143549,740.205942,15628.348159,12657.521608
945.143878,-1406.391290,9116.536426,15322.262999
945.144208,-4589.276840,1532.190996,17987.004391
945.144537,-9622.677246,1072.533697,16284.530724
945.144867,-12509.480420,-1838.629195,11103.089130
945.145196,-8882.471304,-9959.241474,6661.853478
945.145526,-2886.803174,-11874.480219,3552.988522
945.145855,2812.782580,-11031.775171,962.267725
945.146185,7920.203579,-8350.440928,1036.288319
945.146515,9992.780217,536.266849,4663.297435
945.146844,7328.038826,10418.898773,8586.388927
945.147174,4441.235652,13713.109414,11843.295072
945.147503,666.185348,12410.747068,16432.571912
945.147833,-3997.112087,10955.165621,19097.313304
945.148162,-8142.265362,4979.620737,19097.313304
945.148492,-10214.842000,0.000000,14730.098246
945.148821,-9918.759623,-4136.915689,8808.450710
945.149151,-6291.750507,-11338.213370,3404.947333
945.149480,-1406.391290,-14785.643111,-0.000000
945.149810,2886.803174,-12257.527968,888.247130
945.150139,5403.503377,-4290.134789,4367.215058
945.150469,4071.132681,4903.011187,7624.121203
945.150798,2294.638420,11797.870669,11177.109724
945.151128,2072.576638,14862.252661,13619.789333
945.151458,-370.102971,14019.547613,14211.954086
945.151787,-2368.659014,7431.126331,15914.427753
945.152117,-5329.482782,-1455.581446,17838.963202
945.152446,-10288.862594,-1915.238745,15914.427753
945.152776,-11843.295072,-3447.429741,11029.068536
945.153105,-6587.832884,-10572.117872,6735.874072
945.153435,-518.144159,-12180.918418,3404.947333
945.153764,5921.647536,-7967.393179,444.123565
945.154094,11251.130318,-5592.497135,1184.329507
945.154423,13101.645173,1532.190996,4441.235652
945.154753,9622.677246,13406.671215,9104.533087
945.155082,5699.585753,15704.957709,13767.830521
945.155412,0.000000,12793.794817,18135.045579
945.155741,-6661.853478,11644.651570,19467.416275
945.156071,-10288.862594,5439.278036,17690.922014
945.156401,-10436.903782,-1838.629195,11917.315666
945.156730,-8734.430116,-6052.154434,6587.832884
945.157060,-5329.482782,-12793.794817,1258.350101
945.157389,-1110.308913,-15551.738609,296.082377
945.157719,2220.617826,-10572.117872,2442.679609
945.158048,2886.803174,383.047749,5847.626942
945.158378,2960.823768,8427.050478,8068.244768
945.158707,2442.679609,14019.547613,11695.253884
945.159037,2368.659014,16700.881856,13175.665768
945.159366,222.061783,13176.842566,13101.645173
945.159696,-1480.411884,5515.887586,15914.427753
945.160025,-6291.750507,76.609550,17098.757260
945.160355,-10881.027347,689.485948,14730.098246
945.160684,-10955.047942,-4290.134789,9178.553681
945.161014,-5625.565159,-10955.165621,5329.482782
945.161344,518.144159,-11414.822920,1850.514855
945.161673,7179.997637,-8810.098227,-370.102971
945.162003,11621.233289,-4903.011187,2960.823768
945.162332,10881.027347,5822.325785,6809.894666
945.162662,6365.771101,14249.376263,10658.965565
945.162991,3108.864956,13942.938064,15470.304188
945.163321,-3256.906145,13559.890315,18801.230927
945.163650,-7550.100608,11491.432470,18949.272115
945.163980,-9474.636058,2604.724693,16358.551318
945.164309,-9326.594869,-3524.039291,10881.027347
945.164639,-7920.203579,-8044.002729,5033.400406
945.164968,-4071.132681,-14709.033562,222.061783
945.165298,74.020594,-15858.176809,962.267725
945.165627,3108.864956,-7660.954980,2886.803174
945.165957,3108.864956,1378.971896,7402.059420
945.166287,2442.679609,8427.050478,10066.800811
945.166616,2590.720797,14402.595362,11695.253884
945.166946,1850.514855,14938.862211,13101.645173
945.167275,0.000000,10265.679673,14656.077652
945.167605,-3182.885551,2221.676944,17987.004391
945.167934,-7772.162391,459.657299,17024.736666
945.168264,-11991.336260,-383.047749,12287.418637
945.168593,-9326.594869,-7737.564530,7402.059420
945.168923,-2664.741391,-11721.261119,4071.132681
945.169252,3330.926739,-11414.822920,1258.350101
945.169582,8586.388927,-8427.050478,1184.329507
945.169911,10881.027347,-2221.676944,3256.906145
945.170241,9474.636058,8350.440928,7476.080014
945.170570,5625.565159,13559.890315,12435.459826
945.170900,1406.391290,13100.233016,17394.839637
945.171230,-4663.297435,12947.013916,19023.292709
945.171559,-8290.306550,8197.221829,18357.107362
945.171889,-9474.636058,-76.609550,14878.139434
945.172218,-9030.512492,-4443.353888,8734.430116
945.172548,-7772.162391,-10265.679673,2886.803174
945.172877,-3182.885551,-15398.519510,518.144159
945.173207,740.205942,-14402.595362,1924.535449
945.173536,2368.659014,-4366.744339,5107.421000
945.173866,2294.638420,4136.915689,5995.668130
945.174195,2664.741391,8886.707777,9474.636058
945.174525,3108.864956,13636.499864,12213.398043
945.174854,1184.329507,14402.595362,14359.995275
945.175184,-1628.453072,10878.556072,14582.057057
945.175514,-4885.359217,1915.238745,16506.592507
945.175843,-9326.594869,-459.657299,15766.386565
945.176173,-11473.192101,-2145.067394,11843.295072
945.176502,-8068.244768,-9652.803275,7550.100608
945.176832,-2442.679609,-12334.137518,4663.297435
945.177161,3034.844362,-9499.584175,1554.432478
945.177491,8068.244768,-6052.154434,2072.576638
945.177820,11177.109724,-842.705048,4071.132681
945.178150,8808.450710,8350.440928,8364.327145
945.178479,5033.400406,14172.766713,12435.459826
945.178809,370.102971,12487.356617,17690.922014
945.179138,-4737.318029,12640.575717,19837.519246
945.179468,-8438.347739,7737.564530,17912.983796
945.179797,-9474.636058,-229.828649,13027.624579
945.180127,-7994.224174,-4519.963438,7031.956449
945.180457,-3997.112087,-10878.556072,2368.659014
945.180786,444.123565,-15245.300410,1924.535449
945.181116,2960.823768,-10955.165621,2442.679609
945.181445,3256.906145,-1072.533697,4589.276840
945.181775,3404.947333,5592.497135,7179.997637
945.182104,3404.947333,11108.384721,11325.150913
945.182434,2442.679609,15321.909960,13323.706956
945.182763,0.000000,13483.280765,13175.665768
945.183093,-1776.494261,5362.668486,15840.407159
945.183422,-5699.585753,995.924147,17616.901420
945.183752,-10807.006753,1225.752797,15100.201217
945.184081,-11325.150913,-4290.134789,9548.656652
945.184411,-5995.668130,-9806.022374,4959.379811
945.184740,148.041188,-10342.289223,1850.514855
945.185070,6661.853478,-8273.831378,-0.000000
945.185400,11177.109724,-4749.792088,1776.494261
945.185729,11251.130318,4060.306139,5403.503377
945.186059,7031.956449,12870.404366,9252.574275
945.186388,2738.761985,14019.547613,14508.036463
945.186718,-2516.700203,13789.718964,18801.230927
945.187047,-7402.059420,11184.994271,19837.519246
945.187377,-9918.759623,3447.429741,17764.942608
945.187706,-10214.842000,-1608.800546,11769.274478
945.188036,-7550.100608,-6435.202183,5403.503377
945.188365,-2812.782580,-13253.452115,962.267725
945.188695,814.226536,-14555.814462,592.164754
945.189024,3552.988522,-8044.002729,2664.741391
945.189354,3997.112087,1225.752797,5847.626942
945.189683,2812.782580,7354.516781,8364.327145
945.190013,2072.576638,12870.404366,11399.171507
945.190343,740.205942,15092.081311,13767.830521
945.190672,-1258.350101,10189.070123,14952.160028
945.191002,-4219.173869,2298.286494,17468.860231
945.191331,-8586.388927,-536.266849,16506.592507
945.191661,-12361.439231,-612.876398,12731.542202
945.191990,-9400.615463,-7431.126331,8142.265362
945.192320,-3256.906145,-11951.089769,4737.318029
945.192649,2812.782580,-10725.336972,1924.535449
945.192979,8216.285956,-7890.783629,814.226536
945.193308,11325.150913,-2681.334243,4145.153275
945.193638,8660.409521,8350.440928,7994.224174
945.193967,5107.421000,13866.328514,11547.212695
945.194297,1850.514855,12027.699319,17024.736666
945.194626,-3478.967927,11338.213370,19319.375086
945.194956,-7920.203579,7737.564530,18579.169144
945.195286,-9030.512492,76.609550,15026.180623
945.195615,-8512.368333,-4290.134789,9696.697840
945.195945,-5773.606348,-9729.412825,4145.153275
945.196274,-1554.432478,-14096.157163,-0.000000
945.196604,2220.617826,-13713.109414,-888.247130
945.196933,5107.421000,-5362.668486,2664.741391
945.197263,3923.091493,2911.162892,6439.791695
945.197592,1776.494261,9959.241474,9622.677246
945.197922,888.247130,14938.862211,12287.418637
945.198251,-1258.350101,13406.671215,14063.912898
945.198581,-3478.967927,7584.345430,16950.716072
945.198910,-6809.894666,229.828649,18653.189738
945.199240,-11177.109724,-1915.238745,15840.407159
945.199569,-12287.418637,-3447.429741,10807.006753
945.199899,-7772.162391,-9576.193725,6587.832884
945.200229,-888.247130,-12027.699319,3182.885551
945.200558,5847.626942,-10189.070123,-0.000000
945.200888,10140.821405,-5745.716235,1036.288319
945.201217,12509.480420,1915.238745,4441.235652
945.201547,9474.636058,12027.699319,9326.594869
945.201876,5921.647536,15475.129060,13101.645173
945.202206,666.185348,12870.404366,17468.860231
945.202535,-5625.565159,10725.336972,19689.478057
945.202865,-9474.636058,5362.668486,19097.313304
945.203194,-10881.027347,-1225.752797,14804.118840
945.203524,-9844.739029,-5362.668486,8660.409521
945.203853,-6217.729913,-10342.289223,3701.029710
945.204183,-1406.391290,-14479.204912,962.267725
945.204512,3034.844362,-11414.822920,888.247130
945.204842,4589.276840,-2681.334243,4219.173869
945.205172,4219.173869,5822.325785,7179.997637
945.205501,2368.659014,12257.527968,11325.150913
945.205831,1776.494261,16317.834107,11843.295072
945.206160,-296.082377,12334.137518,14359.995275
945.206490,-2072.576638,5209.449386,17246.798449
945.206819,-6735.874072,1838.629195,17764.942608
945.207149,-11029.068536,689.485948,14211.954086
945.207478,-9844.739029,-3600.648841,9474.636058
945.207808,-5181.441594,-8963.317327,5477.523971
945.208137,814.226536,-10342.289223,1776.494261
945.208467,7179.997637,-8886.707777,-592.164754
945.208796,11473.192101,-4136.915689,1406.391290
945.209126,11621.233289,5898.935335,4885.359217
945.209455,7179.997637,13330.061665,9622.677246
945.209785,3775.050304,13483.280765,14137.933492
945.210115,-2590.720797,12640.575717,17912.983796
945.210444,-7402.059420,9959.241474,19763.498651
945.210774,-10288.862594,3677.258390,17172.777854
945.211103,-10214.842000,-1991.848295,12139.377449
945.211433,-7994.224174,-6818.249932,5921.647536
945.211762,-3849.070898,-12257.527968,296.082377
945.212092,1628.453072,-14709.033562,148.041188
945.212421,5181.441594,-8273.831378,2960.823768
945.212751,4663.297435,1532.190996,5181.441594
945.213080,3404.947333,8273.831378,8734.430116
945.213410,1702.473667,13713.109414,11399.171507
945.213739,814.226536,14402.595362,13471.748144
945.214069,-1110.308913,10648.727422,14952.160028
945.214398,-3552.988522,1991.848295,18505.148550
945.214728,-7994.224174,-1072.533697,18357.107362
945.215058,-11917.315666,-306.438199,14211.954086
945.215387,-10436.903782,-7354.516781,9326.594869
945.215717,-3849.070898,-11568.042020,5477.523971
945.216046,2590.720797,-10955.165621,1850.514855
945.216375,8216.285956,-8273.831378,518.144159
945.216705,11917.315666,-2911.162892,2738.761985
945.217034,10140.821405,6971.469032,6809.894666
945.217364,6365.771101,13176.842566,10955.047942
945.217693,1628.453072,12487.356617,16580.613101
945.218023,-4441.235652,12410.747068,19393.395680
945.218352,-8734.430116,8580.269578,19097.313304
945.218682,-9918.759623,229.828649,14952.160028
945.219011,-9030.512492,-4673.182538,8956.491898
945.219341,-6735.874072,-9806.022374,4293.194464
945.219670,-1702.473667,-13789.718964,1554.432478
945.220000,1924.535449,-12104.308868,1776.494261
945.220329,3330.926739,-4366.744339,3330.926739
945.220659,3256.906145,3600.648841,5773.606348
945.220988,2220.617826,9499.584175,8660.409521
945.221317,2812.782580,13023.623466,10140.821405
945.221647,518.144159,13023.623466,12731.542202
945.221976,-2294.638420,8273.831378,15174.221811
945.222306,-6661.853478,1532.190996,17764.942608
945.222635,-11399.171507,-689.485948,16284.530724
945.222965,-13175.665768,-2298.286494,11769.274478
945.223294,-8586.388927,-8580.269578,7476.080014
945.223624,-1776.494261,-11874.480219,3997.112087
945.223953,4589.276840,-9806.022374,-0.000000
945.224283,9696.697840,-6818.249932,740.205942
945.224612,11991.336260,0.000000,4071.132681
945.224942,8882.471304,10955.165621,8586.388927
945.225271,4885.359217,15015.471761,13397.727550
945.225600,0.000000,13176.842566,17838.963202
945.225930,-5033.400406,10878.556072,20133.601622
945.226259,-8956.491898,5286.058936,18801.230927
945.226589,-9548.656652,-1608.800546,14359.995275
945.226918,-9030.512492,-5515.887586,8438.347739
945.227248,-5255.462188,-10495.508323,3849.070898
945.227577,-962.267725,-13789.718964,1480.411884
945.227907,2812.782580,-10801.946522,2146.597232
945.228236,4589.276840,-2298.286494,4367.215058
945.228566,4293.194464,6128.763984,7031.956449
945.228895,3256.906145,12180.918418,10584.944971
945.229225,2516.700203,14709.033562,12287.418637
945.229554,0.000000,12563.966167,13471.748144
945.229884,-2072.576638,5439.278036,16136.489536
945.230213,-6587.832884,612.876398,17172.777854
945.230542,-11621.233289,306.438199,14656.077652
945.230872,-11399.171507,-3294.210641,10510.924376
945.231201,-5773.606348,-9269.755526,6291.750507
945.231531,370.102971,-10725.336972,2220.617826
945.231860,7105.977043,-8350.440928,-814.226536
945.232190,11843.295072,-4290.134789,740.205942
945.232519,11917.315666,4596.572988,4737.318029
945.232849,7105.977043,12793.794817,10066.800811
945.233178,2812.782580,14249.376263,15692.365970
945.233508,-3330.926739,13942.938064,18949.272115
945.233837,-7105.977043,10648.727422,19023.292709
945.234167,-9400.615463,2757.943793,16432.571912
945.234496,-9326.594869,-3370.820191,10955.047942
945.234825,-7031.956449,-8044.002729,4737.318029
945.235155,-3034.844362,-12793.794817,-296.082377
945.235484,1554.432478,-13483.280765,-0.000000
945.235814,4737.318029,-7277.907231,3849.070898
945.236143,4293.194464,1685.410096,6587.832884
945.236473,2590.720797,9269.755526,8882.471304
945.236802,2146.597232,14249.376263,11473.192101
945.237132,1406.391290,14555.814462,12953.603985
945.237461,-740.205942,10725.336972,15692.365970
945.237791,-4885.359217,1455.581446,18949.272115
945.238120,-9474.636058,-1225.752797,17912.983796
945.238450,-13175.665768,-536.266849,12805.562797
945.238779,-10658.965565,-7124.688131,7920.203579
945.239109,-3404.947333,-12563.966167,4293.194464
945.239438,2368.659014,-11568.042020,1480.411884
945.239767,8438.347739,-8273.831378,962.267725
945.240097,11621.233289,-2221.676944,3552.988522
945.240426,9770.718434,9039.926876,7402.059420
945.240756,5699.585753,15168.690860,11695.253884
945.241085,1998.556043,12717.185267,16136.489536
945.241415,-3404.947333,11338.213370,18949.272115
945.241744,-7254.018232,7354.516781,19763.498651
945.242074,-9548.656652,306.438199,16136.489536
945.242403,-9770.718434,-3753.867940,9622.677246
945.242733,-7772.162391,-10572.117872,3997.112087
945.243062,-2664.741391,-14479.204912,296.082377
945.243392,2072.576638,-13100.233016,-222.061783
945.243721,4071.132681,-5669.106685,3330.926739
945.244050,3108.864956,4136.915689,6069.688724
945.244380,1036.288319,11491.432470,9326.594869
945.244709,1554.432478,13866.328514,12879.583391
945.245039,0.000000,13713.109414,14211.954086
945.245368,-2516.700203,10725.336972,13841.851115
945.245698,-5551.544565,-306.438199,15618.345376
945.246027,-9104.533087,-4903.011187,15248.242405
945.246357,-12361.439231,-2374.896044,11843.295072
945.246686,-9104.533087,-8656.879127,7624.121203
945.247016,-2590.720797,-12334.137518,4737.318029
945.247345,3182.885551,-8580.269578,1702.473667
945.247675,8882.471304,-5132.839837,1554.432478
945.248004,13841.851115,-1378.971896,3923.091493
945.248334,10955.047942,9959.241474,7772.162391
945.248663,7105.977043,16547.662757,12361.439231
945.248992,1776.494261,12793.794817,17912.983796
945.249322,-4145.153275,11951.089769,20207.622217
945.249651,-8956.491898,7814.174080,18431.127956
945.249981,-10066.800811,-1302.362347,14137.933492
945.250310,-9474.636058,-5362.668486,8438.347739
945.250640,-6069.688724,-10801.946522,3701.029710
945.250969,-1554.432478,-16011.395908,1480.411884
945.251299,2072.576638,-12947.013916,1776.494261
945.251628,3034.844362,-2604.724693,4145.153275
945.251958,3182.885551,5745.716235,8216.285956
945.252287,2960.823768,11721.261119,11473.192101
945.252617,2812.782580,16624.272307,12361.439231
945.252946,444.123565,13559.890315,13175.665768
945.253275,-666.185348,5898.935335,16506.592507
945.253605,-5181.441594,1608.800546,17320.819043
945.253934,-10436.903782,383.047749,14359.995275
945.254264,-11251.130318,-3370.820191,9770.718434
945.254593,-6365.771101,-9116.536426,5477.523971
945.254923,-518.144159,-11261.603821,2664.741391
945.255252,6217.729913,-9959.241474,592.164754
945.255582,10881.027347,-4903.011187,1998.556043
945.255911,11029.068536,5056.230287,5255.462188
945.256241,7624.121203,12870.404366,8808.450710
945.256570,4811.338623,14402.595362,13175.665768
945.256900,-888.247130,14019.547613,17838.963202
945.257229,-6069.688724,11414.822920,18875.251521
945.257559,-9770.718434,4366.744339,16358.551318
945.257888,-10881.027347,-1608.800546,11325.150913
945.258217,-9030.512492,-6128.763984,5699.585753
945.258547,-5477.523971,-13406.671215,1036.288319
945.258876,-1110.308913,-15934.786358,962.267725
945.259206,2442.679609,-9422.974625,2664.741391
945.259535,2738.761985,229.828649,5551.544565
945.259865,3404.947333,6358.592633,7772.162391
945.260194,3256.906145,13176.842566,11769.274478
945.260524,2442.679609,15704.957709,13989.892304
945.260853,-444.123565,13483.280765,14211.954086
945.261183,-3256.906145,5286.058936,16654.633695
945.261512,-7550.100608,153.219100,17468.860231
945.261842,-11399.171507,-612.876398,14211.954086
945.262171,-10658.965565,-7124.688131,9548.656652
945.262500,-5403.503377,-11951.089769,5551.544565
945.262830,518.144159,-12027.699319,2738.761985
945.263159,6957.935855,-9269.755526,1480.411884
945.263489,10510.924376,-3983.696590,3330.926739
945.263818,10881.027347,5515.887586,6587.832884
945.264148,7254.018232,13559.890315,10881.027347
945.264477,4219.173869,13942.938064,15840.407159
945.264807,-2368.659014,13330.061665,18875.251521
945.265136,-6661.853478,10342.289223,18431.127956
945.265466,-8882.471304,1532.190996,14730.098246
945.265795,-9252.574275,-3677.258390,9622.677246
945.266125,-7624.121203,-9346.365076,4441.235652
945.266454,-3478.967927,-14709.033562,1776.494261
945.266784,148.041188,-15092.081311,2146.597232
945.267113,2738.761985,-6281.983084,2442.679609
945.267442,3478.967927,1915.238745,5403.503377
945.267772,3478.967927,7890.783629,9474.636058
945.268101,3182.885551,14709.033562,11621.233289
945.268431,888.247130,15551.738609,12731.542202
945.268760,-740.205942,10572.117872,15174.221811
945.269090,-4293.194464,2834.553343,18505.148550
945.269419,-9178.553681,612.876398,16358.551318
945.269749,-12509.480420,-2451.505594,11399.171507
945.270078,-9696.697840,-9806.022374,6957.935855
945.270408,-3256.906145,-12027.699319,3404.947333
945.270737,2590.720797,-11568.042020,444.123565
945.271067,8142.265362,-8733.488677,740.205942
945.271396,10510.924376,-612.876398,4515.256246
945.271725,8438.347739,9576.193725,8956.491898
945.272055,5477.523971,14938.862211,11917.315666
945.272384,1036.288319,14709.033562,16506.592507
945.272714,-3478.967927,12257.527968,18875.251521
945.273043,-7698.141797,6205.373534,19097.313304
945.273373,-9770.718434,229.828649,15470.304188
945.273702,-10066.800811,-3907.087040,9178.553681
945.274032,-6661.853478,-11031.775171,3034.844362
945.274361,-1702.473667,-15551.738609,1850.514855
945.274691,2294.638420,-13406.671215,2812.782580
945.275020,3923.091493,-4366.744339,4367.215058
945.275350,3330.926739,4136.915689,6957.935855
945.275679,3034.844362,11184.994271,9992.780217
945.276009,2960.823768,15092.081311,13323.706956
945.276338,0.000000,15628.348159,13915.871710
945.276667,-2146.597232,9193.145976,15396.283594
945.276997,-4959.379811,1072.533697,17024.736666
945.277326,-10066.800811,229.828649,14582.057057
945.277656,-11399.171507,-2451.505594,9844.739029
945.277985,-7105.977043,-11491.432470,6217.729913
945.278315,-2146.597232,-11568.042020,3552.988522
945.278644,3552.988522,-8120.612279,1036.288319
945.278974,8512.368333,-5669.106685,1702.473667
945.279303,10955.047942,1378.971896,4145.153275
945.279633,7698.141797,11184.994271,9770.718434
945.279962,5033.400406,14479.204912,15322.262999
945.280292,0.000000,14709.033562,19097.313304
945.280621,-5921.647536,13636.499864,17542.880825
945.280950,-7994.224174,5592.497135,15100.201217
945.281280,-7624.121203,-1378.971896,10658.965565
945.281609,-6439.791695,-5669.106685,4959.379811
945.281939,-2738.761985,-12104.308868,444.123565
945.282268,518.144159,-14555.814462,222.061783
945.282598,2664.741391,-8503.660028,2368.659014
945.282927,2886.803174,-536.266849,5403.503377
945.283257,2442.679609,6205.373534,9474.636058
945.283586,1184.329507,13023.623466,12213.398043
945.283916,814.226536,16011.395908,12879.583391
945.284245,-1702.473667,9422.974625,16506.592507
945.284575,-3775.050304,2911.162892,20207.622217
945.284904,-9400.615463,2451.505594,18357.107362
945.285234,-11843.295072,459.657299,12213.398043
945.285563,-8586.388927,-7354.516781,7772.162391
945.285892,-2960.823768,-11644.651570,3701.029710
945.286222,2812.782580,-11797.870669,-74.020594
945.286551,9178.553681,-9959.241474,-592.164754
945.286881,11621.233289,-2451.505594,3849.070898
945.287210,9992.780217,9652.803275,8512.368333
945.287540,5625.565159,13406.671215,12509.480420
945.287869,2072.576638,13483.280765,16580.613101
945.288199,-3256.906145,13176.842566,18949.272115
945.288528,-6883.915261,8120.612279,19911.539840
945.288858,-9400.615463,1838.629195,16136.489536
945.289187,-9474.636058,-2681.334243,9770.718434
945.289517,-7772.162391,-9806.022374,3182.885551
945.289846,-3997.112087,-14555.814462,-814.226536
945.290175,370.102971,-14709.033562,888.247130
945.290505,2368.659014,-6435.202183,4367.215058
945.290834,2294.638420,2374.896044,6587.832884
945.291164,1406.391290,9729.412825,10436.903782
945.291493,2220.617826,14172.766713,10584.944971
945.291823,1998.556043,12717.185267,11843.295072
945.292152,222.061783,7277.907231,15840.407159
945.292482,-4663.297435,1838.629195,19171.333898
945.292811,-10436.903782,1915.238745,16950.716072
945.293141,-11769.274478,-459.657299,11843.295072
945.293470,-7476.080014,-8963.317327,7624.121203
945.293800,-1702.473667,-11721.261119,3478.967927
945.294129,4071.132681,-11108.384721,-148.041188
945.294459,9548.656652,-9729.412825,-1036.288319
945.294788,11695.253884,0.000000,3849.070898
945.295117,7105.977043,11184.994271,9178.553681
945.295447,3923.091493,13942.938064,13471.748144
945.295776,-518.144159,12717.185267,17542.880825
945.296106,-5995.668130,11797.870669,19319.375086
945.296435,-9104.533087,5669.106685,19023.292709
945.296765,-10140.821405,-1532.190996,14359.995275
945.297094,-9992.780217,-4366.744339,8882.471304
945.297424,-6735.874072,-10725.336972,2664.741391
945.297753,-1850.514855,-14479.204912,518.144159
945.298083,2886.803174,-11644.651570,1258.350101
945.298412,4367.215058,-4443.353888,4145.153275
945.298742,4071.132681,4366.744339,6661.853478
945.299071,2516.700203,11797.870669,10807.006753
945.299400,2738.761985,15245.300410,11843.295072
945.299730,814.226536,12717.185267,14582.057057
945.300059,-1850.514855,5439.278036,18431.127956
945.300389,-6365.771101,1225.752797,19615.457463
945.300718,-11251.130318,1072.533697,15322.262999
945.301048,-10510.924376,-3064.381992,10066.800811
945.301377,-5625.565159,-9499.584175,6291.750507
945.301707,296.082377,-10878.556072,2294.638420
945.302036,6957.935855,-9806.022374,-1406.391290
945.302366,11621.233289,-6128.763984,666.185348
945.302695,11843.295072,4903.011187,4293.194464
945.303025,7031.956449,13406.671215,9548.656652
945.303354,3923.091493,13100.233016,14434.015869
945.303683,-2516.700203,13023.623466,18135.045579
945.304013,-7550.100608,11644.651570,18653.189738
945.304342,-9326.594869,3447.429741,16950.716072
945.304672,-9696.697840,-2298.286494,12213.398043
945.305001,-8586.388927,-6511.811733,6883.915261
945.305331,-5107.421000,-11874.480219,962.267725
945.305660,148.041188,-13636.499864,-740.205942
945.305990,4737.318029,-8580.269578,1776.494261
945.306319,5551.544565,0.000000,5329.482782
945.306649,4071.132681,8427.050478,9178.553681
945.306978,1998.556043,14785.643111,10807.006753
945.307308,1628.453072,14709.033562,11843.295072
945.307637,-962.267725,10725.336972,16062.468941
945.307967,-5107.421000,4213.525239,19911.539840
945.308296,-9548.656652,306.438199,18653.189738
945.308625,-11547.212695,-1302.362347,12805.562797
945.308955,-9178.553681,-6511.811733,7624.121203
945.309284,-2664.741391,-10725.336972,4145.153275
945.309614,3034.844362,-11644.651570,1036.288319
945.309943,9030.512492,-8427.050478,-592.164754
945.310273,11547.212695,-1455.581446,4145.153275
945.310602,9622.677246,9576.193725,7920.203579
945.310932,5625.565159,14172.766713,11473.192101
945.311261,1110.308913,12410.747068,16284.530724
945.311591,-5033.400406,11338.213370,19467.416275
945.311920,-9030.512492,7737.564530,20207.622217
945.312250,-10510.924376,766.095498,16506.592507
945.312579,-10732.986159,-4596.572988,10140.821405
945.312908,-8216.285956,-10418.898773,4737.318029
945.313238,-3108.864956,-14555.814462,296.082377
945.313567,2812.782580,-13942.938064,-0.000000
945.313897,5921.647536,-5286.058936,2812.782580
945.314226,4515.256246,3524.039291,5995.668130
945.314556,3034.844362,11184.994271,9696.697840
945.314885,2960.823768,14938.862211,11917.315666
945.315215,1554.432478,13713.109414,13545.768739
945.315544,-1554.432478,7354.516781,17172.777854
945.315874,-5699.585753,1762.019645,18653.189738
945.316203,-10436.903782,-153.219100,15322.262999
945.316533,-11029.068536,-3447.429741,11251.130318
945.316862,-7846.182985,-8963.317327,7254.018232
945.317192,-2072.576638,-11108.384721,3108.864956
945.317521,4367.215058,-10265.679673,-592.164754
945.317850,10140.821405,-7507.735880,-296.082377
945.318180,12583.501014,2298.286494,4441.235652
945.318509,8512.368333,11951.089769,9178.553681
945.318839,4959.379811,13636.499864,12139.377449
945.319168,-1258.350101,13100.233016,16580.613101
945.319498,-6513.812290,11491.432470,19541.436869
945.319827,-9770.718434,4903.011187,19245.354492
945.320157,-11103.089130,-1991.848295,14730.098246
945.320486,-10732.986159,-5515.887586,8290.306550
945.320816,-7179.997637,-11874.480219,2220.617826
945.321145,-1332.370696,-15551.738609,-222.061783
945.321475,3997.112087,-12180.918418,1406.391290
945.321804,4737.318029,-2911.162892,5403.503377
945.322134,4219.173869,6741.640382,7994.224174
945.322463,2442.679609,13942.938064,10658.965565
945.322792,3478.967927,15704.957709,11769.274478
945.323122,1702.473667,12487.356617,15174.221811
945.323451,-1406.391290,5515.887586,18505.148550
945.323781,-6809.894666,842.705048,18875.251521
945.324110,-11473.192101,-306.438199,14804.118840
945.324440,-11325.150913,-4136.915689,9844.739029
945.324769,-6291.750507,-9959.241474,6661.853478
945.325099,0.000000,-11797.870669,3256.906145
945.325428,6143.709319,-9269.755526,370.102971
945.325758,10807.006753,-3907.087040,1406.391290
945.326087,11917.315666,6052.154434,5255.462188
945.326417,7772.162391,12793.794817,10732.986159
945.326746,3627.009116,13483.280765,14952.160028
945.327076,-3330.926739,14325.985813,17616.901420
945.327405,-7105.977043,10878.556072,18135.045579
945.327735,-9474.636058,2987.772442,16062.468941
945.328064,-10140.821405,-2604.724693,11251.130318
945.328393,-8660.409521,-8120.612279,5255.462188
945.328723,-4071.132681,-12487.356617,-74.020594
945.329052,962.267725,-13866.328514,-222.061783
945.329382,4367.215058,-7201.297681,2072.576638
945.329711,4441.235652,1149.143247,6291.750507
945.330041,2664.741391,9499.584175,9770.718434
945.330370,2590.720797,15858.176809,11547.212695
945.330700,2072.576638,16011.395908,13027.624579
945.331029,148.041188,10112.460574,16580.613101
945.331359,-4145.153275,2374.896044,19393.395680
945.331688,-9326.594869,0.000000,17320.819043
945.332018,-11769.274478,-1532.190996,11547.212695
945.332347,-8586.388927,-7431.126331,8660.409521
945.332677,-3701.029710,-10878.556072,4293.194464
945.333006,1628.453072,-10878.556072,-0.000000
945.333336,8734.430116,-9269.755526,-740.205942
945.333665,13471.748144,-1302.362347,3182.885551
945.333994,11917.315666,11108.384721,8216.285956
945.334324,6883.915261,14172.766713,13175.665768
945.334653,888.247130,14555.814462,16136.489536
945.334983,-5625.565159,14709.033562,18283.086767
945.335312,-8956.491898,8656.879127,19171.333898
945.335642,-10584.944971,459.657299,15544.324782
945.335971,-11177.109724,-4979.620737,9770.718434
945.336301,-9400.615463,-12027.699319,4071.132681
945.336630,-4737.318029,-16164.615008,666.185348
945.336960,222.061783,-13559.890315,740.205942
945.337289,3775.050304,-6358.592633,3256.906145
945.337619,5033.400406,1455.581446,6883.915261
945.337948,4589.276840,10801.946522,10214.842000
945.338278,5329.482782,15475.129060,10955.047942
945.338607,4515.256246,12257.527968,14730.098246
945.338936,888.247130,9193.145976,18653.189738
945.339266,-5625.565159,5975.544884,18653.189738
945.339595,-9030.512492,612.876398,14656.077652
945.339925,-7698.141797,-3983.696590,10510.924376
945.340254,-5773.606348,-9806.022374,7772.162391
945.340584,-2368.659014,-13100.233016,2960.823768
945.340913,2664.741391,-12563.966167,-740.205942
945.341243,8068.244768,-6358.592633,-0.000000
945.341572,11103.089130,2911.162892,5403.503377
945.341902,7920.203579,9422.974625,9918.759623
945.342231,4441.235652,13330.061665,12213.398043
945.342561,-1480.411884,12947.013916,16062.468941
945.342890,-5551.544565,10955.165621,19023.292709
945.343220,-8956.491898,7048.078582,19615.457463
945.343549,-11103.089130,-766.095498,14730.098246
945.343879,-11103.089130,-6588.421283,8142.265362
945.344208,-8586.388927,-12334.137518,1480.411884
945.344537,-2442.679609,-15245.300410,-1110.308913
945.344867,3775.050304,-13330.061665,1406.391290
945.345196,5181.441594,-5056.230287,5699.585753
945.345526,3627.009116,6358.592633,9178.553681
945.345855,2664.741391,12563.966167,11103.089130
945.346185,4515.256246,15092.081311,11769.274478
945.346514,2442.679609,13636.499864,14656.077652
945.346844,-1332.370696,6588.421283,18505.148550
945.347173,-5773.606348,1378.971896,19393.395680
945.347503,-9696.697840,459.657299,15026.180623
945.347832,-10436.903782,-3983.696590,9770.718434
945.348162,-7476.080014,-10342.289223,6365.771101
945.348491,-2664.741391,-12793.794817,3330.926739
945.348821,4145.153275,-10189.070123,-148.041188
945.349150,9992.780217,-5515.887586,1258.350101
945.349479,10955.047942,5439.278036,6291.750507
945.349809,7328.038826,13942.938064,9992.780217
945.350138,3552.988522,14632.424012,13101.645173
945.350468,-2220.617826,13713.109414,16580.613101
945.350797,-6291.750507,11797.870669,18801.230927
945.351127,-8808.450710,5132.839837,17542.880825
945.351456,-10436.903782,-1532.190996,11547.212695
945.351786,-11103.089130,-7354.516781,6439.791695
945.352115,-7105.977043,-12870.404366,1110.308913
945.352445,-814.226536,-15321.909960,-74.020594
945.352774,3627.009116,-10418.898773,962.267725
945.353104,4367.215058,-842.705048,5625.565159
945.353433,3775.050304,8810.098227,9400.615463
945.353763,3849.070898,14632.424012,10955.047942
945.354092,4811.338623,15858.176809,12583.501014
945.354422,1628.453072,12870.404366,16284.530724
945.354751,-2368.659014,7201.297681,18949.272115
945.355080,-7328.038826,2374.896044,16802.674883
945.355410,-9400.615463,-383.047749,11843.295072
945.355739,-7550.100608,-5669.106685,8216.285956
945.356069,-3849.070898,-11568.042020,3997.112087
945.356398,666.185348,-13253.452115,962.267725
945.356728,6957.935855,-10418.898773,-666.185348
945.357057,9548.656652,-1762.019645,4515.256246
945.357387,9622.677246,8427.050478,7994.224174
945.357716,5921.647536,12410.747068,12509.480420
945.358046,1850.514855,13483.280765,16284.530724
945.358375,-4219.173869,13866.328514,18579.169144
945.358705,-7031.956449,9193.145976,19319.375086
945.359034,-8586.388927,1608.800546,16062.468941
945.359364,-9252.574275,-3753.867940,10066.800811
945.359693,-7920.203579,-9959.241474,3404.947333
945.360022,-3404.947333,-14632.424012,-148.041188
945.360352,1776.494261,-14862.252661,740.205942
945.360681,4145.153275,-6358.592633,4885.359217
945.361011,3256.906145,2681.334243,7328.038826
945.361340,2664.741391,9806.022374,10436.903782
945.361670,3997.112087,13789.718964,11843.295072
945.361999,3404.947333,13023.623466,13693.809927
945.362329,296.082377,7814.174080,17912.983796
945.362658,-4885.359217,3983.696590,19171.333898
945.362988,-9622.677246,1378.971896,15544.324782
945.363317,-9696.697840,-2221.676944,10510.924376
945.363647,-7179.997637,-9576.193725,6587.832884
945.363976,-2516.700203,-12563.966167,2368.659014
945.364306,2812.782580,-12640.575717,-592.164754
945.364635,8660.409521,-8427.050478,-222.061783
945.364965,10288.862594,2068.457845,5921.647536
945.365294,6587.832884,10572.117872,9770.718434
945.365623,3997.112087,14479.204912,12953.603985
945.365953,-1036.288319,13330.061665,16136.489536
945.366282,-5107.421000,11951.089769,19023.292709
945.366612,-7920.203579,5975.544884,18949.272115
945.366941,-10214.842000,-383.047749,13989.892304
945.367271,-11103.089130,-4826.401637,7105.977043
945.367600,-8290.306550,-12027.699319,1184.329507
945.367930,-2368.659014,-16241.224558,370.102971
945.368259,2072.576638,-13023.623466,1924.535449
945.368589,2960.823768,-4136.915689,4885.359217
945.368918,1702.473667,5975.544884,8660.409521
945.369248,1924.535449,12180.918418,10362.883188
945.369577,4145.153275,15092.081311,12731.542202
945.369907,2368.659014,14479.204912,13767.830521
945.370236,-740.205942,6665.030833,16728.654289
945.370565,-4885.359217,919.314598,18875.251521
945.370895,-10732.986159,1302.362347,15914.427753
945.371224,-12065.356855,-2451.505594,11621.233289
945.371554,-7698.141797,-10265.679673,7179.997637
945.371883,-1998.556043,-12334.137518,2886.803174
945.372213,5477.523971,-10572.117872,-74.020594
945.372542,11029.068536,-7660.954980,444.123565
945.372872,11769.274478,3370.820191,4737.318029
945.373201,7105.977043,13330.061665,9770.718434
945.373531,3552.988522,14479.204912,15248.242405
945.373860,-2146.597232,14938.862211,18949.272115
945.374190,-6069.688724,13636.499864,18431.127956
945.374519,-8290.306550,4213.525239,15988.448347
945.374849,-8438.347739,-2451.505594,10288.862594
945.375178,-7920.203579,-6894.859482,5033.400406
945.375508,-4219.173869,-13406.671215,888.247130
945.375837,-296.082377,-13866.328514,-518.144159
945.376166,1924.535449,-8273.831378,3182.885551
945.376496,2590.720797,-229.828649,6661.853478
945.376825,3034.844362,7814.174080,10214.842000
945.377155,2442.679609,14402.595362,10510.924376
945.377484,3330.926739,14862.252661,11843.295072
945.377814,2072.576638,8120.612279,16728.654289
945.378143,-2368.659014,5439.278036,19689.478057
945.378473,-8660.409521,3064.381992,16728.654289
945.378802,-10288.862594,-689.485948,11843.295072
945.379132,-7994.224174,-5515.887586,9178.553681
945.379461,-3256.906145,-10035.851024,4515.256246
945.379791,2220.617826,-12717.185267,-74.020594
945.380120,9104.533087,-10112.460574,-2220.617826
945.380450,12435.459826,-919.314598,3256.906145
945.380779,10362.883188,9193.145976,7550.100608
945.381108,5329.482782,12640.575717,11177.109724
945.381438,0.000000,14785.643111,14582.057057
945.381767,-6365.771101,13330.061665,18209.066173
945.382097,-9104.533087,7890.783629,21317.931130
945.382426,-10732.986159,995.924147,18579.169144
945.382756,-11177.109724,-4979.620737,11325.150913
945.383085,-9622.677246,-11108.384721,3330.926739
945.383415,-4737.318029,-15398.519510,-222.061783
945.383744,888.247130,-14249.376263,666.185348
945.384074,5033.400406,-7048.078582,2368.659014
945.384403,4589.276840,1455.581446,7772.162391
945.384733,3404.947333,11338.213370,9696.697840
945.385062,4071.132681,15551.738609,11473.192101
945.385392,3182.885551,13330.061665,13619.789333
945.385721,74.020594,8963.317327,17690.922014
945.386051,-4737.318029,4136.915689,18727.210333
945.386380,-8290.306550,1302.362347,15544.324782
945.386709,-8660.409521,-2834.553343,10658.965565
945.387039,-7105.977043,-8580.269578,6809.894666
945.387368,-2590.720797,-12334.137518,2886.803174
945.387698,3034.844362,-12870.404366,1258.350101
945.388027,7254.018232,-6281.983084,2072.576638
945.388357,8438.347739,2528.115143,4885.359217
945.388686,6217.729913,10265.679673,10140.821405
945.389016,3997.112087,13253.452115,13249.686362
945.389345,-962.267725,12104.308868,17098.757260
945.389675,-5699.585753,10725.336972,18727.210333
945.390004,-8512.368333,6818.249932,17246.798449
945.390334,-9992.780217,-153.219100,12435.459826
945.390663,-9696.697840,-5592.497135,7254.018232
945.390993,-7105.977043,-11568.042020,1998.556043
945.391322,-1184.329507,-14632.424012,-148.041188
945.391652,3775.050304,-12180.918418,444.123565
945.391981,4293.194464,-3753.867940,3923.091493
945.392310,3034.844362,6971.469032,9104.533087
945.392640,2886.803174,11568.042020,11251.130318
945.392969,4441.235652,14249.376263,11843.295072
945.393299,1702.473667,14402.595362,14952.160028
945.393628,-1702.473667,6511.811733,17912.983796
945.393958,-6439.791695,995.924147,19615.457463
945.394287,-11103.089130,919.314598,15322.262999
945.394617,-11029.068536,-2681.334243,10066.800811
945.394946,-6365.771101,-9806.022374,5181.441594
945.395276,0.000000,-12334.137518,1554.432478
945.395605,6069.688724,-10725.336972,-444.123565
945.395935,9918.759623,-6052.154434,1554.432478
945.396264,9918.759623,5515.887586,6069.688724
945.396594,6365.771101,13713.109414,10140.821405
945.396923,3256.906145,14402.595362,13397.727550
945.397252,-2368.659014,12180.918418,17838.963202
945.397582,-6587.832884,9806.022374,19319.375086
945.397911,-9178.553681,2987.772442,17468.860231
945.398241,-10881.027347,-1762.019645,12287.418637
945.398570,-10214.842000,-6281.983084,7105.977043
945.398900,-5403.503377,-12257.527968,2368.659014
945.399229,-296.082377,-15092.081311,814.226536
945.399559,3849.070898,-9806.022374,2368.659014
945.399888,4663.297435,459.657299,5403.503377
945.400218,5033.400406,8733.488677,7920.203579
945.400547,4589.276840,14479.204912,10955.047942
945.400877,3701.029710,15475.129060,12139.377449
945.401206,1036.288319,11874.480219,15396.283594
945.401536,-2516.700203,4290.134789,18653.189738
945.401865,-8586.388927,1608.800546,17542.880825
945.402195,-11917.315666,306.438199,12287.418637
945.402524,-9622.677246,-6281.983084,8734.430116
945.402853,-3775.050304,-11644.651570,4589.276840
945.403183,1406.391290,-12180.918418,814.226536
945.403512,6809.894666,-10035.851024,-962.267725
945.403842,9770.718434,-3524.039291,2590.720797
945.404171,8956.491898,8886.707777,7402.059420
945.404501,5181.441594,14709.033562,12065.356855
945.404830,1776.494261,14019.547613,16358.551318
945.405160,-3923.091493,12870.404366,18209.066173
945.405489,-7179.997637,8503.660028,18653.189738
945.405819,-9548.656652,689.485948,15470.304188
945.406148,-9918.759623,-3140.991542,9844.739029
945.406478,-7846.182985,-8580.269578,5033.400406
945.406807,-3034.844362,-13942.938064,1850.514855
945.407137,1184.329507,-13636.499864,1776.494261
945.407466,3923.091493,-5745.716235,3034.844362
945.407795,4145.153275,1915.238745,5699.585753
945.408125,4071.132681,8733.488677,9400.615463
945.408454,3923.091493,14709.033562,11621.233289
945.408784,2516.700203,14632.424012,13397.727550
945.409113,-370.102971,9193.145976,16432.571912
945.409443,-5107.421000,2911.162892,18801.230927
945.409772,-10288.862594,1225.752797,16654.633695
945.410102,-11843.295072,-1455.581446,11547.212695
945.410431,-8068.244768,-9652.803275,7476.080014
945.410761,-1776.494261,-11874.480219,3256.906145
945.411090,3404.947333,-11644.651570,-222.061783
945.411420,8808.450710,-8427.050478,444.123565
945.411749,10955.047942,536.266849,4663.297435
945.412079,7698.141797,11568.042020,9030.512492
945.412408,4885.359217,14632.424012,12361.439231
945.412738,888.247130,12563.966167,16210.510130
945.413067,-4293.194464,11491.432470,18875.251521
945.413396,-8364.327145,5515.887586,18505.148550
945.413726,-10362.883188,-919.314598,14285.974681
945.414055,-10658.965565,-4060.306139,8882.471304
945.414385,-7624.121203,-10495.508323,3256.906145
945.414714,-2146.597232,-15321.909960,666.185348
945.415044,2146.597232,-12947.013916,1332.370696
945.415373,4145.153275,-4366.744339,3108.864956
945.415703,3478.967927,4749.792088,7476.080014
945.416032,2886.803174,11414.822920,10436.903782
945.416362,3256.906145,14938.862211,11843.295072
945.416691,888.247130,12410.747068,15618.345376
945.417021,-2368.659014,6052.154434,19097.313304
945.417350,-7179.997637,2604.724693,18949.272115
945.417680,-11621.233289,689.485948,14137.933492
945.418009,-10436.903782,-4136.915689,9918.759623
945.418339,-5995.668130,-10418.898773,5403.503377
945.418668,296.082377,-12027.699319,1110.308913
945.418998,6513.812290,-11031.775171,-1776.494261
945.419327,10955.047942,-6052.154434,1628.453072
945.419657,10288.862594,6511.811733,6513.812290
945.419986,6439.791695,13406.671215,10436.903782
945.420316,3627.009116,14938.862211,13767.830521
945.420645,-1850.514855,12947.013916,17838.963202
945.420975,-6439.791695,9499.584175,19837.519246
945.421304,-9992.780217,3064.381992,18283.086767
945.421634,-11103.089130,-3064.381992,12657.521608
945.421963,-11103.089130,-6205.373534,6587.832884
945.422293,-7031.956449,-11874.480219,666.185348
945.422622,0.000000,-15934.786358,-0.000000
945.422952,4737.318029,-11031.775171,1628.453072
945.423282,5255.462188,-1608.800546,4589.276840
945.423611,4811.338623,8580.269578,8808.450710
945.423941,3552.988522,15168.690860,10955.047942
945.424270,3478.967927,16164.615008,12065.356855
945.424600,814.226536,10878.556072,16654.633695
945.424929,-2738.761985,4060.306139,20059.581028
945.425259,-8290.306550,2221.676944,17838.963202
945.425588,-10214.842000,-306.438199,12583.501014
945.425918,-7920.203579,-6741.640382,9696.697840
945.426247,-3701.029710,-10801.946522,5181.441594
945.426577,1480.411884,-11491.432470,-0.000000
945.426906,8216.285956,-9116.536426,-2664.741391
945.427236,11843.295072,-1838.629195,2516.700203
945.427565,10066.800811,9882.631924,7402.059420
945.427895,5181.441594,14709.033562,12139.377449
945.428224,296.082377,14709.033562,15322.262999
945.428554,-5551.544565,13483.280765,18135.045579
945.428883,-8882.471304,8197.221829,19689.478057
945.429213,-10807.006753,-229.828649,16654.633695
945.429542,-10658.965565,-5286.058936,11177.109724
945.429872,-9104.533087,-10725.336972,4589.276840
945.430201,-4589.276840,-13483.280765,-296.082377
945.430531,1184.329507,-13406.671215,-370.102971
945.430860,5921.647536,-7354.516781,2738.761985
945.431190,5255.462188,2681.334243,7624.121203
945.431519,4737.318029,12027.699319,9918.759623
945.431849,4441.235652,15475.129060,11621.233289
945.432178,3552.988522,14555.814462,12879.583391
945.432508,222.061783,9959.241474,18061.024985
945.432838,-3849.070898,3217.601092,19837.519246
945.433167,-9178.553681,76.609550,16136.489536
945.433497,-10807.006753,-2145.067394,10732.986159
945.433826,-9104.533087,-8656.879127,7254.018232
945.434156,-4071.132681,-12563.966167,3478.967927
945.434485,1850.514855,-12257.527968,814.226536
945.434815,7846.182985,-8656.879127,962.267725
945.435144,10140.821405,1225.752797,4071.132681
945.435474,7031.956449,11108.384721,9326.594869
945.435803,4737.318029,13942.938064,12065.356855
945.436133,444.123565,12717.185267,15840.407159
945.436462,-4293.194464,11874.480219,18505.148550
945.436792,-7994.224174,6128.763984,18209.066173
945.437121,-9770.718434,-919.314598,14508.036463
945.437451,-10066.800811,-5515.887586,8660.409521
945.437780,-8438.347739,-11721.261119,3108.864956
945.438110,-2960.823768,-15245.300410,592.164754
945.438439,2368.659014,-12563.966167,1406.391290
945.438769,4219.173869,-4673.182538,4589.276840
945.439098,4663.297435,4136.915689,7772.162391
945.439428,3997.112087,12334.137518,11325.150913
945.439757,5329.482782,15168.690860,11769.274478
945.440087,2886.803174,12334.137518,15544.324782
945.440416,-1258.350101,7967.393179,18061.024985
945.440746,-6439.791695,3677.258390,17246.798449
945.441075,-10140.821405,153.219100,13323.706956
945.441405,-9104.533087,-4443.353888,10066.800811
945.441734,-6513.812290,-9806.022374,5551.544565
945.442064,-1628.453072,-13176.842566,1184.329507
945.442393,4293.194464,-12717.185267,-666.185348
945.442723,8364.327145,-5209.449386,2146.597232
945.443053,8734.430116,6052.154434,7105.977043
945.443382,6143.709319,12717.185267,11325.150913
945.443712,4219.173869,14709.033562,12805.562797
945.444041,-962.267725,13483.280765,16432.571912
945.444371,-4811.338623,9269.755526,19245.354492
945.444700,-9252.574275,3294.210641,17987.004391
945.445030,-11547.212695,-1532.190996,12805.562797
945.445359,-11251.130318,-5898.935335,6809.894666
945.445689,-7105.977043,-12334.137518,1702.473667
945.446018,-1036.288319,-15781.567259,962.267725
945.446348,3923.091493,-11951.089769,2590.720797
945.446677,3997.112087,-1915.238745,5551.544565
945.447007,3701.029710,9193.145976,8660.409521
945.447336,4219.173869,14325.985813,11917.315666
945.447666,4811.338623,16394.443657,12657.521608
945.447995,1850.514855,13866.328514,15396.283594
945.448325,-1554.432478,5132.839837,17912.983796
945.448654,-6883.915261,1455.581446,16654.633695
945.448984,-10658.965565,995.924147,12731.542202
945.449313,-10066.800811,-5669.106685,9326.594869
945.449643,-5699.585753,-11644.651570,5551.544565
945.449972,-1258.350101,-12640.575717,1998.556043
945.450302,5403.503377,-10342.289223,-814.226536
945.450631,9918.759623,-4290.134789,2960.823768
945.450961,9548.656652,7814.174080,7179.997637
945.451290,6365.771101,14249.376263,11251.130318
945.451620,3182.885551,14555.814462,14952.160028
945.451949,-2664.741391,15321.909960,17468.860231
945.452279,-6587.832884,10725.336972,17987.004391
945.452609,-8586.388927,1685.410096,15174.221811
945.452938,-9178.553681,-4060.306139,9844.739029
945.453268,-8512.368333,-8580.269578,4811.338623
945.453597,-3997.112087,-14172.766713,814.226536
945.453927,148.041188,-14709.033562,888.247130
945.454256,3108.864956,-7507.735880,2442.679609
945.454586,2886.803174,1302.362347,7254.018232
945.454915,2886.803174,9499.584175,9918.759623
945.455245,3997.112087,15015.471761,11103.089130
945.455574,3923.091493,14555.814462,13989.892304
945.455904,1480.411884,10112.460574,17616.901420
945.456233,-3849.070898,4903.011187,18357.107362
945.456563,-8438.347739,995.924147,14508.036463
945.456892,-9548.656652,-1455.581446,10140.821405
945.457222,-7624.121203,-7737.564530,7328.038826
945.457551,-2590.720797,-12487.356617,3256.906145
945.457881,2590.720797,-13866.328514,814.226536
945.458210,7772.162391,-8886.707777,1998.556043
945.458540,9030.512492,1685.410096,5551.544565
945.458869,6809.894666,10878.556072,9844.739029
945.459199,4515.256246,13253.452115,12879.583391
945.459528,888.247130,13483.280765,16284.530724
945.459858,-4145.153275,11874.480219,18579.169144
945.460187,-6957.935855,6281.983084,18135.045579
945.460517,-9474.636058,-1532.190996,14063.912898
945.460846,-10510.924376,-5286.058936,7994.224174
945.461176,-8734.430116,-11568.042020,2442.679609
945.461505,-3330.926739,-16011.395908,740.205942
945.461835,1628.453072,-12717.185267,2146.597232
945.462164,3034.844362,-4519.963438,4663.297435
945.462494,2886.803174,3677.258390,8216.285956
945.462824,2368.659014,11568.042020,11473.192101
945.463153,4367.215058,14862.252661,12139.377449
945.463483,3552.988522,13330.061665,15840.407159
945.463812,0.000000,8427.050478,17912.983796
945.464142,-4811.338623,3907.087040,17024.736666
945.464471,-8882.471304,-383.047749,12213.398043
945.464801,-9252.574275,-4060.306139,9104.533087
945.465130,-7179.997637,-9422.974625,5995.668130
945.465460,-2146.597232,-12717.185267,1332.370696
945.465789,3478.967927,-12257.527968,-518.144159
945.466119,7772.162391,-6511.811733,2146.597232
945.466448,8216.285956,4366.744339,7476.080014
945.466778,5625.565159,12027.699319,10288.862594
945.467107,4071.132681,14479.204912,12287.418637
945.467437,-148.041188,13253.452115,16728.654289
945.467766,-4293.194464,10035.851024,18949.272115
945.468096,-7994.224174,4213.525239,17172.777854
945.468425,-10732.986159,-2221.676944,11547.212695
945.468755,-10881.027347,-7048.078582,6217.729913
945.469084,-7179.997637,-12257.527968,2294.638420
945.469414,-1554.432478,-15858.176809,2368.659014
945.469743,2442.679609,-11491.432470,3849.070898
945.470073,3256.906145,-2145.067394,5995.668130
945.470402,3552.988522,7201.297681,8882.471304
945.470732,4441.235652,12180.918418,10881.027347
945.471061,5921.647536,14862.252661,12953.603985
945.471391,2960.823768,11951.089769,16950.716072
945.471720,-296.082377,6818.249932,19245.354492
945.472050,-5847.626942,3983.696590,16802.674883
945.472380,-8216.285956,459.657299,11991.336260
945.472709,-7550.100608,-5515.887586,9104.533087
945.473039,-5477.523971,-10189.070123,5033.400406
945.473368,-1110.308913,-12104.308868,222.061783
945.473698,5329.482782,-10572.117872,-1258.350101
945.474027,9252.574275,-3447.429741,3552.988522
945.474357,8290.306550,7660.954980,8364.327145
945.474686,4367.215058,13176.842566,11695.253884
945.475016,1554.432478,13483.280765,13767.830521
945.475345,-3034.844362,13330.061665,16062.468941
945.475675,-5773.606348,9652.803275,18357.107362
945.476004,-8142.265362,1762.019645,16358.551318
945.476334,-7994.224174,-3524.039291,11325.150913
945.476663,-8882.471304,-7507.735880,5181.441594
945.476993,-5477.523971,-12104.308868,444.123565
945.477322,-296.082377,-13559.890315,296.082377
945.477652,4589.276840,-7660.954980,2960.823768
945.477981,5551.544565,1072.533697,6513.812290
945.478311,5181.441594,8886.707777,9326.594869
945.478640,4737.318029,13559.890315,10436.903782
945.478970,3478.967927,13253.452115,12583.501014
945.479299,148.041188,11031.775171,17468.860231
945.479629,-4515.256246,7431.126331,19837.519246
945.479958,-7994.224174,2145.067394,16802.674883
945.480288,-8660.409521,-2528.115143,10955.047942
945.480617,-8290.306550,-7967.393179,7031.956449
945.480947,-4367.215058,-11951.089769,3997.112087
945.481276,1036.288319,-12870.404366,2368.659014
945.481606,5773.606348,-7431.126331,1554.432478
945.481935,7550.100608,919.314598,4885.359217
945.482265,6291.750507,8886.707777,8956.491898
945.482595,5033.400406,12870.404366,11473.192101
945.482924,1480.411884,12487.356617,14063.912898
945.483254,-2812.782580,10495.508323,17024.736666
945.483583,-6809.894666,6818.249932,18579.169144
945.483913,-9918.759623,383.047749,15766.386565
945.484242,-11325.150913,-4366.744339,10584.944971
945.484572,-9622.677246,-10035.851024,4737.318029
945.484901,-3701.029710,-13330.061665,1554.432478
945.485231,2664.741391,-13559.890315,1480.411884
945.485560,5107.421000,-6818.249932,2886.803174
945.485890,4441.235652,2987.772442,6291.750507
945.486219,4219.173869,9806.022374,10510.924376
945.486549,4367.215058,13559.890315,11917.315666
945.486878,2220.617826,14096.157163,14656.077652
945.487208,-1332.370696,9499.584175,17246.798449
945.487537,-4737.318029,3830.477490,17764.942608
945.487867,-8660.409521,-153.219100,14137.933492
945.488196,-9918.759623,-3907.087040,10214.842000
945.488526,-7402.059420,-9422.974625,6735.874072
945.488855,-3330.926739,-12104.308868,2146.597232
945.489185,2146.597232,-11338.213370,-148.041188
945.489514,6957.935855,-7201.297681,1480.411884
945.489844,8512.368333,2374.896044,5329.482782
945.490173,6735.874072,10725.336972,9178.553681
945.490503,4663.297435,12947.013916,11843.295072
945.490832,296.082377,14096.157163,15840.407159
945.491162,-4219.173869,10495.508323,19023.292709
945.491491,-7624.121203,4213.525239,18653.189738
945.491821,-10436.903782,-842.705048,14211.954086
945.492151,-10362.883188,-4596.572988,9326.594869
945.492480,-6883.915261,-10801.946522,4367.215058
945.492810,-1258.350101,-14402.595362,1628.453072
945.493139,3404.947333,-11491.432470,1554.432478
945.493469,5847.626942,-3983.696590,3923.091493
945.493798,6217.729913,5362.668486,7031.956449
945.494128,5477.523971,12104.308868,9696.697840
945.494457,5181.441594,13636.499864,12583.501014
945.494787,814.226536,12410.747068,16876.695478
945.495116,-3034.844362,8656.879127,19837.519246
945.495446,-8438.347739,3907.087040,18653.189738
945.495775,-11399.171507,229.828649,14434.015869
945.496105,-11029.068536,-4596.572988,10288.862594
945.496434,-8290.306550,-10801.946522,5699.585753
945.496764,-3108.864956,-12947.013916,370.102971
945.497093,3849.070898,-10801.946522,-1776.494261
945.497423,8956.491898,-4443.353888,2516.700203
945.497752,8734.430116,6818.249932,6809.894666
945.498082,4885.359217,14325.985813,8956.491898
945.498411,2146.597232,15858.176809,11029.068536
945.498741,-2220.617826,15704.957709,14285.974681
945.499070,-5477.523971,12334.137518,16506.592507
945.499400,-9326.594869,2451.505594,17394.839637
945.499729,-12879.583391,-4290.134789,13841.851115
945.500059,-15766.386565,-6435.202183,8660.409521
945.500388,-13101.645173,-11491.432470,4441.235652
945.500718,-6143.709319,-14938.862211,4367.215058
945.501047,-592.164754,-9422.974625,4219.173869
945.501377,2368.659014,-2374.896044,4441.235652
945.501706,4885.359217,3140.991542,4737.318029
945.502036,5255.462188,10035.851024,7994.224174
945.502366,4293.194464,15781.567259,12139.377449
945.502695,-518.144159,15781.567259,16432.571912
945.503025,-4811.338623,12257.527968,16728.654289
945.503354,-8660.409521,5362.668486,15396.283594
945.503684,-10881.027347,-2374.896044,12435.459826
945.504013,-11695.253884,-8733.488677,10066.800811
945.504343,-10510.924376,-12257.527968,8216.285956
945.504672,-7476.080014,-12947.013916,6217.729913
945.505002,-3108.864956,-7737.564530,3701.029710
945.505331,1036.288319,-2987.772442,3849.070898
945.505661,4589.276840,1685.410096,5477.523971
945.505990,5255.462188,8120.612279,8512.368333
945.506320,3478.967927,14632.424012,11177.109724
945.506649,296.082377,15551.738609,13397.727550
945.506979,-2664.741391,11568.042020,14359.995275
945.507308,-6957.935855,5362.668486,14063.912898
945.507638,-10362.883188,-3294.210641,13175.665768
945.507967,-13249.686362,-8044.002729,11991.336260
945.508297,-13767.830521,-10112.460574,9548.656652
945.508626,-12213.398043,-11261.603821,7105.977043
945.508956,-8808.450710,-9346.365076,4811.338623
945.509285,-3478.967927,-5669.106685,4959.379811
945.509615,2146.597232,0.000000,5773.606348
945.509944,4737.318029,5286.058936,6883.915261
945.510274,4737.318029,11568.042020,8290.306550
945.510603,2368.659014,14402.595362,10955.047942
945.510933,518.144159,11031.775171,13027.624579
945.511262,-2664.741391,6665.030833,13619.789333
945.511592,-6291.750507,2374.896044,12287.418637
945.511922,-8660.409521,-3064.381992,10140.821405
945.512251,-10066.800811,-7814.174080,8586.388927
945.512581,-9770.718434,-9499.584175,7994.224174
945.512910,-7994.224174,-8197.221829,7550.100608
945.513240,-5107.421000,-4673.182538,7105.977043
945.513569,-1924.535449,0.000000,7105.977043
945.513899,222.061783,3677.258390,8512.368333
945.514228,1702.473667,7354.516781,10436.903782
945.514558,1554.432478,9882.631924,11547.212695
945.514887,-148.041188,8656.879127,11843.295072
945.515217,-2738.761985,6435.202183,12583.501014
945.515546,-5699.585753,3447.429741,12731.542202
945.515876,-7994.224174,-1149.143247,11695.253884
945.516205,-9178.553681,-5132.839837,9252.574275
945.516535,-9030.512492,-6665.030833,6957.935855
945.516864,-7031.956449,-6128.763984,6365.771101
945.517194,-4441.235652,-3447.429741,6809.894666
945.517523,-2146.597232,-383.047749,7254.018232
945.517853,0.000000,2451.505594,7698.141797
945.518182,1480.411884,5822.325785,8734.430116
945.518512,1184.329507,9116.536426,10140.821405
945.518841,-148.041188,9346.365076,11473.192101
945.519171,-2368.659014,5669.106685,12583.501014
945.519500,-4293.194464,3447.429741,12731.542202
945.519830,-6439.791695,1838.629195,12139.377449
945.520159,-8068.244768,-1072.533697,11177.109724
945.520489,-7772.162391,-3370.820191,9622.677246
945.520818,-6883.915261,-3677.258390,8290.306550
945.521148,-5033.400406,-1608.800546,6661.853478
945.521477,-2960.823768,689.485948,5995.668130
945.521806,-518.144159,2834.553343,7031.956449
945.522136,0.000000,5592.497135,7920.203579
945.522465,-666.185348,7048.078582,8364.327145
945.522795,-1332.370696,6665.030833,8512.368333
945.523124,-2294.638420,3524.039291,8956.491898
945.523454,-2812.782580,2145.067394,9918.759623
945.523783,-3849.070898,1225.752797,10436.903782
945.524113,-4589.276840,-229.828649,10288.862594
945.524442,-4145.153275,-1225.752797,9622.677246
945.524772,-3182.885551,-842.705048,9770.718434
945.525101,-2146.597232,1762.019645,9992.780217
945.525431,-1110.308913,3600.648841,10362.883188
945.525760,-592.164754,4749.792088,10436.903782
945.526090,-222.061783,5669.106685,10214.842000
945.526419,-222.061783,5822.325785,10510.924376
945.526748,-666.185348,5286.058936,10288.862594
945.527078,-1332.370696,3983.696590,10214.842000
945.527407,-1628.453072,2911.162892,9770.718434
945.527737,-1628.453072,2145.067394,9178.553681
945.528066,-1554.432478,1225.752797,8956.491898
945.528396,-1480.411884,1225.752797,9400.615463
945.528725,-1406.391290,2451.505594,9770.718434
945.529055,-1480.411884,5286.058936,10436.903782
945.529384,-2220.617826,6818.249932,10807.006753
945.529714,-2664.741391,6971.469032,10881.027347
945.530043,-2960.823768,6665.030833,10066.800811
945.530373,-2960.823768,6511.811733,8660.409521
945.530702,-2664.741391,4366.744339,7402.059420
945.531032,-1110.308913,2911.162892,6217.729913
945.531361,-518.144159,1455.581446,5477.523971
945.531690,-148.041188,766.095498,5847.626942
945.532020,-888.247130,1685.410096,6661.853478
945.532349,-1258.350101,4213.525239,8216.285956
945.532679,-2220.617826,5745.716235,9400.615463
945.533008,-2664.741391,6205.373534,10362.883188
945.533338,-2146.597232,6741.640382,10955.047942
945.533667,-1480.411884,6435.202183,10584.944971
945.533997,-370.102971,5745.716235,9844.739029
945.534326,-148.041188,4290.134789,9844.739029
945.534656,-518.144159,3830.477490,9622.677246
945.534985,-1036.288319,3294.210641,9326.594869
945.535315,-1110.308913,3064.381992,8808.450710
945.535644,-592.164754,2987.772442,8364.327145
945.535974,148.041188,3447.429741,9548.656652
945.536303,222.061783,2911.162892,9844.739029
945.536632,-444.123565,3140.991542,10658.965565
945.536962,-1628.453072,4443.353888,11103.089130
945.537291,-1998.556043,5439.278036,11917.315666
945.537621,-1850.514855,4903.011187,11547.212695
945.537950,-1628.453072,4366.744339,11843.295072
945.538280,-1332.370696,3524.039291,10807.006753
945.538609,-962.267725,3600.648841,9918.759623
945.538939,-370.102971,3677.258390,9474.636058
945.539268,296.082377,5132.839837,9548.656652
945.539598,296.082377,5286.058936,8586.388927
945.539927,666.185348,4213.525239,7328.038826
945.540257,444.123565,3217.601092,6291.750507
945.540586,444.123565,2374.896044,6439.791695
945.540916,-518.144159,1991.848295,7105.977043
945.541245,-1924.535449,1991.848295,8956.491898
945.541574,-3404.947333,2451.505594,9696.697840
945.541904,-3552.988522,2834.553343,10584.944971
945.542233,-2812.782580,3600.648841,11325.150913
945.542563,-2368.659014,4673.182538,11177.109724
945.542892,-1332.370696,4903.011187,10362.883188
945.543222,-1036.288319,5975.544884,9474.636058
945.543551,370.102971,5745.716235,9326.594869
945.543881,1036.288319,5209.449386,8882.471304
945.544210,222.061783,5132.839837,8290.306550
945.544540,-814.226536,4366.744339,7624.121203
945.544869,-2072.576638,2834.553343,7031.956449
945.545199,-2516.700203,842.705048,6735.874072
945.545528,-2442.679609,-536.266849,7402.059420
945.545858,-2368.659014,-1302.362347,8512.368333
945.546187,-2146.597232,-919.314598,9252.574275
945.546516,-2368.659014,689.485948,10584.944971
945.546846,-1628.453072,2528.115143,11473.192101
945.547175,-962.267725,4290.134789,12065.356855
945.547505,0.000000,5286.058936,13027.624579
945.547834,74.020594,5592.497135,12435.459826
945.548164,74.020594,5515.887586,11399.171507
945.548493,0.000000,3830.477490,9992.780217
945.548823,-370.102971,2451.505594,9326.594869
945.549152,-740.205942,1225.752797,9178.553681
945.549482,-1480.411884,689.485948,8438.347739
945.549811,-1924.535449,689.485948,8734.430116
945.550141,-2368.659014,536.266849,8438.347739
945.550470,-1480.411884,0.000000,8068.244768
945.550799,-370.102971,0.000000,8808.450710
945.551129,222.061783,1302.362347,10066.800811
945.551458,74.020594,3140.991542,10658.965565
945.551788,-740.205942,3677.258390,10881.027347
945.552117,-1332.370696,4443.353888,11325.150913
945.552447,-1776.494261,4443.353888,11843.295072
