#time,accel_x,accel_y,accel_z
1116.975533,-1110.308913,1072.533697,9474.636058
1116.975863,-1036.288319,919.314598,9548.656652
1116.976192,-1110.308913,995.924147,9474.636058
1116.976522,-962.267725,995.924147,9622.677246
1116.976852,-814.226536,1149.143247,9622.677246
1116.977181,-1036.288319,1072.533697,9474.636058
1116.977511,-962.267725,995.924147,9474.636058
1116.977841,-1036.288319,919.314598,9474.636058
1116.978171,-1036.288319,842.705048,9548.656652
1116.978500,-814.226536,612.876398,9104.533087
1116.978830,-888.247130,1072.533697,9696.697840
1116.979160,-962.267725,1072.533697,9474.636058
1116.979489,-1110.308913,842.705048,9474.636058
1116.979819,-1036.288319,689.485948,9474.636058
1116.980149,-1184.329507,1072.533697,9326.594869
1116.980479,-1036.288319,919.314598,9400.615463
1116.980808,-962.267725,689.485948,9474.636058
1116.981138,-1036.288319,995.924147,9548.656652
1116.981468,-962.267725,919.314598,9474.636058
1116.981798,-814.226536,995.924147,9696.697840
1116.982127,-1036.288319,995.924147,9326.594869
1116.982457,-962.267725,842.705048,9696.697840
1116.982787,-1036.288319,842.705048,9622.677246
1116.983116,-1184.329507,995.924147,9548.656652
1116.983446,-1036.288319,383.047749,9622.677246
1116.983776,-814.226536,1149.143247,9622.677246
1116.984106,-962.267725,919.314598,9548.656652
1116.984435,-1184.329507,1072.533697,9696.697840
1116.984765,-888.247130,1149.143247,9622.677246
1116.985095,-1036.288319,919.314598,9622.677246
1116.985424,-1184.329507,1378.971896,9548.656652
1116.985754,-962.267725,1302.362347,9696.697840
1116.986084,-1036.288319,842.705048,9622.677246
1116.986414,-1036.288319,995.924147,9548.656652
1116.986743,-1036.288319,842.705048,9474.636058
1116.987073,-1332.370696,1072.533697,9030.512492
1116.987403,-666.185348,1378.971896,9474.636058
1116.987733,-1036.288319,1072.533697,9474.636058
1116.988062,-1036.288319,689.485948,9474.636058
1116.988392,-1036.288319,842.705048,9622.677246
1116.988722,-1036.288319,842.705048,9474.636058
1116.989051,-888.247130,919.314598,9400.615463
1116.989381,-1110.308913,995.924147,9474.636058
1116.989711,-1332.370696,1149.143247,9474.636058
1116.990041,-1110.308913,919.314598,9474.636058
1116.990370,-888.247130,842.705048,9400.615463
1116.990700,-814.226536,536.266849,9474.636058
1116.991030,-814.226536,459.657299,9326.594869
1116.991360,-1110.308913,995.924147,9696.697840
1116.991689,-888.247130,995.924147,9474.636058
1116.992019,-888.247130,1072.533697,9548.656652
1116.992349,-1036.288319,1225.752797,9326.594869
1116.992678,-962.267725,995.924147,9770.718434
1116.993008,-1110.308913,919.314598,9474.636058
1116.993338,-888.247130,995.924147,9622.677246
1116.993668,-1184.329507,919.314598,9474.636058
1116.993997,-962.267725,766.095498,9474.636058
1116.994327,-962.267725,1225.752797,9474.636058
1116.994657,-888.247130,842.705048,9770.718434
1116.994986,-888.247130,1072.533697,9696.697840
1116.995316,-1036.288319,995.924147,9770.718434
1116.995646,-1110.308913,842.705048,9474.636058
1116.995976,-1036.288319,919.314598,9474.636058
1116.996305,-888.247130,842.705048,9474.636058
1116.996635,-296.082377,919.314598,9252.574275
1116.996965,518.144159,689.485948,9178.553681
1116.997295,1036.288319,536.266849,9474.636058
1116.997624,1036.288319,766.095498,9474.636058
1116.997954,740.205942,995.924147,9992.780217
1116.998284,0.000000,842.705048,9992.780217
1116.998613,-518.144159,995.924147,10066.800811
1116.998943,-814.226536,689.485948,10214.842000
1116.999273,-444.123565,153.219100,10288.862594
1116.999603,0.000000,0.000000,9400.615463
1116.999932,444.123565,76.609550,9400.615463
1117.000262,1406.391290,0.000000,9104.533087
1117.000592,2368.659014,536.266849,8956.491898
1117.000921,3108.864956,1072.533697,8808.450710
1117.001251,3627.009116,1455.581446,9030.512492
1117.001581,3849.070898,1685.410096,9400.615463
1117.001911,3627.009116,1455.581446,9992.780217
1117.002240,2738.761985,1149.143247,9992.780217
1117.002570,2072.576638,1225.752797,10362.883188
1117.002900,1628.453072,995.924147,10584.944971
1117.003230,1554.432478,76.609550,10658.965565
1117.003559,1998.556043,-229.828649,10288.862594
1117.003889,2220.617826,0.000000,9548.656652
1117.004219,2812.782580,-383.047749,9178.553681
1117.004548,3552.988522,153.219100,9252.574275
1117.004878,3849.070898,1378.971896,9326.594869
1117.005208,3849.070898,2374.896044,9548.656652
1117.005538,2960.823768,2987.772442,10066.800811
1117.005867,1554.432478,2987.772442,10436.903782
1117.006197,74.020594,2681.334243,10436.903782
1117.006527,-1554.432478,2911.162892,9770.718434
1117.006856,-1998.556043,1149.143247,8956.491898
1117.007186,-962.267725,-459.657299,7772.162391
1117.007516,592.164754,-1149.143247,7105.977043
1117.007846,1998.556043,-1149.143247,6513.812290
1117.008175,3034.844362,-536.266849,6365.771101
1117.008505,4293.194464,1302.362347,7772.162391
1117.008835,3034.844362,2834.553343,9696.697840
1117.009165,1776.494261,4443.353888,11621.233289
1117.009494,1036.288319,4213.525239,12361.439231
1117.009824,74.020594,2604.724693,12953.603985
1117.010154,-666.185348,1149.143247,13027.624579
1117.010483,-1258.350101,-306.438199,12287.418637
1117.010813,-1184.329507,-1532.190996,10584.944971
1117.011143,0.000000,-2298.286494,8808.450710
1117.011473,1702.473667,-2068.457845,7772.162391
1117.011802,3404.947333,-1072.533697,6809.894666
1117.012132,4663.297435,-306.438199,6217.729913
1117.012462,5107.421000,1302.362347,6735.874072
1117.012792,4663.297435,3294.210641,7772.162391
1117.013121,3923.091493,4519.963438,9252.574275
1117.013451,3552.988522,4519.963438,10658.965565
1117.013781,2812.782580,3447.429741,11029.068536
1117.014110,1258.350101,2298.286494,11399.171507
1117.014440,296.082377,76.609550,11547.212695
1117.014770,-444.123565,-1149.143247,11251.130318
1117.015100,-1110.308913,-1378.971896,10955.047942
1117.015429,-962.267725,-1838.629195,11399.171507
1117.015759,-666.185348,-1302.362347,10807.006753
1117.016089,296.082377,-306.438199,10066.800811
1117.016418,1184.329507,153.219100,8956.491898
1117.016748,2516.700203,383.047749,7624.121203
1117.017078,4367.215058,459.657299,7698.141797
1117.017408,5403.503377,919.314598,7772.162391
1117.017737,5477.523971,766.095498,8068.244768
1117.018067,4589.276840,1149.143247,8882.471304
1117.018397,3182.885551,1455.581446,9696.697840
1117.018727,2368.659014,1455.581446,10436.903782
1117.019056,2072.576638,1915.238745,11251.130318
1117.019386,1332.370696,1302.362347,11547.212695
1117.019716,740.205942,1685.410096,10584.944971
1117.020045,592.164754,1072.533697,10140.821405
1117.020375,888.247130,383.047749,8808.450710
1117.020705,1702.473667,995.924147,7846.182985
1117.021035,2442.679609,383.047749,7846.182985
1117.021364,2664.741391,306.438199,8364.327145
1117.021694,2146.597232,689.485948,8364.327145
1117.022024,962.267725,842.705048,9030.512492
1117.022353,-222.061783,919.314598,9326.594869
1117.022683,-740.205942,1149.143247,10658.965565
1117.023013,-740.205942,459.657299,11473.192101
1117.023343,-888.247130,153.219100,11695.253884
1117.023672,-1332.370696,306.438199,11177.109724
1117.024002,-444.123565,842.705048,10362.883188
1117.024332,1258.350101,306.438199,9178.553681
1117.024662,3330.926739,842.705048,8956.491898
1117.024991,5551.544565,1915.238745,8068.244768
1117.025321,8068.244768,2604.724693,7105.977043
1117.025651,9474.636058,3064.381992,7254.018232
1117.025980,8586.388927,3524.039291,8512.368333
1117.026310,6069.688724,4903.011187,9992.780217
1117.026640,3404.947333,5056.230287,11843.295072
1117.026970,444.123565,3294.210641,13693.809927
1117.027299,-3330.926739,1685.410096,13989.892304
1117.027629,-5995.668130,-536.266849,12953.603985
1117.027959,-7550.100608,-2757.943793,11547.212695
1117.028288,-7402.059420,-3600.648841,8882.471304
1117.028618,-4737.318029,-3294.210641,5477.523971
1117.028948,370.102971,-3907.087040,2738.761985
1117.029278,7031.956449,-3753.867940,1480.411884
1117.029607,10658.965565,-1149.143247,2960.823768
1117.029937,11029.068536,3370.820191,5921.647536
1117.030267,9400.615463,7584.345430,8882.471304
1117.030597,7179.997637,9729.412825,12065.356855
1117.030926,3997.112087,10112.460574,14211.954086
1117.031256,666.185348,5439.278036,16284.530724
1117.031586,-3034.844362,612.876398,17987.004391
1117.031915,-6143.709319,-995.924147,16136.489536
1117.032245,-6883.915261,-2757.943793,12509.480420
1117.032575,-4071.132681,-5898.935335,9770.718434
1117.032905,1406.391290,-7737.564530,6809.894666
1117.033234,5033.400406,-6205.373534,3404.947333
1117.033564,9104.533087,-3830.477490,518.144159
1117.033894,11991.336260,-76.609550,2368.659014
1117.034223,11917.315666,4826.401637,6883.915261
1117.034553,7328.038826,8427.050478,11029.068536
1117.034883,1480.411884,8733.488677,13027.624579
1117.035213,-2516.700203,8120.612279,14508.036463
1117.035542,-3849.070898,3983.696590,15840.407159
1117.035872,-4293.194464,-766.095498,14804.118840
1117.036202,-3849.070898,-5056.230287,11251.130318
1117.036532,-1628.453072,-8350.440928,6513.812290
1117.036861,1406.391290,-8120.612279,4663.297435
1117.037191,3701.029710,-5362.668486,6217.729913
1117.037521,3849.070898,-995.924147,7698.141797
1117.037850,2886.803174,2451.505594,8438.347739
1117.038180,2960.823768,5822.325785,9770.718434
1117.038510,4441.235652,6741.640382,11917.315666
1117.038840,4589.276840,4979.620737,13249.686362
1117.039169,3108.864956,2451.505594,12065.356855
1117.039499,518.144159,-919.314598,11399.171507
1117.039829,-888.247130,-1838.629195,11547.212695
1117.040159,-1850.514855,-1532.190996,10881.027347
1117.040488,-2368.659014,-2451.505594,8586.388927
1117.040818,-148.041188,-4136.915689,6439.791695
1117.041148,3478.967927,-3064.381992,5403.503377
1117.041477,7105.977043,-383.047749,5255.462188
1117.041807,10066.800811,2145.067394,5477.523971
1117.042137,9474.636058,4596.572988,7550.100608
1117.042467,6217.729913,6588.421283,10436.903782
1117.042796,2368.659014,7967.393179,13397.727550
1117.043126,-962.267725,6435.202183,16136.489536
1117.043456,-3034.844362,3370.820191,16432.571912
1117.043785,-5403.503377,0.000000,14211.954086
1117.044115,-5921.647536,-3140.991542,11843.295072
1117.044445,-4811.338623,-5515.887586,10732.986159
1117.044775,-3552.988522,-6128.763984,8586.388927
1117.045104,-3404.947333,-3600.648841,5181.441594
1117.045434,-666.185348,-1072.533697,2442.679609
1117.045763,5033.400406,1149.143247,3775.050304
1117.046093,10510.924376,2911.162892,5699.585753
1117.046423,11695.253884,4903.011187,6957.935855
1117.046752,10955.047942,7201.297681,7254.018232
1117.047082,9104.533087,9499.584175,9622.677246
1117.047411,6661.853478,9806.022374,12953.603985
1117.047741,3330.926739,7814.174080,15026.180623
1117.048070,0.000000,2987.772442,14804.118840
1117.048400,-1998.556043,-383.047749,13619.789333
1117.048730,-3182.885551,-1225.752797,11843.295072
1117.049059,-3627.009116,-2604.724693,11251.130318
1117.049389,-4367.215058,-4060.306139,10510.924376
1117.049718,-5699.585753,-3064.381992,8734.430116
1117.050048,-3775.050304,76.609550,5551.544565
1117.050378,2368.659014,536.266849,1628.453072
1117.050707,9844.739029,536.266849,1480.411884
1117.051037,13249.686362,306.438199,2664.741391
1117.051366,12435.459826,2221.676944,5329.482782
1117.051696,8512.368333,4979.620737,7846.182985
1117.052026,5773.606348,7814.174080,11695.253884
1117.052355,4663.297435,7584.345430,16210.510130
1117.052685,1258.350101,3140.991542,18653.189738
1117.053014,-2442.679609,-842.705048,17690.922014
1117.053344,-4811.338623,-3524.039291,14211.954086
1117.053673,-5551.544565,-5439.278036,11695.253884
1117.054003,-5921.647536,-4673.182538,11843.295072
1117.054333,-5625.565159,-3217.601092,11621.233289
1117.054662,-1406.391290,-3600.648841,5921.647536
1117.054992,5921.647536,-2374.896044,2220.617826
1117.055321,11991.336260,-1608.800546,1110.308913
1117.055651,12361.439231,229.828649,3552.988522
1117.055981,7105.977043,4826.401637,6365.771101
1117.056310,3478.967927,8656.879127,10807.006753
1117.056640,3552.988522,9422.974625,15174.221811
1117.056969,296.082377,7354.516781,18579.169144
1117.057299,-6069.688724,3217.601092,16358.551318
1117.057628,-9474.636058,-4673.182538,12435.459826
1117.057958,-7624.121203,-8886.707777,11251.130318
1117.058288,-4737.318029,-7124.688131,10214.842000
1117.058617,-1406.391290,-5669.106685,8882.471304
1117.058947,370.102971,-3983.696590,6143.709319
1117.059276,4145.153275,-2068.457845,2812.782580
1117.059606,9992.780217,-306.438199,2220.617826
1117.059936,15100.201217,3217.601092,5921.647536
1117.060265,14211.954086,9652.803275,9992.780217
1117.060595,8068.244768,12027.699319,13175.665768
1117.060924,1332.370696,8427.050478,15618.345376
1117.061254,-4219.173869,6281.983084,16876.695478
1117.061584,-7254.018232,4060.306139,15396.283594
1117.061913,-7328.038826,-1302.362347,12953.603985
1117.062243,-5773.606348,-4673.182538,8808.450710
1117.062572,-2220.617826,-8044.002729,2368.659014
1117.062902,3182.885551,-9959.241474,-2590.720797
1117.063231,7920.203579,-8427.050478,-2072.576638
1117.063561,9992.780217,-1608.800546,2590.720797
1117.063891,7624.121203,6052.154434,8438.347739
1117.064220,3256.906145,11338.213370,12657.521608
1117.064550,-1332.370696,12870.404366,14211.954086
1117.064879,-4663.297435,9269.755526,16358.551318
1117.065209,-4885.359217,5286.058936,19245.354492
1117.065539,-4441.235652,383.047749,18283.086767
1117.065868,-5255.462188,-2604.724693,11991.336260
1117.066198,-5181.441594,-5592.497135,3923.091493
1117.066527,-1258.350101,-8503.660028,1258.350101
1117.066857,4811.338623,-9269.755526,3034.844362
1117.067186,7550.100608,-4290.134789,7994.224174
1117.067516,6069.688724,3677.258390,9696.697840
1117.067846,1850.514855,10265.679673,8364.327145
1117.068175,-740.205942,10725.336972,7994.224174
1117.068505,-222.061783,7354.516781,12879.583391
1117.068834,296.082377,6128.763984,17616.901420
1117.069164,-1554.432478,4519.963438,15914.427753
1117.069494,-4071.132681,1685.410096,11029.068536
1117.069823,-4811.338623,-2145.067394,8956.491898
1117.070153,-2442.679609,-5286.058936,9178.553681
1117.070482,-888.247130,-6741.640382,9474.636058
1117.070812,-592.164754,-3907.087040,7402.059420
1117.071142,-518.144159,536.266849,5329.482782
1117.071471,74.020594,1302.362347,5995.668130
1117.071801,518.144159,3447.429741,10288.862594
1117.072130,592.164754,3983.696590,11695.253884
1117.072460,-1776.494261,4826.401637,11251.130318
1117.072789,-3478.967927,5515.887586,10066.800811
1117.073119,-2146.597232,2987.772442,10288.862594
1117.073449,-888.247130,-766.095498,10066.800811
1117.073778,-1406.391290,-5209.449386,9326.594869
1117.074108,-2220.617826,-5132.839837,6439.791695
1117.074437,-1480.411884,-2528.115143,4959.379811
1117.074767,-518.144159,-1838.629195,4737.318029
1117.075097,-1628.453072,-1302.362347,8438.347739
1117.075426,-3627.009116,383.047749,10881.027347
1117.075756,-3552.988522,4136.915689,9918.759623
1117.076085,-1110.308913,4366.744339,7402.059420
1117.076415,888.247130,2298.286494,8438.347739
1117.076744,1702.473667,2221.676944,10510.924376
1117.077074,962.267725,-842.705048,12731.542202
1117.077404,-1480.411884,-2298.286494,11991.336260
1117.077733,-5181.441594,1378.971896,11695.253884
1117.078063,-6735.874072,3524.039291,11843.295072
1117.078392,-4219.173869,-612.876398,13249.686362
1117.078722,-888.247130,-5286.058936,11843.295072
1117.079052,148.041188,-2987.772442,7624.121203
1117.079381,1184.329507,229.828649,5921.647536
1117.079711,3478.967927,229.828649,7698.141797
1117.080040,3923.091493,3064.381992,11621.233289
1117.080370,1850.514855,4519.963438,12065.356855
1117.080700,0.000000,4213.525239,10732.986159
1117.081029,-444.123565,3600.648841,9770.718434
1117.081359,962.267725,3294.210641,10510.924376
1117.081688,148.041188,459.657299,11769.274478
1117.082018,-2368.659014,-1838.629195,10955.047942
1117.082347,-4145.153275,-1072.533697,8956.491898
1117.082677,-3034.844362,0.000000,8142.265362
1117.083007,-592.164754,919.314598,8734.430116
1117.083336,888.247130,2221.676944,8364.327145
1117.083666,888.247130,612.876398,6957.935855
1117.083995,814.226536,1072.533697,5329.482782
1117.084325,-296.082377,3370.820191,6513.812290
1117.084655,-296.082377,4596.572988,8734.430116
1117.084984,-1628.453072,2528.115143,10066.800811
1117.085314,-3478.967927,1072.533697,9770.718434
1117.085643,-4293.194464,-229.828649,7624.121203
1117.085973,-2220.617826,-995.924147,7550.100608
1117.086302,962.267725,-1455.581446,8882.471304
1117.086632,1702.473667,-153.219100,9918.759623
1117.086962,0.000000,0.000000,9400.615463
1117.087291,-1480.411884,1685.410096,9104.533087
1117.087621,-1110.308913,4060.306139,9104.533087
1117.087950,0.000000,4903.011187,9474.636058
1117.088280,296.082377,3294.210641,10881.027347
1117.088610,-1332.370696,766.095498,11769.274478
1117.088939,-2886.803174,689.485948,11547.212695
1117.089269,-3552.988522,995.924147,11103.089130
1117.089598,-2368.659014,229.828649,12139.377449
1117.089928,-2368.659014,-1149.143247,12287.418637
1117.090258,-3182.885551,-2145.067394,11473.192101
1117.090587,-3108.864956,-229.828649,10436.903782
1117.090917,-1628.453072,1225.752797,9252.574275
1117.091246,296.082377,1915.238745,9178.553681
1117.091576,814.226536,2068.457845,9622.677246
1117.091905,0.000000,1072.533697,8956.491898
1117.092235,222.061783,919.314598,7550.100608
1117.092565,962.267725,842.705048,7920.203579
1117.092894,2294.638420,1378.971896,9030.512492
1117.093224,1110.308913,1608.800546,9030.512492
1117.093553,-2516.700203,-1302.362347,8586.388927
1117.093883,-6291.750507,-383.047749,9770.718434
1117.094213,-7031.956449,3140.991542,10214.842000
1117.094542,-4663.297435,2374.896044,10066.800811
1117.094872,-2960.823768,-1455.581446,9030.512492
1117.095201,-4145.153275,-2145.067394,6587.832884
1117.095531,-3034.844362,0.000000,4737.318029
1117.095860,1258.350101,-1072.533697,4663.297435
1117.096190,4145.153275,-383.047749,6957.935855
1117.096520,1110.308913,1455.581446,9622.677246
1117.096849,-2886.803174,4060.306139,9918.759623
1117.097179,-3182.885551,2757.943793,10584.944971
1117.097508,-370.102971,1302.362347,11473.192101
1117.097838,74.020594,1532.190996,11325.150913
1117.098168,-1110.308913,842.705048,11621.233289
1117.098497,-1110.308913,-842.705048,11251.130318
1117.098827,-370.102971,-995.924147,11399.171507
1117.099156,518.144159,2451.505594,11399.171507
1117.099486,888.247130,3447.429741,12065.356855
1117.099816,1628.453072,1455.581446,11843.295072
1117.100145,444.123565,1762.019645,10510.924376
1117.100475,0.000000,2681.334243,8956.491898
1117.100804,444.123565,1532.190996,9844.739029
1117.101134,-296.082377,842.705048,11177.109724
1117.101463,-2738.761985,1608.800546,11029.068536
1117.101793,-3849.070898,1378.971896,9696.697840
1117.102123,-1924.535449,-383.047749,8808.450710
1117.102452,740.205942,-306.438199,8438.347739
1117.102782,888.247130,689.485948,8956.491898
1117.103111,0.000000,842.705048,8660.409521
1117.103441,-740.205942,1455.581446,7254.018232
1117.103771,-888.247130,2451.505594,7772.162391
1117.104100,-814.226536,3370.820191,8216.285956
1117.104430,-1406.391290,2834.553343,9178.553681
1117.104759,-1924.535449,459.657299,8068.244768
1117.105089,-888.247130,-842.705048,6143.709319
1117.105418,740.205942,-536.266849,5699.585753
1117.105748,1850.514855,-919.314598,6809.894666
1117.106078,518.144159,-842.705048,8734.430116
1117.106407,-1924.535449,689.485948,9104.533087
1117.106737,-3478.967927,2528.115143,9030.512492
1117.107066,-2590.720797,2528.115143,9474.636058
1117.107396,-888.247130,2374.896044,10881.027347
1117.107726,-1628.453072,1532.190996,11917.315666
1117.108055,-3108.864956,689.485948,10288.862594
1117.108385,-1850.514855,612.876398,7920.203579
1117.108714,1036.288319,-842.705048,8290.306550
1117.109044,2368.659014,-2374.896044,11103.089130
1117.109374,962.267725,-536.266849,13767.830521
1117.109703,-2368.659014,995.924147,12731.542202
1117.110033,-3701.029710,1149.143247,11547.212695
1117.110362,-3256.906145,2298.286494,12065.356855
1117.110692,-1332.370696,2681.334243,13619.789333
1117.111021,-740.205942,-383.047749,13915.871710
1117.111351,-1554.432478,-1072.533697,10807.006753
1117.111681,-1480.411884,536.266849,8142.265362
1117.112010,370.102971,76.609550,7846.182985
1117.112340,2368.659014,-383.047749,9474.636058
1117.112669,1332.370696,306.438199,9474.636058
1117.112999,-1924.535449,1149.143247,7031.956449
1117.113329,-3923.091493,766.095498,7105.977043
1117.113658,-3034.844362,2604.724693,8068.244768
1117.113988,-2368.659014,2604.724693,8512.368333
1117.114317,-3404.947333,-1685.410096,8956.491898
1117.114647,-5033.400406,-1302.362347,8068.244768
1117.114976,-4145.153275,1532.190996,7328.038826
1117.115306,-1184.329507,766.095498,7031.956449
1117.115636,1184.329507,-1608.800546,6513.812290
1117.115965,-592.164754,459.657299,7254.018232
1117.116295,-1332.370696,2911.162892,6883.915261
1117.116624,-666.185348,1915.238745,7846.182985
1117.116954,1036.288319,2911.162892,8882.471304
1117.117284,814.226536,3370.820191,10066.800811
1117.117613,-1554.432478,536.266849,10955.047942
1117.117943,-2516.700203,-383.047749,11547.212695
1117.118272,-1924.535449,1378.971896,11547.212695
1117.118602,-370.102971,1149.143247,10807.006753
1117.118932,-148.041188,-306.438199,11177.109724
1117.119261,-1110.308913,-689.485948,11843.295072
1117.119591,-740.205942,612.876398,11917.315666
1117.119920,-888.247130,1991.848295,11103.089130
1117.120250,-740.205942,2757.943793,11917.315666
1117.120579,0.000000,3064.381992,11621.233289
1117.120909,-222.061783,1225.752797,10584.944971
1117.121239,888.247130,-229.828649,8956.491898
1117.121568,2368.659014,0.000000,8808.450710
1117.121898,3404.947333,1685.410096,9474.636058
1117.122227,1554.432478,2145.067394,9844.739029
1117.122557,-1850.514855,383.047749,11843.295072
1117.122887,-3108.864956,2757.943793,10881.027347
1117.123216,-3034.844362,4903.011187,9622.677246
1117.123546,-1332.370696,1455.581446,9474.636058
1117.123875,-2220.617826,459.657299,9178.553681
1117.124205,-3108.864956,536.266849,7179.997637
1117.124534,-2294.638420,-459.657299,4737.318029
1117.124864,-222.061783,-766.095498,4737.318029
1117.125194,444.123565,1302.362347,5921.647536
1117.125523,-222.061783,919.314598,6809.894666
1117.125853,-1850.514855,-1685.410096,6883.915261
1117.126182,-2812.782580,1149.143247,7550.100608
1117.126512,-3256.906145,3677.258390,9474.636058
1117.126842,-3034.844362,3140.991542,11695.253884
1117.127171,-3404.947333,2068.457845,11769.274478
1117.127501,-3627.009116,536.266849,10288.862594
1117.127830,-1258.350101,-1225.752797,8216.285956
1117.128160,1628.453072,-1455.581446,8586.388927
1117.128489,2368.659014,-306.438199,10066.800811
1117.128819,962.267725,383.047749,11029.068536
1117.129149,-1702.473667,842.705048,11695.253884
1117.129478,-2294.638420,2604.724693,11843.295072
1117.129808,-1258.350101,2451.505594,12361.439231
1117.130137,-888.247130,1072.533697,13471.748144
1117.130467,-1850.514855,1225.752797,13027.624579
1117.130797,-2516.700203,-842.705048,10584.944971
1117.131126,-888.247130,-1225.752797,9178.553681
1117.131456,888.247130,-842.705048,10658.965565
1117.131785,222.061783,842.705048,10732.986159
1117.132115,-2072.576638,536.266849,10214.842000
1117.132445,-2664.741391,229.828649,9326.594869
1117.132774,-1850.514855,1915.238745,8290.306550
1117.133104,-962.267725,842.705048,8438.347739
1117.133433,-1110.308913,-383.047749,10362.883188
1117.133763,-2664.741391,1378.971896,10214.842000
1117.134092,-2886.803174,1149.143247,7994.224174
1117.134422,-1406.391290,-1532.190996,5773.606348
1117.134752,444.123565,-1149.143247,6661.853478
1117.135081,222.061783,1991.848295,7550.100608
1117.135411,-296.082377,612.876398,8364.327145
1117.135740,-1258.350101,0.000000,8216.285956
1117.136070,-2664.741391,4290.134789,7105.977043
1117.136400,-2960.823768,3753.867940,7328.038826
1117.136729,-1332.370696,-383.047749,9400.615463
1117.137059,-1406.391290,612.876398,10732.986159
1117.137388,-2146.597232,1532.190996,8364.327145
1117.137718,-1628.453072,0.000000,6883.915261
1117.138047,296.082377,-383.047749,8660.409521
1117.138377,1258.350101,612.876398,11547.212695
1117.138707,-888.247130,1762.019645,11843.295072
1117.139036,-3404.947333,2145.067394,11177.109724
1117.139366,-3108.864956,3294.210641,11473.192101
1117.139695,-1332.370696,2911.162892,12657.521608
1117.140025,0.000000,766.095498,13471.748144
1117.140355,-1332.370696,0.000000,12509.480420
1117.140684,-1258.350101,766.095498,10214.842000
1117.141014,370.102971,2298.286494,8660.409521
1117.141343,2664.741391,459.657299,10362.883188
1117.141673,3478.967927,0.000000,11029.068536
1117.142003,518.144159,2911.162892,9918.759623
1117.142332,-1406.391290,2681.334243,9030.512492
1117.142662,-1258.350101,2451.505594,9844.739029
1117.142991,-666.185348,3983.696590,11029.068536
1117.143321,-1110.308913,2528.115143,10807.006753
1117.143650,-2590.720797,-459.657299,8882.471304
1117.143976,-3478.967927,383.047749,6587.832884
1117.144306,-1258.350101,1915.238745,5033.400406
1117.144636,1480.411884,-1685.410096,6069.688724
1117.144965,222.061783,-1378.971896,6883.915261
1117.145295,-2442.679609,2681.334243,6439.791695
1117.145625,-3775.050304,2374.896044,7402.059420
1117.145954,-3627.009116,1991.848295,8882.471304
1117.146284,-4441.235652,3830.477490,10288.862594
1117.146614,-4515.256246,1455.581446,9548.656652
1117.146944,-3108.864956,-1915.238745,8512.368333
1117.147273,-1554.432478,-2911.162892,7179.997637
1117.147603,0.000000,-919.314598,7402.059420
1117.147933,222.061783,-1225.752797,8734.430116
1117.148263,-666.185348,-1225.752797,10584.944971
1117.148592,-2220.617826,2221.676944,11621.233289
1117.148922,-740.205942,3447.429741,11695.253884
1117.149252,888.247130,2068.457845,12213.398043
1117.149582,1998.556043,1532.190996,12509.480420
1117.149911,1110.308913,689.485948,11695.253884
1117.150241,-222.061783,-766.095498,9918.759623
1117.150571,-370.102971,76.609550,11251.130318
1117.150900,-296.082377,1302.362347,11695.253884
1117.151230,-370.102971,842.705048,12435.459826
1117.151560,-1036.288319,-1838.629195,11843.295072
1117.151890,-1850.514855,-2298.286494,10732.986159
1117.152219,-1998.556043,842.705048,10214.842000
1117.152549,0.000000,995.924147,11251.130318
1117.152879,592.164754,842.705048,12139.377449
1117.153209,-1628.453072,842.705048,9992.780217
1117.153538,-3256.906145,1149.143247,7105.977043
1117.153868,-962.267725,1455.581446,6069.688724
1117.154198,3256.906145,0.000000,7254.018232
1117.154528,2960.823768,-306.438199,7698.141797
1117.154857,-666.185348,-459.657299,7254.018232
1117.155187,-3775.050304,995.924147,6661.853478
1117.155517,-4737.318029,2604.724693,7550.100608
1117.155846,-3478.967927,1915.238745,9918.759623
1117.156176,-4515.256246,2145.067394,10436.903782
1117.156506,-4885.359217,1608.800546,7772.162391
1117.156836,-2516.700203,-1149.143247,5329.482782
1117.157165,814.226536,-2451.505594,5551.544565
1117.157495,1998.556043,1302.362347,6809.894666
1117.157825,814.226536,1608.800546,9030.512492
1117.158155,-1036.288319,995.924147,9844.739029
1117.158484,-2294.638420,4673.182538,10066.800811
1117.158814,-1554.432478,4749.792088,10214.842000
1117.159144,0.000000,1072.533697,11843.295072
1117.159474,-1110.308913,0.000000,12361.439231
1117.159803,-2664.741391,1302.362347,11991.336260
1117.160133,-2590.720797,612.876398,10436.903782
1117.160463,74.020594,-689.485948,11029.068536
1117.160792,1406.391290,0.000000,10807.006753
1117.161122,0.000000,-153.219100,10881.027347
1117.161452,-444.123565,-536.266849,11621.233289
1117.161782,0.000000,2681.334243,11621.233289
1117.162111,-148.041188,4136.915689,10658.965565
1117.162441,-666.185348,2451.505594,11769.274478
1117.162771,-1924.535449,919.314598,12139.377449
1117.163101,-2442.679609,1455.581446,9178.553681
1117.163430,-2294.638420,0.000000,6365.771101
1117.163760,148.041188,-1685.410096,6735.874072
1117.164090,888.247130,-459.657299,9030.512492
1117.164420,-1480.411884,612.876398,9326.594869
1117.164749,-4737.318029,-919.314598,9178.553681
1117.165079,-5625.565159,1455.581446,9400.615463
1117.165409,-4441.235652,4596.572988,8808.450710
1117.165738,-2664.741391,689.485948,8512.368333
1117.166068,-1110.308913,-2604.724693,8512.368333
1117.166398,-592.164754,0.000000,5995.668130
1117.166728,1184.329507,306.438199,3627.009116
1117.167057,3256.906145,-1149.143247,5107.421000
1117.167387,3256.906145,1072.533697,8660.409521
1117.167717,1110.308913,1762.019645,9918.759623
1117.168047,-370.102971,-536.266849,10214.842000
1117.168376,370.102971,1838.629195,12953.603985
1117.168706,-296.082377,6052.154434,11843.295072
1117.169036,-1850.514855,2451.505594,10436.903782
1117.169366,-1998.556043,-3140.991542,11103.089130
1117.169695,-962.267725,-612.876398,10288.862594
1117.170025,0.000000,1302.362347,9178.553681
1117.170355,1258.350101,-2374.896044,9030.512492
1117.170684,814.226536,-1149.143247,11325.150913
1117.171014,-1184.329507,1532.190996,11103.089130
1117.171344,-1924.535449,-306.438199,10807.006753
1117.171674,-1702.473667,612.876398,11843.295072
1117.172003,-2072.576638,6511.811733,13101.645173
1117.172333,-2886.803174,3524.039291,12879.583391
1117.172663,-3108.864956,-1685.410096,11029.068536
1117.172993,-2590.720797,-612.876398,7846.182985
1117.173322,-296.082377,76.609550,5921.647536
1117.173652,2220.617826,-1762.019645,7698.141797
1117.173982,1998.556043,-153.219100,10510.924376
1117.174312,-1480.411884,2298.286494,9918.759623
1117.174641,-4145.153275,2068.457845,8734.430116
1117.174971,-3775.050304,3140.991542,9548.656652
1117.175301,-1554.432478,5439.278036,10955.047942
1117.175630,-1332.370696,2987.772442,9474.636058
1117.175960,-2294.638420,-842.705048,6661.853478
1117.176290,-2294.638420,-995.924147,4737.318029
1117.176620,-1332.370696,0.000000,4885.359217
1117.176949,370.102971,-306.438199,8216.285956
1117.177279,-814.226536,1532.190996,10140.821405
1117.177609,-2886.803174,3140.991542,8882.471304
1117.177939,-3552.988522,1915.238745,7031.956449
1117.178268,-814.226536,1072.533697,8290.306550
1117.178598,740.205942,2757.943793,10807.006753
1117.178928,-148.041188,2681.334243,10214.842000
1117.179258,-2590.720797,1225.752797,9770.718434
1117.179587,-2146.597232,1225.752797,10288.862594
1117.179917,-888.247130,1838.629195,10807.006753
1117.180247,222.061783,76.609550,11621.233289
1117.180577,-666.185348,-612.876398,12361.439231
1117.180906,-1776.494261,842.705048,10732.986159
1117.181236,-1850.514855,153.219100,10510.924376
1117.181566,0.000000,229.828649,11547.212695
1117.181895,888.247130,2374.896044,11917.315666
1117.182225,-1258.350101,2298.286494,9844.739029
1117.182555,-1924.535449,995.924147,8068.244768
1117.182885,-296.082377,1378.971896,8660.409521
1117.183214,1776.494261,2145.067394,9622.677246
1117.183544,0.000000,842.705048,10436.903782
1117.183874,-3034.844362,306.438199,10881.027347
1117.184204,-4589.276840,1915.238745,10214.842000
1117.184533,-5403.503377,306.438199,8512.368333
1117.184863,-4293.194464,0.000000,9252.574275
1117.185193,-2664.741391,229.828649,9770.718434
1117.185523,-2664.741391,-153.219100,7105.977043
1117.185852,-1628.453072,-919.314598,4071.132681
1117.186182,370.102971,-1302.362347,5107.421000
1117.186512,2368.659014,76.609550,6883.915261
1117.186841,1332.370696,1225.752797,8364.327145
1117.187171,0.000000,842.705048,11103.089130
1117.187501,-1406.391290,3524.039291,11769.274478
1117.187831,-3182.885551,5822.325785,9326.594869
1117.188160,-2368.659014,1225.752797,9104.533087
1117.188490,-444.123565,-2757.943793,11621.233289
1117.188820,-1036.288319,-1608.800546,10584.944971
1117.189150,-1924.535449,689.485948,7846.182985
1117.189479,-148.041188,-2757.943793,7772.162391
1117.189809,1998.556043,-306.438199,9696.697840
1117.190139,2220.617826,1455.581446,11029.068536
1117.190469,2072.576638,-1685.410096,12139.377449
1117.190798,1184.329507,2451.505594,11177.109724
1117.191128,-296.082377,6358.592633,11251.130318
1117.191458,962.267725,2834.553343,12731.542202
1117.191787,1628.453072,306.438199,13249.686362
1117.192117,296.082377,76.609550,10955.047942
1117.192447,222.061783,-459.657299,7920.203579
1117.192777,1628.453072,-1072.533697,7698.141797
1117.193106,2368.659014,0.000000,10658.965565
1117.193436,518.144159,0.000000,11991.336260
1117.193766,-3701.029710,995.924147,9918.759623
1117.194096,-4219.173869,4596.572988,8956.491898
1117.194425,-1036.288319,3140.991542,9030.512492
1117.194755,0.000000,1532.190996,9548.656652
1117.195085,-1776.494261,919.314598,8290.306550
1117.195415,-3552.988522,-459.657299,6291.750507
1117.195744,-2886.803174,306.438199,4811.338623
1117.196074,-444.123565,1762.019645,6439.791695
1117.196404,740.205942,612.876398,8808.450710
1117.196733,-1332.370696,0.000000,8216.285956
1117.197063,-3034.844362,76.609550,6957.935855
1117.197393,-1776.494261,1225.752797,8660.409521
1117.197723,-1110.308913,3370.820191,9474.636058
1117.198052,-1110.308913,4443.353888,10214.842000
1117.198382,-1850.514855,229.828649,10362.883188
1117.198712,-2072.576638,-689.485948,9474.636058
1117.199042,-1258.350101,1378.971896,9030.512492
1117.199371,666.185348,995.924147,10140.821405
1117.199701,1036.288319,842.705048,11103.089130
1117.200031,-1702.473667,689.485948,11029.068536
1117.200361,-3182.885551,-459.657299,11177.109724
1117.200690,-2516.700203,1072.533697,11399.171507
1117.201020,-2072.576638,3294.210641,10807.006753
1117.201350,-1332.370696,1838.629195,9918.759623
1117.201679,-1036.288319,-1225.752797,10140.821405
1117.202009,-666.185348,-842.705048,9474.636058
1117.202339,296.082377,689.485948,9030.512492
1117.202669,1184.329507,1072.533697,10288.862594
1117.202998,1110.308913,2911.162892,12953.603985
1117.203328,-1036.288319,2451.505594,12953.603985
1117.203658,-2812.782580,1455.581446,10658.965565
1117.203988,-2220.617826,1072.533697,10732.986159
1117.204317,-1184.329507,2374.896044,11177.109724
1117.204647,-1924.535449,2681.334243,9326.594869
1117.204977,-3034.844362,-1532.190996,7105.977043
1117.205307,-2516.700203,-2451.505594,5181.441594
1117.205636,-740.205942,-995.924147,4293.194464
1117.205966,1406.391290,-1608.800546,6587.832884
1117.206296,2294.638420,-536.266849,9474.636058
1117.206625,-592.164754,2834.553343,7920.203579
1117.206955,-3923.091493,3907.087040,3923.091493
1117.207285,-2442.679609,536.266849,6143.709319
1117.207615,740.205942,612.876398,11547.212695
1117.207944,-740.205942,4213.525239,12509.480420
1117.208274,-3404.947333,383.047749,10362.883188
1117.208604,-3256.906145,-1302.362347,8512.368333
1117.208934,-444.123565,1072.533697,9326.594869
1117.209263,2294.638420,-1532.190996,11325.150913
1117.209593,2516.700203,-2757.943793,11843.295072
1117.209923,74.020594,1302.362347,10807.006753
1117.210253,-1480.411884,3217.601092,9844.739029
1117.210582,296.082377,766.095498,11251.130318
1117.210912,1480.411884,2221.676944,11695.253884
1117.211242,1110.308913,2374.896044,10510.924376
1117.211571,888.247130,-919.314598,9326.594869
1117.211901,1406.391290,0.000000,9326.594869
1117.212231,2072.576638,1838.629195,10140.821405
1117.212561,1332.370696,612.876398,12139.377449
1117.212890,-1332.370696,689.485948,12731.542202
1117.213220,-2886.803174,3447.429741,12509.480420
1117.213550,-2072.576638,2987.772442,10807.006753
1117.213880,-1184.329507,919.314598,10362.883188
1117.214209,-1924.535449,766.095498,10288.862594
1117.214539,-3182.885551,919.314598,9104.533087
1117.214869,-3849.070898,0.000000,7402.059420
1117.215199,-2812.782580,306.438199,5921.647536
1117.215528,0.000000,2451.505594,5625.565159
1117.215858,888.247130,76.609550,5477.523971
1117.216188,-222.061783,-1762.019645,6513.812290
1117.216517,-1702.473667,1072.533697,7105.977043
1117.216847,-2516.700203,4749.792088,6883.915261
1117.217177,-1998.556043,3677.258390,7920.203579
1117.217507,-1924.535449,919.314598,10658.965565
1117.217836,-3108.864956,1685.410096,9918.759623
1117.218166,-3034.844362,-229.828649,8068.244768
1117.218496,-962.267725,-842.705048,7772.162391
1117.218826,1110.308913,1149.143247,8734.430116
1117.219155,814.226536,689.485948,11843.295072
1117.219485,-1110.308913,-766.095498,11621.233289
1117.219815,-2146.597232,1838.629195,11029.068536
1117.220145,-1850.514855,4519.963438,9252.574275
1117.220474,-296.082377,2145.067394,10436.903782
1117.220804,296.082377,153.219100,11769.274478
1117.221134,-962.267725,1302.362347,10881.027347
1117.221463,-888.247130,-383.047749,9474.636058
1117.221793,296.082377,-1302.362347,10436.903782
1117.222123,1036.288319,1838.629195,12139.377449
1117.222453,-518.144159,995.924147,11769.274478
1117.222782,-2072.576638,-1455.581446,11991.336260
1117.223112,-2590.720797,995.924147,12435.459826
1117.223442,-2368.659014,4366.744339,11325.150913
1117.223772,-1776.494261,2374.896044,10510.924376
1117.224101,-1776.494261,0.000000,10658.965565
1117.224431,-2590.720797,0.000000,8438.347739
1117.224761,-2072.576638,-1302.362347,6291.750507
1117.225091,666.185348,-2145.067394,7402.059420
1117.225420,962.267725,2911.162892,8142.265362
1117.225750,-888.247130,3140.991542,5107.421000
1117.226080,-2146.597232,-1608.800546,4367.215058
1117.226409,-962.267725,-1225.752797,7105.977043
1117.226739,-814.226536,3753.867940,8882.471304
1117.227069,-2146.597232,2681.334243,9622.677246
1117.227399,-3849.070898,-229.828649,10140.821405
1117.227728,-3552.988522,1455.581446,9548.656652
1117.228058,-1332.370696,0.000000,7994.224174
1117.228388,2590.720797,-3830.477490,7920.203579
1117.228718,3182.885551,383.047749,9474.636058
1117.229047,1332.370696,3370.820191,10658.965565
1117.229377,-296.082377,536.266849,10066.800811
1117.229707,-444.123565,1378.971896,11177.109724
1117.230037,148.041188,4826.401637,10140.821405
1117.230366,296.082377,2451.505594,10436.903782
1117.230696,444.123565,-1225.752797,11029.068536
1117.231026,148.041188,383.047749,10436.903782
1117.231356,-814.226536,76.609550,9326.594869
1117.231685,-296.082377,-536.266849,9844.739029
1117.232015,1110.308913,1532.190996,12361.439231
1117.232345,1036.288319,1762.019645,12805.562797
1117.232674,-518.144159,383.047749,10955.047942
1117.233004,-1924.535449,919.314598,9474.636058
1117.233334,-1628.453072,3370.820191,10807.006753
1117.233664,-814.226536,2528.115143,12509.480420
1117.233993,-2294.638420,842.705048,12213.398043
1117.234323,-3034.844362,1838.629195,8808.450710
1117.234653,-2220.617826,-229.828649,5921.647536
1117.234983,296.082377,-2221.676944,5921.647536
1117.235312,814.226536,-766.095498,7994.224174
1117.235642,-222.061783,612.876398,7402.059420
1117.235972,-2146.597232,1378.971896,6587.832884
1117.236302,-3034.844362,1532.190996,7254.018232
1117.236631,-2812.782580,3447.429741,9104.533087
1117.236961,-2368.659014,2604.724693,9474.636058
1117.237291,-2812.782580,229.828649,8882.471304
1117.237620,-2812.782580,919.314598,7105.977043
1117.237950,-1628.453072,0.000000,6439.791695
1117.238280,962.267725,-2451.505594,8364.327145
1117.238610,1258.350101,-842.705048,10955.047942
1117.238939,-1554.432478,1915.238745,9918.759623
1117.239269,-3849.070898,2298.286494,8808.450710
1117.239599,-2590.720797,1608.800546,10584.944971
1117.239929,-296.082377,2757.943793,12435.459826
1117.240258,-814.226536,1838.629195,13175.665768
1117.240588,-1850.514855,-536.266849,11547.212695
1117.240918,-2590.720797,1149.143247,9252.574275
1117.241248,74.020594,229.828649,8734.430116
1117.241577,2664.741391,-2374.896044,10658.965565
1117.241907,2146.597232,-459.657299,12287.418637
1117.242237,-666.185348,1838.629195,11103.089130
1117.242566,-1776.494261,1608.800546,9178.553681
1117.242896,-962.267725,1302.362347,11399.171507
1117.243226,-592.164754,2834.553343,13693.809927
1117.243556,-1480.411884,1225.752797,13693.809927
1117.243885,-2886.803174,0.000000,11769.274478
1117.244215,-3256.906145,2911.162892,7031.956449
1117.244545,-1480.411884,1915.238745,4589.276840
1117.244875,1850.514855,-2604.724693,6143.709319
1117.245204,1850.514855,-2451.505594,8364.327145
1117.245534,-1406.391290,1608.800546,7402.059420
1117.245864,-3849.070898,2374.896044,6587.832884
1117.246193,-2590.720797,1915.238745,8364.327145
1117.246523,-1776.494261,3064.381992,10288.862594
1117.246853,-2146.597232,0.000000,9918.759623
1117.247183,-2294.638420,-1225.752797,8216.285956
1117.247512,-1702.473667,2298.286494,7105.977043
1117.247842,0.000000,1072.533697,8956.491898
1117.248172,370.102971,-383.047749,9918.759623
1117.248501,-1480.411884,-229.828649,9252.574275
1117.248831,-2146.597232,306.438199,7328.038826
1117.249161,-666.185348,1378.971896,7254.018232
1117.249491,1332.370696,2451.505594,9474.636058
1117.249820,1258.350101,1762.019645,11547.212695
1117.250150,-1036.288319,76.609550,10955.047942
1117.250480,-2368.659014,1455.581446,9474.636058
1117.250809,0.000000,1915.238745,10955.047942
1117.251139,2664.741391,153.219100,13397.727550
1117.251469,962.267725,612.876398,12657.521608
1117.251798,-2146.597232,-1149.143247,11695.253884
1117.252128,-2442.679609,-536.266849,11843.295072
1117.252458,-2072.576638,3600.648841,13471.748144
1117.252788,-2294.638420,3677.258390,13249.686362
1117.253117,-1628.453072,842.705048,11843.295072
1117.253447,-2442.679609,-459.657299,9178.553681
1117.253777,-1406.391290,459.657299,6587.832884
1117.254106,814.226536,0.000000,5995.668130
1117.254436,2886.803174,612.876398,6957.935855
1117.254766,1332.370696,1455.581446,8216.285956
1117.255095,-1998.556043,153.219100,8364.327145
1117.255425,-3701.029710,919.314598,8956.491898
1117.255755,-3404.947333,4060.306139,9548.656652
1117.256085,-2738.761985,2987.772442,10066.800811
1117.256414,-3034.844362,383.047749,9770.718434
1117.256744,-2960.823768,-1149.143247,8216.285956
1117.257074,-1628.453072,-1072.533697,5477.523971
1117.257403,740.205942,-459.657299,5403.503377
1117.257733,1776.494261,919.314598,6513.812290
1117.258063,1332.370696,2068.457845,8142.265362
1117.258392,-370.102971,1608.800546,8068.244768
1117.258722,-1258.350101,1532.190996,6661.853478
1117.259052,-444.123565,2451.505594,8438.347739
1117.259382,0.000000,2757.943793,12065.356855
1117.259711,-1406.391290,1378.971896,14137.933492
1117.260041,-4145.153275,0.000000,13175.665768
1117.260371,-4071.132681,-153.219100,11621.233289
1117.260700,-1998.556043,-229.828649,11325.150913
1117.261030,0.000000,-383.047749,11917.315666
1117.261360,814.226536,229.828649,12139.377449
1117.261689,0.000000,-689.485948,10066.800811
1117.262019,-222.061783,0.000000,9992.780217
1117.262349,592.164754,2681.334243,11991.336260
1117.262679,-222.061783,4903.011187,13027.624579
1117.263008,-1850.514855,4519.963438,9770.718434
1117.263338,-2146.597232,1225.752797,7402.059420
1117.263668,222.061783,-612.876398,6661.853478
1117.263997,2220.617826,0.000000,7920.203579
1117.264327,1184.329507,-766.095498,10066.800811
1117.264657,-3404.947333,-459.657299,11251.130318
1117.264986,-6439.791695,2528.115143,10584.944971
1117.265316,-6217.729913,2145.067394,10140.821405
1117.265646,-2664.741391,536.266849,9400.615463
1117.265976,-2146.597232,842.705048,7624.121203
1117.266305,-2516.700203,919.314598,6661.853478
1117.266635,-1480.411884,-459.657299,5625.565159
1117.266965,0.000000,76.609550,5921.647536
1117.267294,0.000000,2604.724693,5773.606348
1117.267624,-888.247130,1532.190996,6809.894666
1117.267954,-1332.370696,919.314598,8364.327145
1117.268283,-1258.350101,2451.505594,8364.327145
1117.268613,-1628.453072,1455.581446,8808.450710
1117.268943,-1628.453072,1455.581446,9918.759623
1117.269273,-1776.494261,2451.505594,11621.233289
1117.269602,-1924.535449,383.047749,11769.274478
1117.269932,-1480.411884,-766.095498,11325.150913
1117.270262,-740.205942,153.219100,10288.862594
1117.270591,1332.370696,-153.219100,10066.800811
1117.270921,1924.535449,-1762.019645,11843.295072
1117.271251,888.247130,0.000000,12953.603985
1117.271580,-962.267725,2604.724693,11177.109724
1117.271910,-1258.350101,995.924147,10066.800811
1117.272240,74.020594,766.095498,12139.377449
1117.272570,148.041188,2681.334243,12287.418637
1117.272899,0.000000,1302.362347,9770.718434
1117.273229,1110.308913,-842.705048,8290.306550
1117.273559,1924.535449,-766.095498,8364.327145
1117.273888,1924.535449,1225.752797,9696.697840
1117.274218,444.123565,0.000000,11843.295072
1117.274548,-1776.494261,153.219100,11251.130318
1117.274877,-4737.318029,3140.991542,9696.697840
1117.275207,-4293.194464,1378.971896,8882.471304
1117.275537,-1702.473667,-612.876398,11399.171507
1117.275867,-1480.411884,76.609550,10140.821405
1117.276196,-3478.967927,459.657299,6069.688724
1117.276526,-2664.741391,-383.047749,3256.906145
1117.276856,592.164754,-1072.533697,5033.400406
1117.277185,1332.370696,766.095498,6809.894666
1117.277515,0.000000,1455.581446,7105.977043
1117.277845,-814.226536,1685.410096,5995.668130
1117.278174,-1702.473667,2528.115143,7550.100608
1117.278504,-1850.514855,2604.724693,9992.780217
1117.278834,-2738.761985,2451.505594,12213.398043
1117.279164,-3627.009116,1072.533697,12879.583391
1117.279493,-4589.276840,-383.047749,10584.944971
1117.279823,-3552.988522,1149.143247,8956.491898
1117.280153,-814.226536,-1225.752797,9992.780217
1117.280482,1628.453072,-1915.238745,11547.212695
1117.280812,-74.020594,-306.438199,11473.192101
1117.281142,-1924.535449,1225.752797,11399.171507
1117.281472,-2220.617826,3907.087040,11251.130318
1117.281801,-2072.576638,4903.011187,9622.677246
1117.282131,-222.061783,2221.676944,9474.636058
1117.282461,1110.308913,-612.876398,9770.718434
1117.282790,1036.288319,919.314598,8290.306550
1117.283120,370.102971,1072.533697,8216.285956
1117.283450,0.000000,-383.047749,11325.150913
1117.283779,-1406.391290,1991.848295,13027.624579
1117.284109,-2960.823768,2451.505594,13175.665768
1117.284439,-3775.050304,-1072.533697,11843.295072
1117.284769,-4293.194464,2068.457845,10214.842000
1117.285098,-4589.276840,4136.915689,9474.636058
1117.285428,-2368.659014,0.000000,10066.800811
1117.285758,-1110.308913,-995.924147,7550.100608
1117.286087,-1924.535449,1608.800546,3997.112087
1117.286417,370.102971,153.219100,2516.700203
1117.286747,2812.782580,-919.314598,4737.318029
1117.287076,2812.782580,1685.410096,7105.977043
1117.287406,222.061783,842.705048,7105.977043
1117.287736,-2442.679609,1532.190996,7846.182985
1117.288066,-2516.700203,4749.792088,10658.965565
1117.288395,-1702.473667,3907.087040,12435.459826
1117.288725,-2220.617826,919.314598,12139.377449
1117.289055,-2590.720797,-1072.533697,10732.986159
1117.289384,-1850.514855,-1149.143247,9178.553681
1117.289714,666.185348,-383.047749,8586.388927
1117.290044,2590.720797,-383.047749,9992.780217
1117.290373,1998.556043,76.609550,11251.130318
1117.290703,-444.123565,1225.752797,10288.862594
1117.291033,-2146.597232,2374.896044,9474.636058
1117.291363,-592.164754,2681.334243,11251.130318
1117.291692,222.061783,3447.429741,12805.562797
1117.292022,-888.247130,2604.724693,11917.315666
1117.292352,-1998.556043,-612.876398,10362.883188
1117.292681,-1332.370696,-306.438199,9326.594869
1117.293011,-444.123565,766.095498,9030.512492
1117.293341,1036.288319,0.000000,11621.233289
1117.293670,-592.164754,-229.828649,12287.418637
1117.294000,-3849.070898,1532.190996,10584.944971
1117.294330,-4885.359217,1225.752797,9474.636058
1117.294660,-2590.720797,1378.971896,10140.821405
1117.294989,-2146.597232,2451.505594,10510.924376
1117.295319,-2368.659014,1838.629195,8660.409521
1117.295649,-2368.659014,-919.314598,5773.606348
1117.295978,-962.267725,-1225.752797,4367.215058
1117.296308,740.205942,919.314598,4885.359217
1117.296638,1554.432478,1072.533697,7105.977043
1117.296967,-296.082377,1608.800546,8512.368333
1117.297297,-3627.009116,2221.676944,8586.388927
1117.297627,-5033.400406,2911.162892,9548.656652
1117.297957,-3775.050304,3064.381992,11029.068536
1117.298286,-3923.091493,1072.533697,11547.212695
1117.298616,-4959.379811,0.000000,9474.636058
1117.298946,-4811.338623,-383.047749,7179.997637
1117.299275,-2442.679609,-1608.800546,6291.750507
1117.299605,740.205942,-1532.190996,6735.874072
1117.299935,888.247130,-229.828649,9474.636058
1117.300264,518.144159,995.924147,11103.089130
1117.300594,-1258.350101,1072.533697,11991.336260
1117.300924,-2516.700203,4136.915689,11547.212695
1117.301254,-2442.679609,5286.058936,10955.047942
1117.301583,-1184.329507,1149.143247,12287.418637
1117.301913,-1628.453072,-995.924147,13323.706956
1117.302243,-3552.988522,689.485948,11769.274478
1117.302572,-4737.318029,-1149.143247,10510.924376
1117.302902,-3108.864956,-1302.362347,9992.780217
1117.303232,-1924.535449,919.314598,10584.944971
1117.303561,-888.247130,-1072.533697,10807.006753
1117.303891,-1258.350101,-995.924147,7698.141797
1117.304221,-1702.473667,2987.772442,6513.812290
1117.304551,-148.041188,3907.087040,8956.491898
1117.304880,740.205942,2451.505594,12139.377449
1117.305210,-1480.411884,3524.039291,11621.233289
1117.305540,-5107.421000,2757.943793,7550.100608
1117.305869,-5551.544565,-1149.143247,6661.853478
1117.306199,-4441.235652,-842.705048,8068.244768
1117.306529,-3478.967927,229.828649,9622.677246
1117.306858,-4367.215058,-2757.943793,8808.450710
1117.307188,-6291.750507,-1455.581446,6809.894666
1117.307518,-6513.812290,2145.067394,6439.791695
1117.307848,-5033.400406,1532.190996,8734.430116
1117.308177,-3923.091493,995.924147,10214.842000
1117.308507,-4441.235652,3064.381992,9326.594869
1117.308837,-4441.235652,2068.457845,6883.915261
1117.309166,-3552.988522,0.000000,6143.709319
1117.309496,-2590.720797,-689.485948,8290.306550
1117.309826,-2072.576638,76.609550,11177.109724
1117.310156,-2220.617826,995.924147,11547.212695
1117.310485,-1998.556043,1915.238745,10807.006753
1117.310815,-3330.926739,1762.019645,10807.006753
1117.311145,-5033.400406,1149.143247,11325.150913
1117.311474,-6735.874072,2068.457845,12879.583391
1117.311804,-6661.853478,1532.190996,13915.871710
1117.312134,-4737.318029,2528.115143,13027.624579
1117.312463,-5551.544565,1685.410096,10436.903782
1117.312793,-5477.523971,-1072.533697,7698.141797
1117.313123,-4663.297435,-2987.772442,6957.935855
1117.313453,-2664.741391,-1378.971896,7772.162391
1117.313782,-148.041188,1915.238745,9104.533087
1117.314112,222.061783,2221.676944,9992.780217
1117.314442,-2886.803174,2451.505594,10732.986159
1117.314771,-7254.018232,3370.820191,12065.356855
1117.315101,-9622.677246,4826.401637,13323.706956
1117.315431,-8956.491898,4673.182538,11769.274478
1117.315760,-6661.853478,1762.019645,10140.821405
1117.316090,-5625.565159,-1149.143247,7476.080014
1117.316420,-4589.276840,-4213.525239,5625.565159
1117.316750,-3775.050304,-5286.058936,4737.318029
1117.317079,-2960.823768,-1762.019645,3997.112087
1117.317409,-962.267725,2451.505594,6439.791695
1117.317739,1036.288319,3524.039291,8364.327145
1117.318068,1702.473667,4903.011187,9622.677246
1117.318398,-666.185348,5745.716235,9252.574275
1117.318728,-3627.009116,4366.744339,8882.471304
1117.319057,-6587.832884,4366.744339,9696.697840
1117.319387,-9252.574275,3600.648841,11991.336260
1117.319717,-8512.368333,229.828649,12657.521608
1117.320047,-7105.977043,-3370.820191,9474.636058
1117.320376,-4515.256246,-4903.011187,5699.585753
1117.320706,-1110.308913,-6128.763984,4885.359217
1117.321036,1258.350101,-5056.230287,5773.606348
1117.321365,1406.391290,459.657299,8438.347739
1117.321695,592.164754,4979.620737,11769.274478
1117.322025,-296.082377,7354.516781,13767.830521
1117.322354,-1702.473667,8886.707777,14434.015869
1117.322684,-3404.947333,5975.544884,15396.283594
1117.323014,-5403.503377,76.609550,17024.736666
1117.323344,-9326.594869,-459.657299,15692.365970
1117.323673,-12287.418637,153.219100,11843.295072
1117.324003,-10214.842000,-3753.867940,7402.059420
1117.324333,-5181.441594,-8656.879127,5181.441594
1117.324662,-1036.288319,-9193.145976,4589.276840
1117.324992,1628.453072,-4366.744339,3849.070898
1117.325322,3256.906145,536.266849,5329.482782
1117.325651,3330.926739,6971.469032,9030.512492
1117.325981,1850.514855,11184.994271,12509.480420
1117.326311,-222.061783,11414.822920,13989.892304
1117.326641,-3701.029710,9652.803275,11843.295072
1117.326970,-5699.585753,5898.935335,11325.150913
1117.327300,-6735.874072,2221.676944,11325.150913
1117.327630,-7550.100608,-2604.724693,10066.800811
1117.327959,-7994.224174,-6741.640382,7254.018232
1117.328289,-8438.347739,-9576.193725,5921.647536
1117.328619,-8142.265362,-7048.078582,5181.441594
1117.328948,-6883.915261,-2221.676944,4441.235652
1117.329278,-3849.070898,-1072.533697,5699.585753
1117.329608,-666.185348,1762.019645,7476.080014
1117.329938,518.144159,6281.983084,8068.244768
1117.330267,1480.411884,8044.002729,9474.636058
1117.330597,518.144159,7277.907231,11399.171507
1117.330927,-3182.885551,5975.544884,12805.562797
1117.331256,-7476.080014,4366.744339,11843.295072
1117.331586,-9104.533087,459.657299,10955.047942
1117.331916,-8364.327145,-2298.286494,10436.903782
1117.332245,-7698.141797,-4290.134789,9474.636058
1117.332575,-6661.853478,-4826.401637,8438.347739
1117.332905,-4441.235652,-4213.525239,6661.853478
1117.333235,-1110.308913,-1608.800546,5699.585753
1117.333564,222.061783,766.095498,7402.059420
1117.333894,0.000000,3907.087040,11621.233289
1117.334224,-3182.885551,6435.202183,14730.098246
1117.334553,-7105.977043,7354.516781,15026.180623
1117.334883,-8808.450710,6281.983084,13841.851115
1117.335213,-7698.141797,2451.505594,13471.748144
1117.335542,-5921.647536,-2145.067394,11843.295072
1117.335872,-5699.585753,-6205.373534,8734.430116
1117.336202,-4737.318029,-7354.516781,5773.606348
1117.336532,-2146.597232,-4903.011187,5403.503377
1117.336861,296.082377,-1991.848295,6661.853478
1117.337191,518.144159,1302.362347,7698.141797
1117.337521,-666.185348,3064.381992,8882.471304
1117.337850,-2294.638420,6281.983084,9844.739029
1117.338180,-2664.741391,8886.707777,11695.253884
1117.338510,-3108.864956,6971.469032,12583.501014
1117.338840,-4441.235652,3907.087040,11917.315666
1117.339169,-4811.338623,306.438199,9918.759623
1117.339499,-4219.173869,-3447.429741,7846.182985
1117.339829,-2664.741391,-4673.182538,6735.874072
1117.340158,-1924.535449,-3677.258390,6513.812290
1117.340488,-1776.494261,-1838.629195,6883.915261
1117.340818,-1332.370696,229.828649,7994.224174
1117.341147,-2368.659014,1838.629195,9844.739029
1117.341477,-4071.132681,4366.744339,10807.006753
1117.341807,-5551.544565,6511.811733,10807.006753
1117.342137,-5921.647536,5362.668486,11473.192101
1117.342466,-5773.606348,3677.258390,10732.986159
1117.342796,-3701.029710,459.657299,8734.430116
1117.343126,-1776.494261,-2374.896044,6513.812290
1117.343455,-1406.391290,-3830.477490,6439.791695
1117.343785,-1110.308913,-2451.505594,7105.977043
1117.344115,-666.185348,153.219100,7846.182985
1117.344444,-296.082377,1762.019645,8808.450710
1117.344774,-1702.473667,3830.477490,10881.027347
1117.345104,-4145.153275,4826.401637,12731.542202
1117.345434,-5921.647536,5286.058936,13841.851115
1117.345763,-8142.265362,4596.572988,14211.954086
1117.346093,-9400.615463,2374.896044,13767.830521
1117.346423,-9474.636058,153.219100,11991.336260
1117.346752,-7846.182985,-2757.943793,9474.636058
1117.347082,-4737.318029,-5056.230287,7254.018232
1117.347412,-1776.494261,-5592.497135,6439.791695
1117.347741,0.000000,-1991.848295,6069.688724
1117.348071,740.205942,1149.143247,5995.668130
1117.348401,296.082377,3140.991542,8142.265362
1117.348730,-962.267725,6052.154434,10510.924376
1117.349060,-3330.926739,7814.174080,11473.192101
1117.349390,-5255.462188,5745.716235,11769.274478
1117.349719,-7254.018232,2757.943793,12509.480420
1117.350049,-9104.533087,0.000000,12287.418637
1117.350379,-9400.615463,-1762.019645,11325.150913
1117.350708,-8068.244768,-4213.525239,9178.553681
1117.351038,-6365.771101,-5056.230287,6809.894666
1117.351368,-3849.070898,-4136.915689,5625.565159
1117.351697,-1110.308913,-1762.019645,5477.523971
1117.352027,1036.288319,1378.971896,6069.688724
1117.352357,1036.288319,3907.087040,7179.997637
1117.352686,-370.102971,6205.373534,8438.347739
1117.353016,-2516.700203,7354.516781,10510.924376
1117.353346,-5255.462188,5286.058936,12731.542202
1117.353675,-7994.224174,2757.943793,13397.727550
1117.354005,-9622.677246,459.657299,11843.295072
1117.354335,-9844.739029,-2757.943793,10732.986159
1117.354664,-8216.285956,-6205.373534,9622.677246
1117.354994,-5773.606348,-6435.202183,8586.388927
1117.355324,-2960.823768,-4136.915689,7402.059420
1117.355653,-444.123565,-1225.752797,6365.771101
1117.355983,1628.453072,1762.019645,7994.224174
1117.356313,2442.679609,4673.182538,9622.677246
1117.356642,1998.556043,7277.907231,11325.150913
1117.356972,0.000000,7201.297681,12213.398043
1117.357302,-3108.864956,5592.497135,12509.480420
1117.357631,-5181.441594,1915.238745,13989.892304
1117.357961,-8068.244768,76.609550,13841.851115
1117.358291,-9844.739029,-1991.848295,11621.233289
1117.358620,-9326.594869,-4749.792088,8290.306550
1117.358950,-6069.688724,-5975.544884,6069.688724
1117.359280,-2294.638420,-4366.744339,5107.421000
1117.359609,444.123565,-2374.896044,5181.441594
1117.359939,888.247130,1225.752797,5921.647536
1117.360269,0.000000,5898.935335,7179.997637
1117.360598,-1110.308913,9729.412825,9548.656652
1117.360928,-2368.659014,9346.365076,12287.418637
1117.361258,-4145.153275,7277.907231,13175.665768
1117.361587,-6365.771101,4060.306139,12879.583391
1117.361917,-7031.956449,459.657299,12139.377449
1117.362247,-7698.141797,-1532.190996,11473.192101
1117.362576,-7772.162391,-2987.772442,9696.697840
1117.362906,-5995.668130,-3064.381992,7994.224174
1117.363236,-3478.967927,-1455.581446,6513.812290
1117.363565,-296.082377,766.095498,5921.647536
1117.363895,1480.411884,2451.505594,6439.791695
1117.364225,1480.411884,5209.449386,7624.121203
1117.364554,0.000000,7814.174080,8808.450710
1117.364884,-1258.350101,7124.688131,10214.842000
1117.365214,-2886.803174,5515.887586,11917.315666
1117.365543,-4515.256246,4213.525239,11769.274478
1117.365873,-5181.441594,1991.848295,10362.883188
1117.366203,-4737.318029,-536.266849,8734.430116
1117.366532,-3627.009116,-2834.553343,8142.265362
1117.366862,-2442.679609,-1455.581446,8068.244768
1117.367192,-1998.556043,1378.971896,8290.306550
1117.367521,-2220.617826,3217.601092,8882.471304
1117.367851,-2442.679609,4596.572988,9548.656652
1117.368181,-2590.720797,6128.763984,10732.986159
1117.368510,-2146.597232,7124.688131,11177.109724
1117.368840,-2368.659014,5898.935335,11695.253884
1117.369170,-2442.679609,3753.867940,11547.212695
1117.369499,-2368.659014,2681.334243,10732.986159
1117.369829,-1406.391290,2068.457845,9474.636058
1117.370159,-740.205942,766.095498,8364.327145
1117.370488,-962.267725,1302.362347,8290.306550
1117.370818,0.000000,2451.505594,8882.471304
1117.371148,518.144159,4903.011187,9770.718434
1117.371477,0.000000,7201.297681,10658.965565
1117.371807,-1332.370696,7737.564530,10288.862594
1117.372137,-2146.597232,7584.345430,9770.718434
1117.372466,-2516.700203,6818.249932,9548.656652
1117.372796,-2516.700203,4903.011187,8512.368333
1117.373126,-1998.556043,2528.115143,7031.956449
1117.373455,-814.226536,1302.362347,5921.647536
1117.373785,-592.164754,-229.828649,6217.729913
1117.374115,-1628.453072,612.876398,7402.059420
1117.374444,-2294.638420,2604.724693,8216.285956
1117.374774,-2738.761985,4979.620737,9178.553681
1117.375104,-2516.700203,6665.030833,10140.821405
1117.375433,-2590.720797,7507.735880,11029.068536
1117.375763,-1554.432478,6971.469032,10510.924376
1117.376093,-518.144159,5669.106685,9992.780217
1117.376422,-444.123565,4519.963438,9844.739029
1117.376752,-814.226536,4596.572988,9622.677246
1117.377082,-1036.288319,3370.820191,8808.450710
1117.377411,-740.205942,2298.286494,8586.388927
1117.377741,-444.123565,1838.629195,8660.409521
1117.378071,148.041188,1991.848295,9400.615463
1117.378400,0.000000,2451.505594,9844.739029
1117.378730,-740.205942,3370.820191,10584.944971
1117.379060,-2220.617826,5286.058936,11325.150913
1117.379389,-2664.741391,6281.983084,11547.212695
1117.379719,-1924.535449,5592.497135,11843.295072
1117.380049,-1480.411884,4903.011187,11177.109724
1117.380378,-1406.391290,4213.525239,9992.780217
1117.380708,-740.205942,3370.820191,9252.574275
1117.381038,0.000000,3907.087040,9030.512492
1117.381367,296.082377,4290.134789,8734.430116
1117.381697,148.041188,4596.572988,7846.182985
1117.382027,370.102971,4366.744339,7328.038826
1117.382356,444.123565,2604.724693,7105.977043
1117.382686,0.000000,2298.286494,8068.244768
1117.383016,-1184.329507,2604.724693,8956.491898
1117.383345,-2516.700203,2911.162892,9474.636058
1117.383675,-3108.864956,3370.820191,9992.780217
1117.384004,-2960.823768,3524.039291,10288.862594
1117.384334,-1924.535449,4060.306139,10658.965565
1117.384664,-1036.288319,4673.182538,10288.862594
1117.384993,-740.205942,5209.449386,9252.574275
1117.385323,-148.041188,5745.716235,9030.512492
1117.385653,444.123565,6205.373534,8882.471304
1117.385982,296.082377,5669.106685,8882.471304
1117.386312,-296.082377,5592.497135,8290.306550
1117.386642,-1628.453072,4519.963438,7402.059420
1117.386971,-2294.638420,2681.334243,7402.059420
1117.387301,-3108.864956,612.876398,7476.080014
1117.387631,-3330.926739,1072.533697,7772.162391
1117.387960,-3404.947333,0.000000,8364.327145
1117.388290,-2738.761985,76.609550,9326.594869
1117.388620,-1554.432478,1685.410096,10140.821405
1117.388949,-666.185348,2987.772442,11029.068536
1117.389279,0.000000,4826.401637,11843.295072
1117.389609,370.102971,6358.592633,12731.542202
1117.389938,296.082377,7507.735880,12361.439231
1117.390268,592.164754,6511.811733,11547.212695
1117.390598,518.144159,4903.011187,10658.965565
1117.390927,222.061783,3524.039291,9770.718434
1117.391257,-1036.288319,2911.162892,9030.512492
1117.391587,-1554.432478,2604.724693,8660.409521
1117.391916,-1628.453072,1455.581446,8364.327145
1117.392246,-1184.329507,919.314598,8290.306550
1117.392576,-518.144159,1072.533697,8290.306550
1117.392905,-296.082377,1302.362347,8290.306550
1117.393235,-518.144159,2451.505594,9474.636058
1117.393565,-1184.329507,4366.744339,10510.924376
1117.393894,-1776.494261,6358.592633,11621.233289
1117.394224,-1776.494261,7048.078582,12213.398043
1117.394554,-1924.535449,6971.469032,11917.315666
1117.394883,-2442.679609,6665.030833,11325.150913
1117.395213,-3256.906145,6435.202183,9696.697840
1117.395543,-2664.741391,5286.058936,7105.977043
1117.395872,-518.144159,3140.991542,4737.318029
1117.396202,1924.535449,1685.410096,3923.091493
1117.396532,3034.844362,1532.190996,3627.009116
1117.396861,2072.576638,2681.334243,5107.421000
1117.397191,666.185348,4060.306139,7402.059420
1117.397521,-1776.494261,5439.278036,9326.594869
1117.397850,-3552.988522,6511.811733,12139.377449
1117.398180,-4515.256246,6894.859482,13989.892304
1117.398510,-4515.256246,5898.935335,14656.077652
1117.398839,-5329.482782,5286.058936,13545.768739
1117.399169,-5255.462188,4290.134789,11103.089130
1117.399499,-3256.906145,3447.429741,9622.677246
1117.399828,-518.144159,2298.286494,7328.038826
1117.400158,2294.638420,1762.019645,5329.482782
1117.400488,4293.194464,2145.067394,3923.091493
1117.400817,4885.359217,2528.115143,4959.379811
1117.401147,3256.906145,5132.839837,7179.997637
1117.401477,444.123565,7354.516781,10436.903782
1117.401806,-3034.844362,7890.783629,13249.686362
1117.402136,-4441.235652,7354.516781,14952.160028
1117.402466,-4811.338623,6128.763984,14508.036463
1117.402795,-3478.967927,2604.724693,13027.624579
1117.403125,-1332.370696,-383.047749,10288.862594
1117.403455,-370.102971,-459.657299,7846.182985
1117.403784,-1036.288319,536.266849,7624.121203
1117.404114,-1702.473667,2757.943793,8956.491898
1117.404444,-1258.350101,5822.325785,9474.636058
1117.404773,-888.247130,5592.497135,7328.038826
1117.405103,444.123565,2451.505594,5921.647536
1117.405433,1036.288319,1149.143247,7031.956449
1117.405762,0.000000,2451.505594,10140.821405
1117.406092,-1924.535449,4903.011187,12213.398043
1117.406422,-3330.926739,5898.935335,12879.583391
1117.406751,-3182.885551,5515.887586,12583.501014
1117.407081,-2368.659014,4519.963438,11843.295072
1117.407411,-1406.391290,2911.162892,8660.409521
1117.407740,0.000000,766.095498,5995.668130
1117.408070,1406.391290,-229.828649,5329.482782
1117.408400,2146.597232,1302.362347,5847.626942
1117.408729,1406.391290,3830.477490,7179.997637
1117.409059,888.247130,3677.258390,9622.677246
1117.409389,-888.247130,4673.182538,11029.068536
1117.409718,-2738.761985,6588.421283,11547.212695
1117.410048,-2960.823768,7124.688131,11251.130318
1117.410378,-1110.308913,4366.744339,11473.192101
1117.410707,-740.205942,2528.115143,11843.295072
1117.411037,-2072.576638,2681.334243,10732.986159
1117.411367,-3330.926739,2681.334243,8956.491898
1117.411696,-2812.782580,3370.820191,8068.244768
1117.412026,-1554.432478,5209.449386,7772.162391
1117.412356,0.000000,4060.306139,6587.832884
1117.412685,1924.535449,2221.676944,5921.647536
1117.413015,2960.823768,1915.238745,5847.626942
1117.413345,1924.535449,3600.648841,6957.935855
1117.413674,370.102971,4290.134789,10955.047942
1117.414004,-2072.576638,6665.030833,14878.139434
1117.414334,-3997.112087,9422.974625,16432.571912
1117.414663,-4737.318029,9652.803275,14804.118840
1117.414993,-2664.741391,6358.592633,12731.542202
1117.415323,-740.205942,2068.457845,11177.109724
1117.415652,-962.267725,1225.752797,9326.594869
1117.415982,-2442.679609,2987.772442,7254.018232
1117.416312,-2960.823768,4213.525239,4885.359217
1117.416641,-888.247130,3524.039291,4219.173869
1117.416971,1480.411884,1915.238745,4737.318029
1117.417301,2368.659014,3447.429741,5477.523971
1117.417630,1924.535449,6052.154434,6069.688724
1117.417960,1480.411884,6358.592633,7624.121203
1117.418290,592.164754,6358.592633,10881.027347
1117.418619,-1998.556043,7737.564530,14211.954086
1117.418949,-3701.029710,8810.098227,15248.242405
1117.419279,-3923.091493,6128.763984,14359.995275
1117.419608,-4219.173869,4136.915689,11917.315666
1117.419938,-4515.256246,3217.601092,9770.718434
1117.420268,-4071.132681,612.876398,7550.100608
1117.420597,-3552.988522,-1149.143247,5107.421000
1117.420927,-1628.453072,-689.485948,2738.761985
1117.421257,1480.411884,229.828649,2664.741391
1117.421586,3701.029710,1685.410096,3849.070898
1117.421916,3627.009116,3217.601092,5403.503377
1117.422246,3108.864956,4596.572988,8734.430116
1117.422575,2368.659014,5669.106685,13175.665768
1117.422905,888.247130,8120.612279,16654.633695
1117.423234,-1702.473667,9499.584175,18431.127956
1117.423564,-3552.988522,6511.811733,17838.963202
1117.423894,-4737.318029,3064.381992,15470.304188
1117.424223,-5033.400406,1762.019645,11547.212695
1117.424553,-2664.741391,-842.705048,9104.533087
1117.424883,-592.164754,-2221.676944,7105.977043
1117.425212,1406.391290,-1302.362347,5107.421000
1117.425542,2886.803174,459.657299,2960.823768
1117.425872,3775.050304,1532.190996,2294.638420
1117.426201,4145.153275,3753.867940,4811.338623
1117.426531,3182.885551,6435.202183,9918.759623
1117.426861,888.247130,8197.221829,14508.036463
1117.427190,-2886.803174,9806.022374,16432.571912
1117.427520,-5477.523971,8350.440928,16210.510130
1117.427850,-6957.935855,4136.915689,14508.036463
1117.428179,-7254.018232,1378.971896,12065.356855
1117.428509,-6587.832884,-76.609550,9030.512492
1117.428839,-4663.297435,-1455.581446,5995.668130
1117.429168,-2516.700203,-1915.238745,2146.597232
1117.429498,444.123565,-2528.115143,814.226536
1117.429828,3034.844362,229.828649,2220.617826
1117.430157,3997.112087,3447.429741,3849.070898
1117.430487,3034.844362,5975.544884,6957.935855
1117.430817,0.000000,7277.907231,9770.718434
1117.431146,-2442.679609,8580.269578,13471.748144
1117.431476,-3701.029710,8503.660028,15692.365970
1117.431806,-3997.112087,4903.011187,15544.324782
1117.432135,-2886.803174,842.705048,11991.336260
1117.432465,-2072.576638,-2451.505594,7772.162391
1117.432795,-888.247130,-5132.839837,5107.421000
1117.433124,444.123565,-4673.182538,4367.215058
1117.433454,1850.514855,-3217.601092,6365.771101
1117.433784,3256.906145,0.000000,8216.285956
1117.434113,2146.597232,3370.820191,9622.677246
1117.434443,666.185348,4596.572988,11843.295072
1117.434773,-444.123565,4673.182538,14211.954086
1117.435102,-1332.370696,4060.306139,15544.324782
1117.435432,-2442.679609,4826.401637,17098.757260
1117.435762,-3404.947333,3753.867940,15618.345376
1117.436091,-2590.720797,1685.410096,12583.501014
1117.436421,-296.082377,-1991.848295,9178.553681
1117.436751,1924.535449,-4060.306139,7476.080014
1117.437080,1184.329507,-1991.848295,7179.997637
1117.437410,0.000000,1302.362347,6735.874072
1117.437740,-1850.514855,995.924147,5921.647536
1117.438069,-1998.556043,76.609550,6735.874072
1117.438399,-1776.494261,229.828649,8586.388927
1117.438729,-1628.453072,995.924147,10658.965565
1117.439058,-2368.659014,2451.505594,9992.780217
1117.439388,-2516.700203,1378.971896,9474.636058
1117.439718,-1332.370696,-153.219100,9992.780217
1117.440047,-962.267725,459.657299,10288.862594
1117.440377,-1332.370696,1455.581446,10288.862594
1117.440707,-1776.494261,2528.115143,8364.327145
1117.441036,-1998.556043,2451.505594,6143.709319
1117.441366,-814.226536,536.266849,5551.544565
1117.441696,148.041188,-766.095498,7031.956449
1117.442025,-370.102971,-1072.533697,6957.935855
1117.442355,-1184.329507,1072.533697,6291.750507
1117.442685,-888.247130,-536.266849,6957.935855
1117.443014,518.144159,-2451.505594,8660.409521
1117.443344,-444.123565,-2145.067394,11621.233289
1117.443674,-2146.597232,-1225.752797,13841.851115
1117.444003,-3256.906145,2911.162892,13841.851115
1117.444333,-2812.782580,4290.134789,13249.686362
1117.444663,-518.144159,1608.800546,11917.315666
1117.444992,1332.370696,-1149.143247,10510.924376
1117.445322,1702.473667,-766.095498,9400.615463
1117.445652,1998.556043,2221.676944,7476.080014
1117.445981,2294.638420,2068.457845,7105.977043
1117.446311,3256.906145,-1225.752797,8290.306550
1117.446641,1776.494261,-1072.533697,11547.212695
1117.446970,-2072.576638,842.705048,13619.789333
1117.447300,-4737.318029,3677.258390,12731.542202
1117.447630,-5107.421000,3064.381992,13027.624579
1117.447959,-3775.050304,689.485948,12805.562797
1117.448289,-3108.864956,229.828649,12065.356855
1117.448619,-2368.659014,-689.485948,10288.862594
1117.448948,-962.267725,1378.971896,7328.038826
1117.449278,-296.082377,1072.533697,5477.523971
1117.449608,370.102971,919.314598,6143.709319
1117.449938,222.061783,1072.533697,7105.977043
1117.450267,-444.123565,1072.533697,7846.182985
1117.450597,-592.164754,3830.477490,7550.100608
1117.450927,-888.247130,3064.381992,7254.018232
1117.451256,-1184.329507,1072.533697,8734.430116
1117.451586,-1332.370696,689.485948,10584.944971
1117.451916,-2368.659014,383.047749,10288.862594
1117.452245,-1554.432478,2451.505594,8882.471304
1117.452575,-888.247130,1532.190996,7179.997637
1117.452905,370.102971,0.000000,7402.059420
1117.453235,222.061783,-459.657299,8216.285956
1117.453564,-740.205942,919.314598,8512.368333
1117.453894,-296.082377,3830.477490,7698.141797
1117.454224,296.082377,1762.019645,7179.997637
1117.454553,518.144159,-536.266849,8142.265362
1117.454883,444.123565,-995.924147,10436.903782
1117.455213,0.000000,-536.266849,11103.089130
1117.455542,-370.102971,1608.800546,11399.171507
1117.455872,-888.247130,766.095498,12509.480420
1117.456202,-1480.411884,1225.752797,14359.995275
1117.456532,-2886.803174,2298.286494,14804.118840
1117.456861,-3256.906145,995.924147,12879.583391
1117.457191,-1776.494261,1455.581446,11029.068536
1117.457521,-370.102971,1455.581446,9918.759623
1117.457850,-666.185348,-536.266849,8734.430116
1117.458180,-1036.288319,-3064.381992,8512.368333
1117.458510,-1406.391290,-1302.362347,7994.224174
1117.458839,-1036.288319,2145.067394,7476.080014
1117.459169,74.020594,995.924147,8068.244768
1117.459499,592.164754,-1378.971896,9918.759623
1117.459829,-1480.411884,-1072.533697,11029.068536
1117.460158,-3849.070898,1455.581446,10881.027347
1117.460488,-3997.112087,3217.601092,10140.821405
1117.460818,-2368.659014,1455.581446,9992.780217
1117.461147,-1184.329507,0.000000,10066.800811
1117.461477,-740.205942,-1072.533697,8734.430116
1117.461807,-1110.308913,-1072.533697,5551.544565
1117.462136,666.185348,-459.657299,4737.318029
1117.462466,2590.720797,153.219100,6069.688724
1117.462796,2590.720797,383.047749,8290.306550
1117.463126,666.185348,153.219100,9696.697840
1117.463455,-1998.556043,1762.019645,9770.718434
1117.463785,-2590.720797,2987.772442,10066.800811
1117.464115,-2146.597232,1302.362347,10955.047942
1117.464444,-1998.556043,153.219100,12139.377449
1117.464774,-1480.411884,76.609550,11103.089130
1117.465104,-518.144159,-612.876398,8882.471304
1117.465433,592.164754,-689.485948,7105.977043
1117.465763,962.267725,-612.876398,8364.327145
1117.466093,444.123565,383.047749,10510.924376
1117.466423,-370.102971,2298.286494,11029.068536
1117.466752,-1480.411884,3370.820191,10955.047942
1117.467082,-1406.391290,2374.896044,9918.759623
1117.467412,-740.205942,689.485948,10955.047942
1117.467741,-1036.288319,0.000000,12583.501014
1117.468071,-1184.329507,459.657299,11621.233289
1117.468401,-1258.350101,1762.019645,9844.739029
1117.468730,-444.123565,459.657299,9548.656652
1117.469060,-518.144159,766.095498,10732.986159
1117.469390,-2146.597232,2528.115143,11325.150913
1117.469720,-2442.679609,3064.381992,9770.718434
1117.470049,-1554.432478,2451.505594,7920.203579
1117.470379,-1036.288319,1149.143247,7476.080014
1117.470709,-1702.473667,459.657299,7624.121203
1117.471038,-2442.679609,-995.924147,7624.121203
1117.471368,-2220.617826,-766.095498,6735.874072
1117.471698,-1184.329507,919.314598,5847.626942
1117.472027,814.226536,612.876398,7105.977043
1117.472357,518.144159,536.266849,8660.409521
1117.472687,-296.082377,459.657299,10362.883188
1117.473016,-1554.432478,2145.067394,9622.677246
1117.473346,-1702.473667,3677.258390,9252.574275
1117.473676,296.082377,1838.629195,9622.677246
1117.474006,148.041188,153.219100,10214.842000
1117.474335,-518.144159,-842.705048,9844.739029
1117.474665,-444.123565,0.000000,8882.471304
1117.474995,370.102971,612.876398,8290.306550
1117.475324,962.267725,153.219100,9844.739029
1117.475654,222.061783,76.609550,11991.336260
1117.475984,-1776.494261,536.266849,12435.459826
1117.476313,-2960.823768,1685.410096,10881.027347
1117.476643,-2368.659014,1838.629195,10955.047942
1117.476973,-1850.514855,306.438199,11473.192101
1117.477303,-1628.453072,306.438199,12213.398043
1117.477632,-2368.659014,-842.705048,10881.027347
1117.477962,-1998.556043,-306.438199,8734.430116
1117.478292,-444.123565,0.000000,8512.368333
1117.478621,888.247130,-612.876398,8438.347739
1117.478951,74.020594,0.000000,9992.780217
1117.479281,-1184.329507,153.219100,10288.862594
1117.479610,-1924.535449,2681.334243,10214.842000
1117.479940,-1924.535449,3140.991542,9548.656652
1117.480270,-1332.370696,459.657299,9696.697840
1117.480600,-888.247130,-689.485948,10140.821405
1117.480929,-1924.535449,229.828649,9400.615463
1117.481259,-1036.288319,919.314598,7179.997637
1117.481589,222.061783,-1072.533697,6587.832884
1117.481918,1258.350101,-1455.581446,7994.224174
1117.482248,296.082377,1838.629195,9474.636058
1117.482578,-1110.308913,2068.457845,8660.409521
1117.482907,-1702.473667,3524.039291,8142.265362
1117.483237,-1110.308913,2757.943793,8808.450710
1117.483567,-444.123565,919.314598,10140.821405
1117.483897,-1110.308913,842.705048,10510.924376
1117.484226,-1554.432478,536.266849,9030.512492
1117.484556,-1184.329507,459.657299,6957.935855
1117.484886,-296.082377,-1225.752797,7328.038826
1117.485215,370.102971,-1225.752797,10436.903782
1117.485545,-1110.308913,1608.800546,12509.480420
1117.485875,-2368.659014,4673.182538,10881.027347
1117.486204,-1998.556043,4519.963438,9178.553681
1117.486534,-222.061783,536.266849,8956.491898
1117.486864,222.061783,-1302.362347,10955.047942
1117.487194,-1110.308913,842.705048,11917.315666
1117.487523,-2072.576638,2068.457845,10066.800811
1117.487853,-2072.576638,1838.629195,8586.388927
1117.488183,-814.226536,153.219100,10288.862594
1117.488512,-370.102971,306.438199,13027.624579
1117.488842,-1850.514855,2068.457845,13619.789333
1117.489172,-3034.844362,4519.963438,10732.986159
1117.489501,-2146.597232,3830.477490,7179.997637
1117.489831,-740.205942,-229.828649,7698.141797
1117.490161,-148.041188,-1149.143247,9770.718434
1117.490491,-1184.329507,1149.143247,9770.718434
1117.490820,-1554.432478,2911.162892,6513.812290
1117.491150,-666.185348,1072.533697,5107.421000
1117.491480,814.226536,-1455.581446,7105.977043
1117.491809,296.082377,-766.095498,10362.883188
1117.492139,-1110.308913,766.095498,10584.944971
1117.492469,-2368.659014,3447.429741,8956.491898
1117.492798,-2072.576638,4060.306139,7624.121203
1117.493128,-1036.288319,536.266849,9030.512492
1117.493458,-518.144159,-612.876398,10140.821405
1117.493788,-666.185348,-306.438199,9252.574275
1117.494117,-222.061783,919.314598,6883.915261
1117.494447,518.144159,612.876398,5625.565159
1117.494777,1110.308913,-1685.410096,8068.244768
1117.495106,592.164754,-1455.581446,11695.253884
1117.495436,-1554.432478,1378.971896,12805.562797
1117.495766,-3034.844362,4443.353888,11399.171507
1117.496095,-3108.864956,3753.867940,11103.089130
1117.496425,-1702.473667,766.095498,11843.295072
1117.496755,-1628.453072,0.000000,12657.521608
1117.497084,-1406.391290,306.438199,10881.027347
1117.497414,-1036.288319,689.485948,7994.224174
1117.497744,0.000000,0.000000,7179.997637
1117.498074,444.123565,-1378.971896,9770.718434
1117.498403,-592.164754,-459.657299,11473.192101
1117.498733,-1924.535449,1455.581446,10955.047942
1117.499063,-2368.659014,3294.210641,9474.636058
1117.499392,-1998.556043,3140.991542,9030.512492
1117.499722,-1480.411884,612.876398,9770.718434
1117.500052,-444.123565,-766.095498,10658.965565
1117.500381,-1258.350101,0.000000,9474.636058
1117.500711,-1332.370696,2451.505594,7624.121203
1117.501041,-740.205942,2221.676944,7624.121203
1117.501371,0.000000,-153.219100,8364.327145
1117.501700,-296.082377,383.047749,9844.739029
1117.502030,-1184.329507,1991.848295,9474.636058
1117.502360,-1554.432478,3217.601092,8216.285956
1117.502689,-1702.473667,1532.190996,7698.141797
1117.503019,-1702.473667,-383.047749,9104.533087
1117.503349,-1332.370696,-842.705048,9622.677246
1117.503678,-1628.453072,153.219100,9030.512492
1117.504008,-740.205942,2604.724693,8660.409521
1117.504338,0.000000,1838.629195,8882.471304
1117.504668,222.061783,229.828649,10288.862594
1117.504997,-444.123565,842.705048,11473.192101
1117.505327,-1184.329507,2681.334243,10881.027347
1117.505657,-1406.391290,4596.572988,9770.718434
1117.505986,-888.247130,3064.381992,9178.553681
1117.506316,-666.185348,-229.828649,9770.718434
1117.506646,-592.164754,-1225.752797,9992.780217
1117.506975,-666.185348,229.828649,9474.636058
1117.507305,-666.185348,2451.505594,8586.388927
1117.507635,-592.164754,919.314598,9326.594869
1117.507965,-888.247130,306.438199,11251.130318
1117.508294,-1776.494261,1991.848295,12139.377449
1117.508624,-2146.597232,3830.477490,10881.027347
1117.508954,-1924.535449,4060.306139,9770.718434
1117.509283,-1776.494261,2451.505594,8956.491898
1117.509613,-1628.453072,995.924147,9178.553681
1117.509943,-1184.329507,-153.219100,8808.450710
1117.510272,-1036.288319,766.095498,6883.915261
1117.510602,74.020594,1608.800546,6439.791695
1117.510932,222.061783,-306.438199,7402.059420
1117.511262,-666.185348,-229.828649,9844.739029
1117.511591,-2294.638420,1225.752797,10881.027347
1117.511921,-2590.720797,3600.648841,9474.636058
1117.512251,-2072.576638,2451.505594,8068.244768
1117.512580,-814.226536,612.876398,9326.594869
1117.512910,-518.144159,0.000000,9918.759623
1117.513240,-1110.308913,-153.219100,8660.409521
1117.513569,-740.205942,0.000000,6661.853478
1117.513899,296.082377,0.000000,7179.997637
1117.514229,296.082377,-842.705048,9252.574275
1117.514559,-666.185348,306.438199,11843.295072
1117.514888,-1628.453072,1225.752797,11547.212695
1117.515218,-1924.535449,2604.724693,10362.883188
1117.515548,-1036.288319,1991.848295,10436.903782
1117.515877,-296.082377,383.047749,12583.501014
1117.516207,-1258.350101,306.438199,13323.706956
1117.516537,-2368.659014,995.924147,11769.274478
1117.516866,-2220.617826,1378.971896,9104.533087
1117.517196,-740.205942,0.000000,8808.450710
1117.517526,296.082377,0.000000,11251.130318
1117.517856,-592.164754,1532.190996,11843.295072
1117.518185,-2072.576638,2451.505594,10436.903782
1117.518515,-2516.700203,2604.724693,7994.224174
1117.518845,-1702.473667,2374.896044,8808.450710
1117.519174,-1258.350101,1149.143247,9178.553681
1117.519504,-1110.308913,995.924147,9252.574275
1117.519834,-1110.308913,995.924147,7476.080014
1117.520163,-814.226536,1608.800546,6661.853478
1117.520493,-370.102971,1302.362347,7994.224174
1117.520823,-1406.391290,459.657299,8882.471304
1117.521152,-2146.597232,689.485948,9252.574275
1117.521482,-2516.700203,2068.457845,8438.347739
1117.521812,-2442.679609,2451.505594,7476.080014
1117.522142,-1480.411884,383.047749,7402.059420
1117.522471,-1110.308913,-153.219100,8068.244768
1117.522801,-1184.329507,0.000000,8882.471304
1117.523131,-1036.288319,2298.286494,8364.327145
1117.523460,-296.082377,2528.115143,6883.915261
1117.523790,1258.350101,-612.876398,7846.182985
1117.524120,1184.329507,-766.095498,11103.089130
1117.524449,-666.185348,1302.362347,12657.521608
1117.524779,-2368.659014,4060.306139,11843.295072
1117.525109,-2220.617826,3217.601092,10658.965565
1117.525439,-1110.308913,536.266849,10955.047942
1117.525768,-222.061783,-689.485948,11769.274478
1117.526098,0.000000,-919.314598,11325.150913
1117.526428,-296.082377,689.485948,8142.265362
1117.526757,222.061783,1072.533697,8068.244768
1117.527087,814.226536,0.000000,10214.842000
1117.527417,-814.226536,766.095498,12213.398043
1117.527746,-2220.617826,2298.286494,11917.315666
1117.528076,-3256.906145,3600.648841,10436.903782
1117.528406,-3034.844362,2604.724693,9474.636058
1117.528736,-2368.659014,229.828649,9844.739029
1117.529065,-1924.535449,-1149.143247,10436.903782
1117.529395,-2368.659014,-919.314598,9104.533087
1117.529725,-2294.638420,1225.752797,6883.915261
1117.530054,-740.205942,766.095498,7476.080014
1117.530384,148.041188,76.609550,9030.512492
1117.530714,-1184.329507,1302.362347,9400.615463
1117.531043,-2294.638420,1991.848295,8734.430116
1117.531373,-1480.411884,3294.210641,8216.285956
1117.531703,-1258.350101,3217.601092,8512.368333
1117.532033,-1258.350101,995.924147,8882.471304
1117.532362,-1258.350101,-1149.143247,9252.574275
1117.532692,-1406.391290,-1378.971896,7772.162391
1117.533022,-1406.391290,689.485948,6587.832884
1117.533351,-222.061783,-153.219100,7476.080014
1117.533681,370.102971,-1149.143247,9918.759623
1117.534011,-962.267725,0.000000,10658.965565
1117.534340,-1702.473667,1302.362347,9992.780217
1117.534670,-1184.329507,1915.238745,9178.553681
1117.535000,-740.205942,919.314598,9696.697840
1117.535330,74.020594,153.219100,10881.027347
1117.535659,222.061783,-383.047749,12065.356855
1117.535989,148.041188,612.876398,11695.253884
1117.536319,-148.041188,2451.505594,9992.780217
1117.536648,296.082377,919.314598,10362.883188
1117.536978,814.226536,-383.047749,11991.336260
1117.537308,-888.247130,1072.533697,13101.645173
1117.537637,-2368.659014,2911.162892,11843.295072
1117.537967,-2664.741391,2987.772442,10510.924376
1117.538297,-2146.597232,766.095498,9844.739029
1117.538627,-2146.597232,536.266849,9770.718434
1117.538956,-1924.535449,153.219100,9474.636058
1117.539286,-1332.370696,612.876398,7254.018232
1117.539616,0.000000,1915.238745,6143.709319
1117.539945,444.123565,995.924147,6809.894666
1117.540275,-296.082377,1532.190996,8808.450710
1117.540605,-1628.453072,2834.553343,9400.615463
1117.540934,-2960.823768,4443.353888,8290.306550
1117.541264,-3108.864956,3524.039291,7772.162391
1117.541594,-2664.741391,919.314598,8808.450710
1117.541924,-3034.844362,-1149.143247,8290.306550
1117.542253,-2590.720797,-1685.410096,7328.038826
1117.542583,-1924.535449,-1072.533697,6439.791695
1117.542913,-518.144159,-153.219100,6883.915261
1117.543242,444.123565,0.000000,8734.430116
1117.543572,370.102971,1072.533697,11251.130318
1117.543902,-592.164754,2604.724693,11325.150913
1117.544231,-1110.308913,3907.087040,10140.821405
1117.544561,74.020594,1762.019645,9992.780217
1117.544891,814.226536,0.000000,11547.212695
1117.545220,-222.061783,306.438199,12213.398043
1117.545550,-666.185348,459.657299,11399.171507
1117.545880,-518.144159,76.609550,9252.574275
1117.546210,222.061783,-1302.362347,9178.553681
1117.546539,444.123565,-1225.752797,11177.109724
1117.546869,-148.041188,0.000000,12731.542202
1117.547199,-592.164754,1149.143247,12287.418637
1117.547528,-1776.494261,1762.019645,9918.759623
1117.547858,-2146.597232,919.314598,9400.615463
1117.548188,-1554.432478,76.609550,11177.109724
1117.548517,-2146.597232,536.266849,12435.459826
1117.548847,-2442.679609,1225.752797,9770.718434
1117.549177,-2442.679609,1302.362347,6735.874072
1117.549506,-1110.308913,-1608.800546,7994.224174
1117.549836,-814.226536,-536.266849,10214.842000
1117.550166,-2146.597232,2374.896044,10288.862594
1117.550495,-3108.864956,1532.190996,7994.224174
1117.550825,-2886.803174,1302.362347,7031.956449
1117.551154,-2146.597232,1762.019645,9030.512492
1117.551484,-1184.329507,2068.457845,10510.924376
1117.551813,-1332.370696,1532.190996,8512.368333
1117.552143,-444.123565,612.876398,5699.585753
1117.552472,1776.494261,306.438199,4589.276840
1117.552802,1998.556043,-1225.752797,6957.935855
1117.553131,1702.473667,229.828649,9548.656652
1117.553461,-296.082377,2145.067394,9696.697840
1117.553791,-1776.494261,3140.991542,8660.409521
1117.554120,-2072.576638,3294.210641,8364.327145
1117.554450,-1036.288319,0.000000,10214.842000
1117.554779,-296.082377,-1225.752797,11177.109724
1117.555109,-1332.370696,-306.438199,10140.821405
1117.555438,-1332.370696,0.000000,8290.306550
1117.555768,-740.205942,153.219100,8734.430116
1117.556097,0.000000,-842.705048,11325.150913
1117.556427,0.000000,306.438199,13397.727550
1117.556756,-1110.308913,2834.553343,14211.954086
1117.557086,-2368.659014,4596.572988,12805.562797
1117.557416,-2516.700203,3064.381992,10732.986159
1117.557745,-1628.453072,-1149.143247,11621.233289
1117.558075,-888.247130,-1455.581446,12287.418637
1117.558404,-2368.659014,612.876398,11325.150913
1117.558734,-2442.679609,1838.629195,8364.327145
1117.559063,-962.267725,995.924147,7031.956449
1117.559393,518.144159,-1225.752797,8956.491898
1117.559722,222.061783,0.000000,9696.697840
1117.560052,-444.123565,2451.505594,9030.512492
1117.560381,-1184.329507,3370.820191,7772.162391
1117.560711,-1110.308913,3140.991542,7698.141797
1117.561041,-888.247130,689.485948,8586.388927
1117.561370,-1850.514855,-383.047749,9178.553681
1117.561700,-2220.617826,153.219100,8660.409521
1117.562029,-2886.803174,1838.629195,6661.853478
1117.562359,-1702.473667,842.705048,6365.771101
1117.562688,74.020594,-2068.457845,7846.182985
1117.563018,666.185348,-1149.143247,9178.553681
1117.563347,-888.247130,1072.533697,8512.368333
1117.563677,-1924.535449,2298.286494,7772.162391
1117.564006,-1480.411884,1762.019645,8364.327145
1117.564336,-740.205942,0.000000,10658.965565
1117.564666,-888.247130,0.000000,12361.439231
1117.564995,-1332.370696,689.485948,10584.944971
1117.565325,-1332.370696,306.438199,8290.306550
1117.565654,444.123565,-2374.896044,9178.553681
1117.565984,1332.370696,-2451.505594,12583.501014
1117.566313,148.041188,306.438199,13619.789333
1117.566643,-370.102971,2451.505594,11991.336260
1117.566972,-592.164754,2987.772442,9844.739029
1117.567302,296.082377,2221.676944,9992.780217
1117.567631,518.144159,1302.362347,11547.212695
1117.567961,370.102971,459.657299,11547.212695
1117.568291,74.020594,1149.143247,9474.636058
1117.568620,-888.247130,1149.143247,7698.141797
1117.568950,-1554.432478,-306.438199,9252.574275
1117.569279,-2368.659014,-1838.629195,10881.027347
1117.569609,-3997.112087,-766.095498,10732.986159
1117.569938,-4441.235652,1762.019645,9400.615463
1117.570268,-3923.091493,2451.505594,8734.430116
1117.570597,-2368.659014,766.095498,9992.780217
1117.570927,-1702.473667,229.828649,9548.656652
1117.571256,-1554.432478,-306.438199,7920.203579
1117.571586,-962.267725,383.047749,5847.626942
1117.571916,-814.226536,2374.896044,6069.688724
1117.572245,370.102971,1762.019645,7846.182985
1117.572575,296.082377,1532.190996,10066.800811
1117.572904,-518.144159,1378.971896,10066.800811
1117.573234,-1332.370696,2451.505594,8142.265362
1117.573563,-1110.308913,919.314598,7105.977043
1117.573893,74.020594,-1762.019645,9178.553681
1117.574222,-222.061783,-919.314598,10510.924376
1117.574552,-1036.288319,383.047749,9918.759623
1117.574881,-962.267725,1685.410096,7846.182985
1117.575211,-148.041188,536.266849,7105.977043
1117.575541,1850.514855,-306.438199,8882.471304
1117.575870,2220.617826,76.609550,11473.192101
1117.576200,592.164754,1149.143247,11991.336260
1117.576529,-1332.370696,3140.991542,10362.883188
1117.576859,-2368.659014,2604.724693,11473.192101
1117.577188,-1776.494261,995.924147,13175.665768
1117.577518,-1554.432478,1072.533697,14137.933492
1117.577847,-1998.556043,612.876398,12435.459826
1117.578177,-1702.473667,842.705048,9474.636058
1117.578506,-814.226536,229.828649,8734.430116
1117.578836,296.082377,-306.438199,9474.636058
1117.579166,444.123565,536.266849,10881.027347
1117.579495,-814.226536,2068.457845,9844.739029
1117.579825,-1924.535449,4136.915689,8438.347739
1117.580154,-1480.411884,1915.238745,8290.306550
1117.580484,-962.267725,1378.971896,9696.697840
1117.580813,-740.205942,1991.848295,9992.780217
1117.581143,-1332.370696,1915.238745,7920.203579
1117.581472,-518.144159,2145.067394,5847.626942
1117.581802,74.020594,383.047749,6143.709319
1117.582131,296.082377,383.047749,7476.080014
1117.582461,-1110.308913,1838.629195,8142.265362
1117.582791,-2664.741391,2221.676944,7698.141797
1117.583120,-2664.741391,1762.019645,6439.791695
1117.583450,-2072.576638,-536.266849,7698.141797
1117.583779,-1110.308913,-1838.629195,9400.615463
1117.584109,-1998.556043,-1225.752797,10140.821405
1117.584438,-2072.576638,-229.828649,9252.574275
1117.584768,-1628.453072,919.314598,8734.430116
1117.585097,-370.102971,-689.485948,10732.986159
1117.585427,74.020594,-306.438199,12879.583391
1117.585756,-740.205942,1378.971896,12879.583391
1117.586086,-814.226536,2451.505594,10436.903782
1117.586416,0.000000,1838.629195,9474.636058
1117.586745,1332.370696,-153.219100,11029.068536
1117.587075,1036.288319,-766.095498,12509.480420
1117.587404,222.061783,-153.219100,12213.398043
1117.587734,-518.144159,1149.143247,10732.986159
1117.588063,-222.061783,1532.190996,9770.718434
1117.588393,-370.102971,306.438199,10807.006753
1117.588722,-666.185348,536.266849,12361.439231
1117.589052,-1924.535449,1915.238745,11917.315666
1117.589381,-2886.803174,2681.334243,8956.491898
1117.589711,-3330.926739,1685.410096,7402.059420
1117.590041,-2368.659014,-689.485948,8068.244768
1117.590370,-1998.556043,-766.095498,8882.471304
1117.590700,-2516.700203,459.657299,8216.285956
1117.591029,-2590.720797,2068.457845,5995.668130
1117.591359,-1628.453072,1225.752797,5847.626942
1117.591688,-444.123565,1072.533697,8438.347739
1117.592018,-518.144159,1378.971896,10066.800811
1117.592347,-1332.370696,2451.505594,9622.677246
1117.592677,-1924.535449,3370.820191,7550.100608
1117.593006,-1332.370696,2298.286494,7105.977043
1117.593336,0.000000,0.000000,8586.388927
1117.593666,592.164754,-689.485948,9030.512492
1117.593995,518.144159,0.000000,8364.327145
1117.594325,148.041188,1685.410096,6661.853478
1117.594654,592.164754,306.438199,7105.977043
1117.594984,1406.391290,0.000000,10066.800811
1117.595313,1628.453072,612.876398,11991.336260
1117.595643,0.000000,2374.896044,11843.295072
1117.595972,-1480.411884,3983.696590,11251.130318
1117.596302,-1776.494261,3064.381992,11103.089130
1117.596631,-1184.329507,842.705048,11917.315666
1117.596961,-814.226536,-459.657299,13027.624579
1117.597291,-1332.370696,1302.362347,11843.295072
1117.597620,-2146.597232,2451.505594,9104.533087
1117.597950,-1184.329507,-153.219100,8660.409521
1117.598279,-444.123565,-1991.848295,10436.903782
1117.598609,-1702.473667,995.924147,12287.418637
1117.598938,-3256.906145,3447.429741,11917.315666
1117.599268,-3552.988522,4596.572988,9696.697840
1117.599597,-2738.761985,2757.943793,8734.430116
1117.599927,-962.267725,76.609550,10214.842000
1117.600256,-518.144159,1149.143247,10807.006753
1117.600586,-1036.288319,2528.115143,7846.182985
1117.600916,-814.226536,2681.334243,4589.276840
1117.601245,592.164754,536.266849,4737.318029
1117.601575,1184.329507,0.000000,7254.018232
1117.601904,0.000000,2221.676944,9400.615463
1117.602234,-1258.350101,3600.648841,8216.285956
1117.602563,-2072.576638,2528.115143,6365.771101
1117.602893,-1628.453072,0.000000,7402.059420
1117.603222,-1480.411884,-1762.019645,8660.409521
1117.603552,-1924.535449,-1302.362347,9326.594869
1117.603881,-1776.494261,459.657299,8068.244768
1117.604211,-962.267725,2298.286494,7624.121203
1117.604541,814.226536,842.705048,9918.759623
1117.604870,1036.288319,-459.657299,12287.418637
1117.605200,74.020594,919.314598,11769.274478
1117.605529,-1554.432478,2145.067394,9696.697840
1117.605859,-1480.411884,306.438199,9326.594869
1117.606188,-740.205942,-1378.971896,11473.192101
1117.606518,-444.123565,-1532.190996,14211.954086
1117.606847,-1036.288319,-1149.143247,13397.727550
1117.607177,-814.226536,229.828649,10584.944971
1117.607506,222.061783,-842.705048,9622.677246
1117.607836,962.267725,-2068.457845,11547.212695
1117.608166,444.123565,153.219100,13027.624579
1117.608495,-444.123565,2681.334243,12953.603985
1117.608825,-740.205942,3983.696590,9770.718434
1117.609154,-1184.329507,2681.334243,8142.265362
1117.609484,-592.164754,0.000000,9400.615463
1117.609813,-592.164754,-842.705048,10436.903782
1117.610143,-1776.494261,-153.219100,9030.512492
1117.610472,-2220.617826,1302.362347,6365.771101
1117.610802,-2368.659014,76.609550,6587.832884
1117.611131,-2368.659014,-995.924147,9104.533087
1117.611461,-3256.906145,766.095498,10584.944971
1117.611791,-3701.029710,2374.896044,9844.739029
1117.612120,-3182.885551,3983.696590,7105.977043
1117.612450,-2294.638420,2911.162892,7105.977043
1117.612779,-1554.432478,1072.533697,7772.162391
1117.613109,-1332.370696,-689.485948,7846.182985
1117.613438,-888.247130,0.000000,6661.853478
1117.613768,-296.082377,2298.286494,6069.688724
1117.614097,148.041188,1838.629195,7105.977043
1117.614427,592.164754,612.876398,9474.636058
1117.614756,444.123565,153.219100,10955.047942
1117.615086,0.000000,1455.581446,10807.006753
1117.615416,-592.164754,4060.306139,10510.924376
1117.615745,0.000000,3064.381992,11473.192101
1117.616075,444.123565,995.924147,12583.501014
1117.616404,296.082377,919.314598,11695.253884
1117.616734,370.102971,1762.019645,9770.718434
1117.617063,1036.288319,2528.115143,8882.471304
1117.617393,1998.556043,1762.019645,9770.718434
1117.617722,1702.473667,1762.019645,12139.377449
1117.618052,0.000000,3524.039291,11695.253884
1117.618381,-1628.453072,2987.772442,9548.656652
1117.618711,-1924.535449,2221.676944,8438.347739
1117.619041,-2516.700203,2221.676944,8956.491898
1117.619370,-2368.659014,919.314598,10140.821405
1117.619700,-2590.720797,459.657299,10732.986159
1117.620029,-2960.823768,689.485948,8438.347739
1117.620359,-3552.988522,1532.190996,7105.977043
1117.620688,-2368.659014,-383.047749,8808.450710
1117.621018,-1480.411884,-383.047749,10584.944971
1117.621347,-3034.844362,1685.410096,10510.924376
1117.621677,-3701.029710,3830.477490,8734.430116
1117.622006,-2664.741391,3677.258390,8364.327145
1117.622336,-444.123565,919.314598,9178.553681
1117.622666,370.102971,76.609550,9252.574275
1117.622995,-222.061783,-536.266849,7624.121203
1117.623325,-518.144159,0.000000,5847.626942
1117.623654,-222.061783,-306.438199,5847.626942
1117.623984,1184.329507,-1225.752797,8956.491898
1117.624313,1184.329507,-153.219100,11843.295072
1117.624643,-444.123565,1608.800546,11547.212695
1117.624972,-2072.576638,2911.162892,9178.553681
1117.625302,-1332.370696,612.876398,8808.450710
1117.625631,814.226536,-1608.800546,10955.047942
1117.625961,148.041188,-383.047749,11473.192101
1117.626291,-1036.288319,-459.657299,10214.842000
1117.626620,-1480.411884,-842.705048,7846.182985
1117.626950,-962.267725,-1149.143247,8808.450710
1117.627279,-518.144159,-995.924147,11473.192101
1117.627609,-1184.329507,153.219100,13693.809927
1117.627938,-2516.700203,1532.190996,12213.398043
1117.628268,-3108.864956,2604.724693,10140.821405
1117.628597,-2368.659014,995.924147,10732.986159
1117.628927,-740.205942,-306.438199,12139.377449
1117.629256,-740.205942,459.657299,11991.336260
1117.629586,-1332.370696,919.314598,9622.677246
1117.629916,-888.247130,1991.848295,8142.265362
1117.630245,-518.144159,1378.971896,8290.306550
1117.630575,-222.061783,459.657299,9474.636058
1117.630904,-740.205942,1072.533697,9548.656652
1117.631234,-1702.473667,1762.019645,8586.388927
1117.631563,-1850.514855,2987.772442,7105.977043
1117.631893,-1258.350101,1378.971896,7550.100608
1117.632222,-518.144159,153.219100,7846.182985
1117.632552,-740.205942,153.219100,7624.121203
1117.632881,-888.247130,995.924147,6957.935855
1117.633211,-592.164754,2834.553343,6587.832884
1117.633541,-592.164754,2451.505594,7254.018232
1117.633870,-666.185348,1608.800546,8882.471304
1117.634200,-1184.329507,919.314598,9696.697840
1117.634529,-2294.638420,766.095498,9030.512492
1117.634859,-2590.720797,1838.629195,8660.409521
1117.635188,-2294.638420,-153.219100,9178.553681
1117.635518,-962.267725,-995.924147,11177.109724
1117.635847,-1480.411884,-306.438199,11325.150913
1117.636177,-1480.411884,689.485948,10584.944971
1117.636506,-740.205942,1838.629195,10436.903782
1117.636836,148.041188,1225.752797,11103.089130
1117.637166,888.247130,2145.067394,12139.377449
1117.637495,-296.082377,2681.334243,12287.418637
1117.637825,-1184.329507,2987.772442,11251.130318
1117.638154,-1258.350101,3064.381992,10807.006753
1117.638484,-518.144159,919.314598,11177.109724
1117.638813,0.000000,-842.705048,10881.027347
1117.639143,-1036.288319,-1378.971896,10436.903782
1117.639472,-2516.700203,612.876398,9178.553681
1117.639802,-2590.720797,2145.067394,8364.327145
1117.640131,-814.226536,306.438199,9474.636058
1117.640461,0.000000,689.485948,9918.759623
1117.640791,-1480.411884,1455.581446,10288.862594
1117.641120,-2590.720797,3064.381992,9030.512492
1117.641450,-2738.761985,2911.162892,7698.141797
1117.641779,-2146.597232,842.705048,7920.203579
1117.642109,-1628.453072,229.828649,8068.244768
1117.642438,-2072.576638,0.000000,8512.368333
1117.642768,-2220.617826,995.924147,7105.977043
1117.643097,-1332.370696,842.705048,6217.729913
1117.643427,148.041188,-612.876398,6809.894666
1117.643757,148.041188,-842.705048,7846.182985
1117.644086,-444.123565,-306.438199,9326.594869
1117.644416,-1258.350101,1685.410096,9400.615463
1117.644745,-1480.411884,2068.457845,9770.718434
1117.645075,-444.123565,1455.581446,10955.047942
1117.645404,0.000000,0.000000,10436.903782
1117.645734,-148.041188,-1072.533697,9030.512492
1117.646063,592.164754,-1072.533697,8586.388927
1117.646393,1332.370696,229.828649,9400.615463
1117.646722,814.226536,1378.971896,10732.986159
1117.647052,-222.061783,1455.581446,11917.315666
1117.647382,-1628.453072,0.000000,10436.903782
1117.647711,-1850.514855,-459.657299,10288.862594
1117.648041,-1036.288319,-1149.143247,11991.336260
1117.648370,-888.247130,-229.828649,12731.542202
1117.648700,-2072.576638,153.219100,12361.439231
1117.649029,-2146.597232,-229.828649,11103.089130
1117.649359,-1258.350101,689.485948,11251.130318
1117.649688,-1036.288319,2221.676944,12287.418637
1117.650018,-1332.370696,2757.943793,12287.418637
1117.650347,-2738.761985,1991.848295,10362.883188
1117.650677,-3256.906145,1302.362347,8216.285956
1117.651006,-2664.741391,1915.238745,7328.038826
1117.651336,-1184.329507,76.609550,7994.224174
1117.651666,-592.164754,-153.219100,8290.306550
1117.651995,-1406.391290,383.047749,7402.059420
1117.652325,-1776.494261,459.657299,5699.585753
1117.652654,-962.267725,306.438199,5551.544565
1117.652984,592.164754,459.657299,7550.100608
1117.653313,814.226536,2757.943793,9252.574275
1117.653643,-888.247130,3600.648841,9400.615463
1117.653972,-2146.597232,2451.505594,8290.306550
1117.654302,-2072.576638,2298.286494,8216.285956
1117.654631,-1628.453072,1915.238745,9178.553681
1117.654961,-1776.494261,1149.143247,9548.656652
1117.655290,-1850.514855,-536.266849,8364.327145
1117.655620,-1406.391290,-1072.533697,7254.018232
1117.655950,-740.205942,-383.047749,7550.100608
1117.656279,740.205942,-306.438199,9844.739029
1117.656609,888.247130,842.705048,12065.356855
1117.656938,-962.267725,2681.334243,12509.480420
1117.657268,-2738.761985,3983.696590,11695.253884
1117.657597,-2294.638420,2911.162892,11843.295072
1117.657927,0.000000,383.047749,11917.315666
1117.658256,740.205942,612.876398,12435.459826
1117.658586,592.164754,306.438199,11251.130318
1117.658915,-296.082377,229.828649,8956.491898
1117.659245,0.000000,-995.924147,8586.388927
1117.659574,296.082377,-536.266849,10066.800811
1117.659904,-592.164754,1685.410096,11473.192101
1117.660234,-2294.638420,3294.210641,11177.109724
1117.660563,-2442.679609,3447.429741,9474.636058
1117.660893,-2146.597232,1685.410096,7846.182985
1117.661222,-814.226536,-459.657299,7550.100608
1117.661552,0.000000,-2528.115143,8734.430116
1117.661881,-1110.308913,-536.266849,9178.553681
1117.662211,-2886.803174,2374.896044,8808.450710
1117.662540,-3330.926739,2298.286494,7772.162391
1117.662870,-2368.659014,1149.143247,7476.080014
1117.663199,-1406.391290,-1072.533697,8290.306550
1117.663529,-1776.494261,0.000000,8586.388927
1117.663858,-1924.535449,689.485948,6957.935855
1117.664188,-1702.473667,-1149.143247,6291.750507
1117.664518,-740.205942,-2757.943793,7105.977043
1117.664847,-888.247130,-2528.115143,9474.636058
1117.665177,-1628.453072,-536.266849,10510.924376
1117.665506,-1480.411884,1072.533697,9326.594869
1117.665836,-222.061783,459.657299,9696.697840
1117.666165,888.247130,-153.219100,11325.150913
1117.666495,370.102971,612.876398,12731.542202
1117.666824,-888.247130,1302.362347,11917.315666
1117.667154,-1702.473667,1991.848295,10362.883188
1117.667483,-1776.494261,-306.438199,9548.656652
1117.667813,-1110.308913,-2451.505594,10881.027347
1117.668142,-1702.473667,-4519.963438,11029.068536
1117.668472,-2516.700203,-3217.601092,10140.821405
1117.668802,-2812.782580,-1608.800546,8586.388927
1117.669131,-962.267725,-2681.334243,9474.636058
1117.669461,222.061783,-2604.724693,11325.150913
1117.669790,-148.041188,-1455.581446,12953.603985
1117.670120,-888.247130,1532.190996,12657.521608
1117.670449,-1924.535449,4826.401637,11177.109724
1117.670779,-1702.473667,2757.943793,9918.759623
1117.671108,-296.082377,-612.876398,9548.656652
1117.671438,296.082377,-2834.553343,9474.636058
1117.671767,-370.102971,-2834.553343,8068.244768
1117.672097,-1702.473667,-1072.533697,4663.297435
1117.672426,-1850.514855,-3447.429741,3478.967927
1117.672756,444.123565,-5822.325785,6069.688724
1117.673086,74.020594,-4443.353888,9326.594869
1117.673415,-1332.370696,-766.095498,10658.965565
1117.673745,-3256.906145,2068.457845,8882.471304
1117.674074,-3552.988522,459.657299,8660.409521
1117.674404,-2146.597232,-1378.971896,9326.594869
1117.674733,-666.185348,-3217.601092,10732.986159
1117.675063,74.020594,-3907.087040,11029.068536
1117.675392,-1184.329507,-842.705048,8734.430116
1117.675722,-2368.659014,-1225.752797,7105.977043
1117.676051,-1184.329507,-3140.991542,7994.224174
1117.676381,740.205942,-4290.134789,10436.903782
1117.676710,1554.432478,-4290.134789,11843.295072
1117.677040,74.020594,-1762.019645,11769.274478
1117.677370,-2072.576638,-919.314598,11325.150913
1117.677699,-2886.803174,-1225.752797,11695.253884
1117.678029,-1850.514855,-2451.505594,11991.336260
1117.678358,-148.041188,-3447.429741,12287.418637
1117.678688,814.226536,-1915.238745,12139.377449
1117.679017,-814.226536,-1532.190996,11029.068536
1117.679347,-2442.679609,-1991.848295,8290.306550
1117.679676,-1554.432478,-4443.353888,7402.059420
1117.680006,444.123565,-6205.373534,8512.368333
1117.680335,1332.370696,-3140.991542,10436.903782
1117.680665,-888.247130,-383.047749,11621.233289
1117.680994,-3256.906145,76.609550,11547.212695
1117.681324,-4441.235652,-689.485948,10510.924376
1117.681654,-3849.070898,-536.266849,10510.924376
1117.681983,-1776.494261,0.000000,10214.842000
1117.682313,0.000000,-1685.410096,9030.512492
1117.682642,148.041188,-2604.724693,7031.956449
1117.682972,-296.082377,-3140.991542,5033.400406
1117.683301,-1480.411884,-3140.991542,4663.297435
1117.683631,-1110.308913,-2298.286494,6587.832884
1117.683960,-518.144159,-383.047749,8660.409521
1117.684290,0.000000,-919.314598,9918.759623
1117.684619,-222.061783,-2911.162892,10288.862594
1117.684949,-1258.350101,-4443.353888,9992.780217
1117.685278,-2368.659014,-2911.162892,11029.068536
1117.685608,-3404.947333,459.657299,12731.542202
1117.685938,-3552.988522,2528.115143,12731.542202
1117.686267,-1776.494261,766.095498,10214.842000
1117.686597,0.000000,-3370.820191,7772.162391
1117.686926,1184.329507,-4213.525239,5921.647536
1117.687256,1702.473667,-2987.772442,5773.606348
1117.687585,1998.556043,-2528.115143,6365.771101
1117.687915,1258.350101,-2221.676944,8586.388927
1117.688244,-444.123565,-2221.676944,11325.150913
1117.688574,-1628.453072,-2451.505594,14285.974681
1117.688903,-2220.617826,-1762.019645,15396.283594
1117.689233,-2738.761985,-995.924147,14211.954086
1117.689562,-2220.617826,-2068.457845,13841.851115
1117.689892,-3404.947333,-2757.943793,12731.542202
1117.690222,-3775.050304,-383.047749,11325.150913
1117.690551,-2664.741391,459.657299,8808.450710
1117.690881,0.000000,-1762.019645,5181.441594
1117.691210,2590.720797,-4290.134789,3552.988522
1117.691540,2886.803174,-5439.278036,3923.091493
1117.691869,2516.700203,-4366.744339,6143.709319
1117.692199,1332.370696,-2068.457845,8512.368333
1117.692528,-370.102971,536.266849,11843.295072
1117.692858,-2738.761985,2145.067394,14434.015869
1117.693187,-5181.441594,1915.238745,15766.386565
1117.693517,-5477.523971,153.219100,15692.365970
1117.693846,-4145.153275,-842.705048,13323.706956
1117.694176,-2886.803174,-2068.457845,9918.759623
1117.694506,-1850.514855,-2528.115143,7031.956449
1117.694835,-740.205942,-3600.648841,4959.379811
1117.695165,370.102971,-3217.601092,4293.194464
1117.695494,1110.308913,-1532.190996,3923.091493
1117.695824,1702.473667,-229.828649,3552.988522
1117.696153,2960.823768,-1455.581446,4219.173869
1117.696483,2886.803174,-2068.457845,6735.874072
1117.696812,1776.494261,-1762.019645,9770.718434
1117.697142,-444.123565,-689.485948,12213.398043
1117.697471,-2960.823768,-995.924147,14582.057057
1117.697801,-5699.585753,0.000000,16580.613101
1117.698130,-7031.956449,766.095498,17098.757260
1117.698460,-6957.935855,-766.095498,14582.057057
1117.698790,-4811.338623,-3064.381992,9770.718434
1117.699119,-2220.617826,-5286.058936,5551.544565
1117.699449,592.164754,-5898.935335,3849.070898
1117.699778,3034.844362,-4673.182538,4219.173869
1117.700108,3627.009116,-3140.991542,5329.482782
1117.700437,2368.659014,-919.314598,7328.038826
1117.700767,444.123565,459.657299,10362.883188
1117.701096,-962.267725,0.000000,13471.748144
1117.701426,-1776.494261,-689.485948,15248.242405
1117.701755,-2072.576638,-2298.286494,14211.954086
1117.702085,-2442.679609,-3447.429741,12287.418637
1117.702414,-2146.597232,-5898.935335,10955.047942
1117.702744,-1480.411884,-6358.592633,10066.800811
1117.703074,-1184.329507,-4903.011187,9400.615463
1117.703403,-444.123565,-2528.115143,7994.224174
1117.703733,370.102971,-1991.848295,7179.997637
1117.704062,1036.288319,-2298.286494,7402.059420
1117.704392,592.164754,-2374.896044,8068.244768
1117.704721,-666.185348,-2145.067394,9030.512492
1117.705051,-2516.700203,-1455.581446,9918.759623
1117.705380,-3775.050304,-1149.143247,11177.109724
1117.705710,-3330.926739,-2145.067394,12361.439231
1117.706039,-2368.659014,-3217.601092,11473.192101
1117.706369,-592.164754,-4979.620737,9400.615463
1117.706698,666.185348,-5975.544884,7624.121203
1117.707028,1036.288319,-5056.230287,7254.018232
1117.707358,1480.411884,-2221.676944,8586.388927
1117.707687,444.123565,-536.266849,9474.636058
1117.708017,-148.041188,612.876398,10807.006753
1117.708346,-962.267725,1378.971896,11251.130318
1117.708676,-1110.308913,919.314598,10955.047942
1117.709005,-1110.308913,-612.876398,10362.883188
1117.709335,-1776.494261,-1378.971896,8808.450710
1117.709664,-888.247130,-2987.772442,8364.327145
1117.709994,-740.205942,-3830.477490,8142.265362
1117.710323,-1110.308913,-2757.943793,7179.997637
1117.710653,-1998.556043,-2374.896044,7624.121203
1117.710982,-1924.535449,-2451.505594,8142.265362
1117.711312,-1776.494261,-1685.410096,9104.533087
1117.711642,-2072.576638,-1072.533697,9622.677246
1117.711971,-1924.535449,-995.924147,10140.821405
1117.712301,-1036.288319,0.000000,11473.192101
1117.712630,-1184.329507,229.828649,12731.542202
1117.712960,-1554.432478,1532.190996,12805.562797
1117.713289,-1998.556043,2451.505594,11547.212695
1117.713619,-814.226536,1991.848295,9474.636058
1117.713948,444.123565,153.219100,7698.141797
1117.714278,2294.638420,-2604.724693,5403.503377
1117.714607,2886.803174,-4826.401637,4885.359217
1117.714937,1628.453072,-5056.230287,6217.729913
1117.715266,-962.267725,-3830.477490,8734.430116
1117.715596,-2738.761985,-2298.286494,11621.233289
1117.715926,-3552.988522,-842.705048,14063.912898
1117.716255,-3997.112087,0.000000,15174.221811
1117.716585,-3108.864956,153.219100,14211.954086
1117.716914,-2516.700203,-383.047749,12657.521608
1117.717244,-1480.411884,-306.438199,9844.739029
1117.717573,0.000000,-306.438199,8734.430116
1117.717903,518.144159,-229.828649,7476.080014
1117.718232,962.267725,-842.705048,7105.977043
1117.718562,888.247130,-2145.067394,5995.668130
1117.718891,74.020594,-3753.867940,4811.338623
1117.719221,-518.144159,-5209.449386,4959.379811
1117.719550,-740.205942,-5669.106685,8216.285956
1117.719880,-1332.370696,-5209.449386,10732.986159
1117.720210,-2072.576638,-4136.915689,12213.398043
1117.720539,-2368.659014,-2757.943793,13323.706956
1117.720869,-2220.617826,-1532.190996,13175.665768
1117.721198,-1998.556043,-919.314598,12731.542202
1117.721528,-1036.288319,-1608.800546,11621.233289
1117.721857,-222.061783,-1838.629195,9844.739029
1117.722187,-444.123565,-1915.238745,8290.306550
1117.722516,-740.205942,-2757.943793,8068.244768
1117.722846,-1924.535449,-3524.039291,7179.997637
1117.723175,-2368.659014,-4903.011187,7105.977043
1117.723505,-2442.679609,-4673.182538,7402.059420
1117.723834,-1924.535449,-4443.353888,8586.388927
1117.724164,-962.267725,-4826.401637,9326.594869
1117.724494,592.164754,-4979.620737,9548.656652
1117.724823,962.267725,-4903.011187,10288.862594
1117.725153,74.020594,-3524.039291,11769.274478
1117.725482,-592.164754,-1455.581446,13323.706956
1117.725812,-1480.411884,-612.876398,13693.809927
1117.726141,-1702.473667,-1149.143247,13101.645173
1117.726471,-1776.494261,-2834.553343,11547.212695
1117.726800,-1554.432478,-2757.943793,10732.986159
1117.727130,-1036.288319,-3294.210641,9548.656652
1117.727459,-814.226536,-2374.896044,8216.285956
1117.727789,-740.205942,-842.705048,7698.141797
1117.728118,-296.082377,-383.047749,7698.141797
1117.728448,0.000000,306.438199,8512.368333
1117.728778,-222.061783,1149.143247,8512.368333
1117.729107,-370.102971,689.485948,8660.409521
1117.729437,-1406.391290,-612.876398,9252.574275
1117.729766,-2886.803174,-919.314598,10584.944971
1117.730096,-4959.379811,-766.095498,11843.295072
1117.730425,-6217.729913,-306.438199,11843.295072
1117.730755,-6439.791695,76.609550,11177.109724
1117.731084,-6217.729913,-229.828649,9770.718434
1117.731414,-5181.441594,-229.828649,8142.265362
1117.731743,-3552.988522,0.000000,6957.935855
1117.732073,-1628.453072,1072.533697,6143.709319
1117.732402,-444.123565,1608.800546,5847.626942
1117.732732,0.000000,2145.067394,6143.709319
1117.733062,-296.082377,2451.505594,6883.915261
1117.733391,-1036.288319,1838.629195,8586.388927
1117.733721,-2294.638420,1455.581446,9844.739029
1117.734050,-3923.091493,995.924147,10955.047942
1117.734380,-5699.585753,0.000000,11843.295072
1117.734709,-7105.977043,-995.924147,11991.336260
1117.735039,-7476.080014,-995.924147,11473.192101
1117.735368,-6217.729913,-842.705048,9918.759623
1117.735698,-4367.215058,-919.314598,8068.244768
1117.736027,-2516.700203,-1149.143247,6957.935855
1117.736357,-1258.350101,-229.828649,7179.997637
1117.736686,-740.205942,383.047749,8068.244768
1117.737016,-1332.370696,1378.971896,8808.450710
1117.737346,-3404.947333,2145.067394,10214.842000
1117.737675,-5107.421000,1302.362347,11917.315666
1117.738005,-6439.791695,842.705048,13323.706956
1117.738334,-7476.080014,0.000000,13175.665768
1117.738664,-7031.956449,-842.705048,13027.624579
1117.738993,-6217.729913,-1302.362347,11843.295072
1117.739323,-4885.359217,-1225.752797,10955.047942
1117.739652,-3552.988522,-1302.362347,9696.697840
1117.739982,-2368.659014,-1149.143247,7772.162391
1117.740311,-1850.514855,-536.266849,6513.812290
1117.740641,-1924.535449,-383.047749,6957.935855
1117.740970,-2516.700203,-612.876398,7846.182985
1117.741300,-3256.906145,-536.266849,8142.265362
1117.741630,-4441.235652,-1072.533697,8586.388927
1117.741959,-5255.462188,-2068.457845,8882.471304
1117.742289,-6143.709319,-1838.629195,10066.800811
1117.742618,-5847.626942,-842.705048,11029.068536
1117.742948,-4811.338623,306.438199,11325.150913
1117.743277,-3997.112087,2298.286494,10362.883188
1117.743607,-2886.803174,3064.381992,8882.471304
1117.743936,-2072.576638,3370.820191,7920.203579
1117.744266,-666.185348,2911.162892,7328.038826
1117.744595,-814.226536,2528.115143,7550.100608
1117.744925,-1850.514855,1455.581446,7920.203579
1117.745254,-3775.050304,153.219100,8734.430116
1117.745584,-5847.626942,-842.705048,10214.842000
1117.745914,-7846.182985,-1302.362347,11103.089130
1117.746243,-8660.409521,-1762.019645,11769.274478
1117.746573,-8068.244768,-1302.362347,11843.295072
1117.746902,-6439.791695,0.000000,11695.253884
1117.747232,-4145.153275,1685.410096,10955.047942
1117.747561,-2072.576638,2757.943793,9474.636058
1117.747891,370.102971,3677.258390,8290.306550
1117.748220,962.267725,4213.525239,7550.100608
1117.748550,1258.350101,4443.353888,7476.080014
1117.748879,148.041188,3677.258390,8216.285956
1117.749209,-2072.576638,1608.800546,8142.265362
1117.749538,-4663.297435,536.266849,9252.574275
1117.749868,-6957.935855,-153.219100,10436.903782
1117.750198,-8068.244768,-612.876398,11029.068536
1117.750527,-7624.121203,-612.876398,10955.047942
1117.750857,-6587.832884,0.000000,10658.965565
1117.751186,-5107.421000,1685.410096,10140.821405
1117.751516,-3330.926739,3064.381992,9844.739029
1117.751845,-2072.576638,4060.306139,8882.471304
1117.752175,-1628.453072,4366.744339,8142.265362
1117.752504,-2220.617826,3830.477490,8290.306550
1117.752834,-2738.761985,2987.772442,8438.347739
1117.753163,-4367.215058,459.657299,7994.224174
1117.753493,-5181.441594,-1838.629195,8068.244768
1117.753822,-5773.606348,-3064.381992,9030.512492
1117.754152,-5995.668130,-2987.772442,9918.759623
1117.754482,-6587.832884,-1149.143247,10584.944971
1117.754811,-5329.482782,-153.219100,10658.965565
1117.755141,-3478.967927,2451.505594,10881.027347
1117.755470,-1406.391290,4290.134789,10807.006753
1117.755800,592.164754,5056.230287,10214.842000
1117.756129,2072.576638,5515.887586,8956.491898
1117.756459,2072.576638,4673.182538,8216.285956
1117.756788,74.020594,2604.724693,8586.388927
1117.757118,-3108.864956,612.876398,9400.615463
1117.757447,-6587.832884,-1225.752797,9770.718434
1117.757777,-9030.512492,-2528.115143,9548.656652
1117.758106,-10436.903782,-4366.744339,9992.780217
1117.758436,-10362.883188,-4673.182538,10140.821405
1117.758766,-9030.512492,-4826.401637,9770.718434
1117.759095,-7031.956449,-2987.772442,9030.512492
1117.759425,-4441.235652,0.000000,8216.285956
1117.759754,-518.144159,2987.772442,8364.327145
1117.760084,1702.473667,4903.011187,8734.430116
1117.760413,2812.782580,6128.763984,9030.512492
1117.760743,2294.638420,5592.497135,8882.471304
1117.761072,-444.123565,4136.915689,9696.697840
1117.761402,-4515.256246,2221.676944,11177.109724
1117.761731,-8290.306550,995.924147,12509.480420
1117.762061,-10288.862594,-1455.581446,12583.501014
1117.762390,-11251.130318,-3753.867940,11399.171507
1117.762720,-10140.821405,-4749.792088,9844.739029
1117.763049,-6513.812290,-4213.525239,9030.512492
1117.763379,-1998.556043,-1378.971896,8586.388927
1117.763709,2442.679609,1991.848295,7846.182985
1117.764038,4071.132681,4903.011187,6957.935855
1117.764368,3701.029710,7048.078582,7031.956449
1117.764697,2072.576638,7507.735880,8364.327145
1117.765027,-592.164754,7354.516781,10362.883188
1117.765356,-5181.441594,5592.497135,11473.192101
1117.765686,-9474.636058,1685.410096,11843.295072
1117.766015,-11917.315666,-1685.410096,10807.006753
1117.766345,-11843.295072,-4366.744339,10066.800811
1117.766674,-9178.553681,-6052.154434,9622.677246
1117.767004,-5921.647536,-5286.058936,8290.306550
1117.767333,-3182.885551,-1991.848295,6735.874072
1117.767663,-1110.308913,2068.457845,6883.915261
1117.767993,0.000000,5592.497135,8734.430116
1117.768322,148.041188,8963.317327,10214.842000
1117.768652,-1184.329507,10878.556072,9622.677246
1117.768981,-2738.761985,8197.221829,9178.553681
1117.769311,-3404.947333,4060.306139,9918.759623
1117.769640,-3552.988522,0.000000,10510.924376
1117.769970,-4737.318029,-3677.258390,9474.636058
1117.770299,-6661.853478,-5362.668486,7624.121203
1117.770629,-8512.368333,-7124.688131,8068.244768
1117.770958,-8882.471304,-4519.963438,9844.739029
1117.771288,-7476.080014,-612.876398,10066.800811
1117.771617,-4589.276840,1838.629195,8808.450710
1117.771947,-518.144159,3677.258390,7846.182985
1117.772276,2072.576638,5132.839837,8808.450710
1117.772606,3034.844362,5898.935335,9696.697840
1117.772936,1702.473667,4749.792088,10362.883188
1117.773265,-2146.597232,3753.867940,11251.130318
1117.773595,-7476.080014,2834.553343,11843.295072
1117.773924,-11251.130318,306.438199,11547.212695
1117.774254,-10510.924376,-4290.134789,11917.315666
1117.774583,-8142.265362,-5898.935335,11029.068536
1117.774913,-6661.853478,-5592.497135,9178.553681
1117.775242,-4441.235652,-5056.230287,7254.018232
1117.775572,-1850.514855,-2757.943793,7105.977043
1117.775901,-444.123565,1378.971896,7624.121203
1117.776231,-148.041188,4519.963438,8734.430116
1117.776560,444.123565,6205.373534,8882.471304
1117.776890,1332.370696,6741.640382,9622.677246
1117.777220,962.267725,4903.011187,10807.006753
1117.777549,-1258.350101,2068.457845,11843.295072
1117.777879,-4145.153275,153.219100,12287.418637
1117.778208,-6883.915261,-1149.143247,12583.501014
1117.778538,-9252.574275,-612.876398,12731.542202
1117.778867,-9326.594869,76.609550,10807.006753
1117.779197,-6439.791695,76.609550,8956.491898
1117.779526,-2516.700203,-306.438199,7328.038826
1117.779856,-1258.350101,1225.752797,5773.606348
1117.780185,-1036.288319,3524.039291,5107.421000
1117.780515,-1480.411884,3907.087040,5477.523971
1117.780844,-1480.411884,4213.525239,5477.523971
1117.781174,-1850.514855,3830.477490,7254.018232
1117.781504,-1924.535449,1915.238745,8586.388927
1117.781833,-2516.700203,383.047749,8956.491898
1117.782163,-5181.441594,-383.047749,10140.821405
1117.782492,-7624.121203,459.657299,12509.480420
1117.782822,-9474.636058,2451.505594,14211.954086
1117.783151,-9474.636058,3983.696590,14952.160028
1117.783481,-8290.306550,4596.572988,13249.686362
1117.783810,-7105.977043,3370.820191,9548.656652
1117.784140,-5477.523971,1072.533697,6661.853478
1117.784469,-3330.926739,0.000000,6365.771101
1117.784799,-2442.679609,612.876398,7031.956449
1117.785128,-2368.659014,1838.629195,5921.647536
1117.785458,-2516.700203,383.047749,4737.318029
1117.785787,-2664.741391,-1991.848295,5477.523971
1117.786117,-3256.906145,-1532.190996,7994.224174
1117.786447,-4737.318029,-153.219100,10732.986159
1117.786776,-5847.626942,1378.971896,12953.603985
1117.787106,-6143.709319,2834.553343,15026.180623
1117.787435,-6439.791695,4979.620737,16062.468941
1117.787765,-6957.935855,3983.696590,14730.098246
1117.788094,-6513.812290,1685.410096,11325.150913
1117.788424,-5181.441594,689.485948,8586.388927
1117.788753,-2960.823768,459.657299,8068.244768
