#time,accel_x,accel_y,accel_z
1087.084350,-962.267725,842.705048,9622.677246
1087.084680,-592.164754,459.657299,9622.677246
1087.085009,-962.267725,919.314598,9548.656652
1087.085339,-962.267725,1072.533697,9548.656652
1087.085669,-1036.288319,766.095498,9696.697840
1087.085998,-1036.288319,919.314598,9474.636058
1087.086328,-666.185348,766.095498,9770.718434
1087.086657,-1184.329507,1072.533697,9400.615463
1087.086987,-1110.308913,766.095498,9548.656652
1087.087317,-1036.288319,766.095498,9548.656652
1087.087646,-1036.288319,842.705048,9548.656652
1087.087976,-444.123565,1149.143247,9548.656652
1087.088306,-1036.288319,612.876398,9548.656652
1087.088635,-1110.308913,689.485948,9622.677246
1087.088965,-962.267725,1072.533697,9548.656652
1087.089294,-1036.288319,1072.533697,9474.636058
1087.089624,-1110.308913,919.314598,9474.636058
1087.089954,-888.247130,919.314598,9178.553681
1087.090283,-1036.288319,689.485948,9474.636058
1087.090613,-1110.308913,995.924147,9400.615463
1087.090943,-962.267725,919.314598,9326.594869
1087.091272,-1036.288319,995.924147,9474.636058
1087.091602,-1036.288319,612.876398,9178.553681
1087.091931,-1184.329507,919.314598,9474.636058
1087.092261,-1036.288319,919.314598,9474.636058
1087.092591,-962.267725,995.924147,9474.636058
1087.092920,-962.267725,689.485948,9474.636058
1087.093250,-1258.350101,919.314598,9400.615463
1087.093579,-1184.329507,1455.581446,9326.594869
1087.093909,-1036.288319,689.485948,9474.636058
1087.094239,-1184.329507,919.314598,9474.636058
1087.094568,-1110.308913,842.705048,9474.636058
1087.094898,-1036.288319,689.485948,9326.594869
1087.095228,-1036.288319,842.705048,9696.697840
1087.095557,-888.247130,689.485948,9548.656652
1087.095887,-962.267725,612.876398,9548.656652
1087.096216,-1110.308913,842.705048,9622.677246
1087.096546,-1184.329507,919.314598,9474.636058
1087.096876,-1110.308913,1302.362347,9696.697840
1087.097205,-814.226536,689.485948,9770.718434
1087.097535,-888.247130,612.876398,9696.697840
1087.097865,-1184.329507,919.314598,9770.718434
1087.098194,-1036.288319,995.924147,9548.656652
1087.098524,-962.267725,689.485948,9622.677246
1087.098853,-740.205942,536.266849,9622.677246
1087.099183,-1036.288319,842.705048,9548.656652
1087.099513,-962.267725,919.314598,9622.677246
1087.099842,-1184.329507,766.095498,9474.636058
1087.100172,-1036.288319,919.314598,9622.677246
1087.100502,-814.226536,919.314598,9474.636058
1087.100831,-888.247130,995.924147,9400.615463
1087.101161,-888.247130,919.314598,9474.636058
1087.101490,-1036.288319,1149.143247,9474.636058
1087.101820,-962.267725,1149.143247,9474.636058
1087.102150,-888.247130,689.485948,9178.553681
1087.102479,-1258.350101,842.705048,9474.636058
1087.102809,-962.267725,919.314598,9474.636058
1087.103138,-1036.288319,1149.143247,9548.656652
1087.103468,-962.267725,919.314598,9474.636058
1087.103798,-888.247130,612.876398,9326.594869
1087.104127,-962.267725,995.924147,8956.491898
1087.104457,-444.123565,842.705048,8956.491898
1087.104787,222.061783,689.485948,9178.553681
1087.105116,814.226536,536.266849,9252.574275
1087.105446,962.267725,766.095498,9474.636058
1087.105775,1110.308913,842.705048,9252.574275
1087.106105,296.082377,995.924147,9844.739029
1087.106435,-296.082377,1149.143247,10140.821405
1087.106764,-740.205942,689.485948,10436.903782
1087.107094,-666.185348,306.438199,10362.883188
1087.107424,-370.102971,153.219100,10140.821405
1087.107753,222.061783,0.000000,9474.636058
1087.108083,1258.350101,0.000000,9474.636058
1087.108412,2294.638420,229.828649,9178.553681
1087.108742,2812.782580,689.485948,8882.471304
1087.109072,3627.009116,1302.362347,9178.553681
1087.109401,3923.091493,1532.190996,9252.574275
1087.109731,3775.050304,1838.629195,9844.739029
1087.110060,3478.967927,1149.143247,10214.842000
1087.110390,2442.679609,1302.362347,10214.842000
1087.110720,1924.535449,995.924147,10140.821405
1087.111049,1406.391290,459.657299,10658.965565
1087.111379,1702.473667,0.000000,10362.883188
1087.111709,1850.514855,-229.828649,9548.656652
1087.112038,2516.700203,-306.438199,9030.512492
1087.112368,3330.926739,-383.047749,8808.450710
1087.112697,3997.112087,1149.143247,9104.533087
1087.113027,4145.153275,1762.019645,9400.615463
1087.113357,3404.947333,2528.115143,9844.739029
1087.113686,2442.679609,2987.772442,10288.862594
1087.114016,666.185348,2604.724693,10584.944971
1087.114346,-1406.391290,2068.457845,9918.759623
1087.114675,-2146.597232,1302.362347,8956.491898
1087.115005,-1554.432478,-229.828649,8290.306550
1087.115334,0.000000,-1225.752797,7550.100608
1087.115664,1628.453072,-1378.971896,6513.812290
1087.115994,3478.967927,-612.876398,6513.812290
1087.116323,4589.276840,536.266849,6809.894666
1087.116653,4293.194464,2298.286494,8512.368333
1087.116982,3108.864956,4366.744339,10214.842000
1087.117312,1850.514855,4826.401637,11695.253884
1087.117642,592.164754,4136.915689,12287.418637
1087.117971,-518.144159,2604.724693,12657.521608
1087.118301,-1554.432478,306.438199,11991.336260
1087.118631,-1776.494261,-1685.410096,11473.192101
1087.118960,-1480.411884,-2528.115143,10214.842000
1087.119290,-518.144159,-2681.334243,9104.533087
1087.119619,888.247130,-2221.676944,8660.409521
1087.119949,2590.720797,-1685.410096,7772.162391
1087.120279,4071.132681,-153.219100,7328.038826
1087.120608,4589.276840,1378.971896,7328.038826
1087.120938,4811.338623,2757.943793,8364.327145
1087.121268,4737.318029,4673.182538,9326.594869
1087.121597,3997.112087,4596.572988,10214.842000
1087.121927,2812.782580,3294.210641,11177.109724
1087.122256,1628.453072,2451.505594,11547.212695
1087.122586,222.061783,919.314598,11325.150913
1087.122916,-592.164754,-383.047749,10658.965565
1087.123245,-1184.329507,-1225.752797,10066.800811
1087.123575,-814.226536,-1685.410096,10362.883188
1087.123905,-666.185348,-919.314598,10066.800811
1087.124234,-518.144159,-536.266849,9474.636058
1087.124564,222.061783,0.000000,9104.533087
1087.124893,1406.391290,306.438199,8808.450710
1087.125223,2442.679609,536.266849,8438.347739
1087.125553,3997.112087,383.047749,8364.327145
1087.125882,4663.297435,229.828649,8142.265362
1087.126212,4589.276840,842.705048,8438.347739
1087.126541,3923.091493,536.266849,9400.615463
1087.126871,3034.844362,2681.334243,9770.718434
1087.127201,2664.741391,2451.505594,10140.821405
1087.127530,2812.782580,2145.067394,10436.903782
1087.127860,2960.823768,2068.457845,10288.862594
1087.128190,2812.782580,1991.848295,9474.636058
1087.128519,3108.864956,1608.800546,8068.244768
1087.128849,3108.864956,1072.533697,7846.182985
1087.129178,2812.782580,766.095498,8216.285956
1087.129508,2146.597232,995.924147,8882.471304
1087.129838,740.205942,459.657299,9400.615463
1087.130167,-518.144159,306.438199,10066.800811
1087.130497,-1628.453072,0.000000,10362.883188
1087.130827,-1702.473667,-153.219100,11621.233289
1087.131156,-1850.514855,-612.876398,11695.253884
1087.131486,-2146.597232,-459.657299,11029.068536
1087.131815,-1258.350101,0.000000,10066.800811
1087.132145,0.000000,612.876398,9104.533087
1087.132475,2516.700203,0.000000,8216.285956
1087.132804,4663.297435,919.314598,7550.100608
1087.133134,7254.018232,2221.676944,7846.182985
1087.133463,9104.533087,3140.991542,8586.388927
1087.133793,9178.553681,4213.525239,9400.615463
1087.134123,7254.018232,4673.182538,10288.862594
1087.134452,5107.421000,4673.182538,11547.212695
1087.134782,2738.761985,3600.648841,13175.665768
1087.135112,0.000000,2145.067394,14359.995275
1087.135441,-3627.009116,306.438199,13915.871710
1087.135771,-6809.894666,-995.924147,12213.398043
1087.136100,-7402.059420,-2451.505594,10510.924376
1087.136430,-5847.626942,-2681.334243,7846.182985
1087.136760,-1776.494261,-2528.115143,4071.132681
1087.137089,4145.153275,-2987.772442,592.164754
1087.137419,9178.553681,-2757.943793,370.102971
1087.137749,10288.862594,995.924147,2960.823768
1087.138078,8808.450710,5362.668486,6587.832884
1087.138408,5921.647536,8350.440928,9918.759623
1087.138737,2442.679609,10035.851024,13249.686362
1087.139067,-814.226536,9116.536426,15544.324782
1087.139397,-3775.050304,3677.258390,16802.674883
1087.139726,-5329.482782,-1991.848295,16358.551318
1087.140056,-5995.668130,-4749.792088,14211.954086
1087.140385,-5181.441594,-4979.620737,11177.109724
1087.140715,-1702.473667,-6205.373534,9104.533087
1087.141045,3108.864956,-6205.373534,6513.812290
1087.141374,7624.121203,-3140.991542,2664.741391
1087.141704,12361.439231,-459.657299,2146.597232
1087.142034,15026.180623,1762.019645,5477.523971
1087.142363,12953.603985,6588.421283,9696.697840
1087.142693,6661.853478,9193.145976,12435.459826
1087.143022,222.061783,8427.050478,14285.974681
1087.143352,-3330.926739,5822.325785,15988.448347
1087.143682,-3923.091493,2834.553343,14952.160028
1087.144011,-2738.761985,-2528.115143,11695.253884
1087.144341,-1924.535449,-8350.440928,7031.956449
1087.144671,370.102971,-8350.440928,4293.194464
1087.145000,2812.782580,-6588.421283,4811.338623
1087.145330,2812.782580,-2834.553343,7031.956449
1087.145659,1776.494261,2374.896044,8512.368333
1087.145989,666.185348,5669.106685,9548.656652
1087.146319,1332.370696,6205.373534,11473.192101
1087.146648,2072.576638,5209.449386,13249.686362
1087.146978,1554.432478,2987.772442,13101.645173
1087.147308,518.144159,0.000000,12435.459826
1087.147637,-814.226536,-1838.629195,11917.315666
1087.147967,-2368.659014,-2681.334243,11917.315666
1087.148296,-2812.782580,-2911.162892,9326.594869
1087.148626,-740.205942,-3600.648841,4737.318029
1087.148956,3627.009116,-4366.744339,3256.906145
1087.149285,8660.409521,-3140.991542,4515.256246
1087.149615,12361.439231,2145.067394,6365.771101
1087.149944,11917.315666,5669.106685,7550.100608
1087.150274,8808.450710,7048.078582,8882.471304
1087.150604,4219.173869,9039.926876,11029.068536
1087.150933,740.205942,8273.831378,14804.118840
1087.151263,-1554.432478,4443.353888,17468.860231
1087.151593,-3997.112087,766.095498,16950.716072
1087.151922,-5847.626942,-1915.238745,13471.748144
1087.152252,-6587.832884,-5669.106685,10288.862594
1087.152581,-5773.606348,-7660.954980,8882.471304
1087.152914,-5477.523971,-6128.763984,7698.141797
1087.153243,-3849.070898,-1991.848295,5181.441594
1087.153573,296.082377,1378.971896,3404.947333
1087.153903,7031.956449,1915.238745,2664.741391
1087.154233,11547.212695,1608.800546,4293.194464
1087.154562,12065.356855,4749.792088,6439.791695
1087.154892,10436.903782,9193.145976,9400.615463
1087.155222,6587.832884,10801.946522,11917.315666
1087.155552,3478.967927,10189.070123,13323.706956
1087.155881,1554.432478,5669.106685,14730.098246
1087.156211,592.164754,-383.047749,15248.242405
1087.156541,-444.123565,-1991.848295,13397.727550
1087.156871,-2220.617826,-1455.581446,11177.109724
1087.157201,-2590.720797,-3753.867940,9918.759623
1087.157530,-2960.823768,-3983.696590,10066.800811
1087.157860,-2516.700203,-612.876398,9178.553681
1087.158190,888.247130,1149.143247,6217.729913
1087.158520,5699.585753,995.924147,2220.617826
1087.158849,10288.862594,2451.505594,888.247130
1087.159179,12509.480420,1455.581446,3256.906145
1087.159509,9178.553681,1762.019645,7105.977043
1087.159839,2738.761985,8197.221829,10807.006753
1087.160168,0.000000,8963.317327,13027.624579
1087.160498,-222.061783,4673.182538,14656.077652
1087.160828,-2146.597232,766.095498,15766.386565
1087.161158,-3478.967927,-3600.648841,14582.057057
1087.161487,-3849.070898,-7354.516781,11473.192101
1087.161817,-5477.523971,-5975.544884,9400.615463
1087.162147,-5699.585753,-2068.457845,8882.471304
1087.162477,-3256.906145,-842.705048,9030.512492
1087.162806,1036.288319,-1838.629195,7920.203579
1087.163136,4589.276840,-1608.800546,6735.874072
1087.163466,6883.915261,0.000000,6365.771101
1087.163796,6513.812290,3830.477490,6217.729913
1087.164125,6143.709319,5286.058936,9992.780217
1087.164455,6069.688724,5209.449386,13027.624579
1087.164785,5255.462188,5975.544884,15766.386565
1087.165115,962.267725,3447.429741,14434.015869
1087.165444,-4737.318029,1762.019645,11695.253884
1087.165774,-10214.842000,-1225.752797,10732.986159
1087.166104,-11029.068536,-3753.867940,12361.439231
1087.166434,-8216.285956,-4673.182538,11251.130318
1087.166763,-4959.379811,-5745.716235,7254.018232
1087.167093,-2886.803174,-6435.202183,4959.379811
1087.167423,-1554.432478,-4596.572988,4293.194464
1087.167753,2738.761985,383.047749,5033.400406
1087.168082,7402.059420,3370.820191,6883.915261
1087.168412,8956.491898,4979.620737,10288.862594
1087.168742,6587.832884,11108.384721,12139.377449
1087.169072,1850.514855,10342.289223,13619.789333
1087.169401,-1924.535449,5209.449386,12879.583391
1087.169731,-5625.565159,5439.278036,11695.253884
1087.170061,-6439.791695,2757.943793,10214.842000
1087.170391,-3849.070898,-4673.182538,9474.636058
1087.170720,-2368.659014,-8120.612279,7254.018232
1087.171050,-2960.823768,-6435.202183,3256.906145
1087.171380,-1184.329507,-5975.544884,1332.370696
1087.171710,2516.700203,-3294.210641,3997.112087
1087.172039,5625.565159,2681.334243,7550.100608
1087.172369,5625.565159,6281.983084,10510.924376
1087.172699,3330.926739,9576.193725,11843.295072
1087.173029,-296.082377,9576.193725,11843.295072
1087.173358,-2220.617826,5439.278036,14359.995275
1087.173688,-4515.256246,3983.696590,15988.448347
1087.174018,-7105.977043,2604.724693,13989.892304
1087.174348,-8142.265362,-3294.210641,10436.903782
1087.174677,-7550.100608,-7048.078582,6587.832884
1087.175007,-3627.009116,-7890.783629,4959.379811
1087.175337,1998.556043,-7660.954980,6439.791695
1087.175667,5329.482782,-3217.601092,6661.853478
1087.175997,4737.318029,5056.230287,7105.977043
1087.176326,3034.844362,8044.002729,8660.409521
1087.176656,1924.535449,7431.126331,11917.315666
1087.176986,-222.061783,8733.488677,15766.386565
1087.177316,-1998.556043,9959.241474,17024.736666
1087.177645,-3775.050304,6665.030833,15026.180623
1087.177975,-4737.318029,459.657299,11843.295072
1087.178305,-4959.379811,-6281.983084,8364.327145
1087.178635,-3701.029710,-10265.679673,5477.523971
1087.178964,-740.205942,-7890.783629,5477.523971
1087.179294,2294.638420,-3370.820191,6883.915261
1087.179624,3701.029710,-153.219100,7624.121203
1087.179954,2368.659014,3524.039291,8068.244768
1087.180283,1776.494261,6281.983084,7698.141797
1087.180613,2146.597232,7277.907231,9474.636058
1087.180943,1258.350101,9499.584175,11917.315666
1087.181273,-1258.350101,9193.145976,12953.603985
1087.181602,-4219.173869,2757.943793,12657.521608
1087.181932,-6735.874072,-2451.505594,9178.553681
1087.182262,-6809.894666,-5056.230287,5255.462188
1087.182592,-3256.906145,-8350.440928,4663.297435
1087.182921,1110.308913,-8044.002729,6365.771101
1087.183251,1628.453072,-3677.258390,6439.791695
1087.183581,888.247130,-612.876398,7179.997637
1087.183911,296.082377,1149.143247,7698.141797
1087.184240,-666.185348,5362.668486,9400.615463
1087.184570,-740.205942,7890.783629,13027.624579
1087.184900,-740.205942,7507.735880,15248.242405
1087.185230,-2146.597232,3753.867940,13693.809927
1087.185559,-2516.700203,-689.485948,10955.047942
1087.185889,-1998.556043,-3370.820191,7846.182985
1087.186219,-666.185348,-5439.278036,7772.162391
1087.186549,740.205942,-6128.763984,8216.285956
1087.186878,370.102971,-3983.696590,7994.224174
1087.187208,-1480.411884,-689.485948,9030.512492
1087.187538,-2664.741391,1915.238745,10955.047942
1087.187868,-2960.823768,3217.601092,11843.295072
1087.188197,-3775.050304,4826.401637,14137.933492
1087.188527,-4589.276840,6128.763984,15248.242405
1087.188857,-3478.967927,4519.963438,14137.933492
1087.189187,-1628.453072,-459.657299,10955.047942
1087.189516,-1184.329507,-3524.039291,7402.059420
1087.189846,-1406.391290,-1991.848295,6809.894666
1087.190176,814.226536,-1685.410096,8364.327145
1087.190506,3108.864956,-1532.190996,8660.409521
1087.190835,3701.029710,459.657299,7994.224174
1087.191165,1628.453072,3677.258390,7920.203579
1087.191495,444.123565,4443.353888,8364.327145
1087.191825,74.020594,5439.278036,10807.006753
1087.192154,-222.061783,7201.297681,11695.253884
1087.192484,-1036.288319,6588.421283,10584.944971
1087.192814,-1998.556043,2451.505594,8068.244768
1087.193144,-1702.473667,-1685.410096,5773.606348
1087.193473,-148.041188,-3064.381992,5773.606348
1087.193803,666.185348,-2451.505594,6217.729913
1087.194133,518.144159,-1532.190996,5699.585753
1087.194463,370.102971,-1149.143247,7031.956449
1087.194793,-888.247130,1225.752797,9400.615463
1087.195122,-3256.906145,3830.477490,10362.883188
1087.195452,-3923.091493,3677.258390,11399.171507
1087.195782,-3108.864956,3677.258390,11399.171507
1087.196112,-2516.700203,3830.477490,10436.903782
1087.196441,-2294.638420,536.266849,9844.739029
1087.196771,-592.164754,-3753.867940,7846.182985
1087.197101,370.102971,-3983.696590,7105.977043
1087.197431,1036.288319,-2221.676944,9030.512492
1087.197760,2220.617826,383.047749,9474.636058
1087.198090,3034.844362,1532.190996,9992.780217
1087.198420,2516.700203,919.314598,11547.212695
1087.198750,370.102971,2987.772442,12509.480420
1087.199079,-2368.659014,5439.278036,14508.036463
1087.199409,-3997.112087,4749.792088,15840.407159
1087.199739,-4959.379811,3064.381992,15026.180623
1087.200069,-5699.585753,459.657299,12583.501014
1087.200398,-5329.482782,-3064.381992,9474.636058
1087.200728,-2886.803174,-5822.325785,7179.997637
1087.201058,222.061783,-4290.134789,6217.729913
1087.201388,2886.803174,-2451.505594,6365.771101
1087.201717,3775.050304,-2221.676944,8290.306550
1087.202047,1554.432478,2068.457845,9992.780217
1087.202377,-1924.535449,6205.373534,10881.027347
1087.202707,-3923.091493,7890.783629,11621.233289
1087.203036,-3775.050304,7814.174080,13027.624579
1087.203366,-3478.967927,5362.668486,11251.130318
1087.203696,-2516.700203,0.000000,7772.162391
1087.204026,-1480.411884,-4673.182538,5181.441594
1087.204355,-1110.308913,-4136.915689,4071.132681
1087.204685,0.000000,-3294.210641,5329.482782
1087.205015,1480.411884,-2145.067394,5773.606348
1087.205345,1702.473667,1455.581446,6513.812290
1087.205674,888.247130,3830.477490,7920.203579
1087.206004,-296.082377,4519.963438,10214.842000
1087.206334,-2368.659014,7201.297681,10510.924376
1087.206664,-3478.967927,7124.688131,10807.006753
1087.206993,-3849.070898,3447.429741,10436.903782
1087.207323,-3552.988522,612.876398,10066.800811
1087.207653,-3404.947333,-2911.162892,8364.327145
1087.207983,-3923.091493,-6052.154434,6513.812290
1087.208312,-4441.235652,-5362.668486,7179.997637
1087.208642,-2072.576638,-2221.676944,9030.512492
1087.208972,1628.453072,-306.438199,9178.553681
1087.209302,2442.679609,459.657299,10288.862594
1087.209631,444.123565,2374.896044,11473.192101
1087.209961,-1702.473667,6052.154434,13101.645173
1087.210291,-1258.350101,6818.249932,15544.324782
1087.210621,-1332.370696,5209.449386,16062.468941
1087.210950,-3627.009116,2987.772442,14730.098246
1087.211280,-4737.318029,536.266849,12361.439231
1087.211610,-2664.741391,-3217.601092,9326.594869
1087.211940,666.185348,-6281.983084,7846.182985
1087.212269,2368.659014,-3524.039291,6661.853478
1087.212599,3478.967927,-1532.190996,6883.915261
1087.212929,3404.947333,153.219100,8808.450710
1087.213259,1258.350101,3524.039291,10140.821405
1087.213589,-1480.411884,7201.297681,10955.047942
1087.213918,-2812.782580,8733.488677,11917.315666
1087.214248,-2294.638420,7124.688131,11695.253884
1087.214578,-1776.494261,3600.648841,9474.636058
1087.214908,-2368.659014,-766.095498,7402.059420
1087.215237,-2886.803174,-3830.477490,4885.359217
1087.215567,-2368.659014,-4596.572988,3849.070898
1087.215897,222.061783,-3524.039291,5329.482782
1087.216227,1924.535449,-1455.581446,6587.832884
1087.216556,2220.617826,1608.800546,7476.080014
1087.216886,592.164754,3294.210641,7105.977043
1087.217216,-666.185348,4213.525239,7105.977043
1087.217546,-888.247130,5822.325785,9622.677246
1087.217875,-1036.288319,6511.811733,12065.356855
1087.218205,-2442.679609,4060.306139,11991.336260
1087.218535,-4219.173869,0.000000,10214.842000
1087.218865,-4663.297435,-2834.553343,7550.100608
1087.219194,-3256.906145,-4903.011187,6587.832884
1087.219524,296.082377,-6511.811733,7550.100608
1087.219854,2812.782580,-4443.353888,8734.430116
1087.220184,2812.782580,-1225.752797,10140.821405
1087.220513,296.082377,1608.800546,10658.965565
1087.220843,-2220.617826,3677.258390,11621.233289
1087.221173,-2590.720797,5286.058936,14434.015869
1087.221503,-1924.535449,6741.640382,16506.592507
1087.221832,-2294.638420,4826.401637,15544.324782
1087.222162,-2664.741391,766.095498,12879.583391
1087.222492,-2960.823768,-2987.772442,9696.697840
1087.222822,-2368.659014,-4749.792088,7402.059420
1087.223151,-222.061783,-4366.744339,8142.265362
1087.223481,2072.576638,-2757.943793,8882.471304
1087.223811,2590.720797,229.828649,10658.965565
1087.224141,0.000000,2987.772442,11843.295072
1087.224470,-3627.009116,4596.572988,12361.439231
1087.224800,-4589.276840,7660.954980,11843.295072
1087.225130,-2590.720797,7124.688131,11325.150913
1087.225460,-1110.308913,2834.553343,10658.965565
1087.225789,-814.226536,-536.266849,8882.471304
1087.226119,-2220.617826,-3217.601092,5847.626942
1087.226449,-2072.576638,-3677.258390,2960.823768
1087.226779,0.000000,-2757.943793,4219.173869
1087.227108,2738.761985,0.000000,6661.853478
1087.227438,3256.906145,2528.115143,7402.059420
1087.227768,2516.700203,2374.896044,7254.018232
1087.228098,444.123565,4903.011187,6661.853478
1087.228427,-1258.350101,7201.297681,8142.265362
1087.228757,-2368.659014,6665.030833,10955.047942
1087.229087,-3552.988522,4903.011187,12435.459826
1087.229417,-4959.379811,1991.848295,10436.903782
1087.229746,-5921.647536,-1455.581446,6439.791695
1087.230076,-5477.523971,-5362.668486,4441.235652
1087.230406,-2812.782580,-5745.716235,4737.318029
1087.230736,74.020594,-4290.134789,7402.059420
1087.231065,814.226536,-2451.505594,9104.533087
1087.231395,0.000000,1149.143247,10955.047942
1087.231725,-1776.494261,4290.134789,11917.315666
1087.232055,-1850.514855,5515.887586,12879.583391
1087.232385,-740.205942,4903.011187,14656.077652
1087.232714,-1110.308913,4136.915689,15026.180623
1087.233044,-1406.391290,2145.067394,13767.830521
1087.233374,-1850.514855,-1378.971896,12139.377449
1087.233704,-1628.453072,-4596.572988,9918.759623
1087.234033,-222.061783,-4290.134789,9992.780217
1087.234363,1332.370696,-2911.162892,10140.821405
1087.234693,3108.864956,-919.314598,11029.068536
1087.235023,2368.659014,1532.190996,11769.274478
1087.235352,0.000000,3524.039291,11769.274478
1087.235682,-2368.659014,6435.202183,10732.986159
1087.236012,-2368.659014,5822.325785,11547.212695
1087.236342,-2072.576638,4596.572988,12065.356855
1087.236671,-2812.782580,1915.238745,10214.842000
1087.237001,-4145.153275,-1149.143247,7402.059420
1087.237331,-3997.112087,-3830.477490,4737.318029
1087.237661,-1480.411884,-4136.915689,4737.318029
1087.237990,1776.494261,-2451.505594,5699.585753
1087.238320,3627.009116,-766.095498,5921.647536
1087.238650,2368.659014,1685.410096,6513.812290
1087.238980,-222.061783,5669.106685,7402.059420
1087.239309,-1332.370696,6511.811733,8956.491898
1087.239639,-1110.308913,6818.249932,10807.006753
1087.239969,-1924.535449,6281.983084,11473.192101
1087.240299,-3849.070898,3294.210641,9918.759623
1087.240628,-3775.050304,-1072.533697,7550.100608
1087.240958,-3256.906145,-4673.182538,4737.318029
1087.241288,-1850.514855,-5362.668486,4811.338623
1087.241618,370.102971,-4366.744339,6957.935855
1087.241947,1406.391290,-1685.410096,8438.347739
1087.242277,1480.411884,1072.533697,10066.800811
1087.242607,-296.082377,2987.772442,10955.047942
1087.242937,-2738.761985,5209.449386,11621.233289
1087.243266,-3330.926739,6665.030833,13471.748144
1087.243596,-2738.761985,4749.792088,14730.098246
1087.243926,-2960.823768,2145.067394,13989.892304
1087.244256,-4071.132681,-1762.019645,12287.418637
1087.244585,-3997.112087,-4213.525239,9770.718434
1087.244915,-3034.844362,-4749.792088,8068.244768
1087.245245,-1110.308913,-3830.477490,8364.327145
1087.245575,2368.659014,-2451.505594,10288.862594
1087.245904,3701.029710,0.000000,11843.295072
1087.246234,1332.370696,3447.429741,13841.851115
1087.246564,-2220.617826,6511.811733,12805.562797
1087.246894,-3478.967927,9039.926876,12065.356855
1087.247223,-2294.638420,5898.935335,12583.501014
1087.247553,-1998.556043,766.095498,12953.603985
1087.247883,-2738.761985,76.609550,11103.089130
1087.248213,-3849.070898,-2757.943793,6661.853478
1087.248542,-1776.494261,-4596.572988,3552.988522
1087.248872,1110.308913,-3600.648841,3478.967927
1087.249202,4367.215058,-2145.067394,4441.235652
1087.249532,6587.832884,-766.095498,5181.441594
1087.249861,4959.379811,2987.772442,6291.750507
1087.250191,1258.350101,8656.879127,7772.162391
1087.250521,-518.144159,8350.440928,11473.192101
1087.250851,-2146.597232,7737.564530,13989.892304
1087.251181,-5107.421000,7584.345430,10658.965565
1087.251510,-6069.688724,766.095498,7698.141797
1087.251840,-4515.256246,-4443.353888,6291.750507
1087.252169,-4367.215058,-5209.449386,4293.194464
1087.252499,-2442.679609,-7967.393179,4515.256246
1087.252829,-518.144159,-7048.078582,6365.771101
1087.253158,666.185348,306.438199,8808.450710
1087.253488,814.226536,3217.601092,10807.006753
1087.253817,-962.267725,2451.505594,10510.924376
1087.254147,-2590.720797,6741.640382,10584.944971
1087.254477,-2368.659014,7814.174080,13397.727550
1087.254806,-370.102971,2221.676944,15840.407159
1087.255136,-1850.514855,459.657299,14804.118840
1087.255465,-4441.235652,-153.219100,11547.212695
1087.255795,-4515.256246,-5439.278036,8512.368333
1087.256125,-1184.329507,-7124.688131,9918.759623
1087.256454,1998.556043,-3907.087040,11769.274478
1087.256784,3627.009116,-1149.143247,12287.418637
1087.257113,1924.535449,1378.971896,11547.212695
1087.257443,-666.185348,4596.572988,11251.130318
1087.257773,-1332.370696,7048.078582,12435.459826
1087.258102,-1628.453072,7431.126331,13915.871710
1087.258432,-2960.823768,6818.249932,12139.377449
1087.258761,-4293.194464,2834.553343,10066.800811
1087.259091,-4441.235652,-1378.971896,8734.430116
1087.259421,-3701.029710,-3447.429741,6957.935855
1087.259750,-2368.659014,-4979.620737,5625.565159
1087.260080,-518.144159,-4290.134789,4811.338623
1087.260409,1480.411884,-995.924147,5181.441594
1087.260739,2146.597232,2298.286494,7254.018232
1087.261068,1258.350101,4596.572988,7179.997637
1087.261398,-222.061783,6281.983084,7476.080014
1087.261728,0.000000,7967.393179,10214.842000
1087.262057,-444.123565,7890.783629,11399.171507
1087.262387,-1628.453072,5132.839837,10140.821405
1087.262716,-1850.514855,383.047749,7772.162391
1087.263046,-1850.514855,-2604.724693,4959.379811
1087.263376,-888.247130,-3677.258390,4071.132681
1087.263705,1702.473667,-4136.915689,4885.359217
1087.264035,3923.091493,-2528.115143,7476.080014
1087.264364,3108.864956,1685.410096,9326.594869
1087.264694,-370.102971,3753.867940,9770.718434
1087.265024,-3108.864956,4136.915689,10584.944971
1087.265353,-2960.823768,5669.106685,13323.706956
1087.265683,-3552.988522,4749.792088,15396.283594
1087.266012,-4737.318029,2451.505594,13915.871710
1087.266342,-5625.565159,-1838.629195,10658.965565
1087.266672,-4737.318029,-5056.230287,7328.038826
1087.267001,-2368.659014,-6894.859482,6883.915261
1087.267331,74.020594,-6511.811733,9474.636058
1087.267660,1110.308913,-2911.162892,11917.315666
1087.267990,666.185348,1378.971896,13101.645173
1087.268320,-740.205942,4060.306139,13175.665768
1087.268649,-1258.350101,5209.449386,12065.356855
1087.268979,-370.102971,5056.230287,12879.583391
1087.269308,0.000000,4290.134789,15174.221811
1087.269638,-1036.288319,3677.258390,14730.098246
1087.269967,-3034.844362,1608.800546,11251.130318
1087.270297,-3330.926739,-2298.286494,7698.141797
1087.270627,-1480.411884,-5362.668486,6217.729913
1087.270956,1406.391290,-4826.401637,5995.668130
1087.271286,4515.256246,-3677.258390,5773.606348
1087.271615,5477.523971,-383.047749,6291.750507
1087.271945,3997.112087,3524.039291,7994.224174
1087.272275,74.020594,5592.497135,9030.512492
1087.272604,-2738.761985,6435.202183,9844.739029
1087.272934,-3404.947333,7737.564530,11547.212695
1087.273263,-3330.926739,6971.469032,10807.006753
1087.273593,-2442.679609,1149.143247,7772.162391
1087.273923,-3256.906145,-4366.744339,4737.318029
1087.274252,-4071.132681,-5822.325785,2442.679609
1087.274582,-1702.473667,-4903.011187,4145.153275
1087.274911,1406.391290,-2604.724693,6439.791695
1087.275241,2516.700203,-153.219100,8808.450710
1087.275571,74.020594,3370.820191,9844.739029
1087.275900,-2442.679609,5209.449386,9992.780217
1087.276230,-2368.659014,4979.620737,10881.027347
1087.276559,-2146.597232,4443.353888,13767.830521
1087.276889,-3330.926739,4749.792088,14063.912898
1087.277219,-4441.235652,1455.581446,11843.295072
1087.277548,-4145.153275,-3370.820191,8586.388927
1087.277878,-2812.782580,-6435.202183,6661.853478
1087.278207,-296.082377,-6588.421283,8290.306550
1087.278537,1702.473667,-4213.525239,10732.986159
1087.278867,2368.659014,153.219100,11843.295072
1087.279196,1850.514855,3753.867940,13249.686362
1087.279526,888.247130,4596.572988,13175.665768
1087.279855,-1258.350101,6971.469032,12435.459826
1087.280185,-1998.556043,6358.592633,13841.851115
1087.280514,-2146.597232,4903.011187,14582.057057
1087.280844,-2664.741391,2374.896044,14137.933492
1087.281174,-4219.173869,-689.485948,11547.212695
1087.281503,-5403.503377,-4443.353888,7328.038826
1087.281833,-3404.947333,-6052.154434,6217.729913
1087.282162,370.102971,-5056.230287,6957.935855
1087.282492,3478.967927,-1838.629195,7105.977043
1087.282822,2960.823768,1225.752797,7550.100608
1087.283151,962.267725,3447.429741,8068.244768
1087.283481,-666.185348,6052.154434,9474.636058
1087.283810,-740.205942,8656.879127,11399.171507
1087.284140,-814.226536,7431.126331,10955.047942
1087.284470,-1184.329507,4366.744339,9030.512492
1087.284799,-1628.453072,0.000000,5625.565159
1087.285129,-1332.370696,-3753.867940,3256.906145
1087.285458,370.102971,-4979.620737,3478.967927
1087.285788,2146.597232,-3907.087040,5181.441594
1087.286118,1850.514855,-229.828649,6661.853478
1087.286447,0.000000,1149.143247,8512.368333
1087.286777,-1924.535449,3217.601092,9844.739029
1087.287106,-2886.803174,3753.867940,10955.047942
1087.287436,-3182.885551,4366.744339,12731.542202
1087.287766,-3849.070898,4673.182538,13323.706956
1087.288095,-4589.276840,2604.724693,11769.274478
1087.288425,-3404.947333,-2221.676944,8882.471304
1087.288754,-1332.370696,-5286.058936,6143.709319
1087.289084,-148.041188,-6052.154434,6143.709319
1087.289414,1406.391290,-4826.401637,8882.471304
1087.289743,2516.700203,-1225.752797,11177.109724
1087.290073,2664.741391,2221.676944,12287.418637
1087.290402,1036.288319,2987.772442,12583.501014
1087.290732,-296.082377,3370.820191,14285.974681
1087.291061,-1036.288319,4979.620737,17690.922014
1087.291391,-2146.597232,5132.839837,16950.716072
1087.291721,-3404.947333,3064.381992,13841.851115
1087.292050,-3256.906145,0.000000,11029.068536
1087.292380,-2146.597232,-3447.429741,8290.306550
1087.292709,370.102971,-6971.469032,6587.832884
1087.293039,2590.720797,-5515.887586,7179.997637
1087.293369,3849.070898,-306.438199,6513.812290
1087.293698,1554.432478,3064.381992,6439.791695
1087.294028,-666.185348,3140.991542,8438.347739
1087.294357,-2442.679609,5592.497135,10362.883188
1087.294687,-2960.823768,8120.612279,11399.171507
1087.295017,-2812.782580,6665.030833,11769.274478
1087.295346,-3627.009116,3600.648841,9696.697840
1087.295676,-3404.947333,459.657299,7254.018232
1087.296005,-2738.761985,-3830.477490,4367.215058
1087.296335,-1332.370696,-5439.278036,3552.988522
1087.296665,370.102971,-1608.800546,4959.379811
1087.296994,1850.514855,612.876398,6217.729913
1087.297324,2368.659014,1608.800546,7994.224174
1087.297653,1036.288319,3983.696590,8956.491898
1087.297983,-1850.514855,5056.230287,9104.533087
1087.298313,-2812.782580,5362.668486,9400.615463
1087.298642,-3034.844362,6281.983084,11399.171507
1087.298972,-2886.803174,4366.744339,12287.418637
1087.299301,-3108.864956,76.609550,10288.862594
1087.299631,-3849.070898,-3600.648841,6513.812290
1087.299960,-3182.885551,-4443.353888,5403.503377
1087.300290,-666.185348,-4903.011187,7624.121203
1087.300620,1258.350101,-3370.820191,10510.924376
1087.300949,1406.391290,766.095498,12361.439231
1087.301279,74.020594,2451.505594,12953.603985
1087.301608,-1776.494261,4903.011187,12287.418637
1087.301938,-1924.535449,5975.544884,12361.439231
1087.302268,-1480.411884,2374.896044,16210.510130
1087.302597,-2368.659014,2757.943793,16802.674883
1087.302927,-4811.338623,1838.629195,14211.954086
1087.303256,-4589.276840,-1685.410096,10140.821405
1087.303586,-1924.535449,-4290.134789,7550.100608
1087.303916,1036.288319,-5592.497135,6883.915261
1087.304245,3923.091493,-4979.620737,5995.668130
1087.304575,5699.585753,-2528.115143,7179.997637
1087.304904,4293.194464,3140.991542,9326.594869
1087.305234,592.164754,6741.640382,10584.944971
1087.305564,-2294.638420,7124.688131,10955.047942
1087.305893,-2516.700203,7277.907231,12139.377449
1087.306223,-2812.782580,5439.278036,12139.377449
1087.306552,-2664.741391,2911.162892,10510.924376
1087.306882,-2812.782580,-536.266849,6735.874072
1087.307212,-3256.906145,-3524.039291,3775.050304
1087.307541,-1776.494261,-4290.134789,3256.906145
1087.307871,0.000000,-3217.601092,4737.318029
1087.308200,1628.453072,-766.095498,5625.565159
1087.308530,1036.288319,2528.115143,7402.059420
1087.308860,-1702.473667,4826.401637,7402.059420
1087.309189,-3404.947333,5362.668486,7550.100608
1087.309519,-2812.782580,4060.306139,10362.883188
1087.309848,-2294.638420,4903.011187,13175.665768
1087.310178,-3997.112087,3524.039291,12583.501014
1087.310507,-6143.709319,-919.314598,9548.656652
1087.310837,-5181.441594,-2987.772442,7105.977043
1087.311167,-2516.700203,-4366.744339,7698.141797
1087.311496,1036.288319,-5209.449386,8734.430116
1087.311826,2664.741391,-1991.848295,8512.368333
1087.312155,2812.782580,383.047749,10214.842000
1087.312485,1480.411884,1302.362347,12361.439231
1087.312815,-1406.391290,4673.182538,13471.748144
1087.313144,-3108.864956,7967.393179,14211.954086
1087.313474,-2368.659014,5056.230287,15396.283594
1087.313803,-1332.370696,1302.362347,14878.139434
1087.314133,-1480.411884,-995.924147,12287.418637
1087.314463,-1924.535449,-3830.477490,7920.203579
1087.314792,-444.123565,-5669.106685,7624.121203
1087.315122,1406.391290,-2911.162892,8660.409521
1087.315451,3404.947333,76.609550,8142.265362
1087.315781,3256.906145,76.609550,8142.265362
1087.316111,1628.453072,1685.410096,9178.553681
1087.316440,0.000000,5056.230287,10955.047942
1087.316770,-592.164754,6128.763984,12805.562797
1087.317099,-1850.514855,5515.887586,13545.768739
1087.317429,-3478.967927,4290.134789,11769.274478
1087.317759,-3256.906145,1455.581446,9178.553681
1087.318088,-962.267725,-3064.381992,5255.462188
1087.318418,1184.329507,-5056.230287,3552.988522
1087.318747,3034.844362,-2451.505594,3701.029710
1087.319077,4589.276840,306.438199,5477.523971
1087.319407,4145.153275,1225.752797,7031.956449
1087.319736,2220.617826,4290.134789,8290.306550
1087.320066,-1332.370696,5592.497135,8586.388927
1087.320395,-2442.679609,6511.811733,10732.986159
1087.320725,-2664.741391,5592.497135,12583.501014
1087.321054,-3849.070898,3983.696590,11843.295072
1087.321384,-4737.318029,153.219100,9844.739029
1087.321714,-4589.276840,-3600.648841,6439.791695
1087.322043,-3330.926739,-4213.525239,4367.215058
1087.322373,-444.123565,-5132.839837,5921.647536
1087.322702,2072.576638,-3524.039291,8068.244768
1087.323032,1628.453072,766.095498,9548.656652
1087.323362,518.144159,3294.210641,11251.130318
1087.323691,-1776.494261,4060.306139,11843.295072
1087.324021,-3256.906145,7201.297681,13397.727550
1087.324350,-3627.009116,6052.154434,15914.427753
1087.324680,-4145.153275,2221.676944,16062.468941
1087.325010,-4811.338623,0.000000,13249.686362
1087.325339,-4737.318029,-2068.457845,10362.883188
1087.325669,-2960.823768,-4903.011187,7994.224174
1087.325998,-370.102971,-6588.421283,7994.224174
1087.326328,2072.576638,-3753.867940,8364.327145
1087.326658,3182.885551,229.828649,8734.430116
1087.326987,3034.844362,2451.505594,9770.718434
1087.327317,222.061783,5056.230287,9770.718434
1087.327646,-1628.453072,5592.497135,11769.274478
1087.327976,-2368.659014,5362.668486,13841.851115
1087.328306,-3182.885551,5209.449386,13545.768739
1087.328635,-3627.009116,2221.676944,10955.047942
1087.328965,-3478.967927,-1302.362347,8290.306550
1087.329294,-2590.720797,-3217.601092,5181.441594
1087.329624,222.061783,-4443.353888,4663.297435
1087.329953,2812.782580,-4366.744339,4589.276840
1087.330283,5033.400406,459.657299,4737.318029
1087.330613,3923.091493,4136.915689,7031.956449
1087.330942,1036.288319,4596.572988,8660.409521
1087.331272,-2072.576638,6511.811733,9622.677246
1087.331601,-3552.988522,7048.078582,11325.150913
1087.331931,-3478.967927,4749.792088,12509.480420
1087.332261,-3701.029710,2298.286494,11843.295072
1087.332590,-4959.379811,-1991.848295,8808.450710
1087.332920,-4367.215058,-4979.620737,4959.379811
1087.333249,-1332.370696,-6511.811733,3478.967927
1087.333579,2368.659014,-4136.915689,4515.256246
1087.333909,4441.235652,-1072.533697,7105.977043
1087.334238,3849.070898,1608.800546,10140.821405
1087.334568,518.144159,4290.134789,11695.253884
1087.334897,-2368.659014,7890.783629,11547.212695
1087.335227,-3256.906145,7354.516781,14137.933492
1087.335557,-2738.761985,3907.087040,16876.695478
1087.335886,-3404.947333,995.924147,15840.407159
1087.336216,-3923.091493,-2681.334243,12879.583391
1087.336545,-2738.761985,-5669.106685,9104.533087
1087.336875,-1332.370696,-5056.230287,6439.791695
1087.337205,740.205942,-4136.915689,5255.462188
1087.337534,3404.947333,-3294.210641,7476.080014
1087.337864,4811.338623,0.000000,11177.109724
1087.338193,1628.453072,5822.325785,11769.274478
1087.338523,-2146.597232,7354.516781,11029.068536
1087.338853,-3404.947333,6128.763984,14285.974681
1087.339182,-4663.297435,6818.249932,15470.304188
1087.339512,-4071.132681,3370.820191,14359.995275
1087.339841,-3108.864956,-2911.162892,10732.986159
1087.340171,-3775.050304,-3600.648841,5625.565159
1087.340500,-2664.741391,-3447.429741,3627.009116
1087.340830,1406.391290,-6281.983084,5107.421000
1087.341160,4441.235652,-2528.115143,5995.668130
1087.341489,3923.091493,3753.867940,5107.421000
1087.341819,2812.782580,4903.011187,6069.688724
1087.342148,1998.556043,5745.716235,8512.368333
1087.342478,0.000000,8963.317327,10807.006753
1087.342808,-2886.803174,7201.297681,12435.459826
1087.343137,-5181.441594,5056.230287,12361.439231
1087.343467,-6513.812290,2451.505594,10584.944971
1087.343796,-5403.503377,-3370.820191,7476.080014
1087.344126,-4293.194464,-6818.249932,4737.318029
1087.344456,-2072.576638,-5898.935335,3997.112087
1087.344785,1332.370696,-4443.353888,4071.132681
1087.345115,2442.679609,-1838.629195,6661.853478
1087.345444,888.247130,3217.601092,10140.821405
1087.345774,-2664.741391,6511.811733,11843.295072
1087.346104,-4737.318029,7660.954980,12435.459826
1087.346433,-4071.132681,7048.078582,14285.974681
1087.346763,-3256.906145,4673.182538,13841.851115
1087.347092,-2664.741391,0.000000,12065.356855
1087.347422,-1924.535449,-3830.477490,9178.553681
1087.347752,-962.267725,-5822.325785,7698.141797
1087.348081,296.082377,-5669.106685,7994.224174
1087.348411,2442.679609,-2221.676944,8882.471304
1087.348740,3775.050304,76.609550,10140.821405
1087.349070,3256.906145,1838.629195,11843.295072
1087.349400,518.144159,4826.401637,12213.398043
1087.349729,-666.185348,6128.763984,14285.974681
1087.350059,-1776.494261,5669.106685,15766.386565
1087.350388,-4071.132681,5362.668486,15470.304188
1087.350718,-5255.462188,2834.553343,12879.583391
1087.351047,-4367.215058,-995.924147,8586.388927
1087.351377,-2294.638420,-5898.935335,4663.297435
1087.351707,814.226536,-5898.935335,3108.864956
1087.352036,3256.906145,-3830.477490,3923.091493
1087.352366,4589.276840,-536.266849,5107.421000
1087.352695,2442.679609,3447.429741,6809.894666
1087.353025,0.000000,6052.154434,8808.450710
1087.353355,-2072.576638,8350.440928,9992.780217
1087.353684,-2960.823768,8197.221829,12731.542202
1087.354014,-3923.091493,5286.058936,13471.748144
1087.354343,-4219.173869,2374.896044,11843.295072
1087.354673,-4589.276840,-2068.457845,8438.347739
1087.355002,-3701.029710,-4903.011187,4145.153275
1087.355332,-1480.411884,-6358.592633,3330.926739
1087.355661,1184.329507,-4519.963438,4663.297435
1087.355991,2664.741391,-612.876398,6069.688724
1087.356320,2294.638420,1838.629195,7254.018232
1087.356650,296.082377,4903.011187,9474.636058
1087.356979,-2368.659014,7431.126331,10807.006753
1087.357309,-2960.823768,6665.030833,13841.851115
1087.357638,-3478.967927,4213.525239,14582.057057
1087.357968,-3701.029710,1762.019645,14359.995275
1087.358297,-4367.215058,-2145.067394,11103.089130
1087.358627,-3923.091493,-3983.696590,6365.771101
1087.358956,-2146.597232,-5822.325785,4589.276840
1087.359286,2220.617826,-6894.859482,7994.224174
1087.359615,4219.173869,-3064.381992,11325.150913
1087.359945,2516.700203,2987.772442,11843.295072
1087.360274,-888.247130,4749.792088,11769.274478
1087.360604,-2368.659014,6281.983084,13545.768739
1087.360933,-2294.638420,6818.249932,16802.674883
1087.361263,-2072.576638,4290.134789,17320.819043
1087.361592,-3404.947333,1915.238745,14137.933492
1087.361922,-3701.029710,1149.143247,9622.677246
1087.362251,-2146.597232,-3370.820191,7031.956449
1087.362581,370.102971,-8197.221829,4737.318029
1087.362910,1998.556043,-4826.401637,3775.050304
1087.363240,3849.070898,-1225.752797,3701.029710
1087.363569,6069.688724,612.876398,6365.771101
1087.363899,3478.967927,4673.182538,8882.471304
1087.364228,-592.164754,7814.174080,10584.944971
1087.364558,-3034.844362,7967.393179,12213.398043
1087.364887,-4145.153275,7354.516781,13249.686362
1087.365217,-3701.029710,6128.763984,11917.315666
1087.365547,-3108.864956,-536.266849,10288.862594
1087.365876,-2960.823768,-4213.525239,5847.626942
1087.366206,-2442.679609,-5745.716235,2146.597232
1087.366535,222.061783,-7277.907231,2960.823768
1087.366865,2590.720797,-2451.505594,5403.503377
1087.367194,2072.576638,2757.943793,7476.080014
1087.367524,-148.041188,3600.648841,9178.553681
1087.367853,-2664.741391,4366.744339,9844.739029
1087.368183,-3552.988522,6358.592633,10881.027347
1087.368512,-3182.885551,5975.544884,13249.686362
1087.368842,-3404.947333,3370.820191,13619.789333
1087.369171,-4515.256246,459.657299,11843.295072
1087.369501,-4515.256246,-3064.381992,8586.388927
1087.369830,-2590.720797,-6052.154434,5995.668130
1087.370160,592.164754,-5898.935335,6143.709319
1087.370489,3478.967927,-4749.792088,8586.388927
1087.370819,3627.009116,-459.657299,11103.089130
1087.371148,1850.514855,3524.039291,12509.480420
1087.371478,0.000000,5669.106685,12805.562797
1087.371807,-1850.514855,6435.202183,14656.077652
1087.372137,-2886.803174,6052.154434,17024.736666
1087.372466,-3923.091493,4596.572988,17394.839637
1087.372796,-3997.112087,536.266849,14804.118840
1087.373125,-4219.173869,-2145.067394,8956.491898
1087.373455,-2812.782580,-5286.058936,4737.318029
1087.373784,518.144159,-7277.907231,4145.153275
1087.374114,3182.885551,-5286.058936,3997.112087
1087.374443,4071.132681,-919.314598,4885.359217
1087.374773,2960.823768,3447.429741,7920.203579
1087.375102,0.000000,6588.421283,10881.027347
1087.375432,-3627.009116,9346.365076,11843.295072
1087.375761,-4737.318029,8580.269578,13397.727550
1087.376091,-3552.988522,5286.058936,13175.665768
1087.376420,-2664.741391,2987.772442,10807.006753
1087.376750,-2590.720797,-1838.629195,6957.935855
1087.377079,-2664.741391,-5439.278036,3997.112087
1087.377409,-1480.411884,-4903.011187,1332.370696
1087.377738,1628.453072,-3753.867940,2368.659014
1087.378068,4071.132681,-1149.143247,5181.441594
1087.378397,3034.844362,3140.991542,8438.347739
1087.378727,0.000000,4826.401637,9770.718434
1087.379056,-2590.720797,4903.011187,11473.192101
1087.379386,-3923.091493,7967.393179,13249.686362
1087.379715,-5329.482782,7584.345430,14063.912898
1087.380045,-5551.544565,2374.896044,12657.521608
1087.380374,-5329.482782,-2221.676944,9104.533087
1087.380704,-4219.173869,-4213.525239,5255.462188
1087.381033,-1110.308913,-7584.345430,4367.215058
1087.381363,2072.576638,-8120.612279,6217.729913
1087.381692,2886.803174,-2374.896044,9474.636058
1087.382022,1776.494261,1838.629195,11769.274478
1087.382351,666.185348,2987.772442,12731.542202
1087.382681,0.000000,5592.497135,14582.057057
1087.383010,-814.226536,6588.421283,17468.860231
1087.383340,-2294.638420,6435.202183,18061.024985
1087.383669,-2368.659014,3600.648841,17172.777854
1087.383999,-1628.453072,-383.047749,13989.892304
1087.384328,-2590.720797,-3600.648841,7846.182985
1087.384658,-1110.308913,-5975.544884,4663.297435
1087.384987,1924.535449,-5669.106685,5329.482782
1087.385317,4663.297435,-2911.162892,6217.729913
1087.385646,3552.988522,1378.971896,7179.997637
1087.385976,222.061783,4060.306139,8068.244768
1087.386305,-2220.617826,5362.668486,9918.759623
1087.386635,-3775.050304,7201.297681,11917.315666
1087.386965,-4145.153275,6894.859482,13619.789333
1087.387294,-3997.112087,5515.887586,11473.192101
1087.387624,-2960.823768,-306.438199,9326.594869
1087.387953,-2812.782580,-4903.011187,5995.668130
1087.388283,-3108.864956,-3907.087040,3701.029710
1087.388612,-888.247130,-3370.820191,3775.050304
1087.388942,2886.803174,-1915.238745,5107.421000
1087.389271,3849.070898,1608.800546,7179.997637
1087.389601,1924.535449,3370.820191,7254.018232
1087.389930,-296.082377,4136.915689,8512.368333
1087.390260,-1924.535449,5822.325785,11177.109724
1087.390589,-3108.864956,8044.002729,13841.851115
1087.390919,-4737.318029,6128.763984,13027.624579
1087.391248,-4145.153275,1532.190996,10140.821405
1087.391578,-2516.700203,-2834.553343,5847.626942
1087.391907,-1258.350101,-7890.783629,4219.173869
1087.392237,222.061783,-6665.030833,5107.421000
1087.392566,1628.453072,-2834.553343,7698.141797
1087.392896,2294.638420,0.000000,10732.986159
1087.393225,370.102971,2298.286494,12361.439231
1087.393555,-1998.556043,4519.963438,13619.789333
1087.393884,-2738.761985,6052.154434,16062.468941
1087.394214,-2590.720797,5286.058936,17690.922014
1087.394543,-2664.741391,4749.792088,16728.654289
1087.394873,-2516.700203,2298.286494,13767.830521
1087.395202,-1332.370696,-2068.457845,9252.574275
1087.395532,-666.185348,-5592.497135,6661.853478
1087.395861,740.205942,-5286.058936,6513.812290
1087.396191,2220.617826,-2298.286494,6143.709319
1087.396520,3701.029710,766.095498,6661.853478
1087.396850,3404.947333,2604.724693,9326.594869
1087.397179,0.000000,3370.820191,11103.089130
1087.397509,-3330.926739,5745.716235,12731.542202
1087.397838,-4367.215058,6665.030833,14137.933492
1087.398168,-4293.194464,5439.278036,13619.789333
1087.398497,-3923.091493,3370.820191,11399.171507
1087.398827,-2442.679609,-919.314598,6439.791695
1087.399156,-518.144159,-4903.011187,2812.782580
1087.399486,2368.659014,-5669.106685,1406.391290
1087.399815,4071.132681,-2757.943793,2368.659014
1087.400145,4737.318029,229.828649,4811.338623
1087.400474,3478.967927,3064.381992,9252.574275
1087.400804,-888.247130,5515.887586,10066.800811
1087.401133,-4219.173869,7737.564530,9178.553681
1087.401463,-4885.359217,6358.592633,9918.759623
1087.401792,-4219.173869,3217.601092,12213.398043
1087.402122,-5033.400406,1455.581446,12361.439231
1087.402451,-6069.688724,-2528.115143,9474.636058
1087.402781,-6957.935855,-5822.325785,5921.647536
1087.403110,-5107.421000,-4519.963438,4737.318029
1087.403440,-592.164754,-4519.963438,6291.750507
1087.403769,3108.864956,-4749.792088,8290.306550
1087.404099,2960.823768,-306.438199,10510.924376
1087.404428,-888.247130,5975.544884,11769.274478
1087.404758,-2294.638420,7124.688131,13323.706956
1087.405087,-1480.411884,4443.353888,16728.654289
1087.405417,-2368.659014,5439.278036,17616.901420
1087.405746,-3330.926739,2757.943793,15544.324782
1087.406076,-1628.453072,-2834.553343,11325.150913
1087.406405,74.020594,-4826.401637,8216.285956
1087.406735,1406.391290,-6052.154434,7550.100608
1087.407064,2738.761985,-4749.792088,7550.100608
1087.407394,3478.967927,-1685.410096,8660.409521
1087.407724,3849.070898,1532.190996,9622.677246
1087.408053,296.082377,4596.572988,11621.233289
1087.408383,-2960.823768,5975.544884,12583.501014
1087.408712,-4515.256246,6588.421283,12805.562797
1087.409042,-3627.009116,4136.915689,13619.789333
1087.409371,-2738.761985,3064.381992,11547.212695
1087.409701,-2886.803174,842.705048,8068.244768
1087.410030,-2664.741391,-3983.696590,3627.009116
1087.410360,-444.123565,-5439.278036,2146.597232
1087.410689,1998.556043,-3830.477490,3478.967927
1087.411019,4663.297435,153.219100,4219.173869
1087.411348,4367.215058,2298.286494,5995.668130
1087.411678,1628.453072,3983.696590,8734.430116
1087.412007,-1924.535449,6358.592633,10436.903782
1087.412337,-3256.906145,6971.469032,12879.583391
1087.412666,-3404.947333,7277.907231,12953.603985
1087.412996,-3701.029710,4903.011187,11695.253884
1087.413325,-3404.947333,-995.924147,9178.553681
1087.413655,-2738.761985,-4213.525239,5255.462188
1087.413984,-1480.411884,-6205.373534,3330.926739
1087.414314,1258.350101,-4749.792088,4293.194464
1087.414643,2442.679609,-842.705048,7254.018232
1087.414973,1702.473667,1685.410096,9992.780217
1087.415302,-888.247130,3217.601092,11547.212695
1087.415632,-2738.761985,4596.572988,11843.295072
1087.415961,-3034.844362,6741.640382,13545.768739
1087.416291,-3627.009116,4979.620737,16210.510130
1087.416620,-4219.173869,2298.286494,16210.510130
1087.416950,-5255.462188,766.095498,13989.892304
1087.417279,-4811.338623,-3830.477490,9844.739029
1087.417609,-3034.844362,-5362.668486,6957.935855
1087.417938,-222.061783,-4213.525239,7402.059420
1087.418268,3849.070898,-3294.210641,9178.553681
1087.418597,4515.256246,-229.828649,9770.718434
1087.418927,1332.370696,2374.896044,11029.068536
1087.419256,-2146.597232,4673.182538,12287.418637
1087.419586,-3849.070898,6358.592633,14434.015869
1087.419915,-4367.215058,6971.469032,15840.407159
1087.420245,-3701.029710,5439.278036,12139.377449
1087.420574,-1406.391290,153.219100,8068.244768
1087.420904,296.082377,-3907.087040,4071.132681
1087.421233,814.226536,-5898.935335,2738.761985
1087.421563,1924.535449,-4519.963438,4219.173869
1087.421892,3034.844362,459.657299,6217.729913
1087.422222,3552.988522,3524.039291,7476.080014
1087.422551,2146.597232,4290.134789,8290.306550
1087.422881,-962.267725,4903.011187,7179.997637
1087.423210,-2664.741391,4519.963438,9326.594869
1087.423540,-3182.885551,5132.839837,12583.501014
1087.423869,-4589.276840,4519.963438,12657.521608
1087.424199,-5773.606348,536.266849,10955.047942
1087.424528,-6291.750507,-2451.505594,7328.038826
1087.424858,-3997.112087,-4749.792088,3627.009116
1087.425187,1332.370696,-6588.421283,3478.967927
1087.425517,4441.235652,-5439.278036,5773.606348
1087.425846,4737.318029,2374.896044,7402.059420
1087.426176,2442.679609,4826.401637,10214.842000
1087.426505,518.144159,3140.991542,12731.542202
1087.426835,-1702.473667,7201.297681,14137.933492
1087.427164,-4071.132681,7048.078582,15766.386565
1087.427494,-3849.070898,2911.162892,15248.242405
1087.427823,-2516.700203,76.609550,13471.748144
1087.428153,-1110.308913,-3524.039291,11177.109724
1087.428482,0.000000,-6205.373534,7402.059420
1087.428812,740.205942,-5898.935335,7328.038826
1087.429142,2442.679609,-2451.505594,8734.430116
1087.429471,3849.070898,995.924147,10732.986159
1087.429801,2738.761985,4290.134789,12213.398043
1087.430130,666.185348,6358.592633,11695.253884
1087.430460,-1332.370696,5439.278036,13175.665768
1087.430789,-3108.864956,4443.353888,15544.324782
1087.431119,-5625.565159,5515.887586,15026.180623
1087.431448,-6587.832884,2451.505594,11325.150913
1087.431778,-6291.750507,-1762.019645,7254.018232
1087.432107,-4515.256246,-5898.935335,3701.029710
1087.432437,-888.247130,-6894.859482,2516.700203
1087.432766,2738.761985,-4213.525239,2590.720797
1087.433096,4811.338623,-536.266849,3404.947333
1087.433425,4071.132681,4136.915689,6217.729913
1087.433755,1110.308913,6818.249932,8882.471304
1087.434084,-1036.288319,8273.831378,10584.944971
1087.434414,-2812.782580,8733.488677,12805.562797
1087.434743,-4367.215058,7048.078582,13027.624579
1087.435073,-3923.091493,3217.601092,11621.233289
1087.435402,-3404.947333,-2298.286494,8956.491898
1087.435732,-3627.009116,-5515.887586,5477.523971
1087.436061,-2738.761985,-6128.763984,2886.803174
1087.436391,-222.061783,-4673.182538,4071.132681
1087.436720,2368.659014,-1225.752797,5847.626942
1087.437050,2590.720797,1762.019645,7846.182985
1087.437379,888.247130,3753.867940,10362.883188
1087.437709,-1480.411884,5745.716235,11103.089130
1087.438038,-3330.926739,7124.688131,13545.768739
1087.438368,-4737.318029,6281.983084,15692.365970
1087.438697,-5847.626942,3140.991542,14952.160028
1087.439027,-4885.359217,-1225.752797,13027.624579
1087.439356,-3849.070898,-4979.620737,8142.265362
1087.439686,-1924.535449,-6741.640382,6587.832884
1087.440015,2146.597232,-6665.030833,8808.450710
1087.440345,3849.070898,-3677.258390,10807.006753
1087.440674,4071.132681,1608.800546,11843.295072
1087.441004,1406.391290,3524.039291,12879.583391
1087.441333,-518.144159,5669.106685,13767.830521
1087.441663,-1628.453072,8197.221829,15544.324782
1087.441992,-1184.329507,6588.421283,15766.386565
1087.442322,-740.205942,3524.039291,11991.336260
1087.442651,0.000000,0.000000,7698.141797
1087.442981,-222.061783,-5056.230287,5477.523971
1087.443310,-148.041188,-6358.592633,4145.153275
1087.443640,814.226536,-4213.525239,5033.400406
1087.443969,2664.741391,-1225.752797,5921.647536
1087.444299,4589.276840,1302.362347,6365.771101
1087.444628,2368.659014,4366.744339,6661.853478
1087.444958,444.123565,5056.230287,7105.977043
1087.445287,0.000000,4366.744339,10362.883188
1087.445617,-2368.659014,6818.249932,14137.933492
1087.445946,-4737.318029,7354.516781,13175.665768
1087.446276,-4811.338623,2834.553343,9992.780217
1087.446605,-4071.132681,-2757.943793,6883.915261
1087.446935,-2664.741391,-7584.345430,3404.947333
1087.447264,-592.164754,-7737.564530,3478.967927
1087.447594,1924.535449,-3524.039291,5033.400406
1087.447923,2146.597232,1685.410096,7031.956449
1087.448253,296.082377,3753.867940,10066.800811
1087.448582,-2664.741391,4213.525239,10881.027347
1087.448912,-5107.421000,6358.592633,10658.965565
1087.449241,-5329.482782,5515.887586,12731.542202
1087.449571,-4071.132681,4519.963438,14508.036463
1087.449900,-3182.885551,1915.238745,13323.706956
1087.450230,-3627.009116,-3677.258390,9326.594869
1087.450560,-4959.379811,-7584.345430,5995.668130
1087.450889,-4441.235652,-7048.078582,8068.244768
1087.451219,-1998.556043,-3294.210641,12287.418637
1087.451548,-740.205942,842.705048,13767.830521
1087.451878,-1554.432478,3217.601092,13767.830521
1087.452207,-2738.761985,3830.477490,12657.521608
1087.452537,-3182.885551,4749.792088,11917.315666
1087.452866,-2960.823768,6281.983084,13545.768739
1087.453196,-3552.988522,5515.887586,13101.645173
1087.453525,-4145.153275,3294.210641,11251.130318
1087.453855,-3404.947333,383.047749,9104.533087
1087.454184,-2812.782580,-4596.572988,6143.709319
1087.454514,-2738.761985,-6052.154434,4811.338623
1087.454843,-2812.782580,-3677.258390,5847.626942
1087.455173,-2220.617826,-919.314598,7105.977043
1087.455502,-2146.597232,3064.381992,9104.533087
1087.455832,-3701.029710,4979.620737,10362.883188
1087.456161,-5033.400406,5132.839837,10955.047942
1087.456491,-6365.771101,5362.668486,11103.089130
1087.456821,-7624.121203,4673.182538,10362.883188
1087.457150,-7402.059420,4290.134789,8882.471304
1087.457480,-4663.297435,689.485948,6217.729913
1087.457809,-2072.576638,-3600.648841,3849.070898
1087.458139,-1110.308913,-5515.887586,3034.844362
1087.458469,-370.102971,-3830.477490,4515.256246
1087.458798,-444.123565,919.314598,5625.565159
1087.459128,-222.061783,3370.820191,8142.265362
1087.459458,-592.164754,5132.839837,11473.192101
1087.459787,-1776.494261,7507.735880,11917.315666
1087.460117,-2812.782580,6741.640382,11991.336260
1087.460447,-5329.482782,3524.039291,11547.212695
1087.460776,-8512.368333,842.705048,13027.624579
1087.461106,-10436.903782,153.219100,14211.954086
1087.461436,-10066.800811,-1225.752797,12213.398043
1087.461765,-7402.059420,-6052.154434,7846.182985
1087.462095,-3108.864956,-7431.126331,5773.606348
1087.462424,-370.102971,-7354.516781,6143.709319
1087.462754,0.000000,-3830.477490,7772.162391
1087.463084,-1184.329507,2374.896044,11177.109724
1087.463413,-1480.411884,7354.516781,14211.954086
1087.463743,-444.123565,10418.898773,15396.283594
1087.464073,-296.082377,7967.393179,15026.180623
1087.464402,-1702.473667,5056.230287,13027.624579
1087.464732,-2738.761985,2068.457845,11251.130318
1087.465062,-4589.276840,-1455.581446,10436.903782
1087.465391,-7254.018232,-2451.505594,9992.780217
1087.465721,-8882.471304,-3370.820191,10066.800811
1087.466051,-9030.512492,-5822.325785,8068.244768
1087.466380,-7254.018232,-5286.058936,5847.626942
1087.466710,-4145.153275,-2911.162892,4219.173869
1087.467039,-740.205942,-919.314598,4959.379811
1087.467369,518.144159,2374.896044,7328.038826
1087.467699,-148.041188,6358.592633,10214.842000
1087.468028,-1554.432478,9193.145976,10658.965565
1087.468358,-2960.823768,9039.926876,10510.924376
1087.468688,-4441.235652,6511.811733,9622.677246
1087.469017,-4663.297435,3294.210641,8364.327145
1087.469347,-4219.173869,-1532.190996,7550.100608
1087.469677,-4441.235652,-3677.258390,7179.997637
1087.470006,-5699.585753,-4903.011187,7105.977043
1087.470336,-7254.018232,-4519.963438,7031.956449
1087.470666,-7254.018232,-2068.457845,7402.059420
1087.470995,-5403.503377,-459.657299,7846.182985
1087.471325,-3034.844362,919.314598,9326.594869
1087.471654,-1850.514855,3753.867940,9992.780217
1087.471984,-666.185348,5132.839837,10732.986159
1087.472314,74.020594,4596.572988,11621.233289
1087.472643,-2442.679609,3447.429741,12657.521608
1087.472973,-5033.400406,4060.306139,12657.521608
1087.473303,-7254.018232,1915.238745,11103.089130
1087.473632,-7994.224174,-1149.143247,10288.862594
1087.473962,-6883.915261,-2451.505594,10436.903782
1087.474292,-5181.441594,-3753.867940,9918.759623
1087.474621,-3701.029710,-3294.210641,8734.430116
1087.474951,-2664.741391,-1991.848295,7402.059420
1087.475281,-2220.617826,383.047749,8216.285956
1087.475610,-2368.659014,2681.334243,10807.006753
1087.475940,-3552.988522,3447.429741,11917.315666
1087.476269,-5107.421000,5132.839837,12509.480420
1087.476599,-6513.812290,4673.182538,12509.480420
1087.476929,-6291.750507,2681.334243,11843.295072
1087.477258,-5329.482782,-459.657299,10436.903782
1087.477588,-4811.338623,-2911.162892,7698.141797
1087.477918,-4293.194464,-3753.867940,5625.565159
1087.478247,-2590.720797,-2681.334243,5403.503377
1087.478577,-962.267725,-383.047749,6957.935855
1087.478907,-962.267725,1608.800546,8364.327145
1087.479236,-2516.700203,3447.429741,8956.491898
1087.479566,-4219.173869,5056.230287,9474.636058
1087.479896,-4959.379811,5745.716235,10658.965565
1087.480225,-4737.318029,5132.839837,11325.150913
1087.480555,-4737.318029,2451.505594,9844.739029
1087.480884,-3997.112087,-995.924147,7846.182985
1087.481214,-2516.700203,-3140.991542,6735.874072
1087.481544,-2072.576638,-2528.115143,7105.977043
1087.481873,-740.205942,-1685.410096,8068.244768
1087.482203,-814.226536,0.000000,8882.471304
1087.482533,-2442.679609,1685.410096,9400.615463
1087.482862,-4441.235652,3447.429741,10881.027347
1087.483192,-5403.503377,3677.258390,11991.336260
1087.483522,-6217.729913,3830.477490,12731.542202
1087.483851,-7105.977043,3294.210641,12213.398043
1087.484181,-6883.915261,1225.752797,10658.965565
1087.484511,-4589.276840,-842.705048,8956.491898
1087.484840,-2220.617826,-2987.772442,7698.141797
1087.485170,-1110.308913,-2681.334243,7105.977043
1087.485499,-444.123565,-766.095498,6957.935855
1087.485829,592.164754,1149.143247,7698.141797
1087.486159,592.164754,2604.724693,9252.574275
1087.486488,-1184.329507,4596.572988,10807.006753
1087.486818,-4737.318029,5592.497135,12731.542202
1087.487148,-7550.100608,5669.106685,13693.809927
1087.487477,-9548.656652,3677.258390,13619.789333
1087.487807,-9918.759623,612.876398,12731.542202
1087.488137,-8956.491898,-1915.238745,10584.944971
1087.488466,-6809.894666,-4060.306139,7920.203579
1087.488796,-3478.967927,-5056.230287,5921.647536
1087.489126,-814.226536,-3294.210641,5329.482782
1087.489455,1332.370696,229.828649,5551.544565
1087.489785,1628.453072,2528.115143,6439.791695
1087.490114,888.247130,4673.182538,8660.409521
1087.490444,-1702.473667,7890.783629,10288.862594
1087.490774,-3552.988522,7507.735880,11177.109724
1087.491103,-5551.544565,4596.572988,11769.274478
1087.491433,-7846.182985,1072.533697,11991.336260
1087.491763,-9622.677246,-1455.581446,12213.398043
1087.492092,-10066.800811,-3217.601092,11029.068536
1087.492422,-9252.574275,-4366.744339,8734.430116
1087.492752,-6439.791695,-4443.353888,6883.915261
1087.493081,-3182.885551,-3217.601092,5625.565159
1087.493411,0.000000,-306.438199,5773.606348
1087.493741,1480.411884,2451.505594,6587.832884
1087.494070,1184.329507,5439.278036,8068.244768
1087.494400,-666.185348,7814.174080,9326.594869
1087.494729,-3034.844362,7201.297681,11325.150913
1087.495059,-6069.688724,4519.963438,13175.665768
1087.495389,-8290.306550,1532.190996,13323.706956
1087.495718,-10584.944971,-1378.971896,11991.336260
1087.496048,-10288.862594,-4366.744339,11029.068536
1087.496378,-8734.430116,-6205.373534,10066.800811
1087.496707,-5773.606348,-5898.935335,9178.553681
1087.497037,-2442.679609,-2604.724693,7698.141797
1087.497367,444.123565,-383.047749,6587.832884
1087.497696,2442.679609,2451.505594,7624.121203
1087.498026,2960.823768,5822.325785,9474.636058
1087.498356,2072.576638,8197.221829,10881.027347
1087.498685,-148.041188,7277.907231,11473.192101
1087.499015,-3256.906145,4519.963438,12583.501014
1087.499344,-6661.853478,1455.581446,13397.727550
1087.499674,-9400.615463,-766.095498,12953.603985
1087.500004,-10955.047942,-3370.820191,10881.027347
1087.500333,-9252.574275,-5132.839837,7698.141797
1087.500663,-6069.688724,-5209.449386,5625.565159
1087.500993,-2738.761985,-3447.429741,4885.359217
1087.501322,-148.041188,-1302.362347,4885.359217
1087.501652,888.247130,2145.067394,5773.606348
1087.501982,296.082377,7048.078582,7698.141797
1087.502311,-666.185348,10112.460574,9696.697840
1087.502641,-3034.844362,9116.536426,12065.356855
1087.502971,-5403.503377,6588.421283,12879.583391
1087.503300,-6957.935855,3140.991542,12805.562797
1087.503630,-7402.059420,-383.047749,12139.377449
1087.503959,-7846.182985,-2451.505594,11029.068536
1087.504289,-7328.038826,-2911.162892,9030.512492
1087.504619,-5921.647536,-3294.210641,8068.244768
1087.504948,-3404.947333,-689.485948,6957.935855
1087.505278,-222.061783,1072.533697,6513.812290
1087.505608,1628.453072,3294.210641,7105.977043
1087.505937,1628.453072,5898.935335,8142.265362
1087.506267,148.041188,7814.174080,9622.677246
1087.506597,-1480.411884,6665.030833,10881.027347
1087.506926,-3108.864956,4903.011187,12287.418637
1087.507256,-4663.297435,3677.258390,11769.274478
1087.507586,-5107.421000,1149.143247,10510.924376
1087.507915,-4737.318029,-1149.143247,9400.615463
1087.508245,-3627.009116,-2145.067394,8364.327145
1087.508574,-2368.659014,-842.705048,8438.347739
1087.508904,-1776.494261,1762.019645,8364.327145
1087.509234,-1628.453072,3600.648841,8882.471304
1087.509563,-1406.391290,4903.011187,9844.739029
1087.509893,-1776.494261,6511.811733,10732.986159
1087.510223,-1924.535449,7048.078582,11325.150913
1087.510552,-2590.720797,5898.935335,11473.192101
1087.510882,-2812.782580,3753.867940,10807.006753
1087.511212,-2516.700203,2987.772442,9844.739029
1087.511541,-1776.494261,1762.019645,8956.491898
1087.511871,-1628.453072,766.095498,7846.182985
1087.512201,-1110.308913,919.314598,7624.121203
1087.512530,-148.041188,2528.115143,8364.327145
1087.512860,296.082377,5822.325785,9622.677246
1087.513189,-962.267725,7354.516781,10066.800811
1087.513519,-1924.535449,7967.393179,9992.780217
1087.513849,-2368.659014,7737.564530,9474.636058
1087.514178,-2738.761985,7048.078582,9252.574275
1087.514508,-2368.659014,5209.449386,8586.388927
1087.514838,-1554.432478,2068.457845,6735.874072
1087.515167,-814.226536,536.266849,6291.750507
1087.515497,-888.247130,-229.828649,6883.915261
1087.515827,-1850.514855,919.314598,7994.224174
1087.516156,-2442.679609,2604.724693,8734.430116
1087.516486,-2960.823768,5132.839837,9770.718434
1087.516816,-2812.782580,6894.859482,11103.089130
1087.517145,-2220.617826,7277.907231,11547.212695
1087.517475,-1036.288319,6511.811733,10658.965565
1087.517804,-148.041188,5362.668486,10140.821405
1087.518134,148.041188,4826.401637,9474.636058
1087.518464,-740.205942,3600.648841,9844.739029
1087.518793,-1110.308913,2681.334243,9400.615463
1087.519123,-962.267725,2374.896044,8956.491898
1087.519453,-740.205942,2145.067394,8882.471304
1087.519782,74.020594,2681.334243,9104.533087
1087.520112,592.164754,2298.286494,9918.759623
1087.520442,-592.164754,3294.210641,10732.986159
1087.520771,-2294.638420,5439.278036,11547.212695
1087.521101,-2294.638420,6281.983084,11991.336260
1087.521431,-1480.411884,5898.935335,12139.377449
1087.521760,-1258.350101,4903.011187,10807.006753
1087.522090,-962.267725,3830.477490,9400.615463
1087.522419,-222.061783,3370.820191,8512.368333
1087.522749,296.082377,3677.258390,8734.430116
1087.523079,370.102971,4749.792088,8660.409521
1087.523408,0.000000,4596.572988,7179.997637
1087.523738,-148.041188,3830.477490,6957.935855
1087.524068,-222.061783,2757.943793,6957.935855
1087.524397,-592.164754,2221.676944,7772.162391
1087.524727,-1628.453072,2221.676944,9030.512492
1087.525057,-2738.761985,2757.943793,9474.636058
1087.525386,-3478.967927,3064.381992,10214.842000
1087.525716,-3552.988522,3370.820191,10955.047942
1087.526046,-2590.720797,4060.306139,11103.089130
1087.526375,-1850.514855,4519.963438,10288.862594
1087.526705,-592.164754,4903.011187,9622.677246
1087.527034,148.041188,5439.278036,9400.615463
1087.527364,296.082377,6128.763984,9548.656652
1087.527694,222.061783,6205.373534,8734.430116
1087.528023,0.000000,5132.839837,7846.182985
1087.528353,-666.185348,3907.087040,7476.080014
1087.528683,-1480.411884,2068.457845,7698.141797
1087.529012,-2294.638420,1455.581446,7698.141797
1087.529342,-2738.761985,766.095498,7920.203579
1087.529672,-2442.679609,153.219100,8808.450710
1087.530001,-1998.556043,612.876398,9770.718434
1087.530331,-1110.308913,2068.457845,10658.965565
1087.530661,-296.082377,3370.820191,11473.192101
1087.530990,-296.082377,5439.278036,11991.336260
1087.531320,-148.041188,7048.078582,12583.501014
1087.531649,0.000000,7584.345430,12435.459826
1087.531979,74.020594,6052.154434,11399.171507
1087.532309,222.061783,5209.449386,10214.842000
1087.532638,-592.164754,3830.477490,9548.656652
1087.532968,-1628.453072,2987.772442,8808.450710
1087.533298,-2368.659014,2451.505594,8216.285956
1087.533627,-2294.638420,1838.629195,7846.182985
1087.533957,-1332.370696,1455.581446,7772.162391
1087.534287,-1036.288319,2145.067394,8142.265362
1087.534616,-518.144159,2528.115143,8512.368333
1087.534946,-148.041188,3217.601092,9178.553681
1087.535276,-592.164754,4903.011187,10066.800811
1087.535605,-740.205942,6818.249932,11029.068536
1087.535935,-1110.308913,7354.516781,12287.418637
1087.536264,-1406.391290,7048.078582,12435.459826
1087.536594,-2590.720797,7354.516781,11029.068536
1087.536924,-2812.782580,6741.640382,9104.533087
1087.537253,-1628.453072,5362.668486,6883.915261
1087.537583,666.185348,2757.943793,4293.194464
1087.537913,2738.761985,1378.971896,4071.132681
1087.538242,3182.885551,995.924147,4293.194464
1087.538572,1702.473667,2451.505594,5921.647536
1087.538902,-444.123565,4596.572988,8142.265362
1087.539231,-2960.823768,5515.887586,10584.944971
1087.539561,-4589.276840,6511.811733,13027.624579
1087.539891,-4959.379811,6128.763984,14804.118840
1087.540220,-4589.276840,5362.668486,14582.057057
1087.540550,-4811.338623,3830.477490,13249.686362
1087.540879,-4219.173869,2681.334243,10362.883188
1087.541209,-2738.761985,2528.115143,8660.409521
1087.541539,296.082377,2145.067394,6957.935855
1087.541868,3256.906145,2604.724693,5921.647536
1087.542198,5033.400406,2757.943793,5625.565159
1087.542528,4663.297435,4290.134789,5773.606348
1087.542857,2072.576638,4673.182538,7920.203579
1087.543187,-1554.432478,6665.030833,11473.192101
1087.543517,-4367.215058,8197.221829,13841.851115
1087.543846,-5033.400406,6665.030833,14137.933492
1087.544176,-4441.235652,3524.039291,12953.603985
1087.544506,-2368.659014,536.266849,11325.150913
1087.544835,-1184.329507,0.000000,8882.471304
1087.545165,-740.205942,459.657299,7105.977043
1087.545494,-666.185348,1991.848295,7105.977043
1087.545824,-740.205942,4136.915689,7994.224174
1087.546154,-592.164754,5515.887586,8512.368333
1087.546483,-518.144159,4979.620737,7031.956449
1087.546813,0.000000,3217.601092,6587.832884
1087.547143,-148.041188,1915.238745,8068.244768
1087.547472,-1480.411884,3294.210641,11029.068536
1087.547802,-2220.617826,5132.839837,13027.624579
1087.548132,-2516.700203,5209.449386,12731.542202
1087.548461,-2294.638420,4596.572988,12435.459826
1087.548791,-1554.432478,4136.915689,11029.068536
1087.549121,-370.102971,3294.210641,8364.327145
1087.549450,1036.288319,1762.019645,6661.853478
1087.549780,2072.576638,1762.019645,6365.771101
1087.550109,1332.370696,3524.039291,7105.977043
1087.550439,1036.288319,4366.744339,7920.203579
1087.550769,444.123565,3983.696590,9252.574275
1087.551098,-1258.350101,3753.867940,10807.006753
1087.551428,-2886.803174,5515.887586,11473.192101
1087.551758,-3701.029710,5745.716235,11843.295072
1087.552087,-2664.741391,2834.553343,11917.315666
1087.552417,-2294.638420,2145.067394,11695.253884
1087.552747,-2442.679609,2911.162892,10658.965565
1087.553076,-1850.514855,4290.134789,8882.471304
1087.553406,-814.226536,5362.668486,7402.059420
1087.553736,222.061783,4979.620737,6883.915261
1087.554065,2072.576638,4290.134789,6809.894666
1087.554395,3404.947333,2911.162892,6883.915261
1087.554724,2516.700203,3830.477490,6735.874072
1087.555054,888.247130,4136.915689,7994.224174
1087.555384,-814.226536,3907.087040,11695.253884
1087.555714,-2960.823768,6358.592633,14656.077652
1087.556043,-4885.359217,8810.098227,15248.242405
1087.556373,-3849.070898,7814.174080,14137.933492
1087.556703,-1776.494261,5745.716235,12287.418637
1087.557032,-1850.514855,2987.772442,9622.677246
1087.557362,-2294.638420,3064.381992,7402.059420
1087.557692,-2368.659014,2987.772442,5847.626942
1087.558021,-1628.453072,4519.963438,4145.153275
1087.558351,74.020594,4826.401637,3330.926739
1087.558681,1628.453072,1991.848295,3775.050304
1087.559011,1628.453072,2298.286494,4737.318029
1087.559340,814.226536,3907.087040,5921.647536
1087.559670,814.226536,4596.572988,8438.347739
1087.560000,222.061783,4903.011187,12139.377449
1087.560329,-2072.576638,5745.716235,14359.995275
1087.560659,-3330.926739,5669.106685,15618.345376
1087.560989,-2960.823768,4366.744339,14952.160028
1087.561318,-3182.885551,4903.011187,13175.665768
1087.561648,-3034.844362,4519.963438,10510.924376
1087.561978,-1850.514855,1685.410096,7846.182985
1087.562307,-1036.288319,0.000000,5181.441594
1087.562637,222.061783,-689.485948,3997.112087
1087.562967,2146.597232,-1072.533697,3182.885551
1087.563297,2220.617826,0.000000,4441.235652
1087.563626,1554.432478,1915.238745,6587.832884
1087.563956,962.267725,2374.896044,9252.574275
1087.564286,444.123565,2145.067394,12953.603985
1087.564615,-888.247130,2987.772442,15840.407159
1087.564945,-2664.741391,4290.134789,17394.839637
1087.565275,-3849.070898,2911.162892,17690.922014
1087.565604,-4885.359217,1991.848295,14952.160028
1087.565934,-4663.297435,919.314598,11917.315666
1087.566264,-2368.659014,-995.924147,9030.512492
1087.566593,814.226536,-1378.971896,7328.038826
1087.566923,2886.803174,-459.657299,6661.853478
1087.567253,3923.091493,1302.362347,4811.338623
1087.567583,3552.988522,1685.410096,2738.761985
1087.567912,4071.132681,2451.505594,3182.885551
1087.568242,3997.112087,2145.067394,7402.059420
1087.568572,2368.659014,3524.039291,12139.377449
1087.568901,-1554.432478,5975.544884,14211.954086
1087.569231,-5255.462188,4213.525239,14137.933492
1087.569561,-7994.224174,1302.362347,13323.706956
1087.569890,-9400.615463,0.000000,12583.501014
1087.570220,-8438.347739,-2451.505594,10214.842000
1087.570550,-5403.503377,-3600.648841,8290.306550
1087.570880,-2368.659014,-2834.553343,4293.194464
1087.571209,444.123565,-1915.238745,1924.535449
1087.571539,3552.988522,-1762.019645,1702.473667
1087.571869,4737.318029,1302.362347,4663.297435
1087.572198,4885.359217,5898.935335,9178.553681
1087.572528,2960.823768,8886.707777,11843.295072
1087.572858,296.082377,7201.297681,12435.459826
1087.573187,-2294.638420,3447.429741,14656.077652
1087.573517,-5107.421000,995.924147,16728.654289
1087.573847,-6809.894666,0.000000,15470.304188
1087.574176,-4959.379811,-1838.629195,12731.542202
1087.574506,-2590.720797,-5056.230287,9770.718434
1087.574836,-1924.535449,-5669.106685,6513.812290
1087.575166,-814.226536,-4903.011187,4663.297435
1087.575495,2368.659014,-2681.334243,4071.132681
1087.575825,6291.750507,766.095498,5033.400406
1087.576155,7402.059420,3983.696590,8216.285956
1087.576484,4737.318029,6128.763984,11843.295072
1087.576814,0.000000,5286.058936,13545.768739
1087.577144,-3256.906145,5209.449386,15396.283594
1087.577473,-5181.441594,5286.058936,17246.798449
1087.577803,-4737.318029,3600.648841,16210.510130
1087.578133,-4145.153275,-1378.971896,12139.377449
1087.578462,-2738.761985,-6665.030833,6587.832884
1087.578792,-666.185348,-7277.907231,3108.864956
1087.579122,1110.308913,-3983.696590,3404.947333
1087.579452,2072.576638,-229.828649,5033.400406
1087.579781,2146.597232,2221.676944,7994.224174
1087.580111,-370.102971,4979.620737,10658.965565
1087.580441,-1998.556043,7124.688131,11251.130318
1087.580770,-1850.514855,6128.763984,10955.047942
1087.581100,-962.267725,3983.696590,10584.944971
1087.581430,-962.267725,459.657299,11399.171507
1087.581759,-1332.370696,306.438199,11029.068536
1087.582089,-1480.411884,-229.828649,8438.347739
1087.582419,-1110.308913,-995.924147,5699.585753
1087.582749,74.020594,-612.876398,4515.256246
1087.583078,2146.597232,-995.924147,5551.544565
1087.583408,2812.782580,0.000000,7254.018232
1087.583738,518.144159,2374.896044,8882.471304
1087.584067,-3034.844362,4903.011187,9178.553681
1087.584397,-5181.441594,5056.230287,10362.883188
1087.584727,-4663.297435,2145.067394,12435.459826
1087.585056,-3701.029710,-306.438199,12435.459826
1087.585386,-3108.864956,-995.924147,11621.233289
1087.585716,-2442.679609,-2604.724693,8438.347739
1087.586045,-1924.535449,-4443.353888,5921.647536
1087.586375,-222.061783,-4596.572988,6661.853478
1087.586705,1332.370696,-2298.286494,9252.574275
1087.587035,2368.659014,689.485948,11769.274478
1087.587364,1258.350101,4060.306139,13397.727550
1087.587694,-1036.288319,5362.668486,12805.562797
1087.588024,-1776.494261,3064.381992,12287.418637
1087.588353,-814.226536,1991.848295,12879.583391
1087.588683,1036.288319,1149.143247,13101.645173
1087.589013,1554.432478,153.219100,11547.212695
1087.589342,814.226536,-766.095498,8660.409521
1087.589672,592.164754,-3064.381992,6291.750507
1087.590002,1332.370696,-3983.696590,7254.018232
1087.590332,1998.556043,-995.924147,9326.594869
1087.590661,962.267725,2834.553343,10436.903782
1087.590991,-1036.288319,3983.696590,10732.986159
1087.591321,-3627.009116,3370.820191,10362.883188
1087.591650,-4219.173869,2987.772442,9474.636058
1087.591980,-3627.009116,1685.410096,10362.883188
1087.592310,-2886.803174,2068.457845,9326.594869
1087.592639,-2590.720797,2145.067394,8438.347739
1087.592969,-2368.659014,459.657299,7402.059420
1087.593299,-1850.514855,-1225.752797,5329.482782
1087.593628,-1036.288319,-1225.752797,4737.318029
1087.593958,-222.061783,0.000000,6217.729913
1087.594288,296.082377,1685.410096,7846.182985
1087.594618,-740.205942,1991.848295,10436.903782
1087.594947,-2738.761985,2528.115143,11547.212695
1087.595277,-4145.153275,3907.087040,10807.006753
1087.595607,-3404.947333,2911.162892,9622.677246
1087.595936,-888.247130,1838.629195,9474.636058
1087.596266,1258.350101,0.000000,8956.491898
1087.596596,1702.473667,-1762.019645,8142.265362
1087.596925,666.185348,-1608.800546,6291.750507
1087.597255,962.267725,0.000000,6883.915261
1087.597585,2294.638420,1455.581446,9696.697840
1087.597914,2590.720797,2374.896044,11251.130318
1087.598244,1480.411884,2374.896044,11769.274478
1087.598574,-592.164754,383.047749,12139.377449
1087.598904,-3330.926739,1149.143247,12213.398043
1087.599233,-4737.318029,2451.505594,13397.727550
1087.599563,-4663.297435,1685.410096,12879.583391
1087.599893,-2812.782580,-919.314598,10658.965565
1087.600222,-1110.308913,-2604.724693,8660.409521
1087.600552,0.000000,-3217.601092,7254.018232
1087.600882,962.267725,-2145.067394,6661.853478
1087.601211,1332.370696,-459.657299,7179.997637
1087.601541,2072.576638,919.314598,9400.615463
1087.601871,1702.473667,1302.362347,12583.501014
1087.602201,-888.247130,2987.772442,14359.995275
1087.602530,-3627.009116,4290.134789,13323.706956
1087.602860,-4737.318029,3217.601092,12287.418637
1087.603190,-3849.070898,1378.971896,11621.233289
1087.603519,-2368.659014,0.000000,10881.027347
1087.603849,-1036.288319,-842.705048,9104.533087
1087.604179,-370.102971,-2298.286494,4663.297435
1087.604508,0.000000,-1685.410096,2590.720797
1087.604838,1480.411884,-306.438199,3923.091493
1087.605168,2368.659014,842.705048,5921.647536
1087.605497,1924.535449,1455.581446,7846.182985
1087.605827,-740.205942,2528.115143,9918.759623
1087.606157,-3330.926739,3524.039291,10881.027347
1087.606487,-5107.421000,2834.553343,11177.109724
1087.606816,-5033.400406,842.705048,10436.903782
1087.607146,-3627.009116,-689.485948,9622.677246
1087.607476,-1554.432478,-2604.724693,9622.677246
1087.607805,-962.267725,-2221.676944,8216.285956
1087.608135,-1406.391290,-306.438199,6439.791695
1087.608465,-666.185348,-153.219100,5699.585753
1087.608794,2294.638420,76.609550,7328.038826
1087.609124,4071.132681,1378.971896,10658.965565
1087.609454,2146.597232,3294.210641,12213.398043
1087.609783,-1554.432478,2834.553343,12435.459826
1087.610113,-4367.215058,2068.457845,12657.521608
1087.610443,-4441.235652,383.047749,13989.892304
1087.610773,-3552.988522,383.047749,14952.160028
1087.611102,-1776.494261,0.000000,12953.603985
1087.611432,-1480.411884,-1915.238745,8660.409521
1087.611762,148.041188,-4366.744339,5329.482782
1087.612091,2368.659014,-2987.772442,5847.626942
1087.612421,4515.256246,0.000000,8068.244768
1087.612751,5181.441594,2987.772442,10658.965565
1087.613080,2368.659014,5669.106685,12213.398043
1087.613410,-1184.329507,6511.811733,11991.336260
1087.613740,-2738.761985,4596.572988,11621.233289
1087.614070,-2738.761985,2451.505594,12509.480420
1087.614399,-3108.864956,2451.505594,12065.356855
1087.614729,-3627.009116,1915.238745,9696.697840
1087.615059,-3552.988522,-995.924147,6735.874072
1087.615388,-2146.597232,-3217.601092,3997.112087
1087.615718,-962.267725,-3064.381992,3478.967927
1087.616048,-148.041188,-842.705048,4811.338623
1087.616377,518.144159,1378.971896,6957.935855
1087.616707,-888.247130,2987.772442,9178.553681
1087.617037,-3552.988522,4903.011187,10807.006753
1087.617366,-4663.297435,4519.963438,10658.965565
1087.617696,-4145.153275,2298.286494,11029.068536
1087.618026,-2738.761985,1072.533697,10140.821405
1087.618356,-1702.473667,689.485948,9326.594869
1087.618685,-888.247130,-995.924147,9104.533087
1087.619015,-518.144159,-1225.752797,6883.915261
1087.619345,148.041188,-1915.238745,5551.544565
1087.619674,2072.576638,-1991.848295,6735.874072
1087.620004,3256.906145,306.438199,8882.471304
1087.620334,2368.659014,1838.629195,11473.192101
1087.620663,-444.123565,2451.505594,12139.377449
1087.620993,-2368.659014,2604.724693,12065.356855
1087.621323,-2812.782580,1378.971896,12657.521608
1087.621653,-2072.576638,306.438199,13471.748144
1087.621982,-1628.453072,-612.876398,12583.501014
1087.622312,-1258.350101,-1302.362347,10214.842000
1087.622642,-962.267725,-3064.381992,7254.018232
1087.622971,592.164754,-3830.477490,7105.977043
1087.623301,1702.473667,-1149.143247,9844.739029
1087.623631,1406.391290,1455.581446,11251.130318
1087.623960,0.000000,3217.601092,12509.480420
1087.624290,-2220.617826,3677.258390,13027.624579
1087.624620,-3627.009116,3677.258390,13027.624579
1087.624949,-3330.926739,3677.258390,13693.809927
1087.625279,-2960.823768,2374.896044,12435.459826
1087.625609,-2812.782580,383.047749,9474.636058
1087.625939,-2516.700203,-1149.143247,7179.997637
1087.626268,-1554.432478,-1608.800546,6069.688724
1087.626598,0.000000,-459.657299,5477.523971
1087.626928,666.185348,229.828649,5033.400406
1087.627257,1480.411884,1608.800546,4885.359217
1087.627587,1628.453072,1149.143247,7254.018232
1087.627917,-592.164754,2987.772442,10362.883188
1087.628246,-3034.844362,6205.373534,10658.965565
1087.628576,-3404.947333,5132.839837,9696.697840
1087.628906,-1998.556043,2681.334243,9178.553681
1087.629235,-1480.411884,1225.752797,8512.368333
1087.629565,-1258.350101,0.000000,7772.162391
1087.629895,-888.247130,-766.095498,6587.832884
1087.630225,-888.247130,-306.438199,4589.276840
1087.630554,518.144159,153.219100,5255.462188
1087.630884,1184.329507,-383.047749,7772.162391
1087.631214,370.102971,153.219100,10066.800811
1087.631543,-1924.535449,1608.800546,12065.356855
1087.631873,-4293.194464,2834.553343,12583.501014
1087.632203,-4737.318029,3907.087040,13619.789333
1087.632532,-3552.988522,2145.067394,14211.954086
1087.632862,-2294.638420,-229.828649,12731.542202
1087.633192,-1628.453072,-1685.410096,10362.883188
1087.633522,-296.082377,-2145.067394,9030.512492
1087.633851,1184.329507,-689.485948,8068.244768
1087.634181,2146.597232,0.000000,8290.306550
1087.634511,2294.638420,153.219100,9992.780217
1087.634840,2294.638420,766.095498,11991.336260
1087.635170,148.041188,3064.381992,13693.809927
1087.635500,-2442.679609,4519.963438,12805.562797
1087.635829,-2664.741391,3907.087040,12287.418637
1087.636159,-2146.597232,1378.971896,11695.253884
1087.636489,-1628.453072,-459.657299,11325.150913
1087.636818,-2442.679609,76.609550,9622.677246
1087.637148,-2812.782580,995.924147,7476.080014
1087.637478,-1554.432478,1455.581446,4589.276840
1087.637808,0.000000,-229.828649,3775.050304
1087.638137,1480.411884,-842.705048,5033.400406
1087.638467,1110.308913,229.828649,7105.977043
1087.638797,-1554.432478,2911.162892,9548.656652
1087.639126,-5181.441594,5975.544884,9992.780217
1087.639456,-6291.750507,5745.716235,10214.842000
1087.639786,-4663.297435,1915.238745,11029.068536
1087.640115,-3330.926739,153.219100,10436.903782
1087.640445,-2664.741391,0.000000,8364.327145
1087.640775,-1628.453072,-689.485948,7105.977043
1087.641104,-666.185348,-1302.362347,4663.297435
1087.641434,296.082377,-689.485948,5403.503377
1087.641764,1332.370696,536.266849,7254.018232
1087.642094,1998.556043,1685.410096,9104.533087
1087.642423,1628.453072,2298.286494,10658.965565
1087.642753,-370.102971,2298.286494,11621.233289
1087.643083,-2368.659014,2374.896044,12065.356855
1087.643412,-2368.659014,2374.896044,13767.830521
1087.643742,-1110.308913,1302.362347,13175.665768
1087.644072,-666.185348,689.485948,10807.006753
1087.644401,518.144159,-1302.362347,8956.491898
1087.644731,888.247130,-2068.457845,7846.182985
1087.645061,1332.370696,-612.876398,7550.100608
1087.645391,1184.329507,383.047749,8438.347739
1087.645720,1406.391290,612.876398,9844.739029
1087.646050,0.000000,689.485948,11843.295072
1087.646380,-3182.885551,1378.971896,13175.665768
1087.646709,-5551.544565,2221.676944,12953.603985
1087.647039,-5551.544565,1149.143247,13101.645173
1087.647369,-4589.276840,1072.533697,13027.624579
1087.647698,-3849.070898,459.657299,11991.336260
1087.648028,-2146.597232,0.000000,10140.821405
1087.648358,-888.247130,-1378.971896,6513.812290
1087.648687,444.123565,-689.485948,4515.256246
1087.649017,1850.514855,766.095498,4959.379811
1087.649347,2294.638420,1532.190996,7105.977043
1087.649677,1554.432478,2757.943793,9918.759623
1087.650006,-1480.411884,5209.449386,11621.233289
1087.650336,-3923.091493,5669.106685,10732.986159
1087.650666,-3478.967927,3294.210641,10140.821405
1087.650995,-2516.700203,153.219100,9622.677246
1087.651325,-1924.535449,-306.438199,8660.409521
1087.651655,-1480.411884,0.000000,7624.121203
1087.651984,-962.267725,766.095498,5699.585753
1087.652314,-814.226536,919.314598,4293.194464
1087.652644,0.000000,459.657299,4811.338623
1087.652974,962.267725,1455.581446,6587.832884
1087.653303,1554.432478,1991.848295,8364.327145
1087.653633,-444.123565,1532.190996,10288.862594
1087.653963,-3034.844362,2451.505594,11473.192101
1087.654292,-4367.215058,2604.724693,12805.562797
1087.654622,-4293.194464,1685.410096,13915.871710
1087.654952,-3256.906145,1991.848295,12953.603985
1087.655281,-1554.432478,1608.800546,11843.295072
1087.655611,74.020594,0.000000,9844.739029
1087.655941,1258.350101,-1072.533697,8142.265362
1087.656270,1776.494261,-766.095498,7624.121203
1087.656600,2516.700203,459.657299,8660.409521
1087.656930,2516.700203,2068.457845,10510.924376
1087.657259,444.123565,2757.943793,13323.706956
1087.657589,-2442.679609,3677.258390,13397.727550
1087.657919,-3701.029710,3140.991542,12583.501014
1087.658249,-2368.659014,1608.800546,12583.501014
1087.658578,-888.247130,536.266849,11843.295072
1087.658908,-814.226536,1072.533697,9770.718434
1087.659238,-296.082377,306.438199,7476.080014
1087.659567,740.205942,153.219100,5699.585753
1087.659897,1184.329507,1072.533697,6069.688724
1087.660227,666.185348,2757.943793,7402.059420
1087.660556,74.020594,2298.286494,9030.512492
1087.660886,-2294.638420,2681.334243,10140.821405
1087.661216,-4071.132681,3447.429741,10140.821405
1087.661545,-4589.276840,2757.943793,9844.739029
1087.661875,-3775.050304,536.266849,9622.677246
1087.662205,-3701.029710,-842.705048,8734.430116
1087.662535,-4071.132681,-306.438199,8438.347739
1087.662864,-3034.844362,766.095498,8216.285956
1087.663194,-1110.308913,842.705048,7105.977043
1087.663524,444.123565,383.047749,5921.647536
1087.663853,1036.288319,-1378.971896,4885.359217
1087.664183,1554.432478,-1608.800546,6957.935855
1087.664513,962.267725,-536.266849,11177.109724
1087.664842,-1850.514855,2451.505594,13249.686362
1087.665172,-4145.153275,4979.620737,13175.665768
1087.665502,-3330.926739,2221.676944,12731.542202
1087.665831,-1406.391290,-153.219100,11695.253884
1087.666161,592.164754,-1838.629195,10436.903782
1087.666491,1554.432478,-1762.019645,9252.574275
1087.666821,1776.494261,-1685.410096,7105.977043
1087.667150,2072.576638,-612.876398,6809.894666
1087.667480,1850.514855,0.000000,8586.388927
1087.667810,1776.494261,0.000000,11325.150913
1087.668139,0.000000,1455.581446,13175.665768
1087.668469,-2960.823768,3447.429741,13841.851115
1087.668799,-4811.338623,3294.210641,12213.398043
1087.669128,-3404.947333,612.876398,12657.521608
1087.669458,-2664.741391,-459.657299,12287.418637
1087.669788,-2516.700203,383.047749,10807.006753
1087.670117,-2960.823768,1149.143247,8734.430116
1087.670447,-1998.556043,1685.410096,7031.956449
1087.670777,222.061783,1455.581446,6143.709319
1087.671107,1406.391290,459.657299,7031.956449
1087.671436,1184.329507,689.485948,7550.100608
1087.671766,-222.061783,1762.019645,9252.574275
1087.672096,-2368.659014,3753.867940,10510.924376
1087.672425,-3775.050304,5515.887586,11029.068536
1087.672755,-3849.070898,3753.867940,10436.903782
1087.673085,-2590.720797,1838.629195,10288.862594
1087.673414,-2072.576638,1608.800546,9252.574275
1087.673744,-1184.329507,1455.581446,7772.162391
1087.674074,370.102971,2068.457845,5551.544565
1087.674403,1406.391290,1149.143247,3478.967927
1087.674733,2738.761985,0.000000,3701.029710
1087.675063,3108.864956,306.438199,6069.688724
1087.675393,1480.411884,2451.505594,9400.615463
1087.675722,-2146.597232,4749.792088,12065.356855
1087.676052,-5107.421000,5669.106685,11917.315666
1087.676382,-5477.523971,3294.210641,11843.295072
1087.676711,-3923.091493,-689.485948,11621.233289
1087.677041,-2442.679609,-2145.067394,10140.821405
1087.677371,-1702.473667,-2528.115143,9178.553681
1087.677700,-1332.370696,-2145.067394,7698.141797
1087.678030,-1036.288319,-1455.581446,6809.894666
1087.678360,148.041188,-1378.971896,7994.224174
1087.678689,1406.391290,-612.876398,10955.047942
1087.679019,1480.411884,919.314598,13027.624579
1087.679349,-888.247130,2451.505594,13101.645173
1087.679678,-2368.659014,1302.362347,11843.295072
1087.680008,-2146.597232,-995.924147,13027.624579
1087.680338,-1628.453072,-306.438199,14804.118840
1087.680668,-1184.329507,1685.410096,13915.871710
1087.680997,-962.267725,1149.143247,10881.027347
1087.681327,370.102971,-1532.190996,7624.121203
1087.681657,2368.659014,-2298.286494,6365.771101
1087.681986,3330.926739,-2221.676944,7254.018232
1087.682316,2368.659014,0.000000,7846.182985
1087.682646,740.205942,1608.800546,8956.491898
1087.682975,-2072.576638,2451.505594,10436.903782
1087.683305,-4441.235652,2604.724693,10955.047942
1087.683635,-5477.523971,2298.286494,11621.233289
1087.683964,-4811.338623,1149.143247,11325.150913
1087.684294,-4589.276840,766.095498,8882.471304
1087.684624,-3627.009116,-153.219100,6883.915261
1087.684954,-1702.473667,-1608.800546,5921.647536
1087.685283,-740.205942,-1225.752797,4293.194464
1087.685613,74.020594,536.266849,4737.318029
1087.685943,1332.370696,1608.800546,6217.729913
1087.686272,888.247130,2145.067394,8512.368333
1087.686602,-1036.288319,3600.648841,11177.109724
1087.686932,-3330.926739,3140.991542,11843.295072
1087.687261,-4367.215058,2911.162892,11769.274478
1087.687591,-3478.967927,2451.505594,11473.192101
1087.687921,-1702.473667,919.314598,10436.903782
1087.688250,370.102971,-1455.581446,9030.512492
1087.688580,1184.329507,-1991.848295,8734.430116
1087.688910,1110.308913,0.000000,7254.018232
1087.689240,1332.370696,1378.971896,5995.668130
1087.689569,2960.823768,842.705048,7031.956449
1087.689899,4293.194464,153.219100,9104.533087
1087.690229,2886.803174,229.828649,11843.295072
1087.690558,-370.102971,2451.505594,13915.871710
1087.690888,-3330.926739,3677.258390,13471.748144
1087.691218,-4071.132681,2451.505594,13915.871710
1087.691547,-3182.885551,1149.143247,13915.871710
1087.691877,-2294.638420,919.314598,12509.480420
1087.692207,-814.226536,919.314598,10140.821405
1087.692536,148.041188,-459.657299,5773.606348
1087.692866,740.205942,-1302.362347,4293.194464
1087.693196,1258.350101,-1072.533697,6957.935855
1087.693526,888.247130,0.000000,9844.739029
1087.693855,-1406.391290,2221.676944,11399.171507
1087.694185,-4589.276840,3677.258390,11547.212695
1087.694515,-5477.523971,3600.648841,10584.944971
1087.694844,-4589.276840,766.095498,11547.212695
1087.695174,-3256.906145,-766.095498,12065.356855
1087.695504,-3256.906145,1149.143247,10584.944971
1087.695833,-2590.720797,1608.800546,7698.141797
1087.696163,-592.164754,842.705048,4589.276840
1087.696493,1924.535449,-766.095498,3404.947333
1087.696822,3923.091493,-842.705048,4589.276840
1087.697152,4293.194464,153.219100,6143.709319
1087.697482,3256.906145,3064.381992,8586.388927
1087.697812,-370.102971,3677.258390,11103.089130
1087.698141,-3256.906145,3524.039291,11843.295072
1087.698471,-4071.132681,2068.457845,12065.356855
1087.698801,-3108.864956,459.657299,11325.150913
1087.699130,-2146.597232,-842.705048,9030.512492
1087.699460,-1406.391290,-1915.238745,8068.244768
1087.699790,-740.205942,-2298.286494,7105.977043
1087.700119,-518.144159,-2068.457845,6143.709319
1087.700449,0.000000,-995.924147,6365.771101
1087.700779,888.247130,-306.438199,6735.874072
1087.701108,2146.597232,-689.485948,10658.965565
1087.701438,-592.164754,459.657299,13249.686362
1087.701768,-3552.988522,1915.238745,13989.892304
1087.702097,-4441.235652,842.705048,14434.015869
1087.702427,-3256.906145,919.314598,15026.180623
1087.702757,-2368.659014,1608.800546,15248.242405
1087.703087,-1036.288319,383.047749,12953.603985
1087.703416,592.164754,-2221.676944,8290.306550
1087.703746,2812.782580,-3753.867940,6069.688724
1087.704076,4219.173869,-2145.067394,7105.977043
1087.704405,3701.029710,1149.143247,9030.512492
1087.704735,1998.556043,2604.724693,10881.027347
1087.705065,-592.164754,3370.820191,11473.192101
1087.705394,-2146.597232,3677.258390,11621.233289
1087.705724,-2368.659014,3677.258390,11843.295072
1087.706054,-1998.556043,2221.676944,11991.336260
1087.706383,-2442.679609,383.047749,9844.739029
1087.706713,-3330.926739,-229.828649,7402.059420
1087.707043,-2886.803174,76.609550,6291.750507
1087.707373,-2072.576638,1149.143247,4663.297435
1087.707702,-444.123565,1991.848295,4737.318029
1087.708032,370.102971,1302.362347,4663.297435
1087.708362,740.205942,612.876398,5847.626942
1087.708691,-888.247130,1072.533697,9030.512492
1087.709021,-3552.988522,3753.867940,10362.883188
1087.709351,-5403.503377,5286.058936,11621.233289
1087.709680,-4737.318029,2987.772442,11177.109724
1087.710010,-4293.194464,1838.629195,10881.027347
1087.710340,-2738.761985,0.000000,9696.697840
1087.710669,-1110.308913,-612.876398,8734.430116
1087.710999,370.102971,-919.314598,6439.791695
1087.711329,1554.432478,-229.828649,4737.318029
1087.711659,3256.906145,-1378.971896,5847.626942
1087.711988,3997.112087,-612.876398,7920.203579
1087.712318,2516.700203,2757.943793,11843.295072
1087.712648,-222.061783,4596.572988,13915.871710
1087.712977,-2368.659014,5056.230287,14063.912898
1087.713307,-2442.679609,2757.943793,14211.954086
1087.713637,-1406.391290,306.438199,13693.809927
1087.713966,-296.082377,-1149.143247,11917.315666
1087.714296,74.020594,-1991.848295,9548.656652
1087.714626,74.020594,-1072.533697,6883.915261
1087.714955,370.102971,-459.657299,6883.915261
1087.715285,370.102971,383.047749,8290.306550
1087.715615,1480.411884,842.705048,9622.677246
1087.715945,370.102971,1532.190996,11103.089130
1087.716274,-1998.556043,2528.115143,10807.006753
1087.716604,-4367.215058,2604.724693,10658.965565
1087.716934,-4219.173869,919.314598,11103.089130
1087.717263,-3478.967927,0.000000,12435.459826
1087.717593,-3552.988522,689.485948,11843.295072
1087.717923,-3404.947333,1072.533697,9622.677246
1087.718252,-1998.556043,-153.219100,7105.977043
1087.718582,-222.061783,-842.705048,3849.070898
1087.718912,1702.473667,-1838.629195,4293.194464
1087.719241,3108.864956,-919.314598,5625.565159
1087.719571,2664.741391,1225.752797,9030.512492
1087.719901,-148.041188,4136.915689,10807.006753
1087.720231,-3849.070898,5286.058936,10362.883188
1087.720560,-3330.926739,2911.162892,11103.089130
1087.720890,-1998.556043,1072.533697,11621.233289
1087.721220,-1480.411884,153.219100,10436.903782
1087.721549,-444.123565,-842.705048,8586.388927
1087.721879,0.000000,-2374.896044,6587.832884
1087.722209,-444.123565,-1915.238745,5181.441594
1087.722538,0.000000,-995.924147,6069.688724
1087.722868,1184.329507,-536.266849,8142.265362
1087.723198,1776.494261,1149.143247,10436.903782
1087.723527,-444.123565,2911.162892,12213.398043
1087.723857,-2738.761985,2374.896044,11399.171507
1087.724187,-3552.988522,459.657299,11843.295072
1087.724516,-2960.823768,-229.828649,13545.768739
1087.724846,-2664.741391,1072.533697,13841.851115
1087.725176,-2294.638420,536.266849,12361.439231
1087.725506,-1332.370696,-1838.629195,9844.739029
1087.725835,-370.102971,-2451.505594,7698.141797
1087.726165,1036.288319,-1608.800546,7624.121203
1087.726495,1702.473667,-229.828649,9178.553681
1087.726824,2960.823768,1072.533697,10510.924376
1087.727154,1110.308913,1991.848295,11769.274478
1087.727484,-1554.432478,4136.915689,11843.295072
1087.727813,-2812.782580,4749.792088,11843.295072
1087.728143,-1332.370696,3370.820191,11473.192101
1087.728473,-222.061783,2451.505594,10658.965565
1087.728802,-148.041188,1608.800546,9548.656652
1087.729132,-814.226536,1685.410096,7254.018232
1087.729462,-444.123565,0.000000,4737.318029
1087.729792,370.102971,-383.047749,4145.153275
1087.730121,444.123565,383.047749,5181.441594
1087.730451,148.041188,2145.067394,7772.162391
1087.730781,-1628.453072,3064.381992,10140.821405
1087.731110,-4737.318029,4673.182538,9400.615463
1087.731440,-5699.585753,4596.572988,8660.409521
1087.731770,-4367.215058,1762.019645,9252.574275
1087.732099,-2516.700203,306.438199,8882.471304
1087.732429,-1998.556043,229.828649,8290.306550
1087.732759,-1480.411884,-612.876398,8216.285956
1087.733088,-1850.514855,-229.828649,6883.915261
1087.733418,-1554.432478,76.609550,7476.080014
1087.733748,-148.041188,229.828649,9178.553681
1087.734078,1702.473667,1915.238745,9992.780217
1087.734407,1850.514855,995.924147,11103.089130
1087.734737,1258.350101,842.705048,11917.315666
1087.735067,-666.185348,1149.143247,12509.480420
1087.735396,-1998.556043,1915.238745,13101.645173
1087.735726,-1702.473667,3140.991542,13175.665768
1087.736056,148.041188,1685.410096,12139.377449
1087.736385,1110.308913,689.485948,11029.068536
1087.736715,962.267725,-1455.581446,7920.203579
1087.737045,1554.432478,-2528.115143,5921.647536
1087.737374,2442.679609,-2451.505594,6661.853478
1087.737704,3404.947333,-459.657299,9252.574275
1087.738034,1702.473667,1991.848295,11917.315666
1087.738364,-1850.514855,2987.772442,12583.501014
1087.738693,-4959.379811,3217.601092,11695.253884
1087.739023,-4885.359217,2757.943793,11621.233289
1087.739353,-3478.967927,2068.457845,11917.315666
1087.739682,-2146.597232,842.705048,10658.965565
1087.740012,-2146.597232,76.609550,8512.368333
1087.740342,-2146.597232,-1072.533697,5477.523971
1087.740671,-1110.308913,-1991.848295,4811.338623
1087.741001,-666.185348,-1149.143247,5773.606348
1087.741331,0.000000,689.485948,7994.224174
1087.741660,-1184.329507,2221.676944,10658.965565
1087.741990,-2516.700203,3600.648841,11695.253884
1087.742320,-3256.906145,3830.477490,10955.047942
1087.742650,-2294.638420,2604.724693,9844.739029
1087.742979,-1258.350101,1072.533697,9696.697840
1087.743309,-814.226536,995.924147,9178.553681
1087.743639,148.041188,1225.752797,9400.615463
1087.743968,370.102971,995.924147,7846.182985
1087.744298,148.041188,153.219100,4293.194464
1087.744628,1332.370696,-1302.362347,5181.441594
1087.744957,2368.659014,-1532.190996,7550.100608
1087.745287,2072.576638,459.657299,9474.636058
1087.745617,-222.061783,1838.629195,11621.233289
1087.745946,-2590.720797,2681.334243,11547.212695
1087.746276,-3997.112087,2681.334243,12287.418637
1087.746606,-3404.947333,1915.238745,12435.459826
1087.746935,-1998.556043,612.876398,11991.336260
1087.747265,-1110.308913,-383.047749,10584.944971
1087.747595,-962.267725,-1072.533697,7994.224174
1087.747925,-740.205942,-1532.190996,6809.894666
1087.748254,666.185348,-2451.505594,7698.141797
1087.748584,962.267725,-689.485948,9770.718434
1087.748914,74.020594,689.485948,11473.192101
1087.749243,-1850.514855,2221.676944,13767.830521
1087.749573,-3404.947333,3753.867940,13841.851115
1087.749903,-3552.988522,3064.381992,13101.645173
1087.750232,-1776.494261,1378.971896,12583.501014
1087.750562,-296.082377,842.705048,11029.068536
1087.750892,0.000000,1455.581446,9622.677246
1087.751221,296.082377,1532.190996,7920.203579
1087.751551,814.226536,1378.971896,5403.503377
1087.751881,1776.494261,995.924147,5181.441594
1087.752211,2220.617826,1225.752797,6735.874072
1087.752540,740.205942,1532.190996,7550.100608
1087.752870,-1258.350101,2298.286494,9696.697840
1087.753200,-3034.844362,4060.306139,9918.759623
1087.753529,-3997.112087,4290.134789,9844.739029
1087.753859,-3330.926739,2604.724693,10140.821405
1087.754189,-3849.070898,2221.676944,9326.594869
1087.754518,-3478.967927,2451.505594,8364.327145
1087.754848,-2368.659014,766.095498,7031.956449
1087.755178,-1554.432478,536.266849,5773.606348
1087.755507,-666.185348,-153.219100,5255.462188
1087.755837,74.020594,-383.047749,6291.750507
1087.756167,0.000000,-306.438199,8142.265362
1087.756496,-1258.350101,1225.752797,11399.171507
1087.756826,-2738.761985,3064.381992,13101.645173
1087.757156,-4145.153275,3677.258390,13545.768739
1087.757485,-3256.906145,2451.505594,13101.645173
1087.757815,-1110.308913,995.924147,10881.027347
1087.758145,1184.329507,-1378.971896,9178.553681
1087.758474,3034.844362,-2221.676944,9474.636058
1087.758804,2516.700203,459.657299,8586.388927
1087.759134,1702.473667,1991.848295,8216.285956
1087.759463,1998.556043,536.266849,9030.512492
1087.759793,2442.679609,0.000000,9992.780217
1087.760123,1036.288319,306.438199,12805.562797
1087.760452,-1554.432478,1072.533697,12879.583391
1087.760782,-3256.906145,1762.019645,11769.274478
1087.761111,-3182.885551,1149.143247,11991.336260
1087.761441,-2960.823768,1225.752797,12139.377449
1087.761771,-3034.844362,1532.190996,11029.068536
1087.762100,-2368.659014,1149.143247,8734.430116
1087.762430,-888.247130,0.000000,5921.647536
1087.762760,-222.061783,76.609550,5107.421000
1087.763089,370.102971,-229.828649,5625.565159
1087.763419,0.000000,-919.314598,7846.182985
1087.763749,-2442.679609,1378.971896,9252.574275
1087.764078,-5033.400406,3370.820191,11251.130318
1087.764408,-5995.668130,3524.039291,11843.295072
1087.764738,-5181.441594,2374.896044,11769.274478
1087.765067,-3849.070898,919.314598,10510.924376
1087.765397,-2294.638420,383.047749,8216.285956
1087.765727,592.164754,0.000000,6957.935855
1087.766056,1406.391290,842.705048,5773.606348
1087.766386,1036.288319,1991.848295,4367.215058
1087.766715,1554.432478,1378.971896,4959.379811
1087.767045,2442.679609,1225.752797,7105.977043
1087.767375,2442.679609,1072.533697,9992.780217
1087.767704,-296.082377,1991.848295,11769.274478
1087.768034,-3108.864956,1532.190996,11547.212695
1087.768364,-4071.132681,229.828649,11843.295072
1087.768693,-3108.864956,-229.828649,12509.480420
1087.769023,-1998.556043,153.219100,12213.398043
1087.769353,-1184.329507,-153.219100,10955.047942
1087.769682,-1406.391290,-1685.410096,8808.450710
1087.770012,-888.247130,-459.657299,7846.182985
1087.770342,444.123565,229.828649,7846.182985
1087.770671,2516.700203,0.000000,8956.491898
1087.771001,2664.741391,-766.095498,10436.903782
1087.771331,-444.123565,0.000000,12657.521608
1087.771660,-4515.256246,1608.800546,13693.809927
1087.771990,-5699.585753,2451.505594,14137.933492
1087.772319,-4219.173869,1838.629195,14508.036463
1087.772649,-2294.638420,1685.410096,12879.583391
1087.772979,-814.226536,919.314598,10066.800811
1087.773308,888.247130,-1455.581446,6365.771101
1087.773638,2516.700203,-2145.067394,4293.194464
1087.773968,3108.864956,612.876398,5107.421000
1087.774297,2664.741391,3370.820191,7254.018232
1087.774627,1332.370696,2528.115143,9030.512492
1087.774957,-740.205942,2987.772442,11103.089130
1087.775286,-2664.741391,3983.696590,10807.006753
1087.775616,-4293.194464,2757.943793,9844.739029
1087.775946,-4071.132681,383.047749,9696.697840
1087.776275,-3330.926739,612.876398,9548.656652
1087.776605,-4071.132681,1532.190996,9326.594869
1087.776935,-3034.844362,1838.629195,8142.265362
1087.777264,-2294.638420,1838.629195,5921.647536
1087.777594,-1184.329507,459.657299,4663.297435
1087.777923,-296.082377,383.047749,5033.400406
1087.778253,666.185348,306.438199,7105.977043
1087.778583,-592.164754,995.924147,10955.047942
1087.778912,-3701.029710,3370.820191,11991.336260
1087.779242,-6143.709319,3907.087040,11325.150913
1087.779572,-4515.256246,153.219100,11399.171507
1087.779901,-1628.453072,-1378.971896,12065.356855
1087.780231,0.000000,0.000000,11473.192101
1087.780561,592.164754,0.000000,9918.759623
1087.780890,962.267725,-306.438199,7698.141797
1087.781220,2146.597232,1302.362347,6291.750507
1087.781550,4293.194464,1762.019645,7402.059420
1087.781879,5181.441594,1608.800546,8808.450710
1087.782209,3775.050304,3064.381992,10732.986159
1087.782538,296.082377,3447.429741,11695.253884
1087.782868,-2960.823768,2451.505594,11769.274478
1087.783198,-4515.256246,229.828649,12065.356855
1087.783527,-4367.215058,-612.876398,13471.748144
1087.783857,-3849.070898,-1072.533697,12287.418637
1087.784187,-3997.112087,-1072.533697,9622.677246
1087.784516,-2960.823768,-1608.800546,6439.791695
1087.784846,-444.123565,-1991.848295,6365.771101
1087.785176,1036.288319,-306.438199,8734.430116
1087.785505,666.185348,3064.381992,10584.944971
1087.785835,-370.102971,4290.134789,10955.047942
1087.786165,-1406.391290,2987.772442,10066.800811
1087.786494,-2664.741391,1072.533697,9992.780217
1087.786824,-2516.700203,1378.971896,11843.295072
1087.787154,-2294.638420,1378.971896,11991.336260
1087.787483,-2368.659014,612.876398,10807.006753
1087.787813,-2516.700203,536.266849,9474.636058
1087.788142,-1850.514855,153.219100,7476.080014
1087.788472,0.000000,-1225.752797,5551.544565
1087.788802,1776.494261,-1915.238745,4589.276840
1087.789131,2442.679609,0.000000,5107.421000
1087.789461,1036.288319,1302.362347,8068.244768
1087.789791,-1998.556043,2911.162892,11103.089130
1087.790120,-4737.318029,4749.792088,11473.192101
1087.790450,-5551.544565,2528.115143,10362.883188
1087.790780,-3997.112087,-383.047749,10066.800811
1087.791109,-2368.659014,-2451.505594,9474.636058
1087.791439,-1998.556043,-3600.648841,9178.553681
1087.791769,-1924.535449,-2987.772442,8068.244768
1087.792098,-1628.453072,-536.266849,7402.059420
1087.792428,-148.041188,459.657299,8660.409521
1087.792758,1554.432478,766.095498,10436.903782
1087.793087,1554.432478,1378.971896,11177.109724
1087.793417,962.267725,766.095498,12139.377449
1087.793746,-222.061783,612.876398,12139.377449
1087.794076,-1776.494261,2145.067394,12583.501014
1087.794406,-2072.576638,1455.581446,13397.727550
1087.794735,-1110.308913,153.219100,12731.542202
1087.795065,-370.102971,-459.657299,11547.212695
1087.795395,74.020594,-153.219100,8586.388927
1087.795724,370.102971,-689.485948,6809.894666
1087.796054,1480.411884,-459.657299,6587.832884
1087.796384,2590.720797,689.485948,7920.203579
1087.796713,2442.679609,2221.676944,9326.594869
1087.797043,370.102971,3753.867940,9918.759623
1087.797373,-2368.659014,4673.182538,10066.800811
1087.797702,-3923.091493,4596.572988,10807.006753
1087.798032,-3627.009116,3217.601092,11843.295072
1087.798361,-3627.009116,2068.457845,11029.068536
1087.798691,-3997.112087,1149.143247,8882.471304
1087.799021,-4145.153275,1608.800546,6883.915261
1087.799350,-2812.782580,153.219100,4589.276840
1087.799680,-1332.370696,-919.314598,3997.112087
1087.800010,148.041188,-383.047749,5181.441594
1087.800339,0.000000,1225.752797,7846.182985
1087.800669,-1554.432478,3753.867940,11399.171507
1087.800999,-3627.009116,5362.668486,11473.192101
1087.801328,-4737.318029,3983.696590,9844.739029
1087.801658,-2886.803174,229.828649,9770.718434
1087.801988,-1184.329507,0.000000,10510.924376
1087.802317,-370.102971,1532.190996,10510.924376
1087.802647,-296.082377,919.314598,8808.450710
1087.802977,-444.123565,0.000000,6587.832884
1087.803306,0.000000,-306.438199,6587.832884
1087.803636,1776.494261,-229.828649,8734.430116
1087.803965,3330.926739,0.000000,9844.739029
1087.804295,2664.741391,689.485948,10510.924376
1087.804625,444.123565,383.047749,10881.027347
1087.804954,-2146.597232,536.266849,12583.501014
1087.805284,-3108.864956,1532.190996,15026.180623
1087.805614,-3182.885551,2298.286494,14804.118840
1087.805943,-2516.700203,1532.190996,11843.295072
1087.806273,-1998.556043,-1225.752797,9474.636058
1087.806603,-1332.370696,-3830.477490,7402.059420
1087.806932,-888.247130,-3600.648841,6809.894666
1087.807262,148.041188,-1762.019645,7698.141797
1087.807592,1406.391290,306.438199,9400.615463
1087.807921,1036.288319,2451.505594,12139.377449
1087.808251,-1628.453072,2987.772442,12953.603985
1087.808581,-3701.029710,2681.334243,11473.192101
1087.808910,-3182.885551,1762.019645,10732.986159
1087.809240,-1850.514855,1991.848295,11177.109724
1087.809569,-1110.308913,1072.533697,11177.109724
1087.809899,-1406.391290,0.000000,9696.697840
1087.810229,-1480.411884,-1072.533697,6661.853478
1087.810558,-1184.329507,-689.485948,4515.256246
1087.810888,148.041188,-383.047749,4737.318029
1087.811218,1554.432478,689.485948,6587.832884
1087.811547,1406.391290,2374.896044,8734.430116
1087.811877,-592.164754,2528.115143,9622.677246
1087.812207,-2294.638420,4060.306139,9178.553681
1087.812536,-3330.926739,3830.477490,8882.471304
1087.812866,-2590.720797,3217.601092,8956.491898
1087.813196,-2220.617826,1532.190996,9104.533087
1087.813525,-1776.494261,-383.047749,9548.656652
1087.813855,-2146.597232,-229.828649,8216.285956
1087.814185,-3108.864956,-919.314598,5995.668130
1087.814514,-2146.597232,-2528.115143,6069.688724
1087.814844,518.144159,-1991.848295,8068.244768
1087.815173,1702.473667,-229.828649,11103.089130
1087.815503,1406.391290,2145.067394,13249.686362
1087.815833,-1110.308913,3064.381992,13767.830521
1087.816162,-2960.823768,3370.820191,14211.954086
1087.816492,-2368.659014,2528.115143,13989.892304
1087.816822,-814.226536,1225.752797,13841.851115
1087.817151,222.061783,459.657299,12361.439231
1087.817481,296.082377,-459.657299,9696.697840
1087.817811,222.061783,-1762.019645,7254.018232
1087.818140,814.226536,-1532.190996,7328.038826
1087.818470,1924.535449,-842.705048,8290.306550
1087.818800,2220.617826,1838.629195,9992.780217
1087.819129,1258.350101,2298.286494,11621.233289
1087.819459,-1480.411884,3064.381992,10955.047942
1087.819788,-3701.029710,3983.696590,10140.821405
1087.820118,-3182.885551,2451.505594,10362.883188
1087.820448,-1850.514855,2298.286494,11251.130318
1087.820777,-2368.659014,3370.820191,10658.965565
1087.821107,-3034.844362,2528.115143,7772.162391
1087.821437,-2738.761985,-612.876398,4589.276840
1087.821766,-1406.391290,-2298.286494,3182.885551
1087.822096,-666.185348,-1072.533697,4737.318029
1087.822426,0.000000,766.095498,7698.141797
1087.822755,-1554.432478,2528.115143,10584.944971
1087.823085,-3775.050304,4673.182538,11473.192101
1087.823415,-5033.400406,5209.449386,10436.903782
1087.823744,-2960.823768,2451.505594,10362.883188
1087.824074,-444.123565,459.657299,9770.718434
1087.824404,148.041188,689.485948,9474.636058
1087.824733,370.102971,689.485948,9030.512492
1087.825063,-666.185348,153.219100,7031.956449
1087.825392,-370.102971,-919.314598,5477.523971
1087.825722,296.082377,-1149.143247,6957.935855
1087.826052,2516.700203,-229.828649,9622.677246
1087.826381,2442.679609,919.314598,11843.295072
1087.826711,814.226536,1378.971896,11029.068536
1087.827041,-1110.308913,536.266849,10362.883188
1087.827370,-1554.432478,-306.438199,12361.439231
1087.827700,-1776.494261,1991.848295,14434.015869
1087.828030,-1480.411884,3217.601092,13841.851115
1087.828359,-1702.473667,1455.581446,11251.130318
1087.828689,-1628.453072,-1455.581446,7772.162391
1087.829019,-1036.288319,-2604.724693,6809.894666
1087.829348,148.041188,-3140.991542,8364.327145
1087.829678,1184.329507,-1149.143247,10288.862594
1087.830008,74.020594,1072.533697,11695.253884
1087.830337,-2368.659014,1838.629195,11695.253884
1087.830667,-3923.091493,1685.410096,11399.171507
1087.830996,-3552.988522,1762.019645,12509.480420
1087.831326,-1406.391290,2911.162892,13471.748144
1087.831656,-592.164754,3524.039291,11177.109724
1087.831985,-1036.288319,2221.676944,8512.368333
1087.832315,0.000000,153.219100,5921.647536
1087.832645,296.082377,-1302.362347,4737.318029
1087.832974,1406.391290,-612.876398,4885.359217
1087.833304,1406.391290,1685.410096,7105.977043
1087.833634,0.000000,2911.162892,9104.533087
1087.833963,-2294.638420,3600.648841,9696.697840
1087.834293,-3478.967927,3370.820191,9474.636058
1087.834623,-2738.761985,1991.848295,9178.553681
1087.834952,-1554.432478,2145.067394,8882.471304
1087.835282,-1258.350101,1915.238745,9030.512492
1087.835612,-1480.411884,1302.362347,9104.533087
1087.835941,-2220.617826,536.266849,7698.141797
1087.836271,-2516.700203,536.266849,5921.647536
1087.836600,-1554.432478,-306.438199,5921.647536
1087.836930,74.020594,-383.047749,7920.203579
1087.837260,518.144159,612.876398,9770.718434
1087.837589,0.000000,842.705048,10955.047942
1087.837919,-1110.308913,536.266849,11769.274478
1087.838249,-2812.782580,2145.067394,13101.645173
1087.838578,-2738.761985,2911.162892,14137.933492
1087.838908,-1184.329507,2068.457845,13619.789333
1087.839238,74.020594,612.876398,12065.356855
1087.839567,518.144159,536.266849,10066.800811
1087.839897,740.205942,-306.438199,7698.141797
1087.840227,1184.329507,-919.314598,7402.059420
1087.840556,2664.741391,-842.705048,8660.409521
1087.840886,3330.926739,536.266849,10807.006753
1087.841215,1258.350101,1532.190996,11843.295072
1087.841545,-1998.556043,2834.553343,12065.356855
1087.841875,-3849.070898,3447.429741,11325.150913
1087.842204,-2960.823768,2451.505594,11177.109724
1087.842534,-888.247130,2221.676944,11695.253884
1087.842864,-592.164754,2298.286494,9548.656652
1087.843193,-1406.391290,2145.067394,6957.935855
1087.843523,-1406.391290,-229.828649,4441.235652
1087.843853,-740.205942,-919.314598,4663.297435
1087.844182,-666.185348,0.000000,6069.688724
1087.844512,-1406.391290,1455.581446,8142.265362
1087.844842,-2368.659014,1302.362347,9992.780217
1087.845171,-3701.029710,2757.943793,10214.842000
1087.845501,-3997.112087,3064.381992,9622.677246
1087.845831,-2960.823768,1991.848295,9770.718434
1087.846160,-1036.288319,842.705048,9696.697840
1087.846490,-296.082377,1378.971896,9770.718434
1087.846819,-962.267725,0.000000,8364.327145
1087.847149,-1998.556043,-1378.971896,5551.544565
1087.847479,-1258.350101,-1838.629195,5107.421000
1087.847808,888.247130,-1991.848295,7105.977043
1087.848138,2886.803174,-919.314598,9030.512492
1087.848468,2146.597232,-689.485948,10807.006753
1087.848797,444.123565,-229.828649,12139.377449
1087.849127,-1924.535449,1455.581446,13323.706956
1087.849457,-3108.864956,2374.896044,14285.974681
1087.849786,-1924.535449,1915.238745,13693.809927
1087.850116,-518.144159,0.000000,11103.089130
1087.850446,0.000000,-2757.943793,9696.697840
1087.850775,-148.041188,-3983.696590,7846.182985
1087.851105,-518.144159,-3983.696590,6217.729913
1087.851435,148.041188,-4060.306139,6291.750507
1087.851764,1332.370696,-3677.258390,7920.203579
1087.852094,1036.288319,-2987.772442,11473.192101
1087.852423,-1332.370696,-1991.848295,13471.748144
1087.852753,-4219.173869,0.000000,14063.912898
1087.853083,-5107.421000,2145.067394,14434.015869
1087.853412,-4145.153275,2604.724693,15470.304188
1087.853742,-2294.638420,2604.724693,13767.830521
1087.854072,-740.205942,536.266849,10362.883188
1087.854401,1554.432478,-3294.210641,6143.709319
1087.854731,1554.432478,-4213.525239,2442.679609
1087.855061,1406.391290,-3907.087040,1924.535449
1087.855390,2072.576638,-3140.991542,4515.256246
1087.855720,1480.411884,-2451.505594,7402.059420
1087.856050,-222.061783,-1608.800546,9326.594869
1087.856379,-1998.556043,-1685.410096,10288.862594
1087.856709,-3404.947333,-1455.581446,12361.439231
1087.857038,-4071.132681,842.705048,13471.748144
1087.857368,-3404.947333,1838.629195,11769.274478
1087.857698,-1406.391290,-536.266849,9474.636058
1087.858027,1258.350101,-2145.067394,7994.224174
1087.858357,1628.453072,-919.314598,6587.832884
1087.858687,888.247130,842.705048,4737.318029
1087.859016,814.226536,-1608.800546,4145.153275
1087.859346,666.185348,-2374.896044,4737.318029
1087.859676,148.041188,-3217.601092,7772.162391
1087.860006,-1036.288319,-5209.449386,11769.274478
1087.860335,-3701.029710,-5439.278036,13027.624579
1087.860665,-5921.647536,-2987.772442,13545.768739
1087.860995,-7254.018232,-2528.115143,15248.242405
1087.861324,-7105.977043,-1838.629195,15766.386565
1087.861654,-5107.421000,-1378.971896,13989.892304
1087.861984,-1036.288319,-2757.943793,10955.047942
1087.862313,2664.741391,-5286.058936,7105.977043
1087.862643,3256.906145,-4136.915689,4737.318029
1087.862973,3923.091493,-2834.553343,5107.421000
1087.863302,4293.194464,-2911.162892,8290.306550
1087.863632,3182.885551,-1072.533697,11103.089130
1087.863962,962.267725,306.438199,12953.603985
1087.864291,-592.164754,-2451.505594,13545.768739
1087.864621,-1924.535449,-4903.011187,13767.830521
1087.864951,-3478.967927,-3677.258390,14656.077652
1087.865280,-4441.235652,-2298.286494,14359.995275
1087.865610,-4589.276840,-1149.143247,12435.459826
1087.865940,-4367.215058,-842.705048,8586.388927
1087.866270,-1702.473667,-2145.067394,5107.421000
1087.866599,1776.494261,-4519.963438,2368.659014
1087.866929,4071.132681,-4903.011187,1184.329507
1087.867259,3997.112087,-2834.553343,2072.576638
1087.867588,2812.782580,-919.314598,5181.441594
1087.867918,0.000000,1532.190996,9918.759623
1087.868248,-3775.050304,2451.505594,14211.954086
1087.868577,-5995.668130,2451.505594,15692.365970
1087.868907,-5921.647536,0.000000,15544.324782
1087.869237,-5403.503377,-1378.971896,15026.180623
1087.869566,-4219.173869,-2451.505594,13101.645173
1087.869896,-3256.906145,-2451.505594,8956.491898
1087.870226,-1776.494261,-2911.162892,5033.400406
1087.870555,518.144159,-2221.676944,4145.153275
1087.870885,2072.576638,-306.438199,4293.194464
1087.871215,2516.700203,0.000000,3627.009116
1087.871544,3256.906145,-1532.190996,2812.782580
1087.871874,4219.173869,-3217.601092,4293.194464
1087.872204,3775.050304,-2987.772442,8734.430116
1087.872534,1110.308913,-2145.067394,13397.727550
1087.872863,-1924.535449,-689.485948,16580.613101
1087.873193,-4515.256246,766.095498,18135.045579
1087.873523,-5551.544565,1838.629195,18949.272115
1087.873852,-5329.482782,842.705048,16432.571912
1087.874182,-3627.009116,-1685.410096,11103.089130
1087.874512,-888.247130,-4673.182538,6143.709319
1087.874841,1998.556043,-5362.668486,3701.029710
1087.875171,2738.761985,-4519.963438,4145.153275
1087.875501,1702.473667,-3370.820191,5033.400406
1087.875830,-296.082377,-2604.724693,6661.853478
1087.876160,-2738.761985,-1302.362347,9178.553681
1087.876490,-3256.906145,0.000000,13027.624579
1087.876819,-3478.967927,-1455.581446,14285.974681
1087.877149,-3775.050304,-3370.820191,12805.562797
1087.877479,-4367.215058,-4749.792088,11177.109724
1087.877809,-3849.070898,-4903.011187,10584.944971
1087.878138,-1702.473667,-4826.401637,10066.800811
1087.878468,-370.102971,-4136.915689,9178.553681
1087.878798,148.041188,-2757.943793,6957.935855
1087.879127,1258.350101,-2298.286494,5699.585753
1087.879457,3108.864956,-3064.381992,5921.647536
1087.879787,3775.050304,-2528.115143,7179.997637
1087.880116,1406.391290,-1838.629195,8586.388927
1087.880446,-1554.432478,-229.828649,10955.047942
1087.880776,-3478.967927,-383.047749,12879.583391
1087.881105,-3775.050304,-1838.629195,12953.603985
1087.881435,-2664.741391,-3447.429741,11325.150913
1087.881765,-1184.329507,-5132.839837,9178.553681
1087.882094,0.000000,-6435.202183,8438.347739
1087.882424,74.020594,-4979.620737,7994.224174
1087.882754,-148.041188,-3217.601092,8142.265362
1087.883083,-592.164754,-2451.505594,8808.450710
1087.883413,-1036.288319,-1225.752797,11103.089130
1087.883743,-2220.617826,766.095498,12139.377449
1087.884073,-2220.617826,919.314598,11991.336260
1087.884402,-2072.576638,-995.924147,11029.068536
1087.884732,-1480.411884,-1991.848295,10066.800811
1087.885062,-1184.329507,-1991.848295,10066.800811
1087.885391,-814.226536,-3217.601092,9992.780217
1087.885721,-444.123565,-3217.601092,9104.533087
1087.886051,-148.041188,-2604.724693,7846.182985
1087.886380,-222.061783,-2604.724693,8290.306550
1087.886710,-666.185348,-2757.943793,8586.388927
1087.887040,-814.226536,-1455.581446,9030.512492
1087.887369,-1184.329507,-919.314598,9696.697840
1087.887699,-1036.288319,-383.047749,10807.006753
1087.888029,-1480.411884,612.876398,11843.295072
1087.888358,-1924.535449,766.095498,12361.439231
1087.888688,-2146.597232,1762.019645,11621.233289
1087.889018,-2738.761985,2068.457845,8808.450710
1087.889347,-962.267725,689.485948,7031.956449
1087.889677,888.247130,-2757.943793,5255.462188
1087.890007,1554.432478,-4903.011187,4515.256246
1087.890337,370.102971,-4903.011187,5107.421000
1087.890666,-814.226536,-4366.744339,6661.853478
1087.890996,-2590.720797,-2604.724693,9474.636058
1087.891326,-3330.926739,-1762.019645,12583.501014
1087.891655,-3552.988522,-306.438199,14137.933492
1087.891985,-2664.741391,153.219100,13989.892304
1087.892315,-1924.535449,0.000000,12879.583391
1087.892644,-1480.411884,0.000000,11251.130318
1087.892974,-814.226536,-306.438199,9770.718434
1087.893304,444.123565,-612.876398,8734.430116
