#time,accel_x,accel_y,accel_z
867.917047,-1184.329507,766.095498,9400.615463
867.917376,-1110.308913,919.314598,9474.636058
867.917706,-740.205942,842.705048,9474.636058
867.918035,-962.267725,612.876398,9622.677246
867.918365,-1110.308913,995.924147,9548.656652
867.918694,-1184.329507,919.314598,9622.677246
867.919024,-888.247130,919.314598,9770.718434
867.919353,-962.267725,842.705048,9770.718434
867.919683,-888.247130,306.438199,9474.636058
867.920012,-962.267725,1225.752797,9622.677246
867.920342,-1110.308913,842.705048,9622.677246
867.920671,-962.267725,919.314598,9548.656652
867.921001,-962.267725,995.924147,9548.656652
867.921330,-1036.288319,1072.533697,9474.636058
867.921660,-666.185348,689.485948,9844.739029
867.921989,-740.205942,919.314598,9622.677246
867.922319,-1110.308913,842.705048,9548.656652
867.922648,-962.267725,842.705048,9622.677246
867.922978,-962.267725,1225.752797,9400.615463
867.923307,-1258.350101,1378.971896,9400.615463
867.923637,-962.267725,919.314598,9548.656652
867.923966,-1110.308913,766.095498,9474.636058
867.924296,-1258.350101,995.924147,9400.615463
867.924625,-1036.288319,919.314598,9622.677246
867.924955,-962.267725,689.485948,9622.677246
867.925284,-962.267725,612.876398,9326.594869
867.925614,-962.267725,995.924147,9326.594869
867.925943,-1036.288319,1149.143247,9400.615463
867.926273,-1258.350101,995.924147,9474.636058
867.926602,-962.267725,1072.533697,9252.574275
867.926932,-1036.288319,1378.971896,9252.574275
867.927261,-1184.329507,995.924147,9474.636058
867.927591,-1036.288319,995.924147,9622.677246
867.927920,-888.247130,919.314598,9474.636058
867.928250,-1110.308913,306.438199,9030.512492
867.928579,-740.205942,766.095498,9696.697840
867.928909,-1258.350101,689.485948,9474.636058
867.929238,-1036.288319,919.314598,9696.697840
867.929568,-1036.288319,995.924147,9622.677246
867.929897,-1258.350101,919.314598,9622.677246
867.930227,-962.267725,1378.971896,9548.656652
867.930556,-814.226536,842.705048,9844.739029
867.930886,-962.267725,612.876398,9548.656652
867.931215,-1258.350101,612.876398,9548.656652
867.931545,-1036.288319,919.314598,9622.677246
867.931874,-444.123565,1378.971896,9548.656652
867.932204,-1110.308913,842.705048,9696.697840
867.932533,-888.247130,766.095498,9696.697840
867.932863,-1110.308913,1072.533697,9400.615463
867.933192,-1110.308913,995.924147,9548.656652
867.933522,-1036.288319,1302.362347,9474.636058
867.933851,-1406.391290,1302.362347,9326.594869
867.934181,-962.267725,689.485948,9474.636058
867.934510,-888.247130,995.924147,9474.636058
867.934840,-962.267725,766.095498,9474.636058
867.935169,-1184.329507,1072.533697,9474.636058
867.935499,-1110.308913,766.095498,9548.656652
867.935828,-962.267725,689.485948,9400.615463
867.936158,-962.267725,842.705048,9622.677246
867.936487,-1110.308913,1225.752797,9474.636058
867.936817,-1036.288319,842.705048,9474.636058
867.937146,-962.267725,919.314598,9326.594869
867.937476,-888.247130,1532.190996,9548.656652
867.937805,-962.267725,1072.533697,8956.491898
867.938135,-148.041188,689.485948,8808.450710
867.938464,666.185348,689.485948,9178.553681
867.938794,962.267725,1149.143247,9400.615463
867.939123,592.164754,919.314598,9252.574275
867.939453,222.061783,766.095498,9548.656652
867.939782,-148.041188,689.485948,9992.780217
867.940112,-666.185348,842.705048,10436.903782
867.940441,-518.144159,689.485948,10732.986159
867.940771,-296.082377,919.314598,9992.780217
867.941100,0.000000,229.828649,9178.553681
867.941430,1110.308913,0.000000,9252.574275
867.941759,1924.535449,153.219100,9252.574275
867.942089,2886.803174,919.314598,8956.491898
867.942418,3404.947333,1149.143247,8586.388927
867.942748,3330.926739,1762.019645,9178.553681
867.943077,3330.926739,1838.629195,9696.697840
867.943407,3182.885551,1378.971896,9844.739029
867.943736,2442.679609,995.924147,10066.800811
867.944066,1628.453072,383.047749,10362.883188
867.944395,1184.329507,383.047749,10732.986159
867.944725,1332.370696,-153.219100,10584.944971
867.945054,1850.514855,-153.219100,10288.862594
867.945384,2294.638420,-306.438199,9474.636058
867.945713,3256.906145,-383.047749,9252.574275
867.946043,4367.215058,689.485948,9474.636058
867.946372,4663.297435,1455.581446,9252.574275
867.946702,4145.153275,2451.505594,9474.636058
867.947031,3330.926739,2757.943793,9918.759623
867.947361,1776.494261,2987.772442,10658.965565
867.947690,0.000000,2834.553343,10436.903782
867.948020,-1998.556043,2451.505594,9326.594869
867.948349,-1702.473667,919.314598,8660.409521
867.948679,-370.102971,-919.314598,7698.141797
867.949008,1184.329507,-1072.533697,6809.894666
867.949338,2664.741391,-536.266849,6439.791695
867.949667,2886.803174,-306.438199,6291.750507
867.949997,3775.050304,1532.190996,7698.141797
867.950326,3256.906145,3140.991542,9622.677246
867.950656,2220.617826,4213.525239,11547.212695
867.950985,814.226536,3830.477490,12213.398043
867.951315,-296.082377,2451.505594,12361.439231
867.951644,-1184.329507,766.095498,12361.439231
867.951974,-1702.473667,-1072.533697,11621.233289
867.952303,-1554.432478,-2451.505594,11177.109724
867.952633,-814.226536,-2451.505594,9844.739029
867.952962,-296.082377,-1608.800546,8438.347739
867.953292,1554.432478,-995.924147,7994.224174
867.953621,3034.844362,-536.266849,7550.100608
867.953951,3923.091493,1225.752797,7550.100608
867.954280,3701.029710,2834.553343,8216.285956
867.954610,3256.906145,4136.915689,9030.512492
867.954939,2590.720797,4749.792088,9844.739029
867.955269,1776.494261,3217.601092,10288.862594
867.955598,518.144159,1762.019645,11473.192101
867.955928,-814.226536,766.095498,11991.336260
867.956257,-2442.679609,0.000000,11621.233289
867.956587,-4071.132681,0.000000,10436.903782
867.956916,-4145.153275,-995.924147,9992.780217
867.957246,-2664.741391,-1302.362347,9844.739029
867.957575,-1480.411884,-1455.581446,9400.615463
867.957905,-592.164754,-459.657299,8364.327145
867.958234,518.144159,536.266849,7772.162391
867.958564,1036.288319,536.266849,7550.100608
867.958893,2146.597232,612.876398,7994.224174
867.959223,2664.741391,766.095498,9030.512492
867.959552,2960.823768,1532.190996,9622.677246
867.959882,1776.494261,1302.362347,9622.677246
867.960211,740.205942,1608.800546,10362.883188
867.960541,0.000000,1685.410096,11399.171507
867.960870,-962.267725,1532.190996,11843.295072
867.961200,-1850.514855,1838.629195,11621.233289
867.961529,-2146.597232,1685.410096,10510.924376
867.961859,-1480.411884,612.876398,8808.450710
867.962188,-814.226536,-459.657299,7846.182985
867.962518,0.000000,-689.485948,7476.080014
867.962847,0.000000,612.876398,6513.812290
867.963177,-370.102971,1762.019645,6365.771101
867.963506,-518.144159,1608.800546,7031.956449
867.963836,-1184.329507,1608.800546,8512.368333
867.964165,-2368.659014,1532.190996,10288.862594
867.964495,-4145.153275,1685.410096,11547.212695
867.964824,-4959.379811,2221.676944,12139.377449
867.965154,-5181.441594,1838.629195,11917.315666
867.965483,-3997.112087,-459.657299,11325.150913
867.965813,-1924.535449,-1302.362347,10510.924376
867.966142,296.082377,-1072.533697,9030.512492
867.966472,1554.432478,-612.876398,8290.306550
867.966801,2368.659014,459.657299,9178.553681
867.967131,2294.638420,1685.410096,9770.718434
867.967460,888.247130,2834.553343,10436.903782
867.967790,148.041188,3524.039291,11103.089130
867.968119,0.000000,3907.087040,11029.068536
867.968449,0.000000,2604.724693,9770.718434
867.968778,74.020594,689.485948,8956.491898
867.969108,148.041188,-306.438199,8142.265362
867.969437,74.020594,0.000000,7402.059420
867.969767,-370.102971,-153.219100,7476.080014
867.970096,-1184.329507,612.876398,7846.182985
867.970426,-1406.391290,1302.362347,9178.553681
867.970755,-2146.597232,1838.629195,9844.739029
867.971085,-3849.070898,2451.505594,10214.842000
867.971414,-4737.318029,2911.162892,10584.944971
867.971744,-4589.276840,1915.238745,10881.027347
867.972073,-4293.194464,919.314598,10584.944971
867.972403,-3849.070898,-229.828649,9400.615463
867.972732,-2738.761985,-1838.629195,8142.265362
867.973062,-1776.494261,-2221.676944,7994.224174
867.973391,-740.205942,-1149.143247,8586.388927
867.973721,74.020594,0.000000,9104.533087
867.974050,1036.288319,536.266849,9622.677246
867.974380,1554.432478,2604.724693,9474.636058
867.974709,1924.535449,3370.820191,9326.594869
867.975039,2368.659014,3217.601092,9696.697840
867.975368,2738.761985,2604.724693,9992.780217
867.975698,2072.576638,2145.067394,9622.677246
867.976027,296.082377,1608.800546,9326.594869
867.976357,-740.205942,1302.362347,9770.718434
867.976686,-1332.370696,76.609550,9992.780217
867.977016,-2294.638420,-612.876398,10214.842000
867.977345,-3404.947333,-459.657299,10436.903782
867.977675,-4071.132681,76.609550,10510.924376
867.978004,-4145.153275,0.000000,10288.862594
867.978334,-3775.050304,229.828649,10066.800811
867.978663,-3182.885551,612.876398,9844.739029
867.978993,-2220.617826,306.438199,9252.574275
867.979322,-1480.411884,229.828649,8734.430116
867.979652,-1036.288319,229.828649,8808.450710
867.979981,-814.226536,459.657299,9326.594869
867.980311,-444.123565,153.219100,9918.759623
867.980640,-296.082377,229.828649,10140.821405
867.980970,-296.082377,1072.533697,9992.780217
867.981299,740.205942,2221.676944,10214.842000
867.981629,1998.556043,1378.971896,9918.759623
867.981958,2516.700203,1608.800546,9622.677246
867.982288,2960.823768,1991.848295,9548.656652
867.982617,2368.659014,2298.286494,9326.594869
867.982947,1998.556043,2911.162892,9252.574275
867.983276,1776.494261,2221.676944,9178.553681
867.983606,148.041188,1762.019645,9030.512492
867.983935,-1480.411884,995.924147,9104.533087
867.984265,-2368.659014,766.095498,8882.471304
867.984594,-3108.864956,306.438199,9104.533087
867.984924,-3478.967927,0.000000,8956.491898
867.985253,-3330.926739,-459.657299,9030.512492
867.985583,-2960.823768,-995.924147,8956.491898
867.985912,-3182.885551,-306.438199,9104.533087
867.986242,-3108.864956,383.047749,9400.615463
867.986571,-2960.823768,1072.533697,9548.656652
867.986900,-2442.679609,1302.362347,10288.862594
867.987230,-1776.494261,1838.629195,10362.883188
867.987559,-1184.329507,1685.410096,9918.759623
867.987889,0.000000,995.924147,9622.677246
867.988218,1332.370696,1378.971896,9400.615463
867.988547,1480.411884,1532.190996,9252.574275
867.988877,1776.494261,1838.629195,9104.533087
867.989206,1702.473667,1838.629195,8956.491898
867.989535,1332.370696,1915.238745,9548.656652
867.989865,740.205942,1302.362347,10140.821405
867.990194,-1184.329507,1455.581446,10881.027347
867.990524,-2368.659014,1455.581446,10732.986159
867.990853,-3256.906145,689.485948,10658.965565
867.991182,-3552.988522,0.000000,10436.903782
867.991512,-3256.906145,-919.314598,9770.718434
867.991841,-2960.823768,-1532.190996,8586.388927
867.992170,-2590.720797,-1378.971896,8364.327145
867.992500,-2368.659014,-612.876398,8438.347739
867.992829,-2294.638420,0.000000,8734.430116
867.993159,-2442.679609,0.000000,8956.491898
867.993488,-2368.659014,1149.143247,9918.759623
867.993817,-2368.659014,1608.800546,10288.862594
867.994147,-1554.432478,1378.971896,10066.800811
867.994476,-148.041188,612.876398,9474.636058
867.994805,962.267725,229.828649,8808.450710
867.995135,2294.638420,842.705048,8734.430116
867.995464,2220.617826,459.657299,8216.285956
867.995794,2812.782580,1532.190996,8882.471304
867.996123,2960.823768,1378.971896,9770.718434
867.996452,2294.638420,1991.848295,10584.944971
867.996782,1258.350101,2374.896044,10510.924376
867.997111,74.020594,2145.067394,10140.821405
867.997440,-814.226536,1608.800546,9844.739029
867.997770,-962.267725,766.095498,9770.718434
867.998099,-1332.370696,-229.828649,9474.636058
867.998429,-1924.535449,-1455.581446,9252.574275
867.998758,-2738.761985,-1455.581446,8808.450710
867.999087,-3552.988522,-229.828649,9326.594869
867.999417,-3701.029710,306.438199,9770.718434
867.999746,-3552.988522,383.047749,10066.800811
868.000075,-3404.947333,919.314598,9622.677246
868.000405,-2442.679609,1608.800546,9474.636058
868.000734,-1480.411884,1378.971896,9474.636058
868.001064,-370.102971,1762.019645,9696.697840
868.001393,-592.164754,2451.505594,9030.512492
868.001722,-592.164754,2451.505594,8438.347739
868.002052,296.082377,1838.629195,8660.409521
868.002381,814.226536,1685.410096,9030.512492
868.002710,74.020594,1608.800546,9918.759623
868.003040,-1036.288319,1685.410096,10436.903782
868.003369,-2294.638420,1532.190996,10584.944971
868.003699,-2590.720797,2068.457845,10214.842000
868.004028,-1850.514855,919.314598,9844.739029
868.004357,-1258.350101,306.438199,9696.697840
868.004687,-518.144159,-229.828649,8882.471304
868.005016,-444.123565,0.000000,8216.285956
868.005345,-370.102971,153.219100,8660.409521
868.005675,-592.164754,919.314598,8956.491898
868.006004,-1776.494261,1455.581446,9770.718434
868.006334,-2294.638420,1455.581446,10214.842000
868.006663,-2368.659014,1991.848295,9992.780217
868.006992,-1850.514855,2068.457845,9474.636058
868.007322,-814.226536,1072.533697,8586.388927
868.007651,0.000000,306.438199,8364.327145
868.007980,0.000000,536.266849,8438.347739
868.008310,-148.041188,1149.143247,9178.553681
868.008639,0.000000,1915.238745,9622.677246
868.008969,-148.041188,1149.143247,10214.842000
868.009298,-1258.350101,1915.238745,10510.924376
868.009627,-1480.411884,1149.143247,11103.089130
868.009957,-1850.514855,842.705048,10214.842000
868.010286,-1702.473667,536.266849,9696.697840
868.010615,-962.267725,-153.219100,9104.533087
868.010945,-296.082377,-1149.143247,9252.574275
868.011274,0.000000,-1302.362347,9104.533087
868.011604,0.000000,0.000000,9400.615463
868.011933,-296.082377,612.876398,9326.594869
868.012262,-296.082377,1149.143247,9992.780217
868.012592,-444.123565,1762.019645,10288.862594
868.012921,-444.123565,1762.019645,10140.821405
868.013250,-592.164754,1455.581446,9770.718434
868.013580,-518.144159,1608.800546,9992.780217
868.013909,-740.205942,1225.752797,9696.697840
868.014239,-1406.391290,1455.581446,9326.594869
868.014568,-1850.514855,1378.971896,8586.388927
868.014897,-1554.432478,842.705048,8660.409521
868.015227,-1554.432478,153.219100,8956.491898
868.015556,-1776.494261,459.657299,9918.759623
868.015885,-3108.864956,1225.752797,9992.780217
868.016215,-3034.844362,1072.533697,10140.821405
868.016544,-2812.782580,612.876398,9844.739029
868.016874,-2072.576638,383.047749,9992.780217
868.017203,-1628.453072,-306.438199,9918.759623
868.017532,-1036.288319,0.000000,9400.615463
868.017862,-740.205942,459.657299,8882.471304
868.018191,0.000000,919.314598,9252.574275
868.018520,0.000000,1149.143247,9844.739029
868.018850,-148.041188,1532.190996,10510.924376
868.019179,-740.205942,2145.067394,10510.924376
868.019509,-296.082377,2298.286494,9992.780217
868.019838,888.247130,1991.848295,9918.759623
868.020167,1184.329507,1685.410096,9178.553681
868.020497,1258.350101,1532.190996,8882.471304
868.020826,592.164754,1762.019645,8216.285956
868.021155,592.164754,1762.019645,7994.224174
868.021485,518.144159,1915.238745,7920.203579
868.021814,0.000000,1378.971896,9178.553681
868.022144,-1332.370696,1302.362347,9918.759623
868.022473,-2812.782580,1455.581446,9992.780217
868.022802,-3404.947333,1149.143247,9918.759623
868.023132,-3034.844362,1149.143247,9770.718434
868.023461,-2664.741391,536.266849,9622.677246
868.023790,-2146.597232,-383.047749,9178.553681
868.024120,-1406.391290,-919.314598,8734.430116
868.024449,-814.226536,-536.266849,8734.430116
868.024779,-370.102971,153.219100,8734.430116
868.025108,-296.082377,612.876398,9178.553681
868.025437,-518.144159,1149.143247,10288.862594
868.025767,-370.102971,1991.848295,10066.800811
868.026096,0.000000,1685.410096,9696.697840
868.026425,370.102971,1225.752797,9844.739029
868.026755,148.041188,1302.362347,9252.574275
868.027084,0.000000,842.705048,9178.553681
868.027414,-296.082377,1149.143247,9326.594869
868.027743,-518.144159,1072.533697,9548.656652
868.028072,-666.185348,383.047749,9844.739029
868.028402,-1554.432478,0.000000,10510.924376
868.028731,-2442.679609,995.924147,10955.047942
868.029060,-2886.803174,689.485948,10658.965565
868.029390,-2812.782580,-306.438199,10214.842000
868.029719,-2516.700203,-306.438199,10066.800811
868.030049,-2368.659014,-536.266849,9844.739029
868.030378,-1776.494261,-842.705048,9474.636058
868.030707,-1702.473667,-842.705048,9400.615463
868.031037,-1554.432478,0.000000,9252.574275
868.031366,-1480.411884,306.438199,9696.697840
868.031695,-1480.411884,689.485948,10140.821405
868.032025,-962.267725,1532.190996,9992.780217
868.032354,-740.205942,2374.896044,9474.636058
868.032684,296.082377,1685.410096,8956.491898
868.033013,1036.288319,1302.362347,8512.368333
868.033342,1184.329507,995.924147,8512.368333
868.033672,740.205942,995.924147,8216.285956
868.034001,518.144159,1455.581446,9030.512492
868.034330,222.061783,2145.067394,9474.636058
868.034660,-444.123565,1685.410096,9770.718434
868.034989,-1480.411884,1302.362347,10140.821405
868.035319,-1776.494261,842.705048,9918.759623
868.035648,-2368.659014,995.924147,9474.636058
868.035977,-2220.617826,1149.143247,9844.739029
868.036307,-2072.576638,919.314598,9622.677246
868.036636,-1554.432478,0.000000,8956.491898
868.036965,-1406.391290,-229.828649,8660.409521
868.037295,-1184.329507,0.000000,8586.388927
868.037624,-1554.432478,612.876398,8586.388927
868.037954,-1554.432478,689.485948,9474.636058
868.038283,-1850.514855,995.924147,10140.821405
868.038612,-2072.576638,1991.848295,9992.780217
868.038942,-1628.453072,2911.162892,9622.677246
868.039271,-740.205942,2068.457845,9030.512492
868.039600,0.000000,1532.190996,9178.553681
868.039930,0.000000,1225.752797,9474.636058
868.040259,-518.144159,1685.410096,9696.697840
868.040589,-592.164754,1838.629195,10510.924376
868.040918,-1332.370696,2298.286494,10436.903782
868.041247,-2368.659014,1532.190996,10955.047942
868.041577,-2738.761985,612.876398,11029.068536
868.041906,-2738.761985,0.000000,10362.883188
868.042235,-2590.720797,0.000000,9326.594869
868.042565,-1776.494261,0.000000,9104.533087
868.042894,-518.144159,-842.705048,8660.409521
868.043224,-148.041188,-919.314598,8364.327145
868.043553,0.000000,76.609550,8660.409521
868.043882,370.102971,919.314598,9030.512492
868.044212,518.144159,2221.676944,9622.677246
868.044541,-592.164754,2681.334243,10214.842000
868.044870,-1036.288319,2757.943793,10362.883188
868.045200,-962.267725,2528.115143,9844.739029
868.045529,-518.144159,1838.629195,9326.594869
868.045859,0.000000,919.314598,8882.471304
868.046188,-962.267725,689.485948,8660.409521
868.046517,-1332.370696,0.000000,8882.471304
868.046847,-1184.329507,229.828649,8956.491898
868.047176,-1036.288319,459.657299,9178.553681
868.047505,-1110.308913,995.924147,9548.656652
868.047835,-1110.308913,1302.362347,9474.636058
868.048164,-1406.391290,1378.971896,9474.636058
868.048494,-1110.308913,1225.752797,9400.615463
868.048823,-740.205942,995.924147,9400.615463
868.049152,-296.082377,459.657299,9622.677246
868.049482,0.000000,0.000000,9104.533087
868.049811,-444.123565,0.000000,9474.636058
868.050140,-592.164754,459.657299,9844.739029
868.050470,-592.164754,536.266849,10214.842000
868.050799,-888.247130,842.705048,10584.944971
868.051129,-1110.308913,1685.410096,10362.883188
868.051458,-1036.288319,1149.143247,9474.636058
868.051787,-444.123565,995.924147,9474.636058
868.052117,-296.082377,1072.533697,9474.636058
868.052446,-444.123565,1302.362347,9326.594869
868.052775,-1110.308913,1608.800546,9326.594869
868.053105,-1258.350101,1455.581446,8882.471304
868.053434,-1332.370696,2145.067394,9030.512492
868.053764,-1554.432478,1072.533697,9030.512492
868.054093,-2146.597232,306.438199,9400.615463
868.054422,-2886.803174,612.876398,10288.862594
868.054752,-3552.988522,383.047749,10140.821405
868.055081,-3997.112087,1225.752797,10584.944971
868.055410,-3330.926739,612.876398,10288.862594
868.055740,-1776.494261,0.000000,9622.677246
868.056069,-444.123565,-919.314598,9474.636058
868.056399,296.082377,-383.047749,9178.553681
868.056728,296.082377,1149.143247,8956.491898
868.057057,444.123565,1455.581446,9548.656652
868.057387,0.000000,2298.286494,9844.739029
868.057716,0.000000,2221.676944,9992.780217
868.058045,296.082377,1608.800546,9252.574275
868.058375,296.082377,1685.410096,9178.553681
868.058704,814.226536,1455.581446,8734.430116
868.059034,518.144159,842.705048,8438.347739
868.059363,296.082377,536.266849,8512.368333
868.059692,148.041188,1302.362347,8734.430116
868.060022,148.041188,1685.410096,9178.553681
868.060351,-444.123565,1302.362347,8956.491898
868.060680,-1184.329507,1991.848295,9696.697840
868.061010,-1702.473667,1608.800546,9622.677246
868.061339,-2220.617826,1072.533697,9696.697840
868.061669,-2294.638420,1455.581446,9844.739029
868.061998,-2368.659014,995.924147,10066.800811
868.062327,-2294.638420,-229.828649,9474.636058
868.062657,-2294.638420,-459.657299,9474.636058
868.062986,-1776.494261,-306.438199,9474.636058
868.063315,-1258.350101,0.000000,9474.636058
868.063645,-888.247130,306.438199,9696.697840
868.063974,-888.247130,689.485948,9770.718434
868.064304,-740.205942,1532.190996,9474.636058
868.064633,0.000000,1455.581446,9696.697840
868.064962,1036.288319,1302.362347,9696.697840
868.065292,1110.308913,995.924147,9548.656652
868.065621,518.144159,1608.800546,10214.842000
868.065950,-370.102971,1455.581446,9918.759623
868.066280,-592.164754,1378.971896,9992.780217
868.066609,-1258.350101,1302.362347,9770.718434
868.066939,-2072.576638,1072.533697,9622.677246
868.067268,-3182.885551,0.000000,9696.697840
868.067597,-3701.029710,0.000000,9918.759623
868.067927,-4219.173869,0.000000,9770.718434
868.068256,-3923.091493,0.000000,9622.677246
868.068585,-3256.906145,-536.266849,9400.615463
868.068915,-2960.823768,-1302.362347,8734.430116
868.069244,-2146.597232,-842.705048,8734.430116
868.069574,-1184.329507,-536.266849,8956.491898
868.069903,-592.164754,229.828649,9548.656652
868.070232,-518.144159,995.924147,10066.800811
868.070562,-518.144159,1455.581446,10140.821405
868.070891,148.041188,1685.410096,9918.759623
868.071220,1258.350101,1302.362347,9696.697840
868.071550,1924.535449,1225.752797,9474.636058
868.071879,1850.514855,995.924147,9104.533087
868.072209,1554.432478,1608.800546,8956.491898
868.072538,1850.514855,1991.848295,8956.491898
868.072867,1480.411884,1685.410096,9400.615463
868.073197,222.061783,1685.410096,9474.636058
868.073526,-1184.329507,1608.800546,9474.636058
868.073855,-1924.535449,1532.190996,9622.677246
868.074185,-2516.700203,306.438199,9844.739029
868.074514,-3404.947333,766.095498,10140.821405
868.074844,-3849.070898,383.047749,9770.718434
868.075173,-3701.029710,-459.657299,9400.615463
868.075502,-3256.906145,-612.876398,9474.636058
868.075832,-2886.803174,459.657299,8956.491898
868.076161,-2664.741391,0.000000,9178.553681
868.076490,-2146.597232,76.609550,9474.636058
868.076820,-1850.514855,1072.533697,9622.677246
868.077149,-1036.288319,2145.067394,9474.636058
868.077479,-148.041188,2221.676944,9326.594869
868.077808,592.164754,2145.067394,9326.594869
868.078137,592.164754,2145.067394,9400.615463
868.078467,148.041188,1991.848295,9326.594869
868.078796,0.000000,2068.457845,9326.594869
868.079125,148.041188,1762.019645,9696.697840
868.079455,148.041188,1302.362347,9326.594869
868.079784,-814.226536,842.705048,9844.739029
868.080114,-1406.391290,995.924147,10140.821405
868.080443,-1702.473667,1302.362347,10140.821405
868.080772,-1924.535449,1225.752797,10140.821405
868.081102,-1702.473667,1302.362347,9918.759623
868.081431,-1554.432478,383.047749,9326.594869
868.081760,-1406.391290,76.609550,9104.533087
868.082090,-1554.432478,76.609550,8660.409521
868.082419,-1480.411884,842.705048,8956.491898
868.082749,-1702.473667,459.657299,9474.636058
868.083078,-2220.617826,536.266849,9696.697840
868.083407,-2294.638420,1302.362347,9696.697840
868.083737,-1628.453072,1378.971896,9474.636058
868.084066,-444.123565,842.705048,9178.553681
868.084395,296.082377,1149.143247,9030.512492
868.084725,592.164754,919.314598,8734.430116
868.085054,888.247130,1225.752797,9030.512492
868.085384,1480.411884,2068.457845,9326.594869
868.085713,1406.391290,2068.457845,9622.677246
868.086043,666.185348,1762.019645,9992.780217
868.086372,74.020594,1455.581446,9844.739029
868.086701,-592.164754,1378.971896,9992.780217
868.087031,-1110.308913,995.924147,9992.780217
868.087360,-1554.432478,919.314598,9770.718434
868.087690,-1258.350101,0.000000,9474.636058
868.088019,-1184.329507,-919.314598,8882.471304
868.088349,-1036.288319,-766.095498,9252.574275
868.088678,-1554.432478,153.219100,9474.636058
868.089008,-1998.556043,0.000000,9548.656652
868.089337,-2220.617826,459.657299,9548.656652
868.089666,-2146.597232,689.485948,10066.800811
868.089996,-1850.514855,1302.362347,9770.718434
868.090325,-1258.350101,612.876398,9844.739029
868.090655,-1036.288319,689.485948,9770.718434
868.090984,-1258.350101,689.485948,9696.697840
868.091314,-1332.370696,1225.752797,9400.615463
868.091643,-888.247130,2298.286494,9030.512492
868.091973,0.000000,1685.410096,8956.491898
868.092302,74.020594,1685.410096,9178.553681
868.092631,-444.123565,1378.971896,9252.574275
868.092961,-1036.288319,1302.362347,9844.739029
868.093290,-1850.514855,995.924147,9622.677246
868.093620,-2146.597232,919.314598,10510.924376
868.093949,-2146.597232,689.485948,10658.965565
868.094279,-1628.453072,-536.266849,10066.800811
868.094608,-1406.391290,-919.314598,9326.594869
868.094938,-1184.329507,383.047749,9104.533087
868.095267,-592.164754,612.876398,9178.553681
868.095596,-888.247130,766.095498,9844.739029
868.095926,-1110.308913,1608.800546,10362.883188
868.096255,-1184.329507,2451.505594,9918.759623
868.096585,-740.205942,2221.676944,9252.574275
868.096914,518.144159,2221.676944,8808.450710
868.097244,518.144159,1072.533697,8512.368333
868.097573,370.102971,842.705048,8364.327145
868.097903,296.082377,1225.752797,8438.347739
868.098232,148.041188,1302.362347,8882.471304
868.098561,0.000000,1378.971896,8956.491898
868.098891,-518.144159,1455.581446,9400.615463
868.099220,-1406.391290,1838.629195,9918.759623
868.099550,-1184.329507,1762.019645,9992.780217
868.099879,-1258.350101,1838.629195,10066.800811
868.100209,-1184.329507,1762.019645,10214.842000
868.100538,-1036.288319,612.876398,9844.739029
868.100867,-1036.288319,153.219100,8882.471304
868.101197,-666.185348,0.000000,8364.327145
868.101526,-444.123565,0.000000,8438.347739
868.101856,-1110.308913,0.000000,8882.471304
868.102185,-1850.514855,229.828649,9252.574275
868.102515,-1850.514855,459.657299,9696.697840
868.102844,-1924.535449,842.705048,9770.718434
868.103174,-1332.370696,842.705048,9992.780217
868.103503,-592.164754,459.657299,10436.903782
868.103832,-814.226536,1072.533697,10510.924376
868.104162,-518.144159,1378.971896,9696.697840
868.104491,-444.123565,1378.971896,9622.677246
868.104821,0.000000,995.924147,9770.718434
868.105150,-518.144159,766.095498,10066.800811
868.105480,-1702.473667,919.314598,10288.862594
868.105809,-2368.659014,459.657299,10362.883188
868.106139,-2738.761985,76.609550,10436.903782
868.106468,-3108.864956,0.000000,10584.944971
868.106797,-2368.659014,-306.438199,10362.883188
868.107127,-1998.556043,-1225.752797,9696.697840
868.107456,-1332.370696,-383.047749,9030.512492
868.107786,-1036.288319,0.000000,9252.574275
868.108115,-444.123565,689.485948,9474.636058
868.108445,-444.123565,842.705048,9622.677246
868.108774,-592.164754,1685.410096,10066.800811
868.109104,-518.144159,2068.457845,9474.636058
868.109433,-296.082377,1915.238745,9474.636058
868.109762,0.000000,1455.581446,8956.491898
868.110092,148.041188,1072.533697,8882.471304
868.110421,-444.123565,1149.143247,8438.347739
868.110751,-370.102971,1302.362347,7846.182985
868.111080,296.082377,1302.362347,8438.347739
868.111410,0.000000,919.314598,8808.450710
868.111739,-814.226536,1532.190996,9918.759623
868.112069,-1776.494261,1762.019645,9918.759623
868.112398,-2072.576638,1915.238745,10066.800811
868.112727,-2442.679609,1838.629195,9696.697840
868.113057,-2146.597232,1302.362347,9622.677246
868.113386,-1702.473667,-229.828649,9178.553681
868.113716,-1110.308913,-689.485948,8660.409521
868.114045,-1184.329507,-306.438199,8660.409521
868.114375,-1480.411884,-229.828649,8882.471304
868.114704,-1702.473667,612.876398,9770.718434
868.115033,-1850.514855,689.485948,10140.821405
868.115363,-1480.411884,1608.800546,10362.883188
868.115692,-592.164754,1991.848295,10288.862594
868.116022,370.102971,1532.190996,9548.656652
868.116351,370.102971,1838.629195,9770.718434
868.116681,0.000000,1915.238745,9326.594869
868.117010,0.000000,1915.238745,9474.636058
868.117340,0.000000,1685.410096,9770.718434
868.117669,-370.102971,1378.971896,9992.780217
868.117998,-1480.411884,459.657299,10140.821405
868.118328,-2960.823768,383.047749,10584.944971
868.118657,-3034.844362,153.219100,10510.924376
868.118987,-3256.906145,229.828649,10140.821405
868.119316,-2886.803174,76.609550,9770.718434
868.119646,-1776.494261,-229.828649,9400.615463
868.119975,-1036.288319,-689.485948,8956.491898
868.120305,-592.164754,229.828649,8956.491898
868.120634,0.000000,1072.533697,8882.471304
868.120963,74.020594,1149.143247,9326.594869
868.121293,0.000000,1991.848295,9844.739029
868.121622,-1258.350101,2298.286494,9548.656652
868.121952,-1184.329507,2298.286494,9696.697840
868.122281,-666.185348,1455.581446,9474.636058
868.122611,-592.164754,995.924147,9252.574275
868.122940,-444.123565,689.485948,8808.450710
868.123270,0.000000,689.485948,8512.368333
868.123599,222.061783,842.705048,8660.409521
868.123928,1036.288319,1685.410096,9104.533087
868.124258,962.267725,1991.848295,9326.594869
868.124587,74.020594,2221.676944,9548.656652
868.124917,-740.205942,2681.334243,9696.697840
868.125246,-962.267725,2374.896044,9474.636058
868.125576,-1332.370696,1532.190996,9696.697840
868.125905,-1628.453072,612.876398,9548.656652
868.126235,-1480.411884,-689.485948,9178.553681
868.126564,-1702.473667,-1455.581446,8808.450710
868.126893,-1776.494261,-995.924147,9178.553681
868.127223,-1702.473667,-306.438199,9474.636058
868.127552,-1850.514855,0.000000,9918.759623
868.127882,-1702.473667,842.705048,10288.862594
868.128211,-1184.329507,1915.238745,10066.800811
868.128541,-148.041188,2298.286494,10214.842000
868.128870,222.061783,2145.067394,10214.842000
868.129200,-222.061783,2681.334243,10140.821405
868.129529,-444.123565,2145.067394,9622.677246
868.129858,-888.247130,1608.800546,9400.615463
868.130188,-370.102971,1608.800546,8956.491898
868.130517,-1332.370696,536.266849,8956.491898
868.130847,-1702.473667,-306.438199,9622.677246
868.131176,-2368.659014,0.000000,9770.718434
868.131506,-2738.761985,153.219100,9918.759623
868.131835,-2368.659014,153.219100,10214.842000
868.132164,-1554.432478,995.924147,10288.862594
868.132494,-1184.329507,612.876398,9844.739029
868.132823,-592.164754,76.609550,9400.615463
868.133153,-296.082377,536.266849,9548.656652
868.133482,-518.144159,1685.410096,9548.656652
868.133812,-592.164754,1149.143247,9622.677246
868.134141,-1110.308913,1149.143247,10214.842000
868.134471,-1850.514855,1532.190996,9770.718434
868.134800,-1480.411884,1302.362347,8956.491898
868.135129,-518.144159,153.219100,8660.409521
868.135459,148.041188,459.657299,8142.265362
868.135788,296.082377,612.876398,7920.203579
868.136118,592.164754,995.924147,8142.265362
868.136447,1036.288319,1608.800546,8438.347739
868.136777,1184.329507,2145.067394,8956.491898
868.137106,444.123565,2528.115143,9474.636058
868.137436,-370.102971,2298.286494,10214.842000
868.137765,-1036.288319,2221.676944,10362.883188
868.138094,-1702.473667,1685.410096,10288.862594
868.138424,-2368.659014,1302.362347,10362.883188
868.138753,-2146.597232,536.266849,9992.780217
868.139083,-1406.391290,-306.438199,9548.656652
868.139412,-1184.329507,-1225.752797,9252.574275
868.139742,-1110.308913,-229.828649,9252.574275
868.140071,-888.247130,76.609550,9474.636058
868.140401,-1258.350101,459.657299,9622.677246
868.140730,-1702.473667,1762.019645,9918.759623
868.141059,-1702.473667,2451.505594,9770.718434
868.141389,-1332.370696,1532.190996,9696.697840
868.141718,-1036.288319,1149.143247,9844.739029
868.142048,-1628.453072,842.705048,9770.718434
868.142377,-2294.638420,153.219100,9770.718434
868.142707,-2516.700203,306.438199,9770.718434
868.143036,-2072.576638,689.485948,10066.800811
868.143366,-1702.473667,306.438199,9992.780217
868.143695,-1480.411884,459.657299,9696.697840
868.144024,-1184.329507,383.047749,9548.656652
868.144354,-666.185348,919.314598,9326.594869
868.144683,-148.041188,919.314598,9918.759623
868.145013,74.020594,919.314598,10066.800811
868.145342,0.000000,689.485948,9474.636058
868.145672,-148.041188,383.047749,9252.574275
868.146001,0.000000,0.000000,8956.491898
868.146330,-592.164754,612.876398,9918.759623
868.146660,-1258.350101,689.485948,10214.842000
868.146989,-1998.556043,1149.143247,10288.862594
868.147319,-2442.679609,919.314598,9992.780217
868.147648,-2072.576638,612.876398,8734.430116
868.147978,-1480.411884,766.095498,8216.285956
868.148307,-370.102971,689.485948,8216.285956
868.148637,0.000000,536.266849,8216.285956
868.148966,0.000000,842.705048,7920.203579
868.149295,0.000000,1532.190996,8734.430116
868.149625,0.000000,1302.362347,8734.430116
868.149954,-518.144159,1455.581446,9622.677246
868.150284,-1480.411884,1685.410096,10510.924376
868.150613,-2368.659014,1608.800546,10584.944971
868.150943,-2516.700203,1149.143247,10584.944971
868.151272,-2146.597232,1072.533697,10436.903782
868.151602,-2072.576638,766.095498,10214.842000
868.151931,-814.226536,153.219100,9474.636058
868.152260,-518.144159,0.000000,8956.491898
868.152590,-370.102971,612.876398,9030.512492
868.152919,-814.226536,842.705048,8808.450710
868.153249,-592.164754,1072.533697,9548.656652
868.153578,-1406.391290,1532.190996,10066.800811
868.153908,-1702.473667,1378.971896,9770.718434
868.154237,-1776.494261,842.705048,9474.636058
868.154567,-1332.370696,995.924147,9548.656652
868.154896,-1184.329507,153.219100,9992.780217
868.155225,-1480.411884,1302.362347,9918.759623
868.155555,-1554.432478,1762.019645,9400.615463
868.155884,-592.164754,1915.238745,9252.574275
868.156214,-222.061783,1072.533697,9622.677246
868.156543,-666.185348,1225.752797,9992.780217
868.156873,-1850.514855,1838.629195,10288.862594
868.157202,-2442.679609,1225.752797,10362.883188
868.157532,-2738.761985,842.705048,10362.883188
868.157861,-2516.700203,459.657299,10288.862594
868.158190,-2146.597232,-536.266849,9474.636058
868.158520,-1702.473667,-919.314598,8808.450710
868.158849,-1036.288319,-612.876398,8512.368333
868.159179,-518.144159,383.047749,8956.491898
868.159508,-296.082377,842.705048,9622.677246
868.159838,-592.164754,1762.019645,9770.718434
868.160167,-370.102971,2911.162892,10066.800811
868.160497,-148.041188,2451.505594,9030.512492
868.160826,740.205942,1762.019645,8882.471304
868.161155,1110.308913,1225.752797,8660.409521
868.161485,666.185348,612.876398,8586.388927
868.161814,0.000000,1225.752797,8512.368333
868.162144,0.000000,1149.143247,9030.512492
868.162473,-296.082377,1149.143247,9918.759623
868.162803,-1184.329507,1149.143247,10066.800811
868.163132,-1850.514855,1302.362347,10140.821405
868.163461,-1702.473667,1455.581446,9622.677246
868.163791,-1554.432478,1302.362347,9770.718434
868.164120,-1110.308913,1455.581446,9474.636058
868.164450,-1036.288319,1072.533697,9622.677246
868.164779,-1332.370696,0.000000,9030.512492
868.165109,-1554.432478,-153.219100,8882.471304
868.165438,-1554.432478,153.219100,8734.430116
868.165768,-1702.473667,0.000000,9326.594869
868.166097,-2220.617826,0.000000,9844.739029
868.166426,-2516.700203,766.095498,10288.862594
868.166756,-2294.638420,1455.581446,10214.842000
868.167085,-1184.329507,1072.533697,10288.862594
868.167415,-444.123565,1302.362347,10288.862594
868.167744,-518.144159,1685.410096,9696.697840
868.168074,-518.144159,1991.848295,9474.636058
868.168403,0.000000,2221.676944,9104.533087
868.168733,518.144159,1991.848295,9030.512492
868.169062,148.041188,689.485948,9178.553681
868.169391,-1480.411884,689.485948,9844.739029
868.169721,-2590.720797,842.705048,10362.883188
868.170050,-3182.885551,766.095498,10436.903782
868.170380,-3182.885551,459.657299,10807.006753
868.170709,-2590.720797,306.438199,10140.821405
868.171039,-2072.576638,-612.876398,9326.594869
868.171368,-1258.350101,-612.876398,8808.450710
868.171698,-740.205942,536.266849,9104.533087
868.172027,-222.061783,1455.581446,9400.615463
868.172356,-592.164754,1378.971896,9326.594869
868.172686,-1184.329507,1838.629195,9770.718434
868.173015,-962.267725,2298.286494,9474.636058
868.173345,-444.123565,1838.629195,9030.512492
868.173674,0.000000,1225.752797,8808.450710
868.174004,370.102971,229.828649,8364.327145
868.174333,0.000000,229.828649,8438.347739
868.174663,0.000000,459.657299,8586.388927
868.174992,592.164754,1072.533697,9252.574275
868.175321,666.185348,1685.410096,9548.656652
868.175651,148.041188,1838.629195,9548.656652
868.175980,-518.144159,2145.067394,9622.677246
868.176310,-296.082377,1991.848295,9918.759623
868.176639,-962.267725,1685.410096,9622.677246
868.176969,-1258.350101,1225.752797,9992.780217
868.177298,-1924.535449,612.876398,9770.718434
868.177627,-2294.638420,-612.876398,9400.615463
868.177957,-2294.638420,-995.924147,9104.533087
868.178286,-2368.659014,-919.314598,9252.574275
868.178616,-2590.720797,-766.095498,9622.677246
868.178945,-2664.741391,-536.266849,9992.780217
868.179275,-2294.638420,995.924147,10140.821405
868.179604,-1702.473667,1072.533697,9918.759623
868.179934,-592.164754,1685.410096,9918.759623
868.180263,148.041188,1608.800546,10066.800811
868.180592,444.123565,1838.629195,9992.780217
868.180922,740.205942,2451.505594,9622.677246
868.181251,74.020594,1991.848295,9400.615463
868.181581,0.000000,1532.190996,9178.553681
868.181910,-592.164754,153.219100,9474.636058
868.182240,-1702.473667,0.000000,9844.739029
868.182569,-2294.638420,0.000000,10288.862594
868.182899,-2516.700203,383.047749,9918.759623
868.183228,-2738.761985,153.219100,10362.883188
868.183557,-2146.597232,459.657299,10362.883188
868.183887,-1406.391290,0.000000,9770.718434
868.184216,-962.267725,153.219100,9474.636058
868.184546,-592.164754,2068.457845,9178.553681
868.184875,-518.144159,1915.238745,9696.697840
868.185205,-1184.329507,1225.752797,9992.780217
868.185534,-1776.494261,1455.581446,9622.677246
868.185864,-2072.576638,1302.362347,9326.594869
868.186193,-1258.350101,459.657299,8216.285956
868.186522,-814.226536,76.609550,8438.347739
868.186852,-148.041188,0.000000,8512.368333
868.187181,0.000000,76.609550,8586.388927
868.187511,370.102971,919.314598,8586.388927
868.187840,1258.350101,2298.286494,8882.471304
868.188170,1702.473667,2757.943793,9548.656652
868.188499,814.226536,2374.896044,9844.739029
868.188829,74.020594,3064.381992,10436.903782
868.189159,-518.144159,2374.896044,10288.862594
868.189488,-1258.350101,1762.019645,9918.759623
868.189818,-1998.556043,1378.971896,9918.759623
868.190147,-2220.617826,0.000000,9474.636058
868.190477,-2590.720797,-1455.581446,8956.491898
868.190806,-2960.823768,-1608.800546,8882.471304
868.191136,-3182.885551,-842.705048,9104.533087
868.191465,-3034.844362,-536.266849,9400.615463
868.191795,-2738.761985,0.000000,9474.636058
868.192124,-2516.700203,1072.533697,9992.780217
868.192454,-1776.494261,1378.971896,9770.718434
868.192783,-592.164754,1685.410096,9548.656652
868.193113,0.000000,1991.848295,9474.636058
868.193442,-148.041188,2298.286494,9252.574275
868.193772,-518.144159,1302.362347,9030.512492
868.194101,-296.082377,1072.533697,9474.636058
868.194431,-222.061783,766.095498,10066.800811
868.194760,-1110.308913,383.047749,10658.965565
868.195090,-2146.597232,383.047749,11251.130318
868.195419,-2368.659014,536.266849,10955.047942
868.195749,-2590.720797,0.000000,10955.047942
868.196078,-2220.617826,459.657299,10584.944971
868.196408,-1480.411884,536.266849,9992.780217
868.196737,-740.205942,229.828649,9104.533087
868.197067,-740.205942,-306.438199,8882.471304
868.197396,-444.123565,689.485948,8882.471304
868.197726,-666.185348,1072.533697,9252.574275
868.198055,-1554.432478,1225.752797,9622.677246
868.198385,-2368.659014,1608.800546,9770.718434
868.198714,-2368.659014,2068.457845,9474.636058
868.199044,-1332.370696,842.705048,9030.512492
868.199373,-444.123565,536.266849,8660.409521
868.199703,222.061783,306.438199,8512.368333
868.200032,444.123565,766.095498,8216.285956
868.200362,962.267725,1149.143247,7994.224174
868.200691,1998.556043,2374.896044,8956.491898
868.201021,1702.473667,2604.724693,9104.533087
868.201350,888.247130,2451.505594,9474.636058
868.201680,148.041188,2681.334243,9918.759623
868.202009,-666.185348,2604.724693,9326.594869
868.202339,-1480.411884,1838.629195,9548.656652
868.202668,-1850.514855,612.876398,9474.636058
868.202998,-1776.494261,-689.485948,9252.574275
868.203327,-2146.597232,-1149.143247,9104.533087
868.203657,-2368.659014,-766.095498,9030.512492
868.203986,-1776.494261,306.438199,9178.553681
868.204316,-1924.535449,306.438199,9326.594869
868.204645,-2294.638420,995.924147,9844.739029
868.204975,-1924.535449,1838.629195,10066.800811
868.205305,-1258.350101,2298.286494,10140.821405
868.205634,-666.185348,2068.457845,10214.842000
868.205964,-888.247130,1149.143247,9918.759623
868.206293,-962.267725,995.924147,10066.800811
868.206623,-1110.308913,842.705048,10066.800811
868.206952,-888.247130,842.705048,9918.759623
868.207282,-444.123565,689.485948,9770.718434
868.207611,-1036.288319,153.219100,9770.718434
868.207941,-1406.391290,383.047749,10214.842000
868.208270,-1406.391290,919.314598,10214.842000
868.208600,-1554.432478,919.314598,10362.883188
868.208929,-1480.411884,1225.752797,10436.903782
868.209259,-1332.370696,842.705048,9474.636058
868.209588,-1332.370696,0.000000,9252.574275
868.209918,-1406.391290,0.000000,9252.574275
868.210247,-1406.391290,995.924147,9474.636058
868.210577,-1776.494261,612.876398,9474.636058
868.210906,-2146.597232,842.705048,9770.718434
868.211236,-2294.638420,1378.971896,9326.594869
868.211565,-1776.494261,1149.143247,9030.512492
868.211895,-666.185348,459.657299,8734.430116
868.212224,148.041188,842.705048,8808.450710
868.212554,222.061783,1762.019645,8142.265362
868.212883,740.205942,1532.190996,8216.285956
868.213213,1184.329507,2145.067394,8808.450710
868.213542,1924.535449,2451.505594,9252.574275
868.213872,1332.370696,2298.286494,9622.677246
868.214201,148.041188,2451.505594,9844.739029
868.214531,-740.205942,2451.505594,9844.739029
868.214860,-1406.391290,1378.971896,9696.697840
868.215190,-2220.617826,1225.752797,9770.718434
868.215519,-2368.659014,383.047749,9548.656652
868.215849,-2368.659014,-689.485948,9400.615463
868.216178,-2294.638420,-919.314598,8660.409521
868.216508,-2442.679609,-919.314598,8734.430116
868.216837,-2146.597232,-689.485948,9400.615463
868.217167,-2294.638420,-153.219100,10214.842000
868.217496,-2738.761985,842.705048,10584.944971
868.217826,-1628.453072,1608.800546,10436.903782
868.218155,-1332.370696,1455.581446,9918.759623
868.218485,370.102971,1072.533697,9844.739029
868.218814,740.205942,1149.143247,9696.697840
868.219144,740.205942,1302.362347,9622.677246
868.219473,740.205942,1685.410096,9696.697840
868.219803,518.144159,1838.629195,9548.656652
868.220132,518.144159,1455.581446,9844.739029
868.220462,-148.041188,1225.752797,10066.800811
868.220791,-962.267725,1378.971896,9918.759623
868.221121,-1702.473667,766.095498,9548.656652
868.221451,-1998.556043,689.485948,9696.697840
868.221780,-2664.741391,842.705048,9326.594869
868.222110,-2442.679609,612.876398,9622.677246
868.222439,-2442.679609,-153.219100,9474.636058
868.222769,-2368.659014,76.609550,9474.636058
868.223098,-1924.535449,842.705048,9326.594869
868.223428,-1924.535449,995.924147,9622.677246
868.223757,-2146.597232,1149.143247,9474.636058
868.224087,-1776.494261,1302.362347,9252.574275
868.224416,-1110.308913,766.095498,8956.491898
868.224746,-370.102971,612.876398,8734.430116
868.225075,-296.082377,995.924147,8882.471304
868.225405,0.000000,689.485948,8734.430116
868.225734,148.041188,1225.752797,8882.471304
868.226064,814.226536,1762.019645,9252.574275
868.226393,1332.370696,2068.457845,9844.739029
868.226723,1258.350101,2068.457845,9918.759623
868.227052,0.000000,2145.067394,9844.739029
868.227382,-370.102971,2068.457845,9844.739029
868.227711,-740.205942,1378.971896,9622.677246
868.228041,-888.247130,1225.752797,9770.718434
868.228370,-1332.370696,536.266849,9622.677246
868.228700,-1332.370696,-229.828649,9030.512492
868.229029,-1554.432478,-842.705048,8660.409521
868.229359,-1480.411884,-536.266849,8808.450710
868.229688,-1924.535449,-229.828649,9400.615463
868.230018,-2812.782580,0.000000,9992.780217
868.230347,-2738.761985,766.095498,9918.759623
868.230677,-3034.844362,1225.752797,9918.759623
868.231006,-2516.700203,1072.533697,10066.800811
868.231336,-1924.535449,1455.581446,9918.759623
868.231665,-1332.370696,1302.362347,9474.636058
868.231995,-962.267725,1455.581446,8734.430116
868.232324,-296.082377,1149.143247,8734.430116
868.232654,148.041188,842.705048,9178.553681
868.232983,0.000000,766.095498,9770.718434
868.233313,-1110.308913,1225.752797,10288.862594
868.233642,-2146.597232,1455.581446,10510.924376
868.233972,-2368.659014,0.000000,10510.924376
868.234301,-2516.700203,0.000000,10732.986159
868.234631,-2368.659014,0.000000,10362.883188
868.234960,-1332.370696,-689.485948,9844.739029
868.235290,-444.123565,-842.705048,9474.636058
868.235619,-148.041188,0.000000,9252.574275
868.235949,0.000000,766.095498,9252.574275
868.236278,-370.102971,1225.752797,9622.677246
868.236608,-666.185348,1991.848295,10140.821405
868.236938,-1036.288319,2528.115143,9770.718434
868.237267,-666.185348,1608.800546,9030.512492
868.237597,-222.061783,689.485948,8438.347739
868.237926,-148.041188,306.438199,8438.347739
868.238256,-444.123565,0.000000,8216.285956
868.238585,-1036.288319,689.485948,8290.306550
868.238915,-518.144159,842.705048,8882.471304
868.239244,222.061783,1762.019645,9178.553681
868.239574,370.102971,1915.238745,9622.677246
868.239903,0.000000,2681.334243,9474.636058
868.240233,-222.061783,2681.334243,9474.636058
868.240562,-148.041188,2068.457845,9474.636058
868.240892,-518.144159,1838.629195,9622.677246
868.241221,-814.226536,1378.971896,9622.677246
868.241551,-1184.329507,229.828649,9474.636058
868.241880,-1332.370696,-612.876398,9178.553681
868.242210,-1850.514855,-536.266849,9030.512492
868.242539,-1776.494261,-459.657299,9252.574275
868.242869,-1850.514855,0.000000,9844.739029
868.243198,-1924.535449,919.314598,10214.842000
868.243528,-1776.494261,1608.800546,9844.739029
868.243857,-1036.288319,1915.238745,9918.759623
868.244187,148.041188,2221.676944,9992.780217
868.244516,0.000000,1991.848295,9622.677246
868.244846,-888.247130,2221.676944,9474.636058
868.245175,-1110.308913,2145.067394,9326.594869
868.245505,-814.226536,1455.581446,9326.594869
868.245834,-1036.288319,536.266849,9252.574275
868.246164,-2146.597232,306.438199,9400.615463
868.246493,-2664.741391,229.828649,9770.718434
868.246823,-3034.844362,459.657299,10140.821405
868.247152,-3256.906145,459.657299,10510.924376
868.247482,-2664.741391,689.485948,10584.944971
868.247811,-1776.494261,153.219100,9918.759623
868.248141,0.000000,153.219100,9326.594869
868.248470,-296.082377,842.705048,9178.553681
868.248800,0.000000,995.924147,9030.512492
868.249129,-222.061783,1302.362347,9548.656652
868.249459,-666.185348,1302.362347,9770.718434
868.249788,-1258.350101,1378.971896,9104.533087
868.250118,-1110.308913,1072.533697,8956.491898
868.250447,-370.102971,766.095498,9030.512492
868.250777,0.000000,229.828649,8808.450710
868.251106,-74.020594,306.438199,8586.388927
868.251436,0.000000,1378.971896,8586.388927
868.251765,666.185348,1455.581446,9474.636058
868.252095,740.205942,1915.238745,9770.718434
868.252424,222.061783,2451.505594,9992.780217
868.252754,-296.082377,2451.505594,10140.821405
868.253084,-296.082377,1838.629195,9918.759623
868.253413,-1258.350101,919.314598,9622.677246
868.253743,-1480.411884,1072.533697,9918.759623
868.254072,-1554.432478,76.609550,9770.718434
868.254402,-1776.494261,-995.924147,9252.574275
868.254731,-2072.576638,-536.266849,9178.553681
868.255061,-1702.473667,-459.657299,9400.615463
868.255390,-1998.556043,0.000000,9474.636058
868.255720,-1776.494261,459.657299,9770.718434
868.256049,-1480.411884,1149.143247,9770.718434
868.256379,-814.226536,1685.410096,9622.677246
868.256708,-296.082377,1455.581446,9474.636058
868.257038,0.000000,2068.457845,9474.636058
868.257367,-148.041188,1838.629195,9696.697840
868.257697,-1036.288319,2068.457845,9548.656652
868.258026,-1110.308913,1915.238745,9178.553681
868.258356,-296.082377,612.876398,9030.512492
868.258685,-962.267725,229.828649,9252.574275
868.259015,-1998.556043,536.266849,9696.697840
868.259344,-2294.638420,612.876398,9918.759623
868.259674,-2442.679609,536.266849,10362.883188
868.260003,-1850.514855,766.095498,10362.883188
868.260333,-1924.535449,1838.629195,10214.842000
868.260662,-1036.288319,0.000000,9474.636058
868.260992,-370.102971,153.219100,9030.512492
868.261321,-222.061783,1225.752797,9030.512492
868.261651,0.000000,1225.752797,9326.594869
868.261980,-888.247130,995.924147,9252.574275
868.262310,-1332.370696,995.924147,9918.759623
868.262639,-1554.432478,1072.533697,9770.718434
868.262969,-1184.329507,766.095498,9400.615463
868.263298,-592.164754,536.266849,9474.636058
868.263628,0.000000,1149.143247,8882.471304
868.263957,0.000000,766.095498,8586.388927
868.264287,0.000000,1302.362347,8734.430116
868.264616,740.205942,1991.848295,9178.553681
868.264946,1110.308913,2068.457845,9252.574275
868.265275,296.082377,2068.457845,9326.594869
868.265605,-518.144159,2221.676944,9178.553681
868.265934,-962.267725,1455.581446,9400.615463
868.266264,-1480.411884,919.314598,9918.759623
868.266593,-2072.576638,766.095498,10362.883188
868.266923,-2146.597232,76.609550,9992.780217
868.267252,-2294.638420,-459.657299,9178.553681
868.267582,-2146.597232,-1302.362347,9326.594869
868.267911,-1776.494261,-76.609550,9178.553681
868.268241,-1628.453072,0.000000,9400.615463
868.268570,-1554.432478,229.828649,9992.780217
868.268900,-1702.473667,1608.800546,9548.656652
868.269230,-1554.432478,2298.286494,9548.656652
868.269559,-1406.391290,1685.410096,9474.636058
868.269889,-1184.329507,1532.190996,9844.739029
868.270218,-1628.453072,1225.752797,9696.697840
868.270548,-1850.514855,919.314598,9844.739029
868.270877,-1924.535449,689.485948,9844.739029
868.271207,-1924.535449,76.609550,9622.677246
868.271536,-1850.514855,-383.047749,9918.759623
868.271866,-2072.576638,0.000000,10362.883188
868.272195,-1850.514855,612.876398,10288.862594
868.272525,-1554.432478,229.828649,9548.656652
868.272854,-1332.370696,1225.752797,9770.718434
868.273184,-666.185348,919.314598,9696.697840
868.273513,74.020594,459.657299,9326.594869
868.273843,296.082377,459.657299,9326.594869
868.274172,-370.102971,1149.143247,8956.491898
868.274502,0.000000,1149.143247,9252.574275
868.274831,-962.267725,612.876398,9770.718434
868.275161,-1480.411884,919.314598,9770.718434
868.275490,-1480.411884,1072.533697,9400.615463
868.275820,-888.247130,1225.752797,9030.512492
868.276149,-296.082377,612.876398,8734.430116
868.276479,0.000000,766.095498,8512.368333
868.276808,0.000000,995.924147,8438.347739
868.277138,148.041188,1915.238745,8882.471304
868.277467,666.185348,2374.896044,9178.553681
868.277797,592.164754,2145.067394,9548.656652
868.278126,148.041188,2374.896044,9770.718434
868.278456,-444.123565,1838.629195,9844.739029
868.278785,-888.247130,1378.971896,9844.739029
868.279115,-962.267725,1072.533697,10140.821405
868.279444,-1258.350101,689.485948,9918.759623
868.279774,-962.267725,0.000000,9844.739029
868.280103,-1258.350101,-612.876398,9474.636058
868.280433,-888.247130,0.000000,9474.636058
868.280762,-666.185348,76.609550,9622.677246
868.281092,-962.267725,306.438199,9400.615463
868.281421,-1332.370696,1302.362347,9844.739029
868.281751,-1850.514855,1685.410096,9548.656652
868.282080,-1406.391290,1378.971896,9548.656652
868.282410,-1036.288319,1302.362347,9622.677246
868.282739,-1184.329507,1455.581446,9622.677246
868.283069,-1406.391290,1225.752797,9844.739029
868.283398,-1702.473667,1072.533697,9474.636058
868.283728,-1480.411884,1072.533697,9400.615463
868.284057,-1110.308913,1072.533697,9548.656652
868.284387,-1332.370696,842.705048,9252.574275
868.284716,-1406.391290,1608.800546,9548.656652
868.285046,-1924.535449,766.095498,9548.656652
868.285376,-2220.617826,766.095498,9770.718434
868.285705,-2368.659014,689.485948,10066.800811
868.286035,-1924.535449,689.485948,10288.862594
868.286364,-1628.453072,306.438199,9474.636058
868.286694,-1406.391290,459.657299,9178.553681
868.287023,-1036.288319,919.314598,9622.677246
868.287353,-814.226536,1225.752797,9474.636058
868.287682,-814.226536,1225.752797,9696.697840
868.288012,-962.267725,1302.362347,9400.615463
868.288341,-296.082377,1455.581446,9474.636058
868.288671,-148.041188,1149.143247,9178.553681
868.289000,0.000000,1455.581446,9252.574275
868.289329,0.000000,1455.581446,9030.512492
868.289659,-148.041188,1302.362347,8512.368333
868.289988,-296.082377,1762.019645,8586.388927
868.290318,222.061783,1378.971896,8956.491898
868.290647,0.000000,1072.533697,9400.615463
868.290977,-1110.308913,1302.362347,9696.697840
868.291306,-1924.535449,1378.971896,9918.759623
868.291635,-2072.576638,766.095498,9992.780217
868.291965,-1702.473667,0.000000,10140.821405
868.292294,-1702.473667,0.000000,10288.862594
868.292624,-1258.350101,-229.828649,9844.739029
868.292953,-888.247130,-383.047749,9252.574275
868.293283,-222.061783,-306.438199,8956.491898
868.293612,74.020594,306.438199,9030.512492
868.293941,296.082377,383.047749,9400.615463
868.294271,148.041188,1378.971896,9474.636058
868.294600,0.000000,1838.629195,9178.553681
868.294930,74.020594,1915.238745,9400.615463
868.295259,222.061783,1838.629195,9696.697840
868.295589,-296.082377,1685.410096,9844.739029
868.295918,-1184.329507,1225.752797,9622.677246
868.296247,-1850.514855,1149.143247,9622.677246
868.296577,-1776.494261,995.924147,9844.739029
868.296906,-1776.494261,536.266849,9844.739029
868.297236,-2368.659014,0.000000,9992.780217
868.297565,-3034.844362,536.266849,9918.759623
868.297894,-3182.885551,689.485948,9844.739029
868.298224,-3256.906145,689.485948,10066.800811
868.298553,-2664.741391,459.657299,9770.718434
868.298883,-1924.535449,919.314598,9918.759623
868.299212,-1332.370696,0.000000,9770.718434
868.299542,-666.185348,842.705048,9622.677246
868.299871,-444.123565,1072.533697,9400.615463
868.300200,-370.102971,1225.752797,9548.656652
868.300530,-444.123565,1991.848295,9474.636058
868.300859,-518.144159,1685.410096,9548.656652
868.301189,-444.123565,1838.629195,9326.594869
868.301518,-370.102971,1378.971896,9178.553681
868.301848,0.000000,1149.143247,9030.512492
868.302177,-296.082377,689.485948,8438.347739
868.302506,-148.041188,995.924147,8142.265362
868.302836,148.041188,1072.533697,8364.327145
868.303165,444.123565,1455.581446,8808.450710
868.303495,444.123565,1532.190996,9326.594869
868.303824,0.000000,1455.581446,9326.594869
868.304154,-666.185348,1838.629195,9178.553681
868.304483,-888.247130,1685.410096,9474.636058
868.304812,-1258.350101,1302.362347,9918.759623
868.305142,-1628.453072,766.095498,9992.780217
868.305471,-1628.453072,0.000000,9474.636058
868.305801,-2442.679609,-612.876398,8956.491898
868.306130,-2368.659014,-229.828649,9400.615463
868.306460,-2146.597232,-229.828649,9548.656652
868.306789,-2294.638420,-229.828649,9844.739029
868.307118,-2220.617826,612.876398,9992.780217
868.307448,-1776.494261,2145.067394,9844.739029
868.307777,-740.205942,1225.752797,9474.636058
868.308107,148.041188,1225.752797,9770.718434
868.308436,444.123565,1378.971896,9918.759623
868.308765,74.020594,1302.362347,9622.677246
868.309095,-296.082377,1455.581446,9400.615463
868.309424,-148.041188,1915.238745,9770.718434
868.309754,-888.247130,383.047749,10140.821405
868.310083,-1480.411884,0.000000,10436.903782
868.310413,-2442.679609,229.828649,10362.883188
868.310742,-2738.761985,0.000000,10066.800811
868.311071,-2442.679609,-383.047749,10288.862594
868.311401,-2368.659014,383.047749,10288.862594
868.311730,-1998.556043,229.828649,9918.759623
868.312060,-1554.432478,76.609550,9326.594869
868.312389,-1036.288319,995.924147,9252.574275
868.312719,-740.205942,1455.581446,9178.553681
868.313048,-740.205942,1378.971896,9178.553681
868.313377,-1480.411884,1225.752797,9474.636058
868.313707,-2368.659014,1685.410096,9104.533087
868.314036,-2072.576638,1225.752797,9030.512492
868.314366,-1554.432478,536.266849,9104.533087
868.314695,-962.267725,536.266849,8586.388927
868.315025,-592.164754,0.000000,8364.327145
868.315354,-148.041188,229.828649,8660.409521
868.315683,592.164754,1608.800546,8956.491898
868.316013,1332.370696,2298.286494,9178.553681
868.316342,962.267725,2451.505594,9030.512492
868.316672,370.102971,2757.943793,9474.636058
868.317001,296.082377,2757.943793,9696.697840
868.317331,-222.061783,2145.067394,9770.718434
868.317660,-962.267725,1685.410096,9918.759623
868.317989,-1628.453072,842.705048,10066.800811
868.318319,-1998.556043,-612.876398,9474.636058
868.318648,-2220.617826,-1225.752797,9622.677246
868.318978,-2516.700203,-995.924147,9770.718434
868.319307,-2516.700203,0.000000,9770.718434
868.319636,-2368.659014,612.876398,9844.739029
868.319966,-1702.473667,1072.533697,10066.800811
868.320295,-1406.391290,1685.410096,9474.636058
868.320625,-296.082377,1838.629195,9326.594869
868.320954,222.061783,1532.190996,9326.594869
868.321284,0.000000,1762.019645,9474.636058
868.321613,-370.102971,2374.896044,9548.656652
868.321942,-1110.308913,1838.629195,9696.697840
868.322272,-962.267725,1455.581446,10066.800811
868.322601,-1036.288319,536.266849,9918.759623
868.322931,-1258.350101,229.828649,9770.718434
868.323260,-1406.391290,612.876398,9622.677246
868.323590,-1184.329507,306.438199,9474.636058
868.323919,-1406.391290,919.314598,9696.697840
868.324248,-1184.329507,1455.581446,9622.677246
868.324578,-444.123565,1149.143247,9474.636058
868.324907,-222.061783,689.485948,9030.512492
868.325237,-296.082377,612.876398,9178.553681
868.325566,-740.205942,1302.362347,9030.512492
868.325896,-1332.370696,766.095498,9474.636058
868.326225,-2294.638420,766.095498,9844.739029
868.326554,-3034.844362,842.705048,9844.739029
868.326884,-2886.803174,76.609550,9400.615463
868.327213,-1702.473667,0.000000,9326.594869
868.327543,-1110.308913,153.219100,9030.512492
868.327872,-222.061783,153.219100,8660.409521
868.328202,444.123565,612.876398,8586.388927
868.328531,1406.391290,2068.457845,8882.471304
868.328860,1628.453072,2528.115143,9178.553681
868.329190,1332.370696,2298.286494,9474.636058
868.329519,444.123565,2451.505594,9844.739029
868.329849,-444.123565,1685.410096,10066.800811
868.330178,-1110.308913,842.705048,9918.759623
868.330507,-1628.453072,459.657299,9992.780217
868.330837,-1628.453072,0.000000,10362.883188
868.331166,-2368.659014,-1072.533697,9696.697840
868.331496,-2738.761985,-766.095498,9474.636058
868.331825,-2294.638420,-536.266849,9622.677246
868.332155,-1480.411884,766.095498,9474.636058
868.332484,-1702.473667,842.705048,9622.677246
868.332813,-1480.411884,995.924147,9400.615463
868.333143,-1110.308913,1915.238745,9178.553681
868.333472,-740.205942,1685.410096,9326.594869
868.333802,-370.102971,2145.067394,9474.636058
868.334131,-962.267725,995.924147,9474.636058
868.334461,-1628.453072,1225.752797,9770.718434
868.334790,-1850.514855,995.924147,9622.677246
868.335119,-1258.350101,612.876398,9770.718434
868.335449,-888.247130,995.924147,9622.677246
868.335778,-1480.411884,689.485948,9252.574275
868.336108,-1480.411884,1072.533697,9622.677246
868.336437,-1036.288319,1072.533697,9844.739029
868.336767,-1184.329507,1455.581446,9992.780217
868.337096,-888.247130,1532.190996,10066.800811
868.337425,-444.123565,536.266849,9030.512492
868.337755,-148.041188,689.485948,8956.491898
868.338084,-296.082377,689.485948,9104.533087
868.338414,-1036.288319,766.095498,9178.553681
868.338743,-1554.432478,536.266849,9844.739029
868.339073,-2220.617826,612.876398,10140.821405
868.339402,-2516.700203,1378.971896,9474.636058
868.339731,-2072.576638,1072.533697,9326.594869
868.340061,-962.267725,229.828649,9030.512492
868.340390,-370.102971,612.876398,8808.450710
868.340720,370.102971,1072.533697,8660.409521
868.341049,740.205942,1685.410096,8290.306550
868.341378,1406.391290,1608.800546,8956.491898
868.341708,1184.329507,1762.019645,9178.553681
868.342037,518.144159,1685.410096,9474.636058
868.342367,0.000000,1915.238745,9918.759623
868.342696,-518.144159,995.924147,10140.821405
868.343026,-1554.432478,842.705048,10066.800811
868.343355,-1776.494261,842.705048,10584.944971
868.343684,-1628.453072,459.657299,10140.821405
868.344014,-1332.370696,-612.876398,9696.697840
868.344343,-1258.350101,-153.219100,9252.574275
868.344673,-1036.288319,229.828649,9252.574275
868.345002,-1332.370696,0.000000,9548.656652
868.345332,-1776.494261,612.876398,9844.739029
868.345661,-1850.514855,1378.971896,9696.697840
868.345990,-1554.432478,1378.971896,8882.471304
868.346320,-888.247130,1149.143247,9030.512492
868.346649,-962.267725,459.657299,9252.574275
868.346979,-1406.391290,536.266849,9696.697840
868.347308,-1850.514855,612.876398,10140.821405
868.347638,-2072.576638,1225.752797,10362.883188
868.347967,-1554.432478,1225.752797,10510.924376
868.348296,-1258.350101,153.219100,10140.821405
868.348626,-1258.350101,536.266849,9844.739029
868.348955,-1480.411884,766.095498,9622.677246
868.349285,-1332.370696,536.266849,9474.636058
868.349614,-1332.370696,919.314598,9178.553681
868.349944,-962.267725,229.828649,9326.594869
868.350273,-814.226536,0.000000,9400.615463
868.350602,-740.205942,153.219100,9178.553681
868.350932,-740.205942,612.876398,9178.553681
868.351261,-962.267725,1378.971896,9178.553681
868.351591,-1332.370696,612.876398,9474.636058
868.351920,-1702.473667,1072.533697,9844.739029
868.352249,-1850.514855,1225.752797,9622.677246
868.352579,-1628.453072,995.924147,9104.533087
868.352908,-1036.288319,842.705048,9178.553681
868.353238,-518.144159,689.485948,8512.368333
868.353567,-518.144159,995.924147,8882.471304
868.353897,-370.102971,1302.362347,9030.512492
868.354226,-148.041188,1991.848295,9474.636058
868.354555,0.000000,1915.238745,9548.656652
868.354885,-222.061783,1532.190996,9918.759623
868.355214,-222.061783,1225.752797,9696.697840
868.355544,-814.226536,995.924147,9622.677246
868.355873,-1036.288319,919.314598,9474.636058
868.356203,-1258.350101,612.876398,9918.759623
868.356532,-1110.308913,536.266849,10066.800811
868.356861,-1036.288319,-459.657299,9770.718434
868.357191,-1258.350101,0.000000,9918.759623
868.357520,-1110.308913,612.876398,9622.677246
868.357850,-1036.288319,459.657299,9696.697840
868.358179,-1480.411884,612.876398,9770.718434
868.358509,-1480.411884,1378.971896,9918.759623
868.358838,-1258.350101,1685.410096,9326.594869
868.359167,-814.226536,1378.971896,8882.471304
868.359497,-296.082377,1685.410096,9178.553681
868.359826,-592.164754,1149.143247,9178.553681
868.360156,-1110.308913,1302.362347,8808.450710
868.360485,-814.226536,1608.800546,9474.636058
868.360815,-1110.308913,1225.752797,9548.656652
868.361144,-1480.411884,995.924147,9696.697840
868.361473,-2294.638420,1149.143247,9844.739029
868.361803,-2516.700203,689.485948,9696.697840
868.362132,-1924.535449,1149.143247,9992.780217
868.362462,-1702.473667,919.314598,10214.842000
868.362791,-1480.411884,689.485948,10140.821405
868.363120,-962.267725,612.876398,9918.759623
868.363450,-592.164754,536.266849,9770.718434
868.363779,-814.226536,1072.533697,9252.574275
868.364109,-592.164754,1378.971896,9474.636058
868.364438,-888.247130,919.314598,9696.697840
868.364768,-1258.350101,1378.971896,9474.636058
868.365097,-1332.370696,1225.752797,8882.471304
868.365426,-962.267725,306.438199,8216.285956
868.365756,-740.205942,229.828649,8586.388927
868.366085,-666.185348,383.047749,9104.533087
868.366415,-962.267725,919.314598,9178.553681
868.366744,-666.185348,995.924147,9474.636058
868.367074,518.144159,1915.238745,9622.677246
868.367403,1184.329507,2374.896044,9622.677246
868.367732,962.267725,2068.457845,9770.718434
868.368062,518.144159,1608.800546,9548.656652
868.368391,0.000000,1455.581446,9474.636058
868.368721,-444.123565,689.485948,9844.739029
868.369050,-962.267725,766.095498,9696.697840
868.369380,-1406.391290,229.828649,9622.677246
868.369709,-1480.411884,-689.485948,9178.553681
868.370038,-1850.514855,-612.876398,8882.471304
868.370368,-1480.411884,-459.657299,8438.347739
868.370697,-1480.411884,76.609550,9030.512492
868.371027,-1702.473667,842.705048,9252.574275
868.371356,-2220.617826,1838.629195,9696.697840
868.371686,-1924.535449,2298.286494,9844.739029
868.372015,-1628.453072,1915.238745,9918.759623
868.372344,-1184.329507,1378.971896,9696.697840
868.372674,-1184.329507,1149.143247,10214.842000
868.373003,-1776.494261,1455.581446,9770.718434
868.373333,-1702.473667,995.924147,9770.718434
868.373662,-1702.473667,459.657299,9696.697840
868.373991,-1702.473667,153.219100,9992.780217
868.374321,-2146.597232,536.266849,10066.800811
868.374650,-2146.597232,689.485948,10066.800811
868.374980,-1554.432478,1072.533697,10066.800811
868.375309,-1184.329507,1149.143247,9918.759623
868.375639,-148.041188,1149.143247,9622.677246
868.375968,518.144159,153.219100,9252.574275
868.376297,518.144159,612.876398,8734.430116
868.376627,370.102971,1378.971896,9770.718434
868.376956,-148.041188,1225.752797,10362.883188
868.377286,-888.247130,1072.533697,10658.965565
868.377615,-1258.350101,1532.190996,10214.842000
868.377945,-1628.453072,1072.533697,9326.594869
868.378274,-1184.329507,689.485948,8364.327145
868.378603,-740.205942,306.438199,8216.285956
868.378933,-148.041188,612.876398,7624.121203
868.379262,-148.041188,1072.533697,7772.162391
868.379592,148.041188,2221.676944,8142.265362
868.379921,518.144159,2451.505594,8586.388927
868.380251,518.144159,2681.334243,8956.491898
868.380580,0.000000,2451.505594,9104.533087
868.380909,-740.205942,1915.238745,9178.553681
868.381239,-814.226536,1149.143247,9252.574275
868.381568,-1702.473667,689.485948,10214.842000
868.381898,-1924.535449,153.219100,10436.903782
868.382227,-2146.597232,-612.876398,10214.842000
868.382557,-2146.597232,-1225.752797,9992.780217
868.382886,-1184.329507,0.000000,9992.780217
868.383215,-592.164754,0.000000,9252.574275
868.383545,0.000000,153.219100,9622.677246
868.383874,0.000000,919.314598,9844.739029
868.384204,0.000000,1991.848295,9474.636058
868.384533,148.041188,2374.896044,9400.615463
868.384862,74.020594,2068.457845,9326.594869
868.385192,-222.061783,1762.019645,10362.883188
868.385521,-1332.370696,1149.143247,10436.903782
868.385851,-2516.700203,842.705048,10066.800811
868.386180,-2664.741391,383.047749,10066.800811
868.386510,-2442.679609,-229.828649,9548.656652
868.386839,-2812.782580,-995.924147,9844.739029
868.387168,-3404.947333,-383.047749,10140.821405
868.387498,-3108.864956,229.828649,9918.759623
868.387827,-2368.659014,612.876398,9622.677246
868.388157,-1258.350101,842.705048,9400.615463
868.388486,0.000000,1225.752797,9326.594869
868.388815,518.144159,459.657299,8586.388927
868.389145,740.205942,766.095498,8808.450710
868.389474,666.185348,1608.800546,9622.677246
868.389804,-148.041188,1225.752797,10066.800811
868.390133,-1628.453072,1149.143247,10436.903782
868.390462,-2442.679609,1302.362347,10288.862594
868.390792,-1998.556043,919.314598,9622.677246
868.391121,-1406.391290,76.609550,8808.450710
868.391451,-518.144159,0.000000,8216.285956
868.391780,0.000000,383.047749,7698.141797
868.392109,222.061783,1455.581446,7846.182985
868.392439,814.226536,2451.505594,8290.306550
868.392768,888.247130,2528.115143,8882.471304
868.393098,370.102971,2681.334243,9104.533087
868.393427,-518.144159,2451.505594,9104.533087
868.393756,-962.267725,1991.848295,9400.615463
868.394086,-1924.535449,689.485948,9548.656652
868.394415,-2368.659014,-229.828649,10362.883188
868.394745,-2886.803174,-459.657299,10658.965565
868.395074,-3182.885551,-1302.362347,10362.883188
868.395403,-2664.741391,-1072.533697,10066.800811
868.395733,-2072.576638,76.609550,9844.739029
868.396062,-962.267725,459.657299,9696.697840
868.396392,0.000000,612.876398,9548.656652
868.396721,0.000000,1685.410096,9252.574275
868.397050,444.123565,2681.334243,8808.450710
868.397380,518.144159,2528.115143,9104.533087
868.397709,148.041188,1838.629195,9696.697840
868.398039,-592.164754,1532.190996,10066.800811
868.398368,-1406.391290,766.095498,9844.739029
868.398697,-2072.576638,612.876398,9844.739029
868.399027,-1850.514855,383.047749,9548.656652
868.399356,-1924.535449,0.000000,10066.800811
868.399686,-2146.597232,76.609550,10140.821405
868.400015,-2442.679609,536.266849,9844.739029
868.400344,-2146.597232,1072.533697,9622.677246
868.400674,-1258.350101,1762.019645,9622.677246
868.401003,-1258.350101,1532.190996,9844.739029
868.401333,-1036.288319,1149.143247,9400.615463
868.401662,-592.164754,383.047749,9178.553681
868.401991,-814.226536,306.438199,8956.491898
868.402321,-592.164754,995.924147,9252.574275
868.402650,-1628.453072,459.657299,9326.594869
868.402980,-2072.576638,459.657299,10140.821405
868.403309,-1924.535449,1149.143247,10066.800811
868.403638,-1036.288319,1072.533697,9252.574275
868.403968,222.061783,229.828649,8290.306550
868.404297,1258.350101,1225.752797,7846.182985
868.404627,1776.494261,995.924147,8290.306550
868.404956,1702.473667,2068.457845,8512.368333
868.405285,1258.350101,2681.334243,9030.512492
868.405615,740.205942,2757.943793,9400.615463
868.405944,74.020594,1915.238745,9696.697840
868.406273,-814.226536,1608.800546,9992.780217
868.406603,-1628.453072,1072.533697,9918.759623
868.406932,-1998.556043,229.828649,10140.821405
868.407262,-2516.700203,0.000000,10436.903782
868.407591,-2886.803174,0.000000,10288.862594
868.407920,-2442.679609,-766.095498,10066.800811
868.408250,-1924.535449,-459.657299,9326.594869
868.408579,-1258.350101,383.047749,9104.533087
868.408909,-518.144159,842.705048,9178.553681
868.409238,-444.123565,842.705048,9252.574275
868.409567,-740.205942,2221.676944,9252.574275
868.409897,-814.226536,2221.676944,9400.615463
868.410226,-740.205942,1991.848295,9622.677246
868.410556,-444.123565,1608.800546,10066.800811
868.410885,-962.267725,995.924147,10066.800811
868.411214,-1480.411884,689.485948,9918.759623
868.411544,-1480.411884,995.924147,9918.759623
868.411873,-1036.288319,1225.752797,10288.862594
868.412203,-962.267725,842.705048,9770.718434
868.412532,-1258.350101,995.924147,9622.677246
868.412861,-962.267725,1149.143247,9030.512492
868.413191,-962.267725,995.924147,9400.615463
868.413520,-1480.411884,995.924147,9548.656652
868.413850,-1850.514855,1149.143247,9622.677246
868.414179,-1628.453072,459.657299,9696.697840
868.414508,-1480.411884,153.219100,9474.636058
868.414838,-1332.370696,229.828649,9696.697840
868.415167,-1628.453072,689.485948,10066.800811
868.415497,-1850.514855,689.485948,9844.739029
868.415826,-1850.514855,1149.143247,9622.677246
868.416155,-1628.453072,1455.581446,9622.677246
868.416485,-296.082377,1608.800546,8882.471304
868.416814,148.041188,1072.533697,8216.285956
868.417144,740.205942,1225.752797,7920.203579
868.417473,1184.329507,1149.143247,8068.244768
868.417802,1036.288319,1302.362347,8438.347739
868.418132,888.247130,1838.629195,9030.512492
868.418461,814.226536,1838.629195,9326.594869
868.418791,74.020594,1838.629195,9844.739029
868.419120,-592.164754,1685.410096,10140.821405
868.419449,-962.267725,995.924147,10214.842000
868.419779,-1258.350101,689.485948,10288.862594
868.420108,-1480.411884,689.485948,10436.903782
868.420438,-1258.350101,76.609550,10510.924376
868.420767,-1258.350101,-536.266849,9770.718434
868.421096,-1332.370696,-459.657299,9252.574275
868.421426,-1184.329507,0.000000,9178.553681
868.421755,-1258.350101,766.095498,8660.409521
868.422085,-1110.308913,919.314598,9252.574275
868.422414,-1332.370696,1225.752797,9400.615463
868.422743,-1554.432478,1225.752797,9400.615463
868.423073,-1554.432478,1608.800546,9622.677246
868.423402,-1406.391290,1685.410096,10214.842000
868.423732,-1184.329507,1225.752797,10140.821405
868.424061,-1702.473667,1072.533697,9696.697840
868.424390,-1702.473667,1149.143247,9844.739029
868.424720,-962.267725,766.095498,9770.718434
868.425049,-962.267725,536.266849,9252.574275
868.425378,-1406.391290,229.828649,9474.636058
868.425708,-1924.535449,229.828649,9400.615463
868.426037,-1628.453072,0.000000,9622.677246
868.426367,-1628.453072,0.000000,9548.656652
868.426696,-1332.370696,612.876398,9992.780217
868.427025,-814.226536,153.219100,8956.491898
868.427355,-148.041188,536.266849,9474.636058
868.427684,-148.041188,1072.533697,9548.656652
868.428014,0.000000,1225.752797,9770.718434
868.428343,-1036.288319,1685.410096,9770.718434
868.428672,-1406.391290,2221.676944,10066.800811
868.429002,-1480.411884,2298.286494,9474.636058
868.429331,-1554.432478,1378.971896,9252.574275
868.429661,-1036.288319,1072.533697,8882.471304
868.429990,-888.247130,0.000000,8734.430116
868.430319,-1406.391290,383.047749,8438.347739
868.430649,-1332.370696,1072.533697,8512.368333
868.430978,-962.267725,1302.362347,8808.450710
868.431308,-370.102971,1149.143247,9104.533087
868.431637,-592.164754,1302.362347,9400.615463
868.431966,-1110.308913,1225.752797,9918.759623
868.432296,-1258.350101,1532.190996,9696.697840
868.432625,-1332.370696,1302.362347,9992.780217
868.432955,-1554.432478,995.924147,10510.924376
868.433284,-1184.329507,459.657299,10288.862594
868.433613,-888.247130,-229.828649,9696.697840
868.433943,-962.267725,-306.438199,8882.471304
868.434272,-444.123565,153.219100,9104.533087
868.434602,-888.247130,459.657299,9252.574275
868.434931,-888.247130,995.924147,9622.677246
868.435260,-1184.329507,1838.629195,9474.636058
868.435590,-814.226536,2221.676944,8734.430116
868.435919,-518.144159,2221.676944,8808.450710
868.436249,-592.164754,1532.190996,9474.636058
868.436578,-1406.391290,1685.410096,9918.759623
868.436907,-2664.741391,1608.800546,9622.677246
868.437237,-3108.864956,1455.581446,9622.677246
868.437566,-2812.782580,612.876398,10214.842000
868.437896,-2886.803174,0.000000,9992.780217
868.438225,-3404.947333,-689.485948,9918.759623
868.438554,-3627.009116,-306.438199,9622.677246
868.438884,-2960.823768,-689.485948,9770.718434
868.439213,-1850.514855,0.000000,10066.800811
868.439543,-888.247130,383.047749,10362.883188
868.439872,148.041188,76.609550,10214.842000
868.440201,1184.329507,612.876398,9918.759623
868.440531,1850.514855,1685.410096,9696.697840
868.440860,2294.638420,2068.457845,9844.739029
868.441190,1998.556043,1608.800546,9918.759623
868.441519,592.164754,1991.848295,10066.800811
868.441848,-222.061783,2145.067394,9474.636058
868.442178,-370.102971,1685.410096,8956.491898
868.442507,-148.041188,995.924147,8734.430116
868.442837,-222.061783,1149.143247,8142.265362
868.443166,-370.102971,153.219100,8142.265362
868.443495,-1258.350101,612.876398,8216.285956
868.443825,-888.247130,1762.019645,8660.409521
868.444154,-888.247130,1532.190996,9252.574275
868.444483,-1702.473667,1762.019645,9252.574275
868.444813,-1924.535449,2068.457845,9474.636058
868.445142,-2368.659014,1072.533697,9696.697840
868.445472,-2516.700203,995.924147,9622.677246
868.445801,-2442.679609,689.485948,10214.842000
868.446130,-1998.556043,-76.609550,10140.821405
868.446460,-1628.453072,-766.095498,9474.636058
868.446789,-1110.308913,0.000000,9030.512492
868.447119,-296.082377,766.095498,9030.512492
868.447448,296.082377,919.314598,8956.491898
868.447777,222.061783,1762.019645,9400.615463
868.448107,296.082377,2987.772442,9252.574275
868.448436,296.082377,2528.115143,9474.636058
868.448766,0.000000,2451.505594,9474.636058
868.449095,-296.082377,1915.238745,9844.739029
868.449424,-1258.350101,1072.533697,9770.718434
868.449754,-1924.535449,995.924147,9918.759623
868.450083,-2368.659014,459.657299,10362.883188
868.450413,-2516.700203,76.609550,10140.821405
868.450742,-3034.844362,0.000000,10214.842000
868.451071,-3552.988522,-153.219100,9918.759623
868.451401,-2812.782580,0.000000,10436.903782
868.451730,-2664.741391,229.828649,10288.862594
868.452060,-2220.617826,1072.533697,10362.883188
868.452389,-1480.411884,1378.971896,10140.821405
868.452718,-666.185348,536.266849,9474.636058
868.453048,-148.041188,306.438199,9326.594869
868.453377,0.000000,1149.143247,9474.636058
868.453707,-148.041188,1072.533697,9696.697840
868.454036,-740.205942,842.705048,9696.697840
868.454365,-1332.370696,1149.143247,9548.656652
868.454695,-814.226536,1378.971896,9030.512492
868.455024,-222.061783,1072.533697,8438.347739
868.455354,888.247130,995.924147,8068.244768
868.455683,962.267725,1225.752797,8438.347739
868.456012,666.185348,1608.800546,8142.265362
868.456342,592.164754,2451.505594,8438.347739
868.456671,888.247130,2145.067394,9252.574275
868.457001,740.205942,1608.800546,9178.553681
868.457330,-518.144159,1072.533697,9622.677246
868.457659,-1554.432478,459.657299,10140.821405
868.457989,-2664.741391,-459.657299,10807.006753
868.458318,-3627.009116,76.609550,11177.109724
868.458648,-3404.947333,153.219100,10658.965565
868.458977,-2664.741391,-536.266849,9992.780217
868.459306,-962.267725,-1072.533697,9178.553681
868.459636,148.041188,-536.266849,8438.347739
868.459965,740.205942,383.047749,8512.368333
868.460295,888.247130,1455.581446,8660.409521
868.460624,0.000000,2681.334243,9770.718434
868.460953,-814.226536,3217.601092,9918.759623
868.461283,-888.247130,2681.334243,10140.821405
868.461612,-592.164754,1915.238745,9992.780217
868.461942,-444.123565,689.485948,9992.780217
868.462271,-1480.411884,-229.828649,10214.842000
868.462600,-2294.638420,0.000000,9622.677246
868.462930,-2664.741391,229.828649,9400.615463
868.463259,-2368.659014,0.000000,9622.677246
868.463588,-2146.597232,153.219100,9992.780217
868.463918,-2294.638420,0.000000,9400.615463
868.464247,-1776.494261,612.876398,9622.677246
868.464577,-1406.391290,1149.143247,9474.636058
868.464906,-1184.329507,1302.362347,9918.759623
868.465235,-592.164754,1149.143247,9992.780217
868.465565,-962.267725,459.657299,9696.697840
868.465894,-444.123565,229.828649,9326.594869
868.466224,-518.144159,612.876398,9696.697840
868.466553,-814.226536,536.266849,9844.739029
868.466882,-1554.432478,1225.752797,10362.883188
868.467212,-1850.514855,1991.848295,9918.759623
868.467541,-2220.617826,1532.190996,8956.491898
868.467871,-1110.308913,1378.971896,8512.368333
868.468200,-518.144159,995.924147,8216.285956
868.468529,0.000000,383.047749,8142.265362
868.468859,-296.082377,766.095498,8438.347739
868.469188,-740.205942,1149.143247,8586.388927
868.469518,-296.082377,1302.362347,9252.574275
868.469847,-370.102971,919.314598,9622.677246
868.470176,-1110.308913,689.485948,10066.800811
868.470506,-1924.535449,383.047749,10362.883188
868.470835,-1776.494261,0.000000,10584.944971
868.471165,-1554.432478,153.219100,10510.924376
868.471494,-1406.391290,383.047749,10510.924376
868.471823,-444.123565,0.000000,9622.677246
868.472153,148.041188,0.000000,8660.409521
868.472482,666.185348,153.219100,8438.347739
868.472812,1036.288319,1225.752797,8586.388927
868.473141,0.000000,1762.019645,9622.677246
868.473470,-1036.288319,2145.067394,10214.842000
868.473800,-1998.556043,2145.067394,10214.842000
868.474129,-2368.659014,1838.629195,9918.759623
868.474459,-1850.514855,1302.362347,9918.759623
868.474788,-2146.597232,0.000000,10140.821405
868.475117,-2886.803174,76.609550,9844.739029
868.475447,-3182.885551,0.000000,9400.615463
868.475776,-2368.659014,306.438199,9474.636058
868.476106,-1924.535449,0.000000,9400.615463
868.476435,-1406.391290,153.219100,9918.759623
868.476764,-1406.391290,612.876398,9548.656652
868.477094,-1184.329507,766.095498,9252.574275
868.477423,-592.164754,1225.752797,9622.677246
868.477753,148.041188,689.485948,9696.697840
868.478082,222.061783,995.924147,10214.842000
868.478411,444.123565,766.095498,10140.821405
868.478741,74.020594,919.314598,10214.842000
868.479070,-222.061783,1378.971896,10436.903782
868.479400,-370.102971,1302.362347,10584.944971
868.479729,-888.247130,1225.752797,10658.965565
868.480058,-1480.411884,1685.410096,9548.656652
868.480388,-1258.350101,1915.238745,8660.409521
868.480717,-666.185348,1149.143247,7920.203579
868.481047,0.000000,842.705048,7550.100608
868.481376,0.000000,1072.533697,7254.018232
868.481705,-740.205942,995.924147,7476.080014
868.482035,-740.205942,1608.800546,8512.368333
868.482364,-740.205942,1838.629195,9474.636058
868.482693,-1110.308913,1608.800546,9770.718434
868.483023,-1776.494261,1608.800546,10362.883188
868.483352,-2220.617826,1302.362347,10140.821405
868.483682,-1850.514855,1072.533697,10510.924376
868.484011,-1332.370696,919.314598,10658.965565
868.484340,-666.185348,766.095498,10066.800811
868.484670,74.020594,76.609550,9178.553681
868.484999,666.185348,0.000000,8290.306550
868.485329,814.226536,612.876398,8512.368333
868.485658,444.123565,1608.800546,8734.430116
868.485987,148.041188,1532.190996,9326.594869
868.486317,-1110.308913,1915.238745,9918.759623
868.486646,-2220.617826,2068.457845,9696.697840
868.486976,-1998.556043,1685.410096,9548.656652
868.487305,-1998.556043,612.876398,9696.697840
868.487634,-2220.617826,459.657299,9770.718434
868.487964,-2664.741391,0.000000,9474.636058
868.488293,-2886.803174,229.828649,9622.677246
868.488623,-2294.638420,766.095498,9992.780217
868.488952,-2072.576638,306.438199,9844.739029
868.489281,-2294.638420,689.485948,10214.842000
868.489611,-2368.659014,995.924147,9992.780217
868.489940,-1998.556043,459.657299,9770.718434
868.490270,-1776.494261,306.438199,9622.677246
868.490599,-1036.288319,612.876398,9992.780217
868.490929,-370.102971,153.219100,10140.821405
868.491258,-148.041188,-536.266849,9844.739029
868.491588,0.000000,383.047749,10066.800811
868.491917,296.082377,1455.581446,9844.739029
868.492247,222.061783,1072.533697,10288.862594
868.492576,0.000000,1685.410096,9770.718434
868.492906,0.000000,1991.848295,9326.594869
868.493235,592.164754,1532.190996,8364.327145
868.493565,888.247130,1378.971896,7698.141797
868.493894,296.082377,1532.190996,7846.182985
868.494223,-370.102971,1149.143247,8142.265362
868.494553,-740.205942,1455.581446,8438.347739
868.494882,-1184.329507,1991.848295,9104.533087
868.495212,-1036.288319,1302.362347,9326.594869
868.495541,-1184.329507,995.924147,9696.697840
868.495871,-2072.576638,689.485948,9770.718434
868.496200,-2220.617826,612.876398,10436.903782
868.496530,-2294.638420,689.485948,10584.944971
868.496859,-1998.556043,842.705048,10510.924376
868.497189,-1702.473667,229.828649,9770.718434
868.497518,-370.102971,76.609550,8734.430116
868.497848,0.000000,229.828649,8808.450710
868.498177,296.082377,459.657299,8808.450710
868.498507,222.061783,1378.971896,8956.491898
868.498836,-296.082377,2068.457845,9326.594869
868.499166,-740.205942,2681.334243,9622.677246
868.499495,-666.185348,2298.286494,9844.739029
868.499825,-296.082377,1608.800546,9844.739029
868.500154,-370.102971,1532.190996,9844.739029
868.500483,-1110.308913,842.705048,9548.656652
868.500813,-1776.494261,459.657299,9400.615463
868.501142,-2146.597232,153.219100,9622.677246
868.501472,-1924.535449,306.438199,9992.780217
868.501801,-2294.638420,0.000000,10214.842000
868.502131,-2516.700203,153.219100,10140.821405
868.502460,-2590.720797,612.876398,9622.677246
868.502790,-2664.741391,-459.657299,9252.574275
868.503119,-2220.617826,229.828649,9178.553681
868.503449,-1258.350101,766.095498,9400.615463
868.503778,-296.082377,612.876398,9030.512492
868.504108,0.000000,383.047749,8734.430116
868.504437,592.164754,689.485948,9178.553681
868.504767,222.061783,1149.143247,9918.759623
868.505096,-370.102971,1455.581446,10807.006753
868.505426,-1480.411884,1762.019645,10807.006753
868.505755,-1776.494261,1762.019645,10436.903782
868.506085,-1480.411884,766.095498,9992.780217
868.506414,-666.185348,153.219100,8734.430116
868.506743,-296.082377,-153.219100,8216.285956
868.507073,296.082377,76.609550,8216.285956
868.507402,74.020594,919.314598,8216.285956
868.507732,296.082377,1991.848295,8808.450710
868.508061,148.041188,1762.019645,9030.512492
868.508391,-148.041188,1762.019645,9770.718434
868.508720,-814.226536,1608.800546,10362.883188
868.509050,-1110.308913,1225.752797,10510.924376
868.509379,-1258.350101,842.705048,10807.006753
868.509709,-1406.391290,0.000000,10807.006753
868.510038,-1480.411884,0.000000,9918.759623
868.510368,-1406.391290,-459.657299,8882.471304
868.510697,-740.205942,0.000000,8438.347739
868.511027,-592.164754,766.095498,8364.327145
868.511356,-296.082377,1378.971896,8364.327145
868.511686,-1036.288319,1685.410096,8734.430116
868.512015,-1998.556043,2451.505594,9252.574275
868.512345,-2442.679609,2221.676944,9548.656652
868.512674,-2368.659014,1685.410096,9696.697840
868.513003,-2590.720797,1838.629195,9844.739029
868.513333,-3108.864956,0.000000,9622.677246
868.513662,-2664.741391,-306.438199,9844.739029
868.513992,-2072.576638,-459.657299,9844.739029
868.514321,-1480.411884,-383.047749,9918.759623
868.514651,-814.226536,-612.876398,10288.862594
868.514980,-1036.288319,-536.266849,10214.842000
868.515310,-666.185348,1072.533697,10584.944971
868.515639,-592.164754,1455.581446,10362.883188
868.515969,222.061783,1915.238745,10066.800811
868.516298,1036.288319,1685.410096,9622.677246
868.516628,1480.411884,689.485948,9474.636058
868.516957,888.247130,229.828649,9178.553681
868.517287,0.000000,919.314598,9622.677246
868.517616,-814.226536,1149.143247,10140.821405
868.517946,-1924.535449,1302.362347,10732.986159
868.518275,-2368.659014,1302.362347,10881.027347
868.518605,-2886.803174,1532.190996,9548.656652
868.518934,-2442.679609,612.876398,9030.512492
868.519263,-1850.514855,612.876398,8364.327145
868.519593,-1184.329507,766.095498,8364.327145
868.519922,-962.267725,995.924147,8290.306550
868.520252,-814.226536,1608.800546,8290.306550
868.520581,-296.082377,1838.629195,8512.368333
868.520911,444.123565,1838.629195,8956.491898
868.521240,444.123565,1378.971896,9474.636058
868.521570,0.000000,1378.971896,9918.759623
868.521899,-222.061783,1302.362347,9992.780217
868.522229,-666.185348,1378.971896,10658.965565
868.522558,-666.185348,1378.971896,10807.006753
868.522888,-148.041188,1225.752797,9844.739029
868.523217,592.164754,0.000000,8586.388927
868.523547,1258.350101,459.657299,8290.306550
868.523876,1480.411884,1149.143247,8512.368333
868.524206,666.185348,1685.410096,8438.347739
868.524535,-592.164754,2221.676944,8882.471304
868.524865,-1554.432478,2834.553343,9326.594869
868.525194,-2072.576638,2374.896044,9474.636058
868.525524,-2072.576638,1378.971896,9474.636058
868.525853,-2516.700203,766.095498,10140.821405
868.526182,-3478.967927,153.219100,9622.677246
868.526512,-3997.112087,-306.438199,9844.739029
868.526841,-3923.091493,0.000000,10140.821405
868.527171,-3108.864956,612.876398,10584.944971
868.527500,-2886.803174,0.000000,10214.842000
868.527830,-2738.761985,536.266849,9992.780217
868.528159,-1776.494261,536.266849,10066.800811
868.528489,-592.164754,612.876398,9770.718434
868.528818,370.102971,1302.362347,10362.883188
868.529148,666.185348,1378.971896,9770.718434
868.529477,888.247130,1072.533697,9474.636058
868.529807,888.247130,1072.533697,9474.636058
868.530136,814.226536,1072.533697,9548.656652
868.530466,814.226536,995.924147,10362.883188
868.530795,0.000000,689.485948,10214.842000
868.531125,-888.247130,1685.410096,9992.780217
868.531454,-1628.453072,1608.800546,9252.574275
868.531784,-1332.370696,1225.752797,8734.430116
868.532113,-962.267725,919.314598,8290.306550
868.532442,-444.123565,919.314598,8512.368333
868.532772,-1184.329507,995.924147,8068.244768
868.533101,-1184.329507,995.924147,8290.306550
868.533431,-962.267725,1149.143247,8882.471304
868.533760,-1184.329507,842.705048,9770.718434
868.534090,-1924.535449,919.314598,10362.883188
868.534419,-2812.782580,1072.533697,10436.903782
868.534749,-2738.761985,612.876398,10140.821405
868.535078,-1924.535449,383.047749,10436.903782
868.535408,-962.267725,459.657299,10066.800811
868.535737,148.041188,0.000000,9400.615463
868.536067,1184.329507,153.219100,8290.306550
868.536396,1258.350101,612.876398,8142.265362
868.536726,1702.473667,1072.533697,8808.450710
868.537055,1184.329507,1608.800546,9178.553681
868.537385,148.041188,2298.286494,9622.677246
868.537714,-666.185348,2451.505594,9844.739029
868.538044,-1036.288319,1991.848295,9992.780217
868.538373,-1258.350101,995.924147,10140.821405
868.538702,-2146.597232,689.485948,10066.800811
868.539032,-2812.782580,0.000000,9696.697840
868.539361,-2960.823768,-229.828649,9844.739029
868.539691,-2738.761985,229.828649,9992.780217
868.540020,-2442.679609,229.828649,10214.842000
868.540350,-2738.761985,306.438199,10288.862594
868.540679,-2738.761985,766.095498,9992.780217
868.541009,-2590.720797,766.095498,9770.718434
868.541338,-1850.514855,919.314598,9474.636058
868.541668,-1332.370696,842.705048,9992.780217
868.541997,-1110.308913,536.266849,9770.718434
868.542327,-148.041188,0.000000,9178.553681
868.542656,148.041188,229.828649,9326.594869
868.542986,814.226536,995.924147,9474.636058
868.543315,592.164754,919.314598,9844.739029
868.543645,-148.041188,1915.238745,10140.821405
868.543974,-666.185348,2528.115143,10214.842000
868.544304,-370.102971,2451.505594,9474.636058
868.544633,-222.061783,1532.190996,8734.430116
868.544962,0.000000,1762.019645,8808.450710
868.545292,0.000000,842.705048,8512.368333
868.545621,-296.082377,612.876398,8142.265362
868.545951,-962.267725,1302.362347,8364.327145
868.546280,-1258.350101,1149.143247,8808.450710
868.546610,-1110.308913,995.924147,9474.636058
868.546939,-1924.535449,689.485948,9918.759623
868.547269,-2368.659014,995.924147,9844.739029
868.547598,-2368.659014,383.047749,9548.656652
868.547928,-2294.638420,612.876398,9696.697840
868.548257,-1332.370696,995.924147,9622.677246
868.548587,-1184.329507,0.000000,9400.615463
868.548916,-666.185348,229.828649,8956.491898
868.549246,-296.082377,689.485948,8956.491898
868.549575,-296.082377,919.314598,8956.491898
868.549905,-296.082377,995.924147,9622.677246
868.550234,-962.267725,1838.629195,10066.800811
868.550564,-1332.370696,1991.848295,9770.718434
868.550893,-1554.432478,1378.971896,9548.656652
868.551222,-1406.391290,1072.533697,9844.739029
868.551552,-1258.350101,689.485948,10066.800811
868.551881,-1480.411884,459.657299,10066.800811
868.552211,-2146.597232,383.047749,9622.677246
868.552540,-1998.556043,612.876398,9474.636058
868.552870,-1628.453072,0.000000,9844.739029
868.553199,-1628.453072,0.000000,10214.842000
868.553529,-2146.597232,689.485948,10140.821405
868.553858,-1850.514855,689.485948,10436.903782
868.554188,-2146.597232,76.609550,10658.965565
868.554517,-2146.597232,459.657299,10881.027347
868.554847,-1258.350101,0.000000,10658.965565
868.555176,-740.205942,-383.047749,9844.739029
868.555506,0.000000,0.000000,9474.636058
868.555835,296.082377,689.485948,9030.512492
868.556165,518.144159,689.485948,9178.553681
868.556494,0.000000,1072.533697,9326.594869
868.556824,-518.144159,1838.629195,9104.533087
868.557153,-888.247130,2451.505594,8808.450710
868.557482,0.000000,1915.238745,8660.409521
868.557812,296.082377,1455.581446,8512.368333
868.558141,74.020594,536.266849,8438.347739
868.558471,-296.082377,536.266849,8364.327145
868.558800,-592.164754,1225.752797,8734.430116
868.559130,-518.144159,1608.800546,9548.656652
868.559459,-296.082377,1532.190996,10214.842000
868.559789,-1110.308913,1608.800546,10066.800811
868.560118,-1332.370696,1225.752797,9770.718434
868.560448,-962.267725,689.485948,9400.615463
868.560777,-1036.288319,1149.143247,9918.759623
868.561107,-962.267725,1378.971896,9474.636058
868.561436,-222.061783,383.047749,9104.533087
868.561766,-222.061783,-153.219100,8586.388927
868.562095,-74.020594,1378.971896,8586.388927
868.562425,0.000000,1685.410096,9400.615463
868.562754,-592.164754,1378.971896,9844.739029
868.563084,-1702.473667,1991.848295,10362.883188
868.563413,-2590.720797,2298.286494,10214.842000
868.563743,-2368.659014,1915.238745,10214.842000
868.564072,-1924.535449,1608.800546,9992.780217
868.564401,-2220.617826,1378.971896,9918.759623
868.564731,-1998.556043,536.266849,9400.615463
868.565060,-2368.659014,612.876398,9252.574275
868.565390,-1924.535449,766.095498,9474.636058
868.565719,-2146.597232,536.266849,9326.594869
868.566049,-2368.659014,536.266849,9548.656652
868.566378,-2294.638420,1149.143247,9770.718434
868.566708,-1998.556043,1072.533697,9770.718434
868.567037,-1406.391290,842.705048,9474.636058
868.567367,-1258.350101,383.047749,9548.656652
868.567696,-296.082377,306.438199,10140.821405
868.568026,-296.082377,153.219100,9992.780217
868.568355,-222.061783,919.314598,10066.800811
868.568685,0.000000,995.924147,10140.821405
868.569014,0.000000,842.705048,10140.821405
868.569344,-814.226536,1149.143247,9474.636058
868.569673,-1332.370696,1532.190996,9178.553681
868.570003,-1036.288319,842.705048,8512.368333
868.570332,-666.185348,1149.143247,8142.265362
868.570661,-222.061783,1072.533697,8216.285956
868.570991,-518.144159,1378.971896,8438.347739
868.571320,-518.144159,842.705048,8068.244768
868.571650,-370.102971,1762.019645,8808.450710
868.571979,0.000000,1225.752797,9548.656652
868.572309,0.000000,1072.533697,10140.821405
868.572638,-592.164754,1302.362347,10658.965565
868.572968,-1258.350101,766.095498,10436.903782
868.573297,-1850.514855,383.047749,10584.944971
868.573627,-1924.535449,766.095498,10955.047942
868.573956,-1480.411884,459.657299,10510.924376
868.574286,-518.144159,-536.266849,9622.677246
868.574615,148.041188,-306.438199,8882.471304
868.574945,740.205942,459.657299,8290.306550
868.575274,814.226536,919.314598,8142.265362
868.575604,592.164754,1532.190996,8808.450710
868.575933,-222.061783,2834.553343,9474.636058
868.576263,-814.226536,3447.429741,9326.594869
868.576592,-888.247130,2451.505594,9400.615463
868.576921,-740.205942,1991.848295,9622.677246
868.577251,-1628.453072,1149.143247,9474.636058
868.577580,-2442.679609,0.000000,9548.656652
868.577910,-2960.823768,0.000000,9622.677246
868.578239,-2886.803174,0.000000,9992.780217
868.578569,-2886.803174,0.000000,10288.862594
868.578898,-2812.782580,229.828649,10066.800811
868.579228,-2664.741391,306.438199,9992.780217
868.579557,-2072.576638,536.266849,9696.697840
868.579887,-814.226536,1532.190996,9696.697840
868.580216,-592.164754,1685.410096,9770.718434
868.580546,0.000000,1225.752797,9548.656652
868.580875,296.082377,459.657299,9178.553681
868.581205,74.020594,612.876398,9326.594869
868.581534,148.041188,919.314598,9474.636058
868.581864,0.000000,995.924147,10066.800811
868.582193,-1184.329507,995.924147,9992.780217
868.582523,-1850.514855,1455.581446,9696.697840
868.582852,-1480.411884,1225.752797,9326.594869
868.583181,-296.082377,766.095498,8882.471304
868.583511,0.000000,1302.362347,8512.368333
868.583840,-148.041188,995.924147,8512.368333
868.584170,-296.082377,1608.800546,8364.327145
868.584499,74.020594,1608.800546,9104.533087
868.584829,148.041188,1378.971896,9622.677246
868.585158,74.020594,1762.019645,10288.862594
868.585488,-1110.308913,842.705048,10140.821405
868.585817,-1332.370696,612.876398,9918.759623
868.586147,-1480.411884,153.219100,10066.800811
868.586476,-1554.432478,612.876398,10214.842000
868.586806,-1184.329507,689.485948,9770.718434
868.587135,-740.205942,306.438199,8734.430116
868.587465,-1036.288319,459.657299,8438.347739
868.587794,-740.205942,1532.190996,8586.388927
868.588124,-962.267725,1302.362347,8660.409521
868.588453,-1036.288319,1072.533697,9548.656652
868.588783,-1998.556043,1685.410096,9474.636058
868.589112,-2220.617826,1532.190996,9696.697840
868.589442,-2146.597232,995.924147,9696.697840
868.589771,-1924.535449,459.657299,9696.697840
868.590101,-1850.514855,0.000000,9622.677246
868.590430,-1850.514855,-229.828649,9474.636058
868.590760,-1628.453072,0.000000,9474.636058
868.591089,-1036.288319,459.657299,9918.759623
868.591419,-740.205942,383.047749,9992.780217
868.591748,-1332.370696,842.705048,10288.862594
868.592078,-1554.432478,1838.629195,10066.800811
868.592407,-1480.411884,919.314598,10066.800811
868.592737,-1110.308913,689.485948,10288.862594
868.593067,-1184.329507,689.485948,10288.862594
868.593396,-962.267725,229.828649,10066.800811
868.593726,-1332.370696,0.000000,9622.677246
868.594055,-962.267725,383.047749,9918.759623
868.594385,-1406.391290,459.657299,10288.862594
868.594714,-1850.514855,842.705048,10436.903782
868.595044,-2368.659014,1149.143247,9992.780217
868.595373,-2072.576638,1532.190996,9474.636058
868.595703,-1258.350101,1838.629195,8438.347739
868.596032,-296.082377,995.924147,7994.224174
868.596362,0.000000,842.705048,7994.224174
868.596691,0.000000,919.314598,8142.265362
868.597021,0.000000,1225.752797,8512.368333
868.597351,296.082377,1685.410096,9178.553681
868.597680,814.226536,1302.362347,9474.636058
868.598010,148.041188,919.314598,10214.842000
868.598339,-592.164754,1149.143247,10510.924376
868.598669,-962.267725,919.314598,10436.903782
868.598998,-962.267725,1149.143247,10066.800811
868.599328,-740.205942,1072.533697,10214.842000
868.599657,-370.102971,612.876398,9326.594869
868.599987,222.061783,229.828649,8438.347739
868.600316,592.164754,689.485948,8364.327145
868.600646,518.144159,1378.971896,8364.327145
868.600975,444.123565,1915.238745,8956.491898
868.601305,-740.205942,2145.067394,9474.636058
868.601634,-2146.597232,2528.115143,9474.636058
868.601964,-2516.700203,1991.848295,9474.636058
868.602294,-2368.659014,1072.533697,9696.697840
868.602623,-2368.659014,536.266849,9548.656652
868.602953,-2812.782580,0.000000,9474.636058
868.603282,-3256.906145,0.000000,9548.656652
868.603612,-2442.679609,459.657299,9770.718434
868.603941,-1850.514855,689.485948,10066.800811
868.604271,-1110.308913,1149.143247,9918.759623
868.604600,-814.226536,1072.533697,10288.862594
868.604930,-740.205942,1302.362347,10066.800811
868.605259,-666.185348,1378.971896,9918.759623
868.605589,-666.185348,1455.581446,9918.759623
868.605918,-370.102971,1455.581446,10066.800811
868.606248,444.123565,766.095498,9770.718434
868.606577,444.123565,229.828649,9474.636058
868.606907,-222.061783,536.266849,9400.615463
868.607237,-740.205942,995.924147,9622.677246
868.607566,-1184.329507,842.705048,10066.800811
868.607896,-1702.473667,1532.190996,10066.800811
868.608225,-1776.494261,1915.238745,9548.656652
868.608555,-1628.453072,1532.190996,8808.450710
868.608884,-962.267725,995.924147,8290.306550
868.609214,-814.226536,612.876398,8290.306550
868.609543,-814.226536,-153.219100,8290.306550
868.609873,-740.205942,1072.533697,8586.388927
868.610202,-814.226536,1532.190996,9030.512492
868.610532,-592.164754,995.924147,9622.677246
868.610861,-666.185348,842.705048,10140.821405
868.611191,-1036.288319,842.705048,10436.903782
868.611521,-1332.370696,1302.362347,10436.903782
868.611850,-962.267725,919.314598,10288.862594
868.612180,-666.185348,1072.533697,10066.800811
868.612509,74.020594,612.876398,9474.636058
868.612839,370.102971,-153.219100,8882.471304
868.613168,888.247130,536.266849,8290.306550
868.613498,888.247130,612.876398,8216.285956
868.613827,222.061783,1455.581446,8808.450710
868.614157,-814.226536,1532.190996,9400.615463
868.614486,-1998.556043,2145.067394,9844.739029
868.614816,-2590.720797,2451.505594,9400.615463
868.615145,-2516.700203,1378.971896,8734.430116
868.615475,-2146.597232,842.705048,9622.677246
868.615804,-2294.638420,0.000000,9770.718434
868.616134,-2442.679609,-153.219100,9400.615463
868.616464,-2294.638420,459.657299,9548.656652
868.616793,-1628.453072,766.095498,9400.615463
868.617123,-1406.391290,689.485948,10066.800811
868.617452,-1702.473667,612.876398,10584.944971
868.617782,-1850.514855,842.705048,10288.862594
868.618111,-1850.514855,536.266849,10140.821405
868.618441,-1332.370696,1072.533697,10732.986159
868.618770,-148.041188,689.485948,10362.883188
868.619100,-296.082377,306.438199,9696.697840
868.619429,74.020594,153.219100,9400.615463
868.619759,222.061783,689.485948,9474.636058
868.620088,518.144159,1608.800546,9622.677246
868.620418,74.020594,1608.800546,9992.780217
868.620748,-592.164754,1685.410096,9918.759623
868.621077,-1110.308913,2374.896044,9178.553681
868.621407,-962.267725,1685.410096,8734.430116
868.621736,-592.164754,1225.752797,8660.409521
868.622066,-148.041188,842.705048,8734.430116
868.622395,-740.205942,306.438199,8142.265362
868.622725,-740.205942,919.314598,8512.368333
868.623054,-592.164754,1532.190996,8734.430116
868.623384,-370.102971,919.314598,9104.533087
868.623713,-1258.350101,689.485948,9474.636058
868.624043,-1036.288319,1455.581446,10214.842000
868.624372,-1258.350101,1302.362347,10658.965565
868.624702,-1258.350101,1072.533697,10658.965565
868.625031,-1332.370696,1149.143247,10214.842000
868.625361,-1332.370696,612.876398,9622.677246
868.625691,-370.102971,0.000000,9400.615463
868.626020,-370.102971,153.219100,9104.533087
868.626350,-148.041188,766.095498,8882.471304
868.626679,-148.041188,1072.533697,8956.491898
868.627009,-814.226536,1072.533697,9030.512492
868.627338,-1258.350101,1455.581446,8882.471304
868.627668,-1332.370696,2221.676944,9252.574275
868.627997,-1184.329507,1838.629195,9252.574275
868.628327,-1480.411884,1225.752797,9474.636058
868.628656,-1850.514855,536.266849,9548.656652
868.628986,-2220.617826,306.438199,9474.636058
868.629315,-2220.617826,612.876398,9992.780217
868.629645,-2368.659014,383.047749,9770.718434
868.629974,-2368.659014,-306.438199,10066.800811
868.630304,-3034.844362,-229.828649,10362.883188
868.630634,-3034.844362,0.000000,10510.924376
868.630963,-2812.782580,383.047749,10658.965565
868.631293,-2812.782580,459.657299,10807.006753
868.631622,-1998.556043,612.876398,10066.800811
868.631952,-962.267725,-306.438199,9104.533087
868.632281,0.000000,0.000000,8734.430116
868.632611,518.144159,842.705048,8882.471304
868.632940,370.102971,842.705048,8956.491898
868.633270,0.000000,1608.800546,9696.697840
868.633599,-1184.329507,2145.067394,9992.780217
868.633929,-1480.411884,2221.676944,9844.739029
868.634258,-666.185348,2068.457845,9326.594869
868.634588,-518.144159,842.705048,8808.450710
868.634918,-592.164754,689.485948,8956.491898
868.635247,-592.164754,459.657299,8512.368333
868.635577,-518.144159,536.266849,8660.409521
868.635906,148.041188,919.314598,8956.491898
868.636236,296.082377,919.314598,9178.553681
868.636565,0.000000,1302.362347,9474.636058
868.636895,-740.205942,1072.533697,9696.697840
868.637224,-1036.288319,766.095498,9918.759623
868.637554,-1258.350101,919.314598,10658.965565
868.637883,-1406.391290,842.705048,10584.944971
868.638213,-1110.308913,383.047749,10214.842000
868.638542,-1110.308913,0.000000,9400.615463
868.638872,-592.164754,153.219100,8956.491898
868.639201,0.000000,536.266849,8956.491898
868.639531,0.000000,1225.752797,8734.430116
868.639861,296.082377,1915.238745,9178.553681
868.640190,-592.164754,2145.067394,9104.533087
868.640520,-740.205942,2298.286494,8956.491898
868.640849,-444.123565,1915.238745,9548.656652
868.641179,-1184.329507,1762.019645,9474.636058
868.641508,-1554.432478,1378.971896,9474.636058
868.641838,-2368.659014,229.828649,9474.636058
868.642167,-2220.617826,76.609550,9770.718434
868.642497,-1924.535449,-229.828649,10066.800811
868.642826,-1998.556043,-306.438199,10288.862594
868.643156,-2664.741391,0.000000,10214.842000
868.643485,-2516.700203,612.876398,10510.924376
868.643815,-2294.638420,842.705048,10436.903782
868.644144,-1332.370696,1225.752797,10214.842000
868.644474,-518.144159,1455.581446,9474.636058
868.644804,370.102971,689.485948,8808.450710
868.645133,888.247130,842.705048,8512.368333
868.645463,740.205942,1225.752797,9178.553681
868.645792,0.000000,1685.410096,9918.759623
868.646122,-1258.350101,1762.019645,10510.924376
868.646451,-2220.617826,2298.286494,10436.903782
868.646781,-2442.679609,1608.800546,10066.800811
868.647110,-1776.494261,995.924147,9622.677246
868.647440,-1554.432478,689.485948,9104.533087
868.647769,-1110.308913,153.219100,8438.347739
868.648099,-814.226536,153.219100,8216.285956
868.648428,-518.144159,536.266849,7994.224174
868.648758,0.000000,766.095498,8512.368333
868.649088,0.000000,842.705048,9326.594869
868.649417,-296.082377,1072.533697,9474.636058
868.649747,-814.226536,1302.362347,9770.718434
868.650076,-814.226536,612.876398,9844.739029
868.650406,-814.226536,1225.752797,10807.006753
868.650735,-962.267725,1149.143247,10510.924376
868.651065,-592.164754,612.876398,9622.677246
868.651394,-296.082377,306.438199,9104.533087
868.651724,444.123565,459.657299,8956.491898
868.652053,222.061783,1225.752797,9104.533087
868.652383,-444.123565,1149.143247,9252.574275
868.652712,-888.247130,1685.410096,9474.636058
868.653042,-1110.308913,2221.676944,9252.574275
868.653371,-1332.370696,1685.410096,8882.471304
868.653701,-1628.453072,1072.533697,8586.388927
868.654031,-1850.514855,229.828649,9178.553681
868.654360,-2368.659014,459.657299,9622.677246
868.654690,-2738.761985,229.828649,9770.718434
868.655019,-2516.700203,306.438199,10066.800811
868.655349,-1702.473667,76.609550,10362.883188
868.655678,-1924.535449,0.000000,10732.986159
868.656008,-1998.556043,689.485948,10732.986159
868.656337,-1332.370696,689.485948,10510.924376
868.656667,-814.226536,919.314598,10362.883188
868.656996,0.000000,842.705048,10436.903782
868.657326,0.000000,1608.800546,9992.780217
868.657655,148.041188,459.657299,9622.677246
868.657985,74.020594,459.657299,9178.553681
868.658314,74.020594,919.314598,9400.615463
868.658644,-296.082377,995.924147,9548.656652
868.658974,-814.226536,919.314598,9548.656652
868.659303,-1480.411884,1685.410096,9844.739029
868.659633,-1332.370696,1838.629195,8734.430116
868.659962,-518.144159,1302.362347,8586.388927
868.660292,0.000000,1149.143247,8290.306550
868.660621,0.000000,919.314598,8290.306550
868.660951,74.020594,995.924147,8438.347739
868.661280,0.000000,1532.190996,8586.388927
868.661610,296.082377,1378.971896,9178.553681
868.661939,0.000000,1149.143247,9844.739029
868.662269,-1332.370696,1762.019645,9844.739029
868.662598,-1924.535449,1685.410096,9548.656652
868.662928,-1924.535449,1225.752797,9548.656652
868.663258,-1924.535449,689.485948,9770.718434
868.663587,-1406.391290,842.705048,9844.739029
868.663917,-1184.329507,229.828649,9252.574275
868.664246,-888.247130,383.047749,8290.306550
868.664576,-1036.288319,919.314598,8734.430116
868.664905,-666.185348,842.705048,9178.553681
868.665235,-1258.350101,536.266849,9992.780217
868.665564,-1776.494261,1072.533697,10510.924376
868.665894,-2072.576638,1685.410096,10214.842000
868.666223,-1554.432478,1072.533697,10214.842000
868.666553,-962.267725,459.657299,9696.697840
868.666882,-666.185348,0.000000,9770.718434
868.667212,-962.267725,76.609550,9548.656652
868.667541,-592.164754,1072.533697,9400.615463
868.667871,-370.102971,1991.848295,9696.697840
868.668201,-296.082377,995.924147,9918.759623
868.668530,-888.247130,995.924147,10140.821405
868.668860,-1480.411884,766.095498,10214.842000
868.669189,-1850.514855,612.876398,10362.883188
868.669519,-2516.700203,842.705048,10658.965565
868.669848,-3034.844362,842.705048,10066.800811
868.670178,-2664.741391,-383.047749,9844.739029
868.670507,-2368.659014,-995.924147,9178.553681
868.670837,-1998.556043,-306.438199,9030.512492
868.671166,-1776.494261,-229.828649,9178.553681
868.671496,-1776.494261,842.705048,9474.636058
868.671825,-1776.494261,1608.800546,9696.697840
868.672155,-1924.535449,1915.238745,9030.512492
868.672485,-1184.329507,1991.848295,8734.430116
868.672814,0.000000,1532.190996,8882.471304
868.673144,666.185348,1072.533697,8438.347739
868.673473,666.185348,459.657299,8438.347739
868.673803,592.164754,842.705048,8216.285956
868.674132,666.185348,995.924147,8808.450710
868.674462,740.205942,995.924147,9696.697840
868.674791,814.226536,1072.533697,10510.924376
868.675121,-444.123565,1455.581446,11029.068536
868.675450,-962.267725,1072.533697,10584.944971
868.675780,-1184.329507,766.095498,10288.862594
868.676109,-1036.288319,1072.533697,10288.862594
868.676439,-370.102971,919.314598,10066.800811
868.676768,-666.185348,229.828649,9178.553681
868.677098,-666.185348,383.047749,8586.388927
868.677428,-814.226536,536.266849,8438.347739
868.677757,-666.185348,919.314598,8956.491898
868.678087,-1554.432478,1072.533697,9622.677246
868.678416,-2368.659014,1455.581446,9844.739029
868.678746,-2442.679609,1991.848295,9844.739029
868.679075,-2220.617826,1608.800546,9770.718434
868.679405,-1554.432478,919.314598,9474.636058
868.679734,-1628.453072,689.485948,9548.656652
868.680064,-1406.391290,919.314598,9178.553681
868.680393,-1332.370696,1149.143247,9474.636058
868.680723,-888.247130,1149.143247,9326.594869
868.681052,-222.061783,919.314598,9474.636058
868.681382,-1036.288319,766.095498,9548.656652
868.681711,-1110.308913,1149.143247,9622.677246
868.682041,-1332.370696,842.705048,9844.739029
868.682371,-1554.432478,766.095498,10288.862594
868.682700,-1628.453072,919.314598,10288.862594
868.683030,-1110.308913,229.828649,10066.800811
868.683359,-592.164754,0.000000,9474.636058
868.683689,-222.061783,919.314598,9326.594869
868.684018,-296.082377,842.705048,9548.656652
868.684348,-444.123565,1378.971896,9696.697840
868.684677,-1110.308913,2145.067394,9918.759623
868.685007,-1554.432478,2604.724693,9030.512492
868.685336,-666.185348,1685.410096,8734.430116
868.685666,-1110.308913,1302.362347,8512.368333
868.685995,-1258.350101,1072.533697,8512.368333
868.686325,-1110.308913,306.438199,8586.388927
868.686655,-1554.432478,306.438199,8660.409521
868.686984,-1184.329507,766.095498,8808.450710
868.687314,-888.247130,689.485948,9770.718434
868.687643,-592.164754,536.266849,10140.821405
868.687973,-962.267725,1225.752797,10214.842000
868.688302,-962.267725,995.924147,9918.759623
868.688632,-370.102971,995.924147,9770.718434
868.688961,0.000000,1225.752797,10288.862594
868.689291,222.061783,1149.143247,9844.739029
868.689620,222.061783,306.438199,8956.491898
868.689950,148.041188,459.657299,8808.450710
868.690279,296.082377,612.876398,9178.553681
868.690609,-148.041188,919.314598,9104.533087
868.690938,-1332.370696,1225.752797,9696.697840
868.691268,-2146.597232,1991.848295,9770.718434
868.691597,-2072.576638,1685.410096,9400.615463
868.691927,-1628.453072,1072.533697,9400.615463
868.692256,-1184.329507,1302.362347,9474.636058
868.692586,-1332.370696,689.485948,9252.574275
868.692915,-1998.556043,612.876398,9178.553681
868.693245,-2146.597232,1072.533697,9474.636058
868.693574,-1850.514855,459.657299,9770.718434
868.693904,-1702.473667,306.438199,10140.821405
868.694233,-2368.659014,612.876398,10436.903782
868.694563,-2664.741391,842.705048,10362.883188
868.694892,-2368.659014,306.438199,10362.883188
868.695222,-1924.535449,306.438199,10436.903782
868.695551,-1332.370696,306.438199,10362.883188
868.695881,0.000000,0.000000,9400.615463
868.696210,518.144159,459.657299,9104.533087
868.696540,1406.391290,1072.533697,9104.533087
868.696869,1480.411884,1685.410096,9178.553681
868.697199,592.164754,1762.019645,9326.594869
868.697528,-222.061783,2298.286494,9770.718434
868.697858,-740.205942,2911.162892,9474.636058
868.698187,-1110.308913,1915.238745,9030.512492
868.698517,-1332.370696,1072.533697,8734.430116
868.698846,-1406.391290,383.047749,8734.430116
868.699176,-1554.432478,0.000000,8438.347739
868.699505,-1776.494261,306.438199,8586.388927
868.699835,-1258.350101,1302.362347,9030.512492
868.700164,-962.267725,459.657299,9326.594869
868.700494,-1184.329507,842.705048,9696.697840
868.700823,-1406.391290,1455.581446,9992.780217
868.701152,-1702.473667,1608.800546,9696.697840
868.701482,-1184.329507,1149.143247,10066.800811
868.701811,-1332.370696,919.314598,9992.780217
868.702141,-888.247130,153.219100,9770.718434
868.702470,-592.164754,-459.657299,9400.615463
868.702800,-370.102971,0.000000,8882.471304
868.703129,-814.226536,612.876398,8808.450710
868.703459,-370.102971,842.705048,9326.594869
868.703788,-444.123565,1225.752797,9770.718434
868.704118,-814.226536,1838.629195,9844.739029
868.704447,-666.185348,2451.505594,9548.656652
868.704777,-740.205942,2145.067394,9400.615463
868.705106,-740.205942,1378.971896,9474.636058
868.705436,-1554.432478,842.705048,9770.718434
868.705765,-2442.679609,536.266849,9770.718434
868.706095,-2886.803174,842.705048,9770.718434
868.706424,-2368.659014,0.000000,10066.800811
868.706754,-3034.844362,-459.657299,9992.780217
868.707083,-3330.926739,0.000000,10214.842000
868.707413,-3330.926739,306.438199,9918.759623
868.707742,-2664.741391,76.609550,9696.697840
868.708072,-1850.514855,306.438199,9622.677246
868.708401,-666.185348,766.095498,9474.636058
868.708731,74.020594,612.876398,9474.636058
868.709060,370.102971,766.095498,8882.471304
868.709390,296.082377,1455.581446,9326.594869
868.709719,74.020594,1225.752797,9400.615463
868.710049,-592.164754,1378.971896,9992.780217
868.710378,-1480.411884,1455.581446,10288.862594
868.710708,-1924.535449,1685.410096,9400.615463
868.711037,-1480.411884,1378.971896,8956.491898
868.711367,-518.144159,842.705048,8290.306550
868.711696,0.000000,306.438199,7920.203579
868.712026,0.000000,153.219100,7624.121203
868.712355,0.000000,995.924147,7994.224174
868.712685,148.041188,1608.800546,8956.491898
868.713014,74.020594,1225.752797,9474.636058
868.713343,-518.144159,1762.019645,10214.842000
868.713673,-1554.432478,919.314598,10510.924376
868.714002,-1776.494261,536.266849,10955.047942
868.714332,-2146.597232,383.047749,10807.006753
868.714661,-1850.514855,612.876398,10807.006753
868.714991,-1332.370696,-383.047749,10140.821405
868.715320,-444.123565,-536.266849,9030.512492
868.715650,-222.061783,153.219100,8882.471304
868.715979,148.041188,919.314598,9104.533087
868.716309,222.061783,1378.971896,9178.553681
868.716638,0.000000,2145.067394,9252.574275
868.716968,-740.205942,2298.286494,9104.533087
868.717297,-666.185348,1532.190996,9178.553681
868.717627,-962.267725,1378.971896,9178.553681
868.717956,-1480.411884,612.876398,9770.718434
868.718286,-2146.597232,0.000000,9992.780217
868.718615,-2590.720797,0.000000,9696.697840
868.718945,-2442.679609,689.485948,10214.842000
868.719274,-1998.556043,229.828649,10436.903782
868.719604,-1628.453072,153.219100,10140.821405
868.719933,-1480.411884,689.485948,9770.718434
868.720263,-1406.391290,1455.581446,9770.718434
868.720592,-1332.370696,1302.362347,9548.656652
868.720922,-1110.308913,1838.629195,9918.759623
868.721251,-888.247130,919.314598,9844.739029
868.721581,-592.164754,306.438199,9326.594869
868.721910,-592.164754,229.828649,9474.636058
868.722240,-444.123565,919.314598,9548.656652
868.722569,-814.226536,1149.143247,9696.697840
868.722899,-1628.453072,1149.143247,9992.780217
868.723228,-2146.597232,1762.019645,10140.821405
868.723558,-1998.556043,2298.286494,9474.636058
868.723887,-962.267725,1608.800546,8438.347739
868.724217,74.020594,1378.971896,8068.244768
868.724546,296.082377,1149.143247,7920.203579
868.724876,444.123565,842.705048,7698.141797
868.725205,74.020594,995.924147,8068.244768
868.725534,148.041188,1532.190996,9030.512492
868.725864,-148.041188,1915.238745,9696.697840
868.726193,-962.267725,1302.362347,10066.800811
868.726523,-1480.411884,1149.143247,10510.924376
868.726852,-1850.514855,536.266849,10288.862594
868.727182,-1702.473667,919.314598,10436.903782
868.727511,-962.267725,1149.143247,10658.965565
868.727841,-444.123565,612.876398,9548.656652
868.728170,0.000000,153.219100,8734.430116
868.728500,370.102971,536.266849,8364.327145
868.728829,222.061783,766.095498,8586.388927
868.729159,-148.041188,1378.971896,8882.471304
868.729488,-1110.308913,1838.629195,9696.697840
868.729818,-2220.617826,2068.457845,9918.759623
868.730147,-2220.617826,1302.362347,9844.739029
868.730477,-2442.679609,766.095498,9844.739029
868.730806,-2368.659014,459.657299,9918.759623
868.731136,-2368.659014,153.219100,10066.800811
868.731465,-2590.720797,153.219100,9992.780217
868.731795,-1998.556043,919.314598,10214.842000
868.732124,-1332.370696,229.828649,10140.821405
868.732454,-1110.308913,536.266849,10140.821405
868.732783,-1480.411884,1225.752797,9992.780217
868.733113,-1332.370696,919.314598,9696.697840
868.733442,-888.247130,766.095498,9992.780217
868.733772,-666.185348,995.924147,9696.697840
868.734101,-370.102971,0.000000,9622.677246
868.734431,222.061783,-459.657299,9178.553681
868.734760,0.000000,536.266849,9400.615463
868.735090,0.000000,1149.143247,9696.697840
868.735419,-148.041188,1378.971896,10140.821405
868.735749,-592.164754,1991.848295,10362.883188
868.736078,-962.267725,2911.162892,9696.697840
868.736408,-1036.288319,2145.067394,8808.450710
868.736737,-370.102971,1685.410096,8364.327145
868.737066,0.000000,1302.362347,7920.203579
868.737396,-444.123565,612.876398,7920.203579
868.737725,-1258.350101,689.485948,7698.141797
868.738055,-1628.453072,1532.190996,7846.182985
868.738384,-1480.411884,919.314598,8438.347739
868.738714,-1628.453072,306.438199,9474.636058
868.739043,-2368.659014,306.438199,9770.718434
868.739373,-2368.659014,842.705048,10362.883188
868.739702,-2220.617826,1149.143247,11103.089130
868.740032,-1036.288319,1225.752797,11473.192101
868.740361,-296.082377,1302.362347,11177.109724
868.740691,740.205942,306.438199,10066.800811
868.741020,1406.391290,383.047749,9326.594869
868.741350,2072.576638,306.438199,9252.574275
868.741679,1998.556043,1378.971896,9326.594869
868.742009,1110.308913,1455.581446,9474.636058
868.742338,-296.082377,1915.238745,9548.656652
868.742668,-888.247130,2145.067394,9622.677246
868.742997,-1258.350101,1532.190996,9252.574275
868.743327,-1554.432478,1455.581446,8734.430116
868.743656,-1776.494261,766.095498,9474.636058
868.743986,-2590.720797,536.266849,9696.697840
868.744315,-3256.906145,995.924147,9992.780217
868.744645,-3330.926739,995.924147,10066.800811
868.744974,-3034.844362,229.828649,9770.718434
868.745304,-3701.029710,229.828649,9992.780217
868.745633,-3923.091493,306.438199,10066.800811
868.745963,-3701.029710,-306.438199,10066.800811
868.746292,-3108.864956,-383.047749,9770.718434
868.746622,-2072.576638,76.609550,9770.718434
868.746951,-962.267725,229.828649,9548.656652
868.747281,74.020594,0.000000,9326.594869
868.747610,444.123565,919.314598,9104.533087
868.747940,888.247130,1762.019645,9178.553681
868.748269,1332.370696,2221.676944,9770.718434
868.748599,740.205942,2451.505594,9844.739029
868.748928,296.082377,2681.334243,9918.759623
868.749257,-148.041188,2374.896044,9252.574275
868.749587,-592.164754,1378.971896,8734.430116
868.749916,-666.185348,459.657299,8660.409521
868.750246,-888.247130,0.000000,8438.347739
868.750575,-1110.308913,-153.219100,8734.430116
868.750905,-1554.432478,153.219100,8586.388927
868.751234,-1110.308913,229.828649,9104.533087
868.751564,-1184.329507,383.047749,9622.677246
868.751893,-1258.350101,383.047749,9918.759623
868.752223,-2146.597232,1072.533697,10510.924376
868.752552,-1702.473667,995.924147,10584.944971
868.752882,-1554.432478,1455.581446,10732.986159
868.753211,-962.267725,1072.533697,10584.944971
868.753541,-814.226536,76.609550,9474.636058
868.753870,-444.123565,-229.828649,8808.450710
868.754200,-148.041188,-306.438199,8956.491898
868.754529,-222.061783,229.828649,9104.533087
868.754859,-666.185348,612.876398,9104.533087
868.755188,-888.247130,1225.752797,9326.594869
868.755518,-296.082377,1915.238745,9326.594869
868.755847,0.000000,1685.410096,8882.471304
868.756177,370.102971,1532.190996,9400.615463
868.756506,0.000000,1685.410096,9474.636058
868.756836,-1036.288319,1302.362347,9474.636058
868.757165,-1480.411884,1149.143247,9696.697840
868.757495,-1332.370696,919.314598,10362.883188
868.757824,-1998.556043,0.000000,10362.883188
868.758154,-2812.782580,-383.047749,10140.821405
868.758483,-3478.967927,-229.828649,10066.800811
868.758813,-3108.864956,383.047749,10140.821405
868.759142,-2960.823768,153.219100,10436.903782
868.759472,-2442.679609,766.095498,9844.739029
868.759801,-1332.370696,536.266849,9326.594869
868.760131,0.000000,229.828649,9178.553681
868.760460,592.164754,1302.362347,9030.512492
868.760790,888.247130,2374.896044,9400.615463
