#time,accel_x,accel_y,accel_z
1068.795752,-888.247130,919.314598,8956.491898
1068.796082,-888.247130,995.924147,9548.656652
1068.796411,-1110.308913,995.924147,9770.718434
1068.796741,-962.267725,612.876398,9622.677246
1068.797070,-1184.329507,842.705048,9474.636058
1068.797400,-1184.329507,842.705048,9622.677246
1068.797729,-814.226536,995.924147,9104.533087
1068.798059,-888.247130,842.705048,9622.677246
1068.798388,-1332.370696,919.314598,9548.656652
1068.798718,-1110.308913,919.314598,9770.718434
1068.799047,-1036.288319,842.705048,9622.677246
1068.799377,-1036.288319,842.705048,9326.594869
1068.799706,-1110.308913,919.314598,9696.697840
1068.800036,-888.247130,766.095498,9696.697840
1068.800365,-1036.288319,995.924147,9474.636058
1068.800695,-1184.329507,766.095498,9474.636058
1068.801024,-962.267725,766.095498,9252.574275
1068.801354,-962.267725,1302.362347,9178.553681
1068.801683,-962.267725,766.095498,9474.636058
1068.802012,-1036.288319,1072.533697,9474.636058
1068.802342,-1110.308913,842.705048,9474.636058
1068.802671,-888.247130,766.095498,9326.594869
1068.803001,-1110.308913,1149.143247,9474.636058
1068.803330,-1110.308913,919.314598,9400.615463
1068.803660,-1184.329507,919.314598,9622.677246
1068.803989,-1036.288319,842.705048,9474.636058
1068.804319,-1110.308913,1072.533697,9474.636058
1068.804648,-1036.288319,1532.190996,9326.594869
1068.804978,-1184.329507,842.705048,9400.615463
1068.805307,-1036.288319,919.314598,9548.656652
1068.805637,-888.247130,919.314598,9474.636058
1068.805966,-962.267725,1072.533697,9548.656652
1068.806296,-518.144159,1225.752797,9548.656652
1068.806625,-888.247130,612.876398,9400.615463
1068.806955,-1184.329507,919.314598,9474.636058
1068.807284,-1036.288319,766.095498,9696.697840
1068.807613,-888.247130,995.924147,9548.656652
1068.807943,-888.247130,766.095498,9622.677246
1068.808272,-740.205942,1072.533697,9474.636058
1068.808602,-1110.308913,689.485948,9622.677246
1068.808931,-1036.288319,1072.533697,9770.718434
1068.809261,-1110.308913,919.314598,9474.636058
1068.809590,-1110.308913,842.705048,9622.677246
1068.809920,-1332.370696,766.095498,9844.739029
1068.810249,-1258.350101,842.705048,9696.697840
1068.810579,-1258.350101,766.095498,9696.697840
1068.810908,-962.267725,1072.533697,9696.697840
1068.811238,-1036.288319,1072.533697,9622.677246
1068.811567,-888.247130,919.314598,9252.574275
1068.811897,-1110.308913,1302.362347,9548.656652
1068.812226,-1110.308913,995.924147,9548.656652
1068.812556,-962.267725,1149.143247,9622.677246
1068.812885,-814.226536,1072.533697,9770.718434
1068.813215,-740.205942,919.314598,9252.574275
1068.813544,-1184.329507,995.924147,9326.594869
1068.813873,-962.267725,995.924147,9474.636058
1068.814203,-814.226536,919.314598,9400.615463
1068.814532,-1110.308913,919.314598,9474.636058
1068.814862,-962.267725,766.095498,9474.636058
1068.815191,-962.267725,306.438199,9252.574275
1068.815521,-1110.308913,1072.533697,9548.656652
1068.815850,-1110.308913,995.924147,9474.636058
1068.816180,-1036.288319,689.485948,9400.615463
1068.816509,-1110.308913,766.095498,9622.677246
1068.816839,-1184.329507,1455.581446,9474.636058
1068.817168,-814.226536,612.876398,9474.636058
1068.817498,-1036.288319,842.705048,9474.636058
1068.817827,-1036.288319,842.705048,9696.697840
1068.818157,-1036.288319,842.705048,9622.677246
1068.818486,-1110.308913,1302.362347,9696.697840
1068.818816,-888.247130,995.924147,9474.636058
1068.819145,-888.247130,842.705048,9622.677246
1068.819474,-1110.308913,842.705048,9622.677246
1068.819804,-1184.329507,689.485948,9548.656652
1068.820133,-1036.288319,689.485948,9622.677246
1068.820463,-1332.370696,995.924147,9326.594869
1068.820792,-1036.288319,1072.533697,9474.636058
1068.821122,-740.205942,919.314598,9030.512492
1068.821451,0.000000,689.485948,9104.533087
1068.821781,666.185348,612.876398,9474.636058
1068.822110,1480.411884,1378.971896,9252.574275
1068.822440,666.185348,919.314598,9104.533087
1068.822769,222.061783,919.314598,9474.636058
1068.823099,-296.082377,842.705048,9992.780217
1068.823428,-888.247130,995.924147,10362.883188
1068.823758,-888.247130,995.924147,10436.903782
1068.824087,-370.102971,306.438199,9696.697840
1068.824417,0.000000,0.000000,9400.615463
1068.824746,1110.308913,-229.828649,9178.553681
1068.825076,2220.617826,153.219100,9030.512492
1068.825405,2960.823768,842.705048,8586.388927
1068.825734,3404.947333,919.314598,8734.430116
1068.826064,3775.050304,1762.019645,9104.533087
1068.826393,3775.050304,2068.457845,9548.656652
1068.826723,3404.947333,1608.800546,9918.759623
1068.827052,2664.741391,995.924147,10214.842000
1068.827382,2072.576638,1149.143247,10214.842000
1068.827711,1406.391290,306.438199,10288.862594
1068.828041,1480.411884,0.000000,10436.903782
1068.828370,1776.494261,-229.828649,9918.759623
1068.828700,2368.659014,0.000000,9400.615463
1068.829029,3256.906145,306.438199,8882.471304
1068.829359,4293.194464,689.485948,9252.574275
1068.829688,3997.112087,1838.629195,9474.636058
1068.830018,3552.988522,2451.505594,10066.800811
1068.830347,2442.679609,2987.772442,10584.944971
1068.830677,888.247130,3140.991542,10807.006753
1068.831006,-1036.288319,2374.896044,9844.739029
1068.831335,-2146.597232,1762.019645,9252.574275
1068.831665,-1776.494261,76.609550,8438.347739
1068.831994,-222.061783,-919.314598,7476.080014
1068.832324,1554.432478,-1225.752797,6661.853478
1068.832653,2516.700203,-1072.533697,6217.729913
1068.832983,3775.050304,153.219100,7031.956449
1068.833312,3997.112087,1915.238745,8512.368333
1068.833642,3034.844362,3753.867940,10214.842000
1068.833971,1776.494261,4749.792088,11991.336260
1068.834301,592.164754,3830.477490,12213.398043
1068.834630,-592.164754,2604.724693,12361.439231
1068.834960,-1184.329507,612.876398,12213.398043
1068.835289,-1480.411884,-1225.752797,11399.171507
1068.835619,-1184.329507,-2528.115143,10288.862594
1068.835948,0.000000,-2911.162892,8660.409521
1068.836278,1184.329507,-2221.676944,7698.141797
1068.836607,3034.844362,-1455.581446,7476.080014
1068.836937,4145.153275,0.000000,7031.956449
1068.837266,4737.318029,1838.629195,7179.997637
1068.837595,4367.215058,3370.820191,8216.285956
1068.837925,4219.173869,4826.401637,9474.636058
1068.838254,3552.988522,4443.353888,10658.965565
1068.838584,2664.741391,3064.381992,11473.192101
1068.838913,1554.432478,1915.238745,11769.274478
1068.839243,74.020594,459.657299,11473.192101
1068.839572,-814.226536,-689.485948,10658.965565
1068.839902,-592.164754,-1838.629195,10584.944971
1068.840231,-666.185348,-1608.800546,10732.986159
1068.840561,-222.061783,-1149.143247,10436.903782
1068.840890,666.185348,-459.657299,9770.718434
1068.841220,2220.617826,-306.438199,8512.368333
1068.841549,3627.009116,612.876398,8068.244768
1068.841879,4885.359217,1532.190996,7994.224174
1068.842208,5773.606348,1378.971896,7994.224174
1068.842538,5477.523971,1838.629195,8142.265362
1068.842867,4441.235652,1838.629195,8882.471304
1068.843196,3256.906145,2604.724693,9622.677246
1068.843526,1258.350101,2068.457845,10214.842000
1068.843855,-296.082377,1608.800546,10732.986159
1068.844185,-740.205942,842.705048,10510.924376
1068.844514,-740.205942,842.705048,10436.903782
1068.844844,148.041188,459.657299,9844.739029
1068.845173,1332.370696,-306.438199,8660.409521
1068.845503,2590.720797,-229.828649,7772.162391
1068.845832,3404.947333,-536.266849,7698.141797
1068.846162,3627.009116,536.266849,8438.347739
1068.846491,3034.844362,1455.581446,9104.533087
1068.846821,2220.617826,1685.410096,9844.739029
1068.847150,814.226536,1762.019645,10436.903782
1068.847480,666.185348,1072.533697,11325.150913
1068.847809,222.061783,306.438199,11843.295072
1068.848139,-444.123565,-153.219100,11399.171507
1068.848468,-962.267725,0.000000,10510.924376
1068.848798,-444.123565,0.000000,9770.718434
1068.849127,1332.370696,76.609550,8808.450710
1068.849456,3182.885551,536.266849,7920.203579
1068.849786,5255.462188,1762.019645,7476.080014
1068.850115,6513.812290,2757.943793,7698.141797
1068.850445,6957.935855,3140.991542,8438.347739
1068.850774,6365.771101,4903.011187,9400.615463
1068.851104,4959.379811,4903.011187,10140.821405
1068.851433,3256.906145,3140.991542,11843.295072
1068.851763,74.020594,1838.629195,13693.809927
1068.852092,-3849.070898,76.609550,13471.748144
1068.852422,-7031.956449,-842.705048,12287.418637
1068.852751,-7994.224174,-2604.724693,10881.027347
1068.853081,-6513.812290,-2374.896044,8956.491898
1068.853410,-2812.782580,-2604.724693,5625.565159
1068.853740,3182.885551,-4213.525239,2294.638420
1068.854069,8956.491898,-3524.039291,1258.350101
1068.854399,11695.253884,766.095498,3034.844362
1068.854728,10955.047942,5286.058936,6735.874072
1068.855057,8734.430116,8350.440928,9992.780217
1068.855387,5995.668130,9806.022374,12657.521608
1068.855716,2368.659014,10035.851024,14730.098246
1068.856046,-1406.391290,5745.716235,15840.407159
1068.856375,-3478.967927,153.219100,16210.510130
1068.856705,-5847.626942,-3830.477490,15396.283594
1068.857034,-7105.977043,-4673.182538,11843.295072
1068.857364,-4589.276840,-5362.668486,8956.491898
1068.857693,666.185348,-7201.297681,6217.729913
1068.858023,5847.626942,-5362.668486,3478.967927
1068.858352,10066.800811,-2757.943793,1776.494261
1068.858682,12657.521608,-689.485948,3997.112087
1068.859011,11325.150913,4596.572988,7698.141797
1068.859341,6143.709319,8886.707777,11103.089130
1068.859670,444.123565,10112.460574,14434.015869
1068.860000,-2812.782580,7890.783629,16284.530724
1068.860329,-3182.885551,3140.991542,14582.057057
1068.860659,-1554.432478,-2298.286494,11769.274478
1068.860988,-1036.288319,-6052.154434,8216.285956
1068.861317,444.123565,-7124.688131,5699.585753
1068.861647,2368.659014,-6818.249932,5847.626942
1068.861976,3182.885551,-3830.477490,7920.203579
1068.862306,2664.741391,1685.410096,7846.182985
1068.862635,1554.432478,4060.306139,8734.430116
1068.862965,2516.700203,5132.839837,10658.965565
1068.863294,3404.947333,4749.792088,12509.480420
1068.863624,3108.864956,3217.601092,13175.665768
1068.863953,1924.535449,1225.752797,12139.377449
1068.864283,0.000000,-919.314598,10732.986159
1068.864612,-2812.782580,-2221.676944,10658.965565
1068.864942,-3849.070898,-2911.162892,9252.574275
1068.865271,-1850.514855,-3983.696590,7105.977043
1068.865601,2442.679609,-3677.258390,5181.441594
1068.865930,6513.812290,-2068.457845,5033.400406
1068.866260,9622.677246,919.314598,6365.771101
1068.866589,9770.718434,2911.162892,6883.915261
1068.866918,7920.203579,5132.839837,8956.491898
1068.867248,4811.338623,8427.050478,11991.336260
1068.867578,888.247130,10035.851024,14656.077652
1068.867907,-1776.494261,5669.106685,15692.365970
1068.868237,-3108.864956,229.828649,16284.530724
1068.868567,-5107.421000,-3524.039291,14211.954086
1068.868897,-6883.915261,-4136.915689,11251.130318
1068.869226,-6217.729913,-4366.744339,9622.677246
1068.869556,-4219.173869,-4673.182538,7698.141797
1068.869886,-2294.638420,-3447.429741,4071.132681
1068.870215,1776.494261,-1378.971896,1332.370696
1068.870545,7994.224174,-229.828649,2146.597232
1068.870875,11843.295072,3600.648841,5107.421000
1068.871204,11177.109724,8044.002729,8068.244768
1068.871534,9030.512492,10265.679673,10881.027347
1068.871864,6291.750507,10418.898773,12805.562797
1068.872194,3256.906145,9116.536426,13027.624579
1068.872523,1406.391290,4519.963438,14804.118840
1068.872853,444.123565,-383.047749,15766.386565
1068.873183,-1406.391290,-919.314598,14063.912898
1068.873512,-3701.029710,-3217.601092,11325.150913
1068.873842,-5255.462188,-3753.867940,9918.759623
1068.874172,-5995.668130,-1838.629195,8290.306550
1068.874502,-4293.194464,-459.657299,5699.585753
1068.874831,666.185348,0.000000,2368.659014
1068.875161,7254.018232,0.000000,666.185348
1068.875491,11029.068536,612.876398,1480.411884
1068.875820,10732.986159,1455.581446,5255.462188
1068.876150,7105.977043,5439.278036,8586.388927
1068.876480,2960.823768,9499.584175,11177.109724
1068.876810,370.102971,8350.440928,13323.706956
1068.877139,-2368.659014,5515.887586,14730.098246
1068.877469,-4515.256246,-153.219100,15840.407159
1068.877799,-5921.647536,-4826.401637,15544.324782
1068.878128,-8142.265362,-5056.230287,13323.706956
1068.878458,-10140.821405,-5669.106685,9918.759623
1068.878788,-9696.697840,-5515.887586,9918.759623
1068.879118,-5255.462188,-3447.429741,8734.430116
1068.879447,2220.617826,-3677.258390,5551.544565
1068.879777,7550.100608,-5822.325785,4737.318029
1068.880107,7994.224174,459.657299,5477.523971
1068.880436,5847.626942,8580.269578,6957.935855
1068.880766,4737.318029,7124.688131,10807.006753
1068.881096,4219.173869,6358.592633,15100.201217
1068.881425,2368.659014,8580.269578,15026.180623
1068.881755,0.000000,2911.162892,14285.974681
1068.882085,-3256.906145,-1532.190996,15100.201217
1068.882415,-7476.080014,-1072.533697,12139.377449
1068.882744,-9400.615463,-3524.039291,8142.265362
1068.883074,-7772.162391,-8427.050478,8216.285956
1068.883404,-4885.359217,-5592.497135,8734.430116
1068.883733,-2812.782580,-1991.848295,7402.059420
1068.884063,-1554.432478,-1378.971896,5921.647536
1068.884393,-444.123565,1762.019645,4071.132681
1068.884723,2072.576638,3983.696590,5921.647536
1068.885052,4737.318029,4136.915689,10584.944971
1068.885382,4293.194464,8197.221829,12731.542202
1068.885712,1998.556043,8656.879127,12435.459826
1068.886041,-1850.514855,4903.011187,12065.356855
1068.886371,-5033.400406,3524.039291,10732.986159
1068.886701,-6143.709319,1378.971896,8364.327145
1068.887031,-3478.967927,-3294.210641,7772.162391
1068.887360,-1258.350101,-4673.182538,7254.018232
1068.887690,444.123565,-2528.115143,5403.503377
1068.888020,1702.473667,-2757.943793,3775.050304
1068.888349,2368.659014,-1762.019645,3478.967927
1068.888679,2812.782580,2298.286494,5329.482782
1068.889009,4515.256246,4979.620737,11029.068536
1068.889339,4737.318029,7660.954980,14211.954086
1068.889668,3552.988522,9269.755526,13693.809927
1068.889998,592.164754,4749.792088,13397.727550
1068.890328,-3256.906145,536.266849,14063.912898
1068.890657,-7105.977043,1302.362347,13471.748144
1068.890987,-9770.718434,919.314598,12361.439231
1068.891317,-8142.265362,-3140.991542,10214.842000
1068.891647,-3923.091493,-5362.668486,6143.709319
1068.891976,740.205942,-8197.221829,4071.132681
1068.892306,3182.885551,-7584.345430,3775.050304
1068.892636,2368.659014,-306.438199,3256.906145
1068.892965,1850.514855,6741.640382,6365.771101
1068.893295,3701.029710,7584.345430,12065.356855
1068.893625,4219.173869,8656.879127,16358.551318
1068.893954,1036.288319,8197.221829,17246.798449
1068.894284,-3627.009116,5362.668486,15840.407159
1068.894614,-7402.059420,3907.087040,13767.830521
1068.894944,-9326.594869,1608.800546,12583.501014
1068.895273,-7550.100608,-4596.572988,11547.212695
1068.895603,-4663.297435,-9039.926876,8216.285956
1068.895933,-1628.453072,-7890.783629,4441.235652
1068.896262,592.164754,-7048.078582,2664.741391
1068.896592,3330.926739,-3140.991542,2368.659014
1068.896922,5255.462188,3140.991542,4663.297435
1068.897252,7846.182985,4596.572988,8882.471304
1068.897581,8438.347739,9116.536426,11769.274478
1068.897911,4515.256246,12487.356617,13989.892304
1068.898241,-888.247130,10495.508323,13915.871710
1068.898570,-5329.482782,4443.353888,12583.501014
1068.898900,-8290.306550,-919.314598,12657.521608
1068.899230,-7550.100608,-3294.210641,11177.109724
1068.899560,-4663.297435,-6511.811733,7402.059420
1068.899889,-2590.720797,-7967.393179,2368.659014
1068.900219,-814.226536,-10112.460574,1258.350101
1068.900549,370.102971,-8044.002729,1332.370696
1068.900878,2146.597232,0.000000,4293.194464
1068.901208,4811.338623,4290.134789,9548.656652
1068.901538,4663.297435,9729.412825,13841.851115
1068.901868,1258.350101,12257.527968,16358.551318
1068.902197,-2664.741391,8810.098227,15322.262999
1068.902527,-4737.318029,3907.087040,11843.295072
1068.902857,-5403.503377,-1608.800546,12361.439231
1068.903186,-6587.832884,-2987.772442,13397.727550
1068.903516,-7105.977043,-4596.572988,11251.130318
1068.903846,-4663.297435,-9116.536426,7402.059420
1068.904176,-148.041188,-10801.946522,4959.379811
1068.904505,2812.782580,-7277.907231,2368.659014
1068.904835,5255.462188,229.828649,2886.803174
1068.905165,7772.162391,2451.505594,7994.224174
1068.905494,8586.388927,8503.660028,13915.871710
1068.905824,5329.482782,13636.499864,16950.716072
1068.906154,-666.185348,11261.603821,18135.045579
1068.906483,-6513.812290,9499.584175,16876.695478
1068.906813,-11103.089130,6052.154434,15766.386565
1068.907143,-11325.150913,76.609550,14285.974681
1068.907473,-8438.347739,-6741.640382,9992.780217
1068.907802,-4663.297435,-11414.822920,4589.276840
1068.908132,-1332.370696,-12717.185267,1924.535449
1068.908462,0.000000,-7660.954980,518.144159
1068.908791,1702.473667,0.000000,444.123565
1068.909121,4959.379811,3677.258390,3775.050304
1068.909451,6957.935855,7814.174080,9326.594869
1068.909781,6735.874072,14709.033562,13693.809927
1068.910110,2442.679609,14479.204912,17172.777854
1068.910440,-2738.761985,12104.308868,15766.386565
1068.910770,-7328.038826,7660.954980,12879.583391
1068.911099,-8142.265362,-153.219100,12657.521608
1068.911429,-5329.482782,-4903.011187,10658.965565
1068.911759,-2812.782580,-7507.735880,4737.318029
1068.912089,-444.123565,-9882.631924,1036.288319
1068.912418,2368.659014,-9729.412825,-444.123565
1068.912748,4959.379811,-4136.915689,-0.000000
1068.913078,7254.018232,306.438199,4071.132681
1068.913407,7550.100608,5515.887586,9326.594869
1068.913737,4663.297435,14632.424012,13915.871710
1068.914067,740.205942,15475.129060,15914.427753
1068.914397,-3775.050304,8273.831378,15618.345376
1068.914726,-7698.141797,3524.039291,15618.345376
1068.915056,-9844.739029,-689.485948,15692.365970
1068.915386,-8956.491898,-4826.401637,12583.501014
1068.915715,-7328.038826,-9806.022374,7698.141797
1068.916045,-4589.276840,-13713.109414,4737.318029
1068.916375,-1110.308913,-12563.966167,3478.967927
1068.916705,2442.679609,-6052.154434,1924.535449
1068.917034,5329.482782,0.000000,3404.947333
1068.917364,7476.080014,5132.839837,9252.574275
1068.917694,6513.812290,11644.651570,14804.118840
1068.918023,2368.659014,12180.918418,19541.436869
1068.918353,-2738.761985,10035.851024,21910.095883
1068.918683,-8586.388927,9729.412825,19245.354492
1068.919012,-11473.192101,5132.839837,15396.283594
1068.919342,-9104.533087,-5286.058936,12731.542202
1068.919672,-4293.194464,-12640.575717,8216.285956
1068.920002,-740.205942,-13713.109414,3108.864956
1068.920331,1924.535449,-12487.356617,444.123565
1068.920661,2590.720797,-5898.935335,-0.000000
1068.920991,3256.906145,2987.772442,2516.700203
1068.921320,5773.606348,4903.011187,7920.203579
1068.921650,7031.956449,9652.803275,12731.542202
1068.921980,3923.091493,15168.690860,16062.468941
1068.922310,-1332.370696,14709.033562,14952.160028
1068.922639,-6439.791695,9576.193725,13767.830521
1068.922969,-9474.636058,2374.896044,13841.851115
1068.923299,-8660.409521,-2451.505594,11917.315666
1068.923628,-7476.080014,-5822.325785,5921.647536
1068.923958,-4145.153275,-9576.193725,1924.535449
1068.924288,-222.061783,-11261.603821,740.205942
1068.924618,2368.659014,-7660.954980,-1110.308913
1068.924947,4071.132681,-1149.143247,592.164754
1068.925277,6069.688724,2834.553343,5847.626942
1068.925607,6069.688724,11491.432470,12583.501014
1068.925936,3627.009116,16777.491406,15544.324782
1068.926266,-2294.638420,12947.013916,16876.695478
1068.926596,-6809.894666,9576.193725,14952.160028
1068.926926,-8438.347739,3907.087040,14434.015869
1068.927255,-6957.935855,-3447.429741,14285.974681
1068.927585,-5847.626942,-6741.640382,10066.800811
1068.927915,-5255.462188,-8886.707777,5403.503377
1068.928244,-2294.638420,-13942.938064,2886.803174
1068.928574,1628.453072,-10112.460574,2368.659014
1068.928904,4515.256246,-1762.019645,3330.926739
1068.929233,6661.853478,3830.477490,7105.977043
1068.929563,7105.977043,8886.707777,12139.377449
1068.929893,4885.359217,13789.718964,16358.551318
1068.930223,-148.041188,12640.575717,19171.333898
1068.930552,-5847.626942,8810.098227,18949.272115
1068.930882,-10658.965565,7124.688131,17024.736666
1068.931212,-11917.315666,1302.362347,14804.118840
1068.931541,-7920.203579,-7814.174080,11621.233289
1068.931871,-4145.153275,-12640.575717,6513.812290
1068.932201,-1480.411884,-14172.766713,3034.844362
1068.932531,222.061783,-9039.926876,-740.205942
1068.932860,2960.823768,-2221.676944,370.102971
1068.933190,5255.462188,2451.505594,5921.647536
1068.933520,5329.482782,7354.516781,10288.862594
1068.933849,4441.235652,12947.013916,13619.789333
1068.934179,370.102971,14632.424012,17616.901420
1068.934509,-3997.112087,12563.966167,16210.510130
1068.934839,-8216.285956,7431.126331,13175.665768
1068.935168,-8068.244768,-766.095498,11399.171507
1068.935498,-4441.235652,-7890.783629,9252.574275
1068.935828,-2220.617826,-8350.440928,4663.297435
1068.936157,-222.061783,-9806.022374,1554.432478
1068.936487,2368.659014,-9652.803275,-592.164754
1068.936817,4441.235652,-3600.648841,370.102971
1068.937147,6587.832884,2451.505594,4811.338623
1068.937476,7624.121203,7201.297681,9252.574275
1068.937806,5699.585753,14555.814462,12879.583391
1068.938136,370.102971,15092.081311,14730.098246
1068.938465,-4367.215058,9269.755526,15248.242405
1068.938795,-8734.430116,3983.696590,14582.057057
1068.939125,-9844.739029,-229.828649,14211.954086
1068.939455,-8882.471304,-5362.668486,12139.377449
1068.939784,-7179.997637,-10189.070123,8068.244768
1068.940114,-4663.297435,-12180.918418,4219.173869
1068.940444,-888.247130,-12717.185267,2072.576638
1068.940773,3108.864956,-7277.907231,1480.411884
1068.941103,5329.482782,383.047749,4885.359217
1068.941433,6661.853478,6281.983084,10362.883188
1068.941762,5995.668130,11644.651570,15470.304188
1068.942092,1924.535449,12640.575717,19615.457463
1068.942422,-3923.091493,12104.308868,19319.375086
1068.942752,-8290.306550,7967.393179,17690.922014
1068.943081,-8512.368333,919.314598,16432.571912
1068.943411,-5921.647536,-4903.011187,13323.706956
1068.943741,-3182.885551,-9806.022374,8142.265362
1068.944070,148.041188,-13406.671215,3478.967927
1068.944400,2368.659014,-11414.822920,1480.411884
1068.944730,3849.070898,-4596.572988,1776.494261
1068.945060,5329.482782,1991.848295,5329.482782
1068.945389,5847.626942,6818.249932,9770.718434
1068.945719,5033.400406,13483.280765,12509.480420
1068.946049,2072.576638,14479.204912,14878.139434
1068.946378,-2442.679609,11568.042020,14878.139434
1068.946708,-6587.832884,7431.126331,13471.748144
1068.947038,-8882.471304,383.047749,13915.871710
1068.947368,-9252.574275,-2757.943793,10732.986159
1068.947697,-7994.224174,-4979.620737,5551.544565
1068.948027,-4367.215058,-10878.556072,1702.473667
1068.948357,0.000000,-11338.213370,-0.000000
1068.948686,2590.720797,-5439.278036,-2146.597232
1068.949016,5699.585753,76.609550,1628.453072
1068.949346,7105.977043,5745.716235,7402.059420
1068.949676,5107.421000,14172.766713,11843.295072
1068.950005,2294.638420,13713.109414,14952.160028
1068.950335,-2516.700203,9959.241474,15618.345376
1068.950665,-7476.080014,8886.707777,16136.489536
1068.950994,-9844.739029,2604.724693,16284.530724
1068.951324,-8438.347739,-3753.867940,13989.892304
1068.951654,-6735.874072,-7507.735880,7624.121203
1068.951984,-2664.741391,-11797.870669,2220.617826
1068.952313,592.164754,-14172.766713,1258.350101
1068.952643,3775.050304,-7737.564530,2294.638420
1068.952973,5625.565159,0.000000,4737.318029
1068.953302,6143.709319,4749.792088,8512.368333
1068.953632,4219.173869,11568.042020,11843.295072
1068.953962,2516.700203,13253.452115,16728.654289
1068.954291,-1258.350101,10725.336972,19763.498651
1068.954621,-7105.977043,8656.879127,18653.189738
1068.954951,-11325.150913,3753.867940,15470.304188
1068.955281,-10881.027347,-3447.429741,13545.768739
1068.955610,-7846.182985,-9269.755526,9992.780217
1068.955940,-3775.050304,-13100.233016,7031.956449
1068.956270,-1406.391290,-13253.452115,4515.256246
1068.956599,666.185348,-7124.688131,2442.679609
1068.956929,2886.803174,-229.828649,3552.988522
1068.957259,5551.544565,3217.601092,7920.203579
1068.957589,6587.832884,9576.193725,12435.459826
1068.957918,4737.318029,14325.985813,14952.160028
1068.958248,518.144159,13713.109414,14656.077652
1068.958578,-3627.009116,8503.660028,12953.603985
1068.958907,-6735.874072,2528.115143,14211.954086
1068.959237,-7031.956449,-2298.286494,13323.706956
1068.959567,-5773.606348,-4749.792088,8882.471304
1068.959897,-2368.659014,-8044.002729,3552.988522
1068.960226,1554.432478,-10418.898773,1036.288319
1068.960556,5033.400406,-7737.564530,-0.000000
1068.960886,6291.750507,-2374.896044,1332.370696
1068.961215,7254.018232,4673.182538,5995.668130
1068.961545,6069.688724,13483.280765,11399.171507
1068.961875,3923.091493,17390.367805,14359.995275
1068.962205,-1184.329507,13636.499864,14359.995275
1068.962534,-5625.565159,5898.935335,13915.871710
1068.962864,-9178.553681,919.314598,14211.954086
1068.963194,-10584.944971,-1838.629195,13323.706956
1068.963523,-9918.759623,-4366.744339,8956.491898
1068.963853,-6957.935855,-9422.974625,3552.988522
1068.964183,-3256.906145,-13713.109414,444.123565
1068.964513,1628.453072,-10955.165621,814.226536
1068.964842,4515.256246,-3370.820191,3478.967927
1068.965172,4737.318029,6052.154434,7031.956449
1068.965502,3775.050304,11568.042020,11991.336260
1068.965831,3404.947333,12870.404366,17172.777854
1068.966161,-370.102971,12410.747068,19615.457463
1068.966491,-4441.235652,8810.098227,16062.468941
1068.966820,-7624.121203,2987.772442,14285.974681
1068.967150,-8216.285956,-2451.505594,14730.098246
1068.967479,-7254.018232,-5592.497135,12805.562797
1068.967809,-4811.338623,-10801.946522,7328.038826
1068.968138,-962.267725,-13330.061665,3997.112087
1068.968468,1628.453072,-8810.098227,3552.988522
1068.968798,4293.194464,-2451.505594,5551.544565
1068.969127,5773.606348,2451.505594,7846.182985
1068.969457,5699.585753,8580.269578,11029.068536
1068.969786,4737.318029,13942.938064,13767.830521
1068.970116,1924.535449,14938.862211,15988.448347
1068.970445,-2294.638420,9039.926876,15840.407159
1068.970775,-8068.244768,3217.601092,13693.809927
1068.971105,-12213.398043,76.609550,11473.192101
1068.971434,-10881.027347,-4673.182538,8734.430116
1068.971764,-5255.462188,-10189.070123,5625.565159
1068.972093,-2294.638420,-13100.233016,2664.741391
1068.972423,148.041188,-11031.775171,962.267725
1068.972752,3627.009116,-4903.011187,1924.535449
1068.973082,7031.956449,2987.772442,4663.297435
1068.973412,8512.368333,10112.460574,8882.471304
1068.973741,7179.997637,13406.671215,12065.356855
1068.974071,3701.029710,16624.272307,13693.809927
1068.974400,-148.041188,12180.918418,14730.098246
1068.974730,-2294.638420,2145.067394,15840.407159
1068.975059,-6143.709319,1838.629195,13249.686362
1068.975389,-8660.409521,-1378.971896,10658.965565
1068.975719,-5551.544565,-10035.851024,7328.038826
1068.976048,-2960.823768,-11797.870669,3330.926739
1068.976378,222.061783,-10495.508323,-296.082377
1068.976707,4515.256246,-8963.317327,-74.020594
1068.977037,5847.626942,-1378.971896,6217.729913
1068.977366,4959.379811,8273.831378,12139.377449
1068.977696,2590.720797,14019.547613,14582.057057
1068.978026,-666.185348,13713.109414,15248.242405
1068.978355,-4441.235652,12640.575717,14878.139434
1068.978685,-7105.977043,3370.820191,16506.592507
1068.979014,-8364.327145,-2757.943793,16580.613101
1068.979344,-9992.780217,-1838.629195,12657.521608
1068.979673,-8734.430116,-8580.269578,7698.141797
1068.980003,-5329.482782,-13100.233016,5033.400406
1068.980332,-2220.617826,-11721.261119,3997.112087
1068.980662,2738.761985,-7201.297681,4737.318029
1068.980992,6069.688724,229.828649,6957.935855
1068.981321,6587.832884,9193.145976,9696.697840
1068.981651,6439.791695,14172.766713,12435.459826
1068.981980,4589.276840,12027.699319,15174.221811
1068.982310,-666.185348,12487.356617,15248.242405
1068.982639,-5033.400406,9499.584175,14359.995275
1068.982969,-8068.244768,2068.457845,13323.706956
1068.983299,-8808.450710,-1762.019645,11547.212695
1068.983628,-7179.997637,-8044.002729,8068.244768
1068.983958,-3627.009116,-13176.842566,4293.194464
1068.984287,-1480.411884,-11491.432470,1554.432478
1068.984617,1480.411884,-5439.278036,1184.329507
1068.984946,4589.276840,76.609550,4367.215058
1068.985276,6069.688724,5669.106685,7994.224174
1068.985606,5699.585753,13789.718964,10140.821405
1068.985935,4589.276840,15704.957709,11547.212695
1068.986265,962.267725,12334.137518,12805.562797
1068.986594,-3552.988522,7737.564530,14582.057057
1068.986924,-7476.080014,2451.505594,14211.954086
1068.987253,-9548.656652,-1378.971896,11325.150913
1068.987583,-8068.244768,-5132.839837,6143.709319
1068.987913,-3627.009116,-10342.289223,3034.844362
1068.988242,370.102971,-12410.747068,1036.288319
1068.988572,3404.947333,-9806.022374,1332.370696
1068.988901,4737.318029,-2604.724693,4737.318029
1068.989231,5995.668130,6818.249932,9844.739029
1068.989560,3849.070898,14249.376263,13101.645173
1068.989890,2368.659014,14019.547613,14211.954086
1068.990220,-1036.288319,8044.002729,16654.633695
1068.990549,-2590.720797,4443.353888,18875.251521
1068.990879,-6587.832884,2374.896044,16802.674883
1068.991208,-9400.615463,-1378.971896,11621.233289
1068.991538,-8364.327145,-7124.688131,7328.038826
1068.991867,-3849.070898,-12717.185267,4071.132681
1068.992197,1036.288319,-14479.204912,2590.720797
1068.992527,4441.235652,-10418.898773,2738.761985
1068.992856,4515.256246,-1608.800546,6513.812290
1068.993186,4441.235652,8350.440928,11177.109724
1068.993515,4219.173869,12947.013916,13989.892304
1068.993845,3775.050304,13330.061665,16506.592507
1068.994174,-518.144159,12257.527968,15470.304188
1068.994504,-4811.338623,7048.078582,14508.036463
1068.994834,-7550.100608,229.828649,15470.304188
1068.995163,-9844.739029,-3217.601092,14434.015869
1068.995493,-10955.047942,-6665.030833,10214.842000
1068.995822,-7772.162391,-12257.527968,4885.359217
1068.996152,-2146.597232,-12793.794817,1184.329507
1068.996481,3182.885551,-9806.022374,592.164754
1068.996811,6883.915261,-5056.230287,2812.782580
1068.997140,7179.997637,3600.648841,6883.915261
1068.997470,6735.874072,14249.376263,11103.089130
1068.997800,6513.812290,18386.291952,13397.727550
1068.998129,3701.029710,15628.348159,14582.057057
1068.998459,-666.185348,8733.488677,13767.830521
1068.998788,-3997.112087,2298.286494,13027.624579
1068.999118,-6587.832884,-1072.533697,11621.233289
1068.999447,-6513.812290,-3217.601092,8216.285956
1068.999777,-5033.400406,-7890.783629,3997.112087
1069.000107,-2738.761985,-12563.966167,814.226536
1069.000436,370.102971,-11338.213370,-0.000000
1069.000766,3775.050304,-5898.935335,2516.700203
1069.001095,4885.359217,4060.306139,7624.121203
1069.001425,3404.947333,11797.870669,11917.315666
1069.001754,1998.556043,15551.738609,13619.789333
1069.002084,-74.020594,13253.452115,14211.954086
1069.002414,-1924.535449,5362.668486,15988.448347
1069.002743,-4737.318029,1532.190996,16654.633695
1069.003073,-10066.800811,536.266849,13989.892304
1069.003402,-11325.150913,-2451.505594,9696.697840
1069.003732,-7994.224174,-9499.584175,5403.503377
1069.004061,-2516.700203,-14172.766713,2146.597232
1069.004391,2442.679609,-13023.623466,2442.679609
1069.004721,4811.338623,-7354.516781,5403.503377
1069.005050,4219.173869,4519.963438,9474.636058
1069.005380,3627.009116,12563.966167,11843.295072
1069.005709,4885.359217,13176.842566,14952.160028
1069.006039,3923.091493,12793.794817,17468.860231
1069.006368,-666.185348,12180.918418,17172.777854
1069.006698,-4071.132681,6971.469032,14359.995275
1069.007028,-6957.935855,-306.438199,13323.706956
1069.007357,-8734.430116,-3983.696590,12213.398043
1069.007687,-8364.327145,-9039.926876,8512.368333
1069.008016,-5625.565159,-13483.280765,4737.318029
1069.008346,-1628.453072,-10955.165621,2664.741391
1069.008675,2072.576638,-5745.716235,2368.659014
1069.009005,4811.338623,-1302.362347,4737.318029
1069.009335,6513.812290,4749.792088,7550.100608
1069.009664,5995.668130,12487.356617,11177.109724
1069.009994,4663.297435,14709.033562,14804.118840
1069.010323,-370.102971,12257.527968,16580.613101
1069.010653,-5107.421000,9116.536426,15248.242405
1069.010982,-7846.182985,3140.991542,12657.521608
1069.011312,-6809.894666,-2374.896044,8956.491898
1069.011641,-3701.029710,-6205.373534,3923.091493
1069.011971,-888.247130,-11108.384721,666.185348
1069.012301,962.267725,-13866.328514,148.041188
1069.012630,1776.494261,-7431.126331,2072.576638
1069.012960,2442.679609,1378.971896,6365.771101
1069.013289,3552.988522,7048.078582,11103.089130
1069.013619,4071.132681,13253.452115,11769.274478
1069.013948,3256.906145,13176.842566,13175.665768
1069.014278,2220.617826,5286.058936,15840.407159
1069.014608,-1998.556043,2757.943793,17172.777854
1069.014937,-7846.182985,4366.744339,14656.077652
1069.015267,-9696.697840,-76.609550,11547.212695
1069.015596,-8364.327145,-6741.640382,8068.244768
1069.015926,-3478.967927,-11338.213370,3775.050304
1069.016255,2072.576638,-14709.033562,-0.000000
1069.016585,5921.647536,-11874.480219,-740.205942
1069.016915,5847.626942,-2145.067394,5255.462188
1069.017244,3775.050304,6281.983084,12583.501014
1069.017574,592.164754,12563.966167,16876.695478
1069.017903,-296.082377,16624.272307,17616.901420
1069.018233,-2072.576638,13176.842566,17098.757260
1069.018562,-2664.741391,4443.353888,17542.880825
1069.018892,-5551.544565,-1302.362347,16654.633695
1069.019222,-8438.347739,-3447.429741,14359.995275
1069.019551,-8882.471304,-6358.592633,9178.553681
1069.019881,-6291.750507,-8503.660028,4663.297435
1069.020210,-1702.473667,-10725.336972,1998.556043
1069.020540,3775.050304,-10342.289223,1258.350101
1069.020869,7105.977043,-4290.134789,3330.926739
1069.021199,7476.080014,5439.278036,6661.853478
1069.021529,6069.688724,13789.718964,11029.068536
1069.021858,4367.215058,16547.662757,12953.603985
1069.022188,740.205942,13176.842566,15618.345376
1069.022517,-2516.700203,6894.859482,16580.613101
1069.022847,-6069.688724,4596.572988,14656.077652
1069.023176,-8586.388927,1455.581446,10732.986159
1069.023506,-7402.059420,-3294.210641,7105.977043
1069.023836,-4811.338623,-8963.317327,2886.803174
1069.024165,-1184.329507,-11491.432470,-666.185348
1069.024495,1628.453072,-10265.679673,-2442.679609
1069.024824,4589.276840,-4213.525239,1036.288319
1069.025154,3997.112087,6128.763984,7772.162391
1069.025483,2294.638420,12563.966167,12583.501014
1069.025813,1258.350101,15321.909960,12287.418637
1069.026143,-148.041188,12870.404366,13619.789333
1069.026472,-1184.329507,5362.668486,17246.798449
1069.026802,-5181.441594,2298.286494,17468.860231
1069.027131,-10732.986159,1302.362347,13693.809927
1069.027461,-10584.944971,-3600.648841,6883.915261
1069.027790,-5699.585753,-9959.241474,3034.844362
1069.028120,0.000000,-12640.575717,1480.411884
1069.028449,4293.194464,-11338.213370,1924.535449
1069.028779,5329.482782,-8120.612279,3923.091493
1069.029109,4515.256246,3600.648841,8734.430116
1069.029438,2738.761985,12257.527968,12509.480420
1069.029768,3108.864956,13483.280765,16802.674883
1069.030097,962.267725,13713.109414,18505.148550
1069.030427,-2590.720797,10189.070123,16876.695478
1069.030756,-3627.009116,2145.067394,17098.757260
1069.031086,-5995.668130,-2834.553343,16802.674883
1069.031416,-8586.388927,-2911.162892,13545.768739
1069.031745,-8808.450710,-7890.783629,7624.121203
1069.032075,-4219.173869,-12640.575717,4515.256246
1069.032404,592.164754,-10495.508323,2072.576638
1069.032734,4737.318029,-6741.640382,1850.514855
1069.033063,7105.977043,-2757.943793,4737.318029
1069.033393,6069.688724,7048.078582,8438.347739
1069.033723,3627.009116,14172.766713,13397.727550
1069.034052,1702.473667,12257.527968,17542.880825
1069.034382,-3775.050304,10955.165621,17764.942608
1069.034711,-7846.182985,8886.707777,15396.283594
1069.035041,-7994.224174,1149.143247,11843.295072
1069.035370,-5107.421000,-2451.505594,8216.285956
1069.035700,-2220.617826,-6894.859482,3478.967927
1069.036030,518.144159,-11414.822920,-444.123565
1069.036359,1406.391290,-10572.117872,-962.267725
1069.036689,2516.700203,-3830.477490,1258.350101
1069.037018,2442.679609,4443.353888,6069.688724
1069.037348,2812.782580,8580.269578,9696.697840
1069.037677,3256.906145,14172.766713,11991.336260
1069.038007,1332.370696,12257.527968,11991.336260
1069.038337,-518.144159,5439.278036,14508.036463
1069.038666,-4589.276840,3064.381992,16284.530724
1069.038996,-9326.594869,2528.115143,15766.386565
1069.039325,-10732.986159,-536.266849,11325.150913
1069.039655,-8290.306550,-5209.449386,5847.626942
1069.039984,-3552.988522,-10878.556072,1702.473667
1069.040314,2664.741391,-12180.918418,-0.000000
1069.040644,6143.709319,-9346.365076,1628.453072
1069.040973,5403.503377,306.438199,6143.709319
1069.041303,1998.556043,8044.002729,11547.212695
1069.041632,-296.082377,11797.870669,15618.345376
1069.041962,-1110.308913,15092.081311,17987.004391
1069.042291,-3627.009116,9652.803275,17987.004391
1069.042621,-5477.523971,1762.019645,18431.127956
1069.042950,-7105.977043,-383.047749,17172.777854
1069.043280,-7105.977043,-2145.067394,13841.851115
1069.043610,-4441.235652,-7737.564530,8216.285956
1069.043939,-2664.741391,-10725.336972,3997.112087
1069.044269,1036.288319,-9193.145976,1628.453072
1069.044598,5477.523971,-6665.030833,1924.535449
1069.044928,7698.141797,-2221.676944,5847.626942
1069.045257,7105.977043,8503.660028,9622.677246
1069.045587,4811.338623,13330.061665,11325.150913
1069.045917,4441.235652,10112.460574,15100.201217
1069.046246,888.247130,8273.831378,18135.045579
1069.046576,-4515.256246,6052.154434,17024.736666
1069.046905,-7772.162391,2834.553343,12879.583391
1069.047235,-7402.059420,-842.705048,10510.924376
1069.047564,-4515.256246,-4443.353888,7698.141797
1069.047894,-370.102971,-7890.783629,2146.597232
1069.048224,2590.720797,-12180.918418,-3182.885551
1069.048553,5995.668130,-6894.859482,-3330.926739
1069.048883,5921.647536,842.705048,2960.823768
1069.049212,4145.153275,7354.516781,9400.615463
1069.049542,2220.617826,13942.938064,11621.233289
1069.049871,1036.288319,13100.233016,12583.501014
1069.050201,-444.123565,8044.002729,16580.613101
1069.050531,-4367.215058,4749.792088,18209.066173
1069.050860,-8438.347739,1072.533697,16506.592507
1069.051190,-9918.759623,-1762.019645,12139.377449
1069.051519,-9030.512492,-3524.039291,8290.306550
1069.051849,-5699.585753,-6971.469032,3034.844362
1069.052178,370.102971,-11644.651570,-592.164754
1069.052508,5625.565159,-11797.870669,-222.061783
1069.052838,7105.977043,-2834.553343,4219.173869
1069.053167,4071.132681,7354.516781,8734.430116
1069.053497,2442.679609,10112.460574,12065.356855
1069.053826,1776.494261,12334.137518,14137.933492
1069.054156,-2072.576638,12180.918418,17098.757260
1069.054485,-4441.235652,7890.783629,17838.963202
1069.054815,-5921.647536,1455.581446,15766.386565
1069.055145,-7846.182985,-3217.601092,13767.830521
1069.055474,-9104.533087,-3830.477490,11769.274478
1069.055804,-8512.368333,-8886.707777,9326.594869
1069.056133,-4589.276840,-11184.994271,7105.977043
1069.056463,-1110.308913,-7737.564530,4293.194464
1069.056792,1406.391290,-3524.039291,4145.153275
1069.057122,4441.235652,1532.190996,5847.626942
1069.057451,6069.688724,5822.325785,9918.759623
1069.057781,4885.359217,10342.289223,11029.068536
1069.058111,888.247130,10572.117872,14656.077652
1069.058440,-3997.112087,7048.078582,16876.695478
1069.058770,-7624.121203,6511.811733,16728.654289
1069.059099,-9770.718434,2451.505594,13693.809927
1069.059429,-7994.224174,-3140.991542,8512.368333
1069.059758,-2516.700203,-6818.249932,3923.091493
1069.060088,2886.803174,-10342.289223,1110.308913
1069.060418,5699.585753,-9193.145976,-0.000000
1069.060747,5329.482782,-2451.505594,-0.000000
1069.061077,4959.379811,6052.154434,5107.421000
1069.061406,5329.482782,10418.898773,10955.047942
1069.061736,4737.318029,14325.985813,12139.377449
1069.062065,1776.494261,11874.480219,14656.077652
1069.062395,-740.205942,4213.525239,15988.448347
1069.062725,-5033.400406,2068.457845,15396.283594
1069.063054,-9474.636058,1455.581446,13693.809927
1069.063384,-8956.491898,-3064.381992,11843.295072
1069.063713,-6661.853478,-6971.469032,8660.409521
1069.064043,-3849.070898,-8580.269578,3182.885551
1069.064372,1184.329507,-9499.584175,-3849.070898
1069.064702,7105.977043,-7048.078582,-4367.215058
1069.065032,9548.656652,-612.876398,2812.782580
1069.065361,7994.224174,6281.983084,11621.233289
1069.065691,2220.617826,14402.595362,14952.160028
1069.066020,-2664.741391,16471.053207,13693.809927
1069.066350,-5699.585753,9499.584175,16210.510130
1069.066679,-7031.956449,2681.334243,20133.601622
1069.067009,-8216.285956,-2298.286494,20429.683999
1069.067339,-8512.368333,-6588.421283,14137.933492
1069.067668,-7772.162391,-8580.269578,6069.688724
1069.067998,-4589.276840,-8733.488677,3256.906145
1069.068327,518.144159,-11184.994271,4441.235652
1069.068657,4959.379811,-7354.516781,5477.523971
1069.068986,6291.750507,766.095498,6661.853478
1069.069316,6143.709319,8580.269578,8290.306550
1069.069645,5921.647536,11644.651570,11029.068536
1069.069974,4441.235652,11644.651570,14137.933492
1069.070304,-814.226536,7354.516781,15988.448347
1069.070633,-6217.729913,2757.943793,17690.922014
1069.070963,-9696.697840,3370.820191,16580.613101
1069.071292,-10214.842000,153.219100,13841.851115
1069.071622,-7772.162391,-6052.154434,8882.471304
1069.071951,-4663.297435,-10648.727422,3404.947333
1069.072281,1110.308913,-11874.480219,-74.020594
1069.072610,6365.771101,-7890.783629,-814.226536
1069.072940,5625.565159,689.485948,3108.864956
1069.073269,3997.112087,10035.851024,8290.306550
1069.073599,2368.659014,13406.671215,12657.521608
1069.073928,1998.556043,14709.033562,13767.830521
1069.074257,-592.164754,12640.575717,13027.624579
1069.074587,-2960.823768,3447.429741,14434.015869
1069.074916,-6587.832884,-459.657299,13767.830521
1069.075246,-9992.780217,-1302.362347,11695.253884
1069.075575,-8660.409521,-4826.401637,8142.265362
1069.075905,-4737.318029,-7890.783629,3034.844362
1069.076234,-814.226536,-9499.584175,-888.247130
1069.076564,3552.988522,-8810.098227,-1110.308913
1069.076893,6957.935855,-3524.039291,2368.659014
1069.077223,6217.729913,6588.421283,7846.182985
1069.077552,4663.297435,13406.671215,12065.356855
1069.077882,2294.638420,13942.938064,13915.871710
1069.078211,-2442.679609,11721.261119,16580.613101
1069.078540,-6143.709319,4903.011187,18949.272115
1069.078870,-8660.409521,76.609550,18801.230927
1069.079199,-9992.780217,-919.314598,15100.201217
1069.079529,-8142.265362,-4136.915689,8586.388927
1069.079858,-4367.215058,-11108.384721,3775.050304
1069.080188,370.102971,-14709.033562,1628.453072
1069.080517,4145.153275,-10342.289223,2664.741391
1069.080847,6069.688724,-2068.457845,6069.688724
1069.081176,5403.503377,8273.831378,9770.718434
1069.081506,3775.050304,12947.013916,12509.480420
1069.081835,2886.803174,13789.718964,14878.139434
1069.082165,518.144159,10801.946522,15544.324782
1069.082494,-2664.741391,3907.087040,18357.107362
1069.082823,-8142.265362,995.924147,17912.983796
1069.083153,-12361.439231,2221.676944,15322.262999
1069.083482,-10436.903782,-3983.696590,9844.739029
1069.083812,-4441.235652,-11721.261119,5699.585753
1069.084141,444.123565,-12640.575717,444.123565
1069.084471,4737.318029,-9039.926876,-2072.576638
1069.084800,7920.203579,-4596.572988,740.205942
1069.085130,7105.977043,5975.544884,6883.915261
1069.085459,4145.153275,14555.814462,11473.192101
1069.085789,3034.844362,15704.957709,13989.892304
1069.086118,814.226536,13100.233016,15174.221811
1069.086448,-2294.638420,7584.345430,15914.427753
1069.086777,-5551.544565,1302.362347,14211.954086
1069.087106,-9400.615463,-2834.553343,11103.089130
1069.087436,-8734.430116,-5286.058936,10066.800811
1069.087765,-7179.997637,-7814.174080,6143.709319
1069.088095,-4145.153275,-9193.145976,-370.102971
1069.088424,962.267725,-9806.022374,-4737.318029
1069.088754,5181.441594,-8580.269578,-814.226536
1069.089083,5995.668130,2528.115143,7846.182985
1069.089413,2886.803174,12640.575717,12213.398043
1069.089742,666.185348,15398.519510,13545.768739
1069.090072,-2072.576638,14402.595362,14434.015869
1069.090401,-4737.318029,9806.022374,15174.221811
1069.090731,-5033.400406,-1378.971896,16210.510130
1069.091060,-6735.874072,-7201.297681,14582.057057
1069.091389,-8956.491898,-3370.820191,10955.047942
1069.091719,-7402.059420,-7048.078582,7698.141797
1069.092048,-2442.679609,-12717.185267,7031.956449
1069.092378,666.185348,-10035.851024,5329.482782
1069.092707,3478.967927,-4826.401637,3849.070898
1069.093037,5847.626942,383.047749,6661.853478
1069.093366,7550.100608,9422.974625,11843.295072
1069.093696,7031.956449,15245.300410,14952.160028
1069.094025,3034.844362,10112.460574,17246.798449
1069.094355,-2368.659014,6511.811733,18579.169144
1069.094684,-6809.894666,6741.640382,17542.880825
1069.095014,-8438.347739,1685.410096,14656.077652
1069.095343,-8216.285956,-3217.601092,10214.842000
1069.095672,-6069.688724,-8350.440928,4959.379811
1069.096002,-1184.329507,-12487.356617,1036.288319
1069.096331,3552.988522,-13100.233016,-0.000000
1069.096661,4811.338623,-4596.572988,1332.370696
1069.096990,3627.009116,5439.278036,6291.750507
1069.097320,2220.617826,10035.851024,11547.212695
1069.097649,2146.597232,16164.615008,13323.706956
1069.097979,1258.350101,15858.176809,13175.665768
1069.098308,518.144159,7124.688131,14804.118840
1069.098638,-2590.720797,2604.724693,14656.077652
1069.098967,-7846.182985,1685.410096,12583.501014
1069.099297,-8512.368333,-2451.505594,8734.430116
1069.099626,-6143.709319,-6971.469032,6365.771101
1069.099955,-3849.070898,-8963.317327,888.247130
1069.100285,518.144159,-9039.926876,-2368.659014
1069.100614,6069.688724,-9039.926876,-1406.391290
1069.100944,8364.327145,306.438199,4515.256246
1069.101273,6513.812290,9499.584175,8882.471304
1069.101603,2960.823768,12563.966167,12583.501014
1069.101932,-370.102971,15858.176809,13767.830521
1069.102262,-4367.215058,12257.527968,16876.695478
1069.102591,-6291.750507,3370.820191,20355.663405
1069.102921,-8290.306550,-1608.800546,17764.942608
1069.103250,-10658.965565,-2681.334243,11251.130318
1069.103580,-8142.265362,-8197.221829,4885.359217
1069.103909,-3849.070898,-14709.033562,3182.885551
1069.104238,-222.061783,-13023.623466,3627.009116
1069.104568,2590.720797,-8120.612279,4219.173869
1069.104897,3108.864956,-1302.362347,6587.832884
1069.105227,3627.009116,8427.050478,10732.986159
1069.105556,4737.318029,13406.671215,15100.201217
1069.105886,4589.276840,11951.089769,18357.107362
1069.106215,-222.061783,11951.089769,15988.448347
1069.106545,-4663.297435,4903.011187,16580.613101
1069.106874,-6513.812290,-1302.362347,17838.963202
1069.107204,-9622.677246,-1378.971896,15766.386565
1069.107533,-10362.883188,-5898.935335,9474.636058
1069.107863,-5847.626942,-11568.042020,3849.070898
1069.108192,222.061783,-12410.747068,-0.000000
1069.108521,5477.523971,-8120.612279,-1702.473667
1069.108851,7105.977043,-4366.744339,1110.308913
1069.109180,6069.688724,4213.525239,7698.141797
1069.109510,3997.112087,16164.615008,13915.871710
1069.109839,2886.803174,17313.758255,15248.242405
1069.110169,296.082377,12257.527968,16432.571912
1069.110498,-3775.050304,7890.783629,15026.180623
1069.110828,-5773.606348,1225.752797,14211.954086
1069.111157,-5921.647536,-1608.800546,11399.171507
1069.111487,-5033.400406,-2451.505594,7624.121203
1069.111816,-4959.379811,-6741.640382,1184.329507
1069.112146,-3108.864956,-11568.042020,-4515.256246
1069.112475,2664.741391,-11644.651570,-3478.967927
1069.112804,6809.894666,-4060.306139,2516.700203
1069.113134,4515.256246,6435.202183,9326.594869
1069.113463,962.267725,14019.547613,11843.295072
1069.113793,0.000000,15015.471761,12287.418637
1069.114122,-1184.329507,7660.954980,16432.571912
1069.114452,-3849.070898,4979.620737,19541.436869
1069.114781,-8438.347739,3524.039291,17246.798449
1069.115111,-9252.574275,-842.705048,13101.645173
1069.115440,-7254.018232,-3600.648841,7328.038826
1069.115770,-4293.194464,-8963.317327,2294.638420
1069.116099,1036.288319,-14325.985813,370.102971
1069.116429,5181.441594,-12257.527968,1776.494261
1069.116758,6735.874072,-1608.800546,6513.812290
1069.117087,5921.647536,7814.174080,11917.315666
1069.117417,3182.885551,11568.042020,14211.954086
1069.117746,2442.679609,14019.547613,14952.160028
1069.118076,148.041188,12410.747068,15174.221811
1069.118405,-1998.556043,4903.011187,19245.354492
1069.118735,-4737.318029,-153.219100,20133.601622
1069.119064,-9844.739029,383.047749,16432.571912
1069.119394,-12065.356855,-4749.792088,10214.842000
1069.119723,-8586.388927,-11414.822920,5255.462188
1069.120053,-2886.803174,-12870.404366,2220.617826
1069.120382,3256.906145,-10265.679673,-814.226536
1069.120712,5847.626942,-6971.469032,-518.144159
1069.121041,6217.729913,2451.505594,4885.359217
1069.121370,4589.276840,12563.966167,11843.295072
1069.121700,3552.988522,15245.300410,15174.221811
1069.122029,740.205942,13713.109414,16210.510130
1069.122359,-3034.844362,11568.042020,16580.613101
1069.122688,-4219.173869,4519.963438,14952.160028
1069.123018,-4737.318029,-1685.410096,11547.212695
1069.123347,-4885.359217,-3907.087040,8660.409521
1069.123677,-4219.173869,-7201.297681,4589.276840
1069.124006,-2072.576638,-9576.193725,-1036.288319
1069.124336,1110.308913,-10265.679673,-3923.091493
1069.124665,5181.441594,-5515.887586,-518.144159
1069.124995,5477.523971,1838.629195,6957.935855
1069.125324,3478.967927,9422.974625,11473.192101
1069.125653,1036.288319,15015.471761,11029.068536
1069.125983,-962.267725,12104.308868,14952.160028
1069.126312,-3404.947333,7354.516781,19023.292709
1069.126642,-7994.224174,4443.353888,18949.272115
1069.126971,-10362.883188,153.219100,14434.015869
1069.127301,-8808.450710,-2834.553343,8956.491898
1069.127630,-5329.482782,-7584.345430,3478.967927
1069.127960,-888.247130,-12257.527968,-0.000000
1069.128289,2590.720797,-13713.109414,-0.000000
1069.128619,5181.441594,-7048.078582,3701.029710
1069.128948,4293.194464,4519.963438,8512.368333
1069.129278,2664.741391,9806.022374,12879.583391
1069.129607,3478.967927,13406.671215,15840.407159
1069.129936,1998.556043,13942.938064,16580.613101
1069.130266,-296.082377,7584.345430,19097.313304
1069.130595,-2368.659014,383.047749,21688.034101
1069.130925,-6661.853478,536.266849,18727.210333
1069.131254,-10658.965565,0.000000,12583.501014
1069.131584,-8808.450710,-7354.516781,7550.100608
1069.131913,-3330.926739,-10801.946522,3627.009116
1069.132243,2960.823768,-10189.070123,-888.247130
1069.132572,6883.915261,-8733.488677,-2812.782580
1069.132902,7846.182985,-2298.286494,2368.659014
1069.133231,6069.688724,9806.022374,9770.718434
1069.133561,2368.659014,14019.547613,13397.727550
1069.133890,740.205942,12180.918418,16654.633695
1069.134219,-3552.988522,12104.308868,18801.230927
1069.134549,-4885.359217,8273.831378,16802.674883
1069.134878,-5699.585753,919.314598,13027.624579
1069.135208,-5403.503377,-2221.676944,7994.224174
1069.135537,-3849.070898,-5132.839837,5551.544565
1069.135867,-1924.535449,-10418.898773,1702.473667
1069.136196,0.000000,-10495.508323,-1110.308913
1069.136526,2664.741391,-4290.134789,-2368.659014
1069.136855,5181.441594,612.876398,2960.823768
1069.137185,6661.853478,5822.325785,9548.656652
1069.137514,5329.482782,10801.946522,10807.006753
1069.137844,2220.617826,10342.289223,12361.439231
1069.138173,-1850.514855,8580.269578,16062.468941
1069.138503,-6365.771101,7660.954980,19245.354492
1069.138832,-8512.368333,1838.629195,18431.127956
1069.139161,-9252.574275,-2834.553343,12879.583391
1069.139491,-8808.450710,-4596.572988,6957.935855
1069.139820,-4885.359217,-11031.775171,1554.432478
1069.140150,888.247130,-13176.842566,-0.000000
1069.140479,4145.153275,-9193.145976,1924.535449
1069.140809,4737.318029,-1762.019645,7105.977043
1069.141138,2368.659014,5056.230287,11399.171507
1069.141468,370.102971,12487.356617,14063.912898
1069.141797,370.102971,13942.938064,15618.345376
1069.142127,-2664.741391,11568.042020,16876.695478
1069.142456,-3552.988522,7737.564530,17172.777854
1069.142786,-3775.050304,-1991.848295,17838.963202
1069.143115,-5477.523971,-4749.792088,14434.015869
1069.143444,-9622.677246,-1991.848295,8216.285956
1069.143774,-8438.347739,-9269.755526,5403.503377
1069.144103,-2294.638420,-12410.747068,5403.503377
1069.144433,2442.679609,-5975.544884,3256.906145
1069.144762,5921.647536,-1915.238745,2812.782580
1069.145092,8290.306550,919.314598,4737.318029
1069.145421,6365.771101,7737.564530,9918.759623
1069.145751,2960.823768,12640.575717,15766.386565
1069.146080,-1554.432478,10955.165621,18653.189738
1069.146410,-5107.421000,10955.165621,16580.613101
1069.146739,-5847.626942,6818.249932,13249.686362
1069.147069,-4367.215058,-1915.238745,10732.986159
1069.147398,-3330.926739,-4443.353888,7105.977043
1069.147727,-740.205942,-8197.221829,1036.288319
1069.148057,2442.679609,-10572.117872,-3256.906145
1069.148386,4515.256246,-5592.497135,-1776.494261
1069.148716,4589.276840,842.705048,4219.173869
1069.149045,3256.906145,5669.106685,9548.656652
1069.149375,1480.411884,10878.556072,10140.821405
1069.149704,1332.370696,13713.109414,11103.089130
1069.150034,518.144159,7277.907231,16432.571912
1069.150363,-3034.844362,4366.744339,18801.230927
1069.150693,-8438.347739,1838.629195,17172.777854
1069.151022,-10658.965565,-2221.676944,13027.624579
1069.151352,-9178.553681,-1685.410096,9030.512492
1069.151681,-5107.421000,-6281.983084,5625.565159
1069.152010,0.000000,-12257.527968,-814.226536
1069.152340,5033.400406,-10725.336972,-2664.741391
1069.152669,8734.430116,-4596.572988,2294.638420
1069.152999,8734.430116,4749.792088,9474.636058
1069.153328,3849.070898,11414.822920,13323.706956
1069.153658,-370.102971,15168.690860,13767.830521
1069.153987,-3182.885551,13330.061665,15544.324782
1069.154317,-3849.070898,6665.030833,20059.581028
1069.154646,-4367.215058,459.657299,21465.972318
1069.154976,-7624.121203,-3907.087040,16950.716072
1069.155305,-10510.924376,-3064.381992,8512.368333
1069.155635,-8808.450710,-6971.469032,2590.720797
1069.155964,-2442.679609,-12947.013916,2664.741391
1069.156293,2960.823768,-9806.022374,3404.947333
1069.156623,4663.297435,-4136.915689,4441.235652
1069.156952,4219.173869,2757.943793,6735.874072
1069.157282,3182.885551,11261.603821,9326.594869
1069.157611,3627.009116,12487.356617,11621.233289
1069.157941,2294.638420,6435.202183,16728.654289
1069.158270,-3478.967927,7660.954980,18283.086767
1069.158600,-8956.491898,8273.831378,14582.057057
1069.158929,-8586.388927,766.095498,11473.192101
1069.159259,-7105.977043,-5362.668486,9474.636058
1069.159588,-4663.297435,-7124.688131,5551.544565
1069.159918,-1480.411884,-11491.432470,814.226536
1069.160247,3256.906145,-10418.898773,-2146.597232
1069.160576,5921.647536,-1302.362347,-0.000000
1069.160906,6069.688724,3524.039291,5551.544565
1069.161235,5181.441594,7124.688131,10732.986159
1069.161565,3775.050304,14555.814462,12065.356855
1069.161894,2886.803174,12410.747068,16210.510130
1069.162224,666.185348,5745.716235,17690.922014
1069.162553,-5773.606348,4519.963438,15840.407159
1069.162883,-10362.883188,-383.047749,13915.871710
1069.163212,-9178.553681,-4903.011187,11399.171507
1069.163542,-5921.647536,-5822.325785,9474.636058
1069.163871,-1776.494261,-8427.050478,2368.659014
1069.164201,2072.576638,-10801.946522,-3404.947333
1069.164530,5329.482782,-8503.660028,-1702.473667
1069.164859,7920.203579,306.438199,6661.853478
1069.165189,5773.606348,8580.269578,12287.418637
1069.165518,1998.556043,15551.738609,13471.748144
1069.165848,-1924.535449,15475.129060,12583.501014
1069.166177,-2960.823768,6281.983084,17838.963202
1069.166507,-3923.091493,1685.410096,21762.054695
1069.166836,-6735.874072,-1762.019645,18949.272115
1069.167166,-9992.780217,-2987.772442,10510.924376
1069.167495,-9474.636058,-4673.182538,3701.029710
1069.167825,-3108.864956,-10418.898773,4293.194464
1069.168155,2960.823768,-12257.527968,5477.523971
1069.168484,5699.585753,-5898.935335,4515.256246
1069.168814,5625.565159,2451.505594,4293.194464
1069.169143,5625.565159,9346.365076,8142.265362
1069.169473,5477.523971,12793.794817,11177.109724
1069.169803,4441.235652,10878.556072,15174.221811
1069.170132,-444.123565,5745.716235,18283.086767
1069.170462,-5773.606348,6281.983084,17838.963202
1069.170791,-9474.636058,6052.154434,14211.954086
1069.171121,-10066.800811,-2681.334243,11695.253884
1069.171451,-7624.121203,-8044.002729,7105.977043
1069.171780,-4885.359217,-9576.193725,1406.391290
1069.172110,1480.411884,-11644.651570,-1110.308913
1069.172439,5699.585753,-7201.297681,-296.082377
1069.172769,4145.153275,2757.943793,3923.091493
1069.173099,2072.576638,7814.174080,9252.574275
1069.173428,3034.844362,12104.308868,12065.356855
1069.173758,3034.844362,16317.834107,11695.253884
1069.174087,2072.576638,11491.432470,13619.789333
1069.174417,-1554.432478,689.485948,16506.592507
1069.174747,-7254.018232,-459.657299,15100.201217
1069.175076,-10955.047942,-459.657299,12139.377449
1069.175406,-8956.491898,-5592.497135,9548.656652
1069.175736,-5477.523971,-6358.592633,4145.153275
1069.176065,-1702.473667,-8120.612279,-0.000000
1069.176395,4589.276840,-11951.089769,-74.020594
1069.176724,7105.977043,-3983.696590,4293.194464
1069.177054,4737.318029,8350.440928,9474.636058
1069.177384,2294.638420,13176.842566,12361.439231
1069.177713,888.247130,13100.233016,15322.262999
1069.178043,-2590.720797,9959.241474,17987.004391
1069.178372,-4737.318029,3830.477490,18949.272115
1069.178702,-6883.915261,-1378.971896,15914.427753
1069.179032,-8438.347739,-1532.190996,11399.171507
1069.179361,-7328.038826,-4366.744339,5773.606348
1069.179691,-3182.885551,-10955.165621,2664.741391
1069.180020,1850.514855,-13330.061665,3701.029710
1069.180350,4441.235652,-8350.440928,4293.194464
1069.180680,3552.988522,766.095498,6439.791695
1069.181009,3108.864956,8580.269578,9844.739029
1069.181339,5255.462188,12180.918418,12583.501014
1069.181669,5551.544565,10189.070123,17024.736666
1069.181998,2220.617826,7354.516781,18357.107362
1069.182328,-3701.029710,5898.935335,15100.201217
1069.182657,-7105.977043,2451.505594,12509.480420
1069.182987,-7920.203579,-2145.067394,12361.439231
1069.183317,-8216.285956,-5515.887586,12139.377449
1069.183646,-6661.853478,-8733.488677,5107.421000
1069.183976,-2146.597232,-10495.508323,-1776.494261
1069.184305,4959.379811,-8886.707777,-2886.803174
1069.184635,8586.388927,-2145.067394,2368.659014
1069.184965,7254.018232,4443.353888,7920.203579
1069.185294,5033.400406,11414.822920,10658.965565
1069.185624,3701.029710,16394.443657,11621.233289
1069.185953,1702.473667,12793.794817,15248.242405
1069.186283,-1258.350101,7277.907231,17542.880825
1069.186613,-4885.359217,1762.019645,15692.365970
1069.186942,-7105.977043,-3677.258390,11473.192101
1069.187272,-6291.750507,-4673.182538,8364.327145
1069.187601,-4515.256246,-6741.640382,7254.018232
1069.187931,-3330.926739,-10572.117872,2738.761985
1069.188261,-962.267725,-9576.193725,-518.144159
1069.188590,4219.173869,-4290.134789,1776.494261
1069.188920,8660.409521,3983.696590,7624.121203
1069.189250,7698.141797,8963.317327,10955.047942
1069.189579,3701.029710,13713.109414,11473.192101
1069.189909,-592.164754,11414.822920,14508.036463
1069.190238,-3997.112087,6281.983084,18357.107362
1069.190568,-7402.059420,5209.449386,19615.457463
1069.190898,-9918.759623,-459.657299,16654.633695
1069.191227,-11325.150913,-4749.792088,9326.594869
1069.191557,-9770.718434,-9193.145976,2812.782580
1069.191886,-2886.803174,-14555.814462,1850.514855
1069.192216,2072.576638,-13100.233016,3182.885551
1069.192546,2960.823768,-3753.867940,5847.626942
1069.192875,1554.432478,5209.449386,9104.533087
1069.193205,2664.741391,9499.584175,12361.439231
1069.193534,4737.318029,13176.842566,13915.871710
1069.193864,4589.276840,14402.595362,13027.624579
1069.194194,2146.597232,7277.907231,13841.851115
1069.194523,-1998.556043,1072.533697,15840.407159
1069.194853,-8364.327145,1532.190996,15766.386565
1069.195182,-12731.542202,-842.705048,13175.665768
1069.195512,-11917.315666,-6665.030833,8290.306550
1069.195842,-8882.471304,-11338.213370,3182.885551
1069.196171,-2738.761985,-11874.480219,444.123565
1069.196501,2590.720797,-9652.803275,592.164754
1069.196831,4737.318029,-2221.676944,4071.132681
1069.197160,4219.173869,8963.317327,8586.388927
1069.197490,2146.597232,14249.376263,12139.377449
1069.197819,2886.803174,16317.834107,13693.809927
1069.198149,888.247130,14709.033562,11769.274478
1069.198479,-740.205942,5822.325785,11769.274478
1069.198808,-4293.194464,-1532.190996,12287.418637
1069.199138,-9770.718434,-2451.505594,12065.356855
1069.199467,-11843.295072,-4290.134789,10955.047942
1069.199797,-11547.212695,-8656.879127,7624.121203
1069.200127,-9770.718434,-9193.145976,3997.112087
1069.200456,-5255.462188,-8197.221829,1924.535449
1069.200786,222.061783,-6894.859482,4441.235652
1069.201115,3923.091493,1762.019645,7920.203579
1069.201445,3330.926739,11414.822920,10436.903782
1069.201775,2442.679609,14096.157163,12139.377449
1069.202104,962.267725,13100.233016,13323.706956
1069.202434,-1406.391290,9269.755526,14137.933492
1069.202764,-4885.359217,2604.724693,13841.851115
1069.203093,-8068.244768,-536.266849,10732.986159
1069.203423,-10584.944971,-2528.115143,8142.265362
1069.203752,-9252.574275,-9499.584175,7698.141797
1069.204082,-7105.977043,-12487.356617,7476.080014
1069.204412,-5255.462188,-8656.879127,6661.853478
1069.204741,-2664.741391,-5515.887586,5403.503377
1069.205071,-1110.308913,-689.485948,8290.306550
1069.205400,148.041188,8656.879127,12583.501014
1069.205730,2516.700203,13023.623466,15618.345376
1069.206060,2812.782580,10648.727422,15396.283594
1069.206389,0.000000,11031.775171,11917.315666
1069.206719,-3627.009116,6588.421283,11103.089130
1069.207048,-6661.853478,-2451.505594,12509.480420
1069.207378,-12361.439231,-3524.039291,12435.459826
1069.207708,-16654.633695,-4443.353888,9474.636058
1069.208037,-13397.727550,-8350.440928,5477.523971
1069.208367,-7254.018232,-11491.432470,3404.947333
1069.208696,-2072.576638,-8733.488677,3627.009116
1069.209026,1850.514855,-4290.134789,4145.153275
1069.209356,3923.091493,2221.676944,5255.462188
1069.209685,3923.091493,11108.384721,9770.718434
1069.210015,3404.947333,16011.395908,14063.912898
1069.210345,666.185348,15168.690860,15026.180623
1069.210674,-2146.597232,11874.480219,13841.851115
1069.211004,-3849.070898,5669.106685,11695.253884
1069.211333,-5329.482782,76.609550,8660.409521
1069.211663,-7105.977043,-4979.620737,6883.915261
1069.211993,-8956.491898,-10112.460574,7402.059420
1069.212322,-11547.212695,-10418.898773,8660.409521
1069.212652,-11843.295072,-5286.058936,7550.100608
1069.212981,-8068.244768,-2068.457845,6439.791695
1069.213311,-3256.906145,-229.828649,6957.935855
1069.213641,-296.082377,2604.724693,7920.203579
1069.213970,1036.288319,7048.078582,9178.553681
1069.214300,1850.514855,8886.707777,10584.944971
1069.214629,444.123565,9116.536426,12287.418637
1069.214959,-3849.070898,7660.954980,13175.665768
1069.215289,-8586.388927,4060.306139,11843.295072
1069.215618,-9918.759623,-612.876398,9918.759623
1069.215948,-8438.347739,-5822.325785,10140.821405
1069.216278,-7698.141797,-6281.983084,8882.471304
1069.216607,-6513.812290,-5286.058936,7624.121203
1069.216937,-4145.153275,-5286.058936,6439.791695
1069.217266,-1406.391290,-2221.676944,7624.121203
1069.217596,296.082377,1685.410096,9474.636058
1069.217926,0.000000,6435.202183,11843.295072
1069.218255,-1406.391290,8656.879127,12805.562797
1069.218585,-4293.194464,8044.002729,13175.665768
1069.218914,-6291.750507,5745.716235,13175.665768
1069.219244,-6439.791695,2604.724693,12213.398043
1069.219574,-6217.729913,-1225.752797,9548.656652
1069.219903,-6217.729913,-5975.544884,6365.771101
1069.220233,-5181.441594,-8197.221829,4737.318029
1069.220562,-3552.988522,-5898.935335,6069.688724
1069.220892,-1850.514855,-2681.334243,7328.038826
1069.221222,-1998.556043,383.047749,8586.388927
1069.221551,-3997.112087,4136.915689,10066.800811
1069.221881,-4515.256246,7507.735880,11325.150913
1069.222210,-3330.926739,8044.002729,12583.501014
1069.222540,-3034.844362,5669.106685,12065.356855
1069.222870,-3182.885551,2911.162892,10362.883188
1069.223199,-3330.926739,-612.876398,8660.409521
1069.223529,-2590.720797,-2834.553343,7846.182985
1069.223859,-2368.659014,-3907.087040,7772.162391
1069.224188,-2590.720797,-2681.334243,8142.265362
1069.224518,-2516.700203,-1302.362347,8068.244768
1069.224847,-2812.782580,0.000000,8956.491898
1069.225177,-3997.112087,2298.286494,10362.883188
1069.225507,-4959.379811,4519.963438,11473.192101
1069.225836,-5107.421000,5132.839837,10955.047942
1069.226166,-5551.544565,4443.353888,10955.047942
1069.226495,-5107.421000,2757.943793,9992.780217
1069.226825,-3552.988522,0.000000,8586.388927
1069.227155,-2146.597232,-2221.676944,6661.853478
1069.227484,-1924.535449,-2451.505594,5847.626942
1069.227814,-1628.453072,-1225.752797,6439.791695
1069.228143,-1036.288319,-153.219100,7920.203579
1069.228473,-1702.473667,1608.800546,9548.656652
1069.228803,-4145.153275,3677.258390,11399.171507
1069.229132,-6661.853478,4826.401637,12583.501014
1069.229462,-8438.347739,5439.278036,13027.624579
1069.229791,-8438.347739,3907.087040,13619.789333
1069.230121,-8216.285956,1685.410096,12361.439231
1069.230451,-7105.977043,-383.047749,9474.636058
1069.230780,-4441.235652,-3140.991542,6883.915261
1069.231110,-1406.391290,-4290.134789,5921.647536
1069.231440,-296.082377,-2374.896044,5921.647536
1069.231769,888.247130,306.438199,6587.832884
1069.232099,888.247130,2221.676944,7624.121203
1069.232428,-296.082377,4290.134789,10066.800811
1069.232758,-2368.659014,6358.592633,11843.295072
1069.233088,-4293.194464,6894.859482,12287.418637
1069.233417,-6587.832884,3983.696590,12435.459826
1069.233747,-8660.409521,1225.752797,12361.439231
1069.234076,-9622.677246,-842.705048,12139.377449
1069.234406,-9400.615463,-2681.334243,10510.924376
1069.234736,-7994.224174,-3907.087040,8216.285956
1069.235065,-4959.379811,-4826.401637,6069.688724
1069.235395,-1998.556043,-3217.601092,5181.441594
1069.235724,444.123565,-689.485948,5699.585753
1069.236054,962.267725,2374.896044,6883.915261
1069.236384,-148.041188,5056.230287,8290.306550
1069.236713,-2220.617826,7967.393179,10140.821405
1069.237043,-4219.173869,7354.516781,11991.336260
1069.237373,-6809.894666,4519.963438,12805.562797
1069.237702,-8660.409521,1455.581446,12139.377449
1069.238032,-9622.677246,-1991.848295,10732.986159
1069.238361,-9252.574275,-5132.839837,9992.780217
1069.238691,-7254.018232,-6052.154434,9104.533087
1069.239021,-5181.441594,-4826.401637,8216.285956
1069.239350,-2368.659014,-2528.115143,6735.874072
1069.239680,592.164754,-536.266849,6513.812290
1069.240009,2812.782580,2221.676944,8586.388927
1069.240339,2368.659014,5515.887586,10362.883188
1069.240669,666.185348,7584.345430,11177.109724
1069.240998,-1924.535449,6128.763984,12435.459826
1069.241328,-4811.338623,3140.991542,14878.139434
1069.241657,-7994.224174,1378.971896,15322.262999
1069.241987,-9696.697840,459.657299,12583.501014
1069.242317,-9622.677246,-3217.601092,8734.430116
1069.242646,-6365.771101,-5669.106685,5773.606348
1069.242976,-2220.617826,-5898.935335,4663.297435
1069.243305,740.205942,-3217.601092,4885.359217
1069.243635,666.185348,76.609550,5329.482782
1069.243965,-370.102971,5515.887586,7254.018232
1069.244294,-1924.535449,9269.755526,9474.636058
1069.244624,-2664.741391,9652.803275,11695.253884
1069.244954,-4219.173869,7967.393179,13249.686362
1069.245283,-5773.606348,3983.696590,13397.727550
1069.245613,-6809.894666,612.876398,12879.583391
1069.245942,-7624.121203,-919.314598,11991.336260
1069.246272,-8290.306550,-2145.067394,10214.842000
1069.246602,-7105.977043,-3753.867940,7994.224174
1069.246931,-4515.256246,-1991.848295,6439.791695
1069.247261,-666.185348,306.438199,5551.544565
1069.247590,2072.576638,1838.629195,5773.606348
1069.247920,2590.720797,4596.572988,6957.935855
1069.248250,1184.329507,7277.907231,8586.388927
1069.248579,-666.185348,7737.564530,10214.842000
1069.248909,-2146.597232,7584.345430,11917.315666
1069.249238,-4441.235652,5745.716235,12139.377449
1069.249568,-5255.462188,2604.724693,11399.171507
1069.249898,-4959.379811,-153.219100,10066.800811
1069.250227,-4367.215058,-2298.286494,8882.471304
1069.250557,-3404.947333,-2451.505594,7846.182985
1069.250886,-2664.741391,-306.438199,7624.121203
1069.251216,-2590.720797,2221.676944,8216.285956
1069.251546,-2368.659014,3370.820191,9030.512492
1069.251875,-1924.535449,5286.058936,9992.780217
1069.252205,-1776.494261,7507.735880,11103.089130
1069.252535,-1628.453072,7201.297681,11029.068536
1069.252864,-2368.659014,5056.230287,11251.130318
1069.253194,-2146.597232,3294.210641,10955.047942
1069.253523,-1258.350101,1915.238745,9992.780217
1069.253853,-1036.288319,1685.410096,9030.512492
1069.254183,-1184.329507,1149.143247,8512.368333
1069.254512,-518.144159,1915.238745,9030.512492
1069.254842,74.020594,3447.429741,10140.821405
1069.255171,-444.123565,6128.763984,10658.965565
1069.255501,-1628.453072,7660.954980,10658.965565
1069.255831,-2072.576638,7354.516781,9770.718434
1069.256160,-2812.782580,7124.688131,9474.636058
1069.256490,-3034.844362,5515.887586,8808.450710
1069.256819,-2738.761985,3064.381992,7402.059420
1069.257149,-1850.514855,1455.581446,6069.688724
1069.257479,-962.267725,0.000000,5403.503377
1069.257808,-888.247130,-153.219100,6957.935855
1069.258138,-1924.535449,1225.752797,7846.182985
1069.258468,-2368.659014,3524.039291,8586.388927
1069.258797,-2812.782580,5669.106685,10066.800811
1069.259127,-2294.638420,7584.345430,11177.109724
1069.259456,-1776.494261,7277.907231,10955.047942
1069.259786,-296.082377,6205.373534,10510.924376
1069.260116,148.041188,4596.572988,10066.800811
1069.260445,-74.020594,4366.744339,9844.739029
1069.260775,-296.082377,3753.867940,9252.574275
1069.261104,-296.082377,2681.334243,8734.430116
1069.261434,-222.061783,2145.067394,8512.368333
1069.261764,444.123565,2298.286494,8882.471304
1069.262093,1036.288319,1991.848295,9326.594869
1069.262423,74.020594,2451.505594,9992.780217
1069.262752,-1258.350101,3907.087040,11177.109724
1069.263082,-2516.700203,5669.106685,11769.274478
1069.263412,-2442.679609,6205.373534,12065.356855
1069.263741,-1924.535449,5592.497135,11843.295072
1069.264071,-1554.432478,4596.572988,10658.965565
1069.264400,-740.205942,4136.915689,9400.615463
1069.264730,0.000000,3677.258390,8882.471304
1069.265060,0.000000,4136.915689,9030.512492
1069.265389,0.000000,4443.353888,8512.368333
1069.265719,74.020594,4596.572988,7476.080014
1069.266049,74.020594,3064.381992,6957.935855
1069.266378,0.000000,2528.115143,6883.915261
1069.266708,-962.267725,2068.457845,8290.306550
1069.267037,-2368.659014,2757.943793,9400.615463
1069.267367,-3552.988522,2987.772442,9918.759623
1069.267697,-3478.967927,3677.258390,10214.842000
1069.268026,-2368.659014,3600.648841,10288.862594
1069.268356,-1184.329507,3983.696590,10066.800811
1069.268685,-222.061783,4596.572988,9548.656652
1069.269015,148.041188,5975.544884,9178.553681
1069.269345,592.164754,6588.421283,9252.574275
1069.269674,666.185348,6281.983084,8882.471304
1069.270004,740.205942,5362.668486,8660.409521
1069.270333,-148.041188,4903.011187,8438.347739
1069.270663,-1554.432478,3370.820191,7846.182985
1069.270992,-2368.659014,1608.800546,7550.100608
1069.271322,-2812.782580,0.000000,7846.182985
1069.271651,-2664.741391,-536.266849,9030.512492
1069.271981,-3034.844362,-229.828649,9548.656652
1069.272311,-2516.700203,1149.143247,10510.924376
1069.272640,-1480.411884,2451.505594,10955.047942
1069.272970,-518.144159,3677.258390,11547.212695
1069.273299,0.000000,4979.620737,12509.480420
1069.273629,74.020594,7048.078582,12657.521608
1069.273958,0.000000,7201.297681,11769.274478
1069.274288,74.020594,5822.325785,10584.944971
1069.274617,0.000000,4366.744339,9770.718434
1069.274947,-740.205942,3140.991542,9326.594869
1069.275276,-1628.453072,2604.724693,8660.409521
1069.275606,-1776.494261,2374.896044,8438.347739
1069.275936,-1480.411884,1532.190996,7994.224174
1069.276265,-814.226536,1455.581446,7994.224174
1069.276595,0.000000,2451.505594,8364.327145
1069.276924,74.020594,2911.162892,9326.594869
1069.277254,74.020594,4443.353888,9696.697840
1069.277583,-444.123565,5975.544884,10066.800811
1069.277913,-1110.308913,6818.249932,10955.047942
1069.278242,-1258.350101,6894.859482,11843.295072
1069.278572,-1998.556043,6588.421283,11695.253884
1069.278902,-2590.720797,6588.421283,10066.800811
1069.279231,-3034.844362,5669.106685,7920.203579
1069.279561,-1702.473667,4136.915689,6143.709319
1069.279890,518.144159,2451.505594,4737.318029
1069.280220,2442.679609,1608.800546,4441.235652
1069.280549,2664.741391,1149.143247,4885.359217
1069.280879,1036.288319,2834.553343,6809.894666
1069.281208,-1554.432478,4826.401637,9178.553681
1069.281538,-3923.091493,6358.592633,11769.274478
1069.281867,-4441.235652,6281.983084,13841.851115
1069.282197,-3849.070898,5898.935335,14582.057057
1069.282527,-4293.194464,5439.278036,13841.851115
1069.282856,-4293.194464,3983.696590,11843.295072
1069.283186,-3404.947333,3370.820191,9696.697840
1069.283515,-1110.308913,2834.553343,7846.182985
1069.283845,2886.803174,2145.067394,6513.812290
1069.284174,4737.318029,2681.334243,5329.482782
1069.284504,5107.421000,3064.381992,5551.544565
1069.284833,3701.029710,4213.525239,6883.915261
1069.285163,518.144159,5669.106685,9474.636058
1069.285492,-2960.823768,8427.050478,12435.459826
1069.285822,-4737.318029,7507.735880,14211.954086
1069.286152,-4885.359217,5822.325785,14285.974681
1069.286481,-3627.009116,2834.553343,12509.480420
1069.286811,-1702.473667,0.000000,10436.903782
1069.287140,-740.205942,229.828649,7920.203579
1069.287470,-666.185348,612.876398,6957.935855
1069.287799,-962.267725,2681.334243,7772.162391
1069.288129,-518.144159,5362.668486,9548.656652
1069.288458,-814.226536,6435.202183,8216.285956
1069.288788,-666.185348,4213.525239,5773.606348
1069.289117,0.000000,1532.190996,6143.709319
1069.289447,-222.061783,1302.362347,9104.533087
1069.289777,-1554.432478,3600.648841,12213.398043
1069.290106,-2886.803174,4903.011187,13175.665768
1069.290436,-3330.926739,5056.230287,12361.439231
1069.290765,-2368.659014,4213.525239,11399.171507
1069.291095,-740.205942,3753.867940,9622.677246
1069.291424,888.247130,2451.505594,7031.956449
1069.291754,2442.679609,1072.533697,5995.668130
1069.292083,2664.741391,2374.896044,6365.771101
1069.292413,1776.494261,4136.915689,6661.853478
1069.292742,1258.350101,4136.915689,8882.471304
1069.293072,0.000000,4136.915689,11547.212695
1069.293402,-2442.679609,5515.887586,12435.459826
1069.293731,-4071.132681,5592.497135,11621.233289
1069.294061,-3182.885551,2528.115143,11843.295072
1069.294390,-2220.617826,842.705048,12509.480420
1069.294720,-3034.844362,2451.505594,11843.295072
1069.295049,-3034.844362,3830.477490,9696.697840
1069.295379,-1924.535449,3370.820191,7698.141797
1069.295708,-814.226536,3524.039291,7476.080014
1069.296038,888.247130,5056.230287,7402.059420
1069.296368,2368.659014,3983.696590,6143.709319
1069.296697,3627.009116,1838.629195,5699.585753
1069.297027,3108.864956,2298.286494,7105.977043
1069.297356,962.267725,4673.182538,10658.965565
1069.297686,-1184.329507,6128.763984,13767.830521
1069.298015,-3627.009116,6894.859482,14582.057057
1069.298345,-3923.091493,7201.297681,13545.768739
1069.298674,-2516.700203,5132.839837,12731.542202
1069.299004,-1406.391290,1991.848295,11325.150913
1069.299333,-1776.494261,1149.143247,8660.409521
1069.299663,-2516.700203,1532.190996,5551.544565
1069.299993,-2294.638420,2451.505594,4367.215058
1069.300322,-666.185348,3907.087040,4663.297435
1069.300652,444.123565,3294.210641,5255.462188
1069.300981,1184.329507,3217.601092,5181.441594
1069.301311,962.267725,4673.182538,4737.318029
1069.301640,1850.514855,4290.134789,6883.915261
1069.301970,1036.288319,3753.867940,10214.842000
1069.302299,-1480.411884,3907.087040,13471.748144
1069.302629,-4589.276840,4673.182538,14878.139434
1069.302958,-4885.359217,4749.792088,14804.118840
1069.303288,-4293.194464,3370.820191,13693.809927
1069.303618,-3404.947333,2298.286494,11399.171507
1069.303947,-2294.638420,-459.657299,9030.512492
1069.304277,-1036.288319,-1915.238745,6883.915261
1069.304606,-666.185348,-689.485948,5403.503377
1069.304936,444.123565,153.219100,4219.173869
1069.305265,2220.617826,-306.438199,4663.297435
1069.305595,2960.823768,-689.485948,7105.977043
1069.305924,2516.700203,1915.238745,10066.800811
1069.306254,1850.514855,2911.162892,11917.315666
1069.306583,888.247130,1532.190996,13545.768739
1069.306913,-740.205942,1378.971896,15766.386565
1069.307243,-2738.761985,2068.457845,17542.880825
1069.307572,-3701.029710,1532.190996,16802.674883
1069.307902,-4293.194464,1072.533697,14211.954086
1069.308231,-4293.194464,842.705048,11029.068536
1069.308561,-2590.720797,-1378.971896,7105.977043
1069.308890,888.247130,-2681.334243,4737.318029
1069.309220,4367.215058,-2911.162892,2590.720797
1069.309549,5403.503377,-2221.676944,1924.535449
1069.309879,4145.153275,459.657299,2368.659014
1069.310209,1924.535449,2451.505594,5181.441594
1069.310538,518.144159,1378.971896,10214.842000
1069.310868,-1628.453072,2834.553343,14656.077652
1069.311197,-3775.050304,4826.401637,16728.654289
1069.311527,-4959.379811,3064.381992,15766.386565
1069.311856,-5995.668130,-612.876398,14804.118840
1069.312186,-7846.182985,-1608.800546,12953.603985
1069.312515,-7105.977043,0.000000,10732.986159
1069.312845,-4441.235652,-1072.533697,7476.080014
1069.313174,-444.123565,-536.266849,4145.153275
1069.313504,3330.926739,-1915.238745,1332.370696
1069.313834,5625.565159,-3447.429741,1110.308913
1069.314163,5403.503377,-229.828649,3849.070898
1069.314493,2738.761985,4136.915689,6957.935855
1069.314822,296.082377,6665.030833,10955.047942
1069.315152,-962.267725,5898.935335,15914.427753
1069.315481,-2960.823768,3447.429741,18505.148550
1069.315811,-5773.606348,1915.238745,18135.045579
1069.316140,-7105.977043,536.266849,15692.365970
1069.316470,-6217.729913,459.657299,11991.336260
1069.316799,-4441.235652,-766.095498,7624.121203
1069.317129,-1998.556043,-3907.087040,4589.276840
1069.317459,1480.411884,-4903.011187,2072.576638
1069.317788,4367.215058,-3217.601092,1628.453072
1069.318118,4737.318029,2068.457845,2146.597232
1069.318447,4145.153275,4443.353888,4737.318029
1069.318777,2960.823768,3294.210641,9252.574275
1069.319106,740.205942,3294.210641,14508.036463
1069.319436,-2294.638420,5362.668486,18653.189738
1069.319765,-5625.565159,5745.716235,19319.375086
1069.320095,-7476.080014,2911.162892,17912.983796
1069.320424,-7550.100608,766.095498,15396.283594
1069.320754,-5551.544565,-2451.505594,10288.862594
1069.321084,-1924.535449,-5056.230287,5847.626942
1069.321413,2516.700203,-3830.477490,2368.659014
1069.321743,5625.565159,-2298.286494,592.164754
1069.322072,6439.791695,-995.924147,962.267725
1069.322402,5551.544565,995.924147,3849.070898
1069.322731,3923.091493,5209.449386,8660.409521
1069.323061,1924.535449,7354.516781,13323.706956
1069.323390,-592.164754,8044.002729,16728.654289
1069.323720,-2664.741391,6128.763984,18653.189738
1069.324050,-4589.276840,2221.676944,17542.880825
1069.324379,-6587.832884,0.000000,15470.304188
1069.324709,-7994.224174,-536.266849,10732.986159
1069.325038,-6069.688724,-1838.629195,7698.141797
1069.325368,-1924.535449,-3907.087040,2960.823768
1069.325697,2516.700203,-4136.915689,-518.144159
1069.326027,5551.544565,-4519.963438,-1850.514855
1069.326356,6365.771101,-1378.971896,888.247130
1069.326686,2368.659014,5056.230287,4589.276840
1069.327015,-1258.350101,7967.393179,9400.615463
1069.327345,-3034.844362,7201.297681,15248.242405
1069.327675,-3627.009116,5669.106685,19097.313304
1069.328004,-6809.894666,4136.915689,19097.313304
1069.328334,-9252.574275,229.828649,15544.324782
1069.328663,-8734.430116,-2987.772442,11325.150913
1069.328993,-5773.606348,-5056.230287,7328.038826
1069.329322,-1702.473667,-5898.935335,5699.585753
1069.329652,1332.370696,-6052.154434,3478.967927
1069.329981,3108.864956,-3524.039291,1998.556043
1069.330311,5033.400406,-1072.533697,1924.535449
1069.330640,5921.647536,536.266849,5107.421000
1069.330970,5625.565159,3140.991542,10807.006753
1069.331300,4071.132681,5515.887586,16876.695478
1069.331629,-148.041188,7354.516781,19985.560434
1069.331959,-4737.318029,6818.249932,20355.663405
1069.332288,-7031.956449,3140.991542,18949.272115
1069.332618,-5847.626942,-995.924147,15692.365970
1069.332947,-3701.029710,-2987.772442,10288.862594
1069.333277,-1480.411884,-5745.716235,4219.173869
1069.333606,2590.720797,-7354.516781,444.123565
1069.333936,4737.318029,-6511.811733,-74.020594
1069.334265,4293.194464,-1608.800546,2516.700203
1069.334595,2738.761985,3524.039291,6069.688724
1069.334925,1258.350101,6358.592633,10510.924376
1069.335254,0.000000,7354.516781,15470.304188
1069.335584,-2590.720797,7814.174080,17616.901420
1069.335913,-5921.647536,5592.497135,18061.024985
1069.336243,-7179.997637,2068.457845,17246.798449
1069.336572,-7402.059420,995.924147,13841.851115
1069.336902,-6957.935855,842.705048,9400.615463
1069.337231,-3923.091493,-3600.648841,3775.050304
1069.337561,222.061783,-6205.373534,-0.000000
1069.337890,4367.215058,-5209.449386,-1184.329507
1069.338220,6809.894666,-995.924147,-74.020594
1069.338550,6217.729913,3140.991542,2072.576638
1069.338879,3552.988522,5515.887586,5181.441594
1069.339209,1184.329507,6741.640382,12287.418637
1069.339538,-1554.432478,9269.755526,18135.045579
1069.339868,-4737.318029,9729.412825,19615.457463
1069.340197,-6883.915261,4060.306139,17542.880825
1069.340527,-7328.038826,-919.314598,13989.892304
1069.340856,-7105.977043,-1991.848295,10066.800811
1069.341186,-4293.194464,-6052.154434,5921.647536
1069.341516,-518.144159,-7124.688131,2368.659014
1069.341845,2368.659014,-4136.915689,888.247130
1069.342175,4663.297435,-1762.019645,962.267725
1069.342504,4885.359217,1149.143247,4219.173869
1069.342834,3182.885551,2757.943793,7328.038826
1069.343163,2220.617826,5745.716235,11769.274478
1069.343493,-148.041188,7201.297681,16728.654289
1069.343822,-3034.844362,6894.859482,19541.436869
1069.344152,-6365.771101,2681.334243,20947.828159
1069.344481,-8364.327145,-1302.362347,18357.107362
1069.344811,-8586.388927,-1455.581446,13545.768739
1069.345141,-5181.441594,-3907.087040,8808.450710
1069.345470,-444.123565,-7507.735880,4071.132681
1069.345800,3701.029710,-8044.002729,1924.535449
1069.346129,6513.812290,-4673.182538,2516.700203
1069.346459,6735.874072,1072.533697,4367.215058
1069.346788,4663.297435,4519.963438,6883.915261
1069.347118,2812.782580,6358.592633,11621.233289
1069.347447,740.205942,7201.297681,17172.777854
1069.347777,-2738.761985,8580.269578,20355.663405
1069.348106,-6069.688724,6894.859482,19541.436869
1069.348436,-7772.162391,1149.143247,16284.530724
1069.348766,-7920.203579,-842.705048,10362.883188
1069.349095,-6513.812290,-3830.477490,6439.791695
1069.349425,-2590.720797,-7277.907231,1998.556043
1069.349754,1110.308913,-6818.249932,-1332.370696
1069.350084,3552.988522,-3830.477490,-1184.329507
1069.350413,4367.215058,-229.828649,-370.102971
1069.350743,3478.967927,3064.381992,3330.926739
1069.351072,2146.597232,6205.373534,8438.347739
1069.351402,296.082377,8120.612279,13915.871710
1069.351731,-2368.659014,8273.831378,17987.004391
1069.352061,-6439.791695,6358.592633,18283.086767
1069.352391,-8438.347739,2145.067394,16802.674883
1069.352720,-8438.347739,-1532.190996,12657.521608
1069.353050,-6735.874072,-2757.943793,7920.203579
1069.353379,-3256.906145,-6358.592633,3849.070898
1069.353709,222.061783,-8350.440928,888.247130
1069.354038,2516.700203,-5592.497135,1258.350101
1069.354368,4441.235652,-2221.676944,2368.659014
1069.354697,5107.421000,2374.896044,6365.771101
1069.355027,4367.215058,5132.839837,10066.800811
1069.355357,3108.864956,5362.668486,15174.221811
1069.355686,148.041188,5515.887586,19615.457463
1069.356016,-4367.215058,6052.154434,21465.972318
1069.356345,-7105.977043,3907.087040,20725.766376
1069.356675,-7254.018232,383.047749,16580.613101
1069.357004,-5847.626942,-2451.505594,11917.315666
1069.357334,-2220.617826,-7354.516781,6217.729913
1069.357663,1702.473667,-9576.193725,1332.370696
1069.357993,5625.565159,-7737.564530,-962.267725
1069.358322,6957.935855,-2298.286494,2294.638420
1069.358652,6365.771101,3370.820191,5255.462188
1069.358982,3997.112087,5515.887586,9548.656652
1069.359311,1776.494261,6971.469032,13545.768739
1069.359641,-962.267725,9269.755526,16876.695478
1069.359970,-3552.988522,9499.584175,18949.272115
1069.360300,-6143.709319,4519.963438,18283.086767
1069.360629,-8438.347739,0.000000,15396.283594
1069.360959,-9696.697840,-1378.971896,9474.636058
1069.361288,-7846.182985,-3447.429741,6587.832884
1069.361618,-3701.029710,-6894.859482,2442.679609
1069.361947,1554.432478,-4290.134789,-2442.679609
1069.362277,5255.462188,-4366.744339,-2590.720797
1069.362607,7994.224174,-1915.238745,-1036.288319
1069.362936,5477.523971,4749.792088,4515.256246
1069.363266,1406.391290,10265.679673,9992.780217
1069.363595,-2294.638420,10725.336972,15174.221811
1069.363925,-4367.215058,10035.851024,19171.333898
1069.364254,-7031.956449,7737.564530,20281.642811
1069.364584,-7476.080014,1455.581446,16284.530724
1069.364913,-7550.100608,-2834.553343,10362.883188
1069.365243,-5773.606348,-3983.696590,4441.235652
1069.365572,-1480.411884,-7431.126331,2368.659014
1069.365902,1554.432478,-7890.783629,1628.453072
1069.366232,3849.070898,-2374.896044,2072.576638
1069.366561,3997.112087,1608.800546,4293.194464
1069.366891,3701.029710,3600.648841,6217.729913
1069.367220,3182.885551,5669.106685,11251.130318
1069.367550,2146.597232,6435.202183,17172.777854
1069.367879,-1776.494261,6588.421283,20725.766376
1069.368209,-6291.750507,5975.544884,21095.869347
1069.368538,-8290.306550,2298.286494,18579.169144
1069.368868,-7402.059420,-1838.629195,14063.912898
1069.369197,-5255.462188,-5822.325785,8216.285956
1069.369527,-1184.329507,-8733.488677,4441.235652
1069.369856,2368.659014,-8580.269578,1702.473667
1069.370186,5181.441594,-4290.134789,1036.288319
1069.370516,4959.379811,76.609550,4145.153275
1069.370845,3627.009116,2604.724693,7550.100608
1069.371175,2886.803174,5515.887586,13545.768739
1069.371504,888.247130,9039.926876,17246.798449
1069.371834,-2294.638420,9959.241474,18431.127956
1069.372163,-4885.359217,5515.887586,17690.922014
1069.372493,-5551.544565,306.438199,16284.530724
1069.372822,-6809.894666,-1455.581446,12287.418637
1069.373152,-6069.688724,-2757.943793,8142.265362
1069.373481,-2886.803174,-4519.963438,4737.318029
1069.373811,666.185348,-5439.278036,-2738.761985
1069.374140,4663.297435,-5132.839837,-1628.453072
1069.374470,7402.059420,-3140.991542,-74.020594
1069.374799,7105.977043,2451.505594,3849.070898
1069.375129,3552.988522,8427.050478,7476.080014
1069.375458,-666.185348,10035.851024,11991.336260
1069.375788,-2664.741391,10265.679673,16876.695478
1069.376117,-4663.297435,8120.612279,19319.375086
1069.376447,-6809.894666,3447.429741,17764.942608
1069.376776,-7624.121203,-153.219100,12509.480420
1069.377106,-8734.430116,-1532.190996,7920.203579
1069.377435,-6439.791695,-5439.278036,4219.173869
1069.377765,-2516.700203,-8044.002729,1702.473667
1069.378095,1184.329507,-6281.983084,1110.308913
1069.378424,4515.256246,-2221.676944,1850.514855
1069.378754,3182.885551,1838.629195,3923.091493
1069.379083,1998.556043,3907.087040,6809.894666
1069.379413,1184.329507,5286.058936,13471.748144
1069.379742,-592.164754,8503.660028,19689.478057
1069.380072,-3849.070898,11108.384721,21836.075289
1069.380401,-5995.668130,6281.983084,20133.601622
1069.380731,-6365.771101,-995.924147,15470.304188
1069.381060,-5181.441594,-3294.210641,10214.842000
1069.381390,-2368.659014,-6205.373534,6365.771101
1069.381719,1258.350101,-7584.345430,4589.276840
1069.382049,4145.153275,-3907.087040,2590.720797
1069.382378,4219.173869,-919.314598,4145.153275
1069.382708,3478.967927,1378.971896,5699.585753
1069.383037,2812.782580,3677.258390,10066.800811
1069.383367,2146.597232,6894.859482,15470.304188
1069.383696,-592.164754,9729.412825,17690.922014
1069.384026,-4219.173869,9193.145976,17690.922014
1069.384355,-6143.709319,4903.011187,16284.530724
1069.384685,-6809.894666,-306.438199,13249.686362
1069.385014,-6661.853478,-1915.238745,9400.615463
1069.385344,-4959.379811,-3064.381992,4737.318029
1069.385674,-1776.494261,-4979.620737,148.041188
1069.386003,1036.288319,-6205.373534,-1258.350101
1069.386333,4515.256246,-4213.525239,-814.226536
1069.386662,4071.132681,536.266849,3404.947333
1069.386992,2368.659014,5362.668486,6217.729913
1069.387321,740.205942,8656.879127,11843.295072
1069.387651,-1702.473667,10342.289223,16580.613101
1069.387980,-4293.194464,10189.070123,18357.107362
1069.388310,-5403.503377,5209.449386,17246.798449
1069.388639,-5329.482782,1149.143247,13471.748144
1069.388969,-4959.379811,-995.924147,9252.574275
1069.389298,-3404.947333,-3907.087040,5551.544565
1069.389628,-1332.370696,-6588.421283,2294.638420
1069.389957,1110.308913,-5822.325785,1258.350101
1069.390287,2664.741391,-3217.601092,2294.638420
1069.390616,3997.112087,766.095498,3404.947333
1069.390946,3552.988522,3217.601092,7031.956449
1069.391275,2368.659014,4749.792088,11695.253884
1069.391605,-444.123565,6588.421283,16432.571912
1069.391934,-2886.803174,8197.221829,19319.375086
1069.392264,-5033.400406,5898.935335,20133.601622
1069.392593,-6809.894666,2221.676944,16728.654289
1069.392923,-6439.791695,-229.828649,12065.356855
1069.393253,-3627.009116,-5286.058936,7179.997637
1069.393582,0.000000,-8273.831378,4367.215058
1069.393912,2368.659014,-6588.421283,1776.494261
1069.394241,3330.926739,-3907.087040,2812.782580
1069.394571,2812.782580,-1685.410096,4515.256246
1069.394900,1628.453072,2528.115143,8882.471304
1069.395230,814.226536,5745.716235,14508.036463
1069.395559,-962.267725,7507.735880,17468.860231
1069.395889,-3552.988522,8886.707777,18283.086767
1069.396218,-4737.318029,6205.373534,16876.695478
1069.396548,-5403.503377,1302.362347,15174.221811
1069.396877,-4737.318029,-1302.362347,11769.274478
1069.397207,-3849.070898,-2528.115143,7031.956449
1069.397536,-1554.432478,-4749.792088,2442.679609
1069.397866,1924.535449,-5822.325785,-1110.308913
1069.398195,3849.070898,-4290.134789,2146.597232
1069.398525,4293.194464,383.047749,3330.926739
1069.398854,2516.700203,4596.572988,6217.729913
1069.399184,1110.308913,6741.640382,10288.862594
1069.399513,0.000000,8350.440928,14582.057057
1069.399843,-2294.638420,8733.488677,17468.860231
1069.400172,-4737.318029,5898.935335,16802.674883
1069.400502,-6365.771101,3140.991542,14063.912898
1069.400832,-6069.688724,1225.752797,10066.800811
1069.401161,-3997.112087,-1532.190996,6143.709319
1069.401491,-2072.576638,-5515.887586,2442.679609
1069.401820,888.247130,-5056.230287,-148.041188
1069.402150,1628.453072,-4366.744339,1110.308913
1069.402479,2812.782580,-1149.143247,1554.432478
1069.402809,2072.576638,2451.505594,5773.606348
1069.403138,1776.494261,4290.134789,11177.109724
1069.403468,-370.102971,5975.544884,15988.448347
1069.403797,-2960.823768,8120.612279,18949.272115
1069.404127,-4737.318029,6358.592633,18949.272115
1069.404456,-5477.523971,3524.039291,17764.942608
1069.404786,-5107.421000,1225.752797,13767.830521
1069.405115,-3108.864956,-2451.505594,9178.553681
1069.405445,74.020594,-6665.030833,5033.400406
1069.405774,2294.638420,-6358.592633,2738.761985
1069.406104,3552.988522,-3447.429741,3552.988522
1069.406433,3478.967927,-383.047749,4515.256246
1069.406763,2812.782580,2298.286494,6365.771101
1069.407092,2442.679609,3677.258390,11325.150913
1069.407422,1406.391290,5056.230287,15470.304188
1069.407751,-1110.308913,6894.859482,17616.901420
1069.408081,-3404.947333,6435.202183,16876.695478
1069.408411,-4959.379811,3064.381992,15766.386565
1069.408740,-5625.565159,766.095498,12731.542202
1069.409070,-4959.379811,-842.705048,9400.615463
1069.409399,-2368.659014,-3907.087040,5255.462188
1069.409729,296.082377,-3983.696590,1702.473667
1069.410058,2738.761985,-4060.306139,-370.102971
1069.410388,4367.215058,-2987.772442,1776.494261
1069.410717,2664.741391,306.438199,4515.256246
1069.411047,666.185348,3600.648841,9326.594869
1069.411376,-1850.514855,7737.564530,15026.180623
1069.411706,-3701.029710,9959.241474,17468.860231
1069.412035,-3997.112087,7354.516781,17320.819043
1069.412365,-4663.297435,2374.896044,15026.180623
1069.412694,-5699.585753,-306.438199,11621.233289
1069.413024,-4737.318029,-1532.190996,8142.265362
1069.413353,-2664.741391,-3677.258390,5107.421000
1069.413683,-296.082377,-3600.648841,1628.453072
1069.414012,1554.432478,-4673.182538,888.247130
1069.414342,3849.070898,-4519.963438,1628.453072
1069.414671,3404.947333,-536.266849,4885.359217
1069.415001,1628.453072,3677.258390,9474.636058
1069.415330,148.041188,6588.421283,14656.077652
1069.415660,-1776.494261,7890.783629,17320.819043
1069.415990,-3701.029710,6588.421283,18431.127956
1069.416319,-4293.194464,3753.867940,17838.963202
1069.416649,-5107.421000,1455.581446,14063.912898
1069.416978,-4071.132681,-995.924147,8734.430116
1069.417308,-1554.432478,-4519.963438,5551.544565
1069.417637,1332.370696,-6281.983084,3256.906145
1069.417967,1702.473667,-4596.572988,3478.967927
1069.418296,1776.494261,-3217.601092,3478.967927
1069.418626,1628.453072,-995.924147,5625.565159
1069.418955,0.000000,1915.238745,10362.883188
1069.419285,-888.247130,4366.744339,15396.283594
1069.419614,-1998.556043,6358.592633,18431.127956
1069.419944,-3182.885551,5669.106685,17616.901420
1069.420273,-4515.256246,3907.087040,16284.530724
1069.420603,-4663.297435,1685.410096,13693.809927
1069.420932,-3478.967927,-842.705048,10214.842000
1069.421262,-1332.370696,-2298.286494,6143.709319
1069.421591,1924.535449,-3294.210641,2516.700203
1069.421921,4071.132681,-4213.525239,1036.288319
1069.422250,5329.482782,-3217.601092,1998.556043
1069.422580,3701.029710,612.876398,4959.379811
1069.422909,888.247130,4443.353888,7550.100608
1069.423239,-740.205942,6358.592633,13323.706956
1069.423569,-1850.514855,7814.174080,16136.489536
1069.423898,-3330.926739,6205.373534,16728.654289
1069.424228,-3849.070898,3140.991542,15766.386565
1069.424557,-5625.565159,995.924147,12657.521608
1069.424887,-5847.626942,76.609550,9548.656652
1069.425216,-4367.215058,-995.924147,6365.771101
1069.425546,-1480.411884,-2298.286494,2220.617826
1069.425875,1850.514855,-4749.792088,-0.000000
1069.426205,5033.400406,-4596.572988,-222.061783
1069.426534,4367.215058,-459.657299,2368.659014
1069.426864,1924.535449,2987.772442,4959.379811
1069.427193,-370.102971,4596.572988,11991.336260
1069.427523,-2294.638420,7048.078582,16876.695478
1069.427852,-5107.421000,8044.002729,19467.416275
1069.428182,-6661.853478,4060.306139,18505.148550
1069.428511,-6735.874072,689.485948,14804.118840
1069.428841,-5255.462188,-1608.800546,10362.883188
1069.429170,-2368.659014,-4826.401637,6883.915261
1069.429500,740.205942,-5592.497135,4959.379811
1069.429829,2146.597232,-4826.401637,3923.091493
1069.430159,2368.659014,-2834.553343,3256.906145
1069.430488,2812.782580,153.219100,5033.400406
1069.430818,2886.803174,1838.629195,7476.080014
1069.431148,3775.050304,2068.457845,12287.418637
1069.431477,1924.535449,2987.772442,17320.819043
1069.431807,-1998.556043,6281.983084,19319.375086
1069.432136,-4737.318029,5745.716235,18949.272115
1069.432466,-5551.544565,2145.067394,16506.592507
1069.432795,-4811.338623,-229.828649,12509.480420
1069.433125,-2146.597232,-3370.820191,7698.141797
1069.433454,1406.391290,-5898.935335,4071.132681
1069.433784,3552.988522,-4903.011187,962.267725
1069.434113,3997.112087,-3217.601092,1554.432478
1069.434443,2960.823768,-153.219100,3997.112087
1069.434772,592.164754,2298.286494,6809.894666
1069.435102,-1332.370696,4903.011187,12435.459826
1069.435431,-2738.761985,6588.421283,15766.386565
1069.435761,-5107.421000,5362.668486,16358.551318
1069.436090,-5329.482782,2834.553343,16062.468941
1069.436420,-6735.874072,0.000000,13989.892304
1069.436749,-6809.894666,-306.438199,10807.006753
1069.437079,-4515.256246,-536.266849,7254.018232
1069.437408,-888.247130,-2451.505594,3256.906145
1069.437738,3330.926739,-2757.943793,-222.061783
1069.438067,5403.503377,-3370.820191,592.164754
1069.438397,6661.853478,-766.095498,1628.453072
1069.438727,4959.379811,2834.553343,4663.297435
1069.439056,1998.556043,5286.058936,10140.821405
1069.439386,-666.185348,7354.516781,15840.407159
1069.439715,-3108.864956,7048.078582,18875.251521
1069.440045,-5107.421000,4060.306139,18801.230927
1069.440374,-6661.853478,2068.457845,16136.489536
1069.440704,-5995.668130,-229.828649,12139.377449
1069.441033,-4145.153275,-3064.381992,8216.285956
1069.441363,-1332.370696,-4673.182538,4737.318029
1069.441692,1406.391290,-3600.648841,1480.411884
1069.442022,3997.112087,-3140.991542,-0.000000
1069.442351,4219.173869,-766.095498,2886.803174
1069.442681,2072.576638,2834.553343,4737.318029
1069.443010,888.247130,3294.210641,9844.739029
1069.443340,0.000000,3447.429741,15766.386565
1069.443669,-2590.720797,5515.887586,19319.375086
1069.443999,-5625.565159,3370.820191,19763.498651
1069.444328,-7105.977043,842.705048,18357.107362
1069.444658,-7254.018232,-383.047749,15396.283594
1069.444987,-5477.523971,-1685.410096,11399.171507
1069.445317,-1184.329507,-3983.696590,6513.812290
1069.445646,2960.823768,-2987.772442,2738.761985
1069.445976,6143.709319,-2451.505594,1628.453072
1069.446306,7254.018232,-1915.238745,1480.411884
1069.446635,5551.544565,1378.971896,4515.256246
1069.446965,3034.844362,4519.963438,9178.553681
1069.447294,444.123565,6971.469032,15248.242405
1069.447624,-2442.679609,8350.440928,17987.004391
1069.447953,-4367.215058,5056.230287,18283.086767
1069.448283,-5551.544565,1149.143247,16728.654289
1069.448612,-6587.832884,-306.438199,13397.727550
1069.448942,-6365.771101,-1072.533697,9326.594869
1069.449271,-4737.318029,-2681.334243,5403.503377
1069.449601,-962.267725,-2604.724693,962.267725
1069.449930,2294.638420,-3140.991542,-888.247130
1069.450260,5403.503377,-3524.039291,-666.185348
1069.450589,4959.379811,1378.971896,1702.473667
1069.450919,2294.638420,4596.572988,5477.523971
1069.451248,0.000000,5975.544884,11547.212695
1069.451578,-2886.803174,7354.516781,16654.633695
1069.451907,-5699.585753,7048.078582,19245.354492
1069.452237,-7105.977043,3064.381992,17616.901420
1069.452566,-7772.162391,76.609550,13693.809927
1069.452896,-6069.688724,-1378.971896,9622.677246
1069.453225,-2812.782580,-4903.011187,5329.482782
1069.453555,74.020594,-6281.983084,2220.617826
1069.453885,3404.947333,-4366.744339,1702.473667
1069.454214,3552.988522,-2298.286494,2072.576638
1069.454544,4737.318029,536.266849,3404.947333
1069.454873,4441.235652,2451.505594,8290.306550
1069.455203,3404.947333,2987.772442,13323.706956
1069.455532,444.123565,5362.668486,17987.004391
1069.455862,-3108.864956,6128.763984,20725.766376
1069.456191,-5551.544565,3907.087040,20725.766376
1069.456521,-6439.791695,1455.581446,17987.004391
1069.456850,-5551.544565,-1685.410096,13397.727550
1069.457180,-2664.741391,-6281.983084,8586.388927
1069.457509,1258.350101,-6818.249932,4663.297435
1069.457839,4145.153275,-4673.182538,296.082377
1069.458168,6365.771101,-2681.334243,3182.885551
1069.458498,4959.379811,995.924147,4367.215058
1069.458827,2590.720797,3524.039291,6587.832884
1069.459157,962.267725,6358.592633,12657.521608
1069.459486,-1258.350101,9039.926876,14656.077652
1069.459816,-3330.926739,7201.297681,16580.613101
1069.460145,-4441.235652,1915.238745,16728.654289
1069.460475,-6513.812290,-1532.190996,14804.118840
1069.460804,-8660.409521,-306.438199,11103.089130
1069.461134,-7624.121203,-1149.143247,8512.368333
1069.461464,-4663.297435,-2757.943793,3627.009116
1069.461793,592.164754,-2221.676944,-0.000000
1069.462123,5181.441594,-4673.182538,-2442.679609
1069.462452,8290.306550,-1838.629195,-0.000000
1069.462782,6069.688724,3447.429741,4219.173869
1069.463111,2294.638420,7507.735880,8734.430116
1069.463441,-2368.659014,10495.508323,13841.851115
1069.463770,-4145.153275,10112.460574,17764.942608
1069.464100,-5551.544565,6281.983084,19985.560434
1069.464429,-5921.647536,2145.067394,17468.860231
1069.464759,-5921.647536,-459.657299,11991.336260
1069.465088,-5033.400406,-3677.258390,6883.915261
1069.465418,-2146.597232,-6281.983084,4367.215058
1069.465747,0.000000,-4596.572988,2738.761985
1069.466077,2220.617826,-2145.067394,1776.494261
1069.466406,3404.947333,842.705048,3923.091493
1069.466736,2960.823768,2987.772442,4293.194464
1069.467065,3478.967927,2987.772442,9918.759623
1069.467395,1850.514855,4443.353888,15100.201217
1069.467724,-2072.576638,6511.811733,18505.148550
1069.468054,-4811.338623,6358.592633,19763.498651
1069.468383,-6439.791695,3140.991542,18209.066173
1069.468713,-6735.874072,0.000000,14730.098246
1069.469043,-3997.112087,-3447.429741,10288.862594
1069.469372,-740.205942,-6128.763984,5921.647536
1069.469702,2294.638420,-4903.011187,3182.885551
1069.470031,3627.009116,-2528.115143,962.267725
1069.470361,5033.400406,-612.876398,3627.009116
1069.470690,3997.112087,2604.724693,6069.688724
1069.471020,2886.803174,4060.306139,10288.862594
1069.471350,1110.308913,6052.154434,14434.015869
1069.471679,-2146.597232,7584.345430,15914.427753
1069.472009,-4441.235652,5132.839837,17098.757260
1069.472339,-5477.523971,2145.067394,16284.530724
1069.472668,-6661.853478,306.438199,13323.706956
1069.472998,-5403.503377,-1685.410096,9622.677246
1069.473328,-3478.967927,-4136.915689,4811.338623
1069.473657,-370.102971,-4366.744339,-0.000000
1069.473987,3552.988522,-5056.230287,-740.205942
1069.474317,5995.668130,-2528.115143,2294.638420
1069.474646,5329.482782,3370.820191,3404.947333
1069.474976,2886.803174,6052.154434,6143.709319
1069.475306,222.061783,6052.154434,11177.109724
1069.475635,-2738.761985,8120.612279,16062.468941
1069.475965,-4589.276840,7814.174080,19245.354492
1069.476295,-6217.729913,3600.648841,17764.942608
1069.476624,-7328.038826,0.000000,13027.624579
1069.476954,-7179.997637,-2528.115143,8068.244768
1069.477284,-4145.153275,-6205.373534,5403.503377
1069.477613,-1406.391290,-5898.935335,4737.318029
1069.477943,74.020594,-3524.039291,1998.556043
1069.478273,2812.782580,-1532.190996,2664.741391
1069.478602,2368.659014,536.266849,3775.050304
1069.478932,2516.700203,1991.848295,7624.121203
1069.479262,2590.720797,2528.115143,14211.954086
1069.479592,222.061783,5669.106685,18283.086767
1069.479921,-3849.070898,7660.954980,19689.478057
1069.480251,-5995.668130,4673.182538,19023.292709
1069.480581,-5773.606348,1378.971896,16876.695478
1069.480910,-4589.276840,-1685.410096,12435.459826
1069.481240,-740.205942,-4903.011187,7994.224174
1069.481570,2590.720797,-5132.839837,3849.070898
1069.481899,3330.926739,-3370.820191,2886.803174
1069.482229,3552.988522,-2451.505594,1776.494261
1069.482559,3108.864956,842.705048,4589.276840
1069.482888,2294.638420,3983.696590,8660.409521
1069.483218,1554.432478,5669.106685,13471.748144
1069.483548,-666.185348,7048.078582,15618.345376
1069.483877,-2960.823768,6818.249932,14952.160028
1069.484207,-5329.482782,2834.553343,14952.160028
1069.484537,-6143.709319,1225.752797,13989.892304
1069.484866,-5847.626942,1072.533697,10955.047942
1069.485196,-4145.153275,-1455.581446,7254.018232
1069.485526,-1850.514855,-2681.334243,3034.844362
1069.485855,222.061783,-2911.162892,-1480.411884
1069.486185,3775.050304,-3677.258390,-74.020594
1069.486515,4441.235652,842.705048,3108.864956
1069.486844,2960.823768,4749.792088,5699.585753
1069.487174,444.123565,7048.078582,10584.944971
1069.487504,-1628.453072,8120.612279,14434.015869
1069.487833,-3775.050304,7277.907231,16876.695478
1069.488163,-4959.379811,4519.963438,17024.736666
1069.488493,-5625.565159,2451.505594,15100.201217
1069.488822,-5403.503377,459.657299,11325.150913
1069.489152,-3552.988522,-3677.258390,8216.285956
1069.489482,-1924.535449,-5515.887586,4885.359217
1069.489811,0.000000,-3830.477490,3404.947333
1069.490141,296.082377,-3447.429741,2590.720797
1069.490471,2368.659014,-689.485948,3330.926739
1069.490800,2812.782580,1608.800546,6365.771101
1069.491130,2664.741391,2834.553343,11029.068536
1069.491460,888.247130,4366.744339,15544.324782
1069.491790,-2220.617826,6358.592633,17690.922014
1069.492119,-4737.318029,6665.030833,18061.024985
1069.492449,-5329.482782,3524.039291,16580.613101
1069.492779,-4441.235652,-612.876398,12435.459826
1069.493108,-2146.597232,-4213.525239,8586.388927
1069.493438,0.000000,-6665.030833,5329.482782
1069.493768,888.247130,-4596.572988,1332.370696
1069.494097,1110.308913,-3447.429741,3478.967927
1069.494427,962.267725,-766.095498,3923.091493
1069.494757,1850.514855,1532.190996,6735.874072
1069.495086,2516.700203,2374.896044,11473.192101
1069.495416,1258.350101,3677.258390,14804.118840
1069.495746,-1850.514855,5745.716235,16062.468941
1069.496075,-4441.235652,5056.230287,15914.427753
1069.496405,-5329.482782,3370.820191,16580.613101
1069.496735,-5625.565159,2374.896044,14359.995275
1069.497064,-3849.070898,-229.828649,9770.718434
1069.497394,-1184.329507,-3830.477490,5329.482782
1069.497724,1184.329507,-4596.572988,-296.082377
1069.498053,2812.782580,-4060.306139,1998.556043
1069.498383,3923.091493,-1685.410096,3108.864956
1069.498713,2886.803174,2145.067394,5847.626942
1069.499042,888.247130,5439.278036,9696.697840
1069.499372,-1110.308913,6511.811733,13175.665768
1069.499702,-2220.617826,6818.249932,15322.262999
1069.500031,-3256.906145,4826.401637,16506.592507
1069.500361,-4663.297435,3294.210641,15248.242405
1069.500691,-5329.482782,1608.800546,11843.295072
1069.501020,-4515.256246,-1149.143247,8290.306550
1069.501350,-3182.885551,-3370.820191,5033.400406
1069.501680,-518.144159,-3064.381992,444.123565
1069.502009,1258.350101,-3983.696590,2368.659014
1069.502339,2368.659014,-1455.581446,2442.679609
1069.502669,2072.576638,1072.533697,3923.091493
1069.502998,2220.617826,1608.800546,8512.368333
1069.503328,592.164754,3677.258390,13693.809927
1069.503658,-2220.617826,6665.030833,16580.613101
1069.503988,-4145.153275,5898.935335,17616.901420
1069.504317,-4885.359217,3524.039291,17542.880825
1069.504647,-5995.668130,2068.457845,14656.077652
1069.504977,-4663.297435,-1149.143247,10140.821405
1069.505306,-1036.288319,-5286.058936,6957.935855
1069.505636,962.267725,-5132.839837,4293.194464
1069.505966,1702.473667,-4673.182538,1924.535449
1069.506295,2072.576638,-3447.429741,4515.256246
1069.506625,1850.514855,1149.143247,5773.606348
1069.506955,1702.473667,1915.238745,9326.594869
1069.507284,1776.494261,3217.601092,14656.077652
1069.507614,148.041188,5209.449386,17024.736666
1069.507944,-2812.782580,6128.763984,17616.901420
1069.508273,-3701.029710,5209.449386,17246.798449
1069.508603,-4441.235652,3064.381992,14582.057057
1069.508933,-3923.091493,842.705048,10881.027347
1069.509262,-1702.473667,-2528.115143,6661.853478
1069.509592,814.226536,-2681.334243,3701.029710
1069.509922,1850.514855,-2221.676944,-0.000000
1069.510251,2738.761985,-2145.067394,1184.329507
1069.510581,1776.494261,-229.828649,3034.844362
1069.510911,518.144159,1532.190996,7846.182985
1069.511240,-2146.597232,5439.278036,13101.645173
1069.511570,-3552.988522,7967.393179,15396.283594
1069.511900,-4293.194464,4979.620737,15396.283594
1069.512229,-4515.256246,2451.505594,14878.139434
1069.512559,-5847.626942,2145.067394,13841.851115
1069.512889,-5625.565159,1838.629195,11177.109724
1069.513218,-3849.070898,-766.095498,7476.080014
1069.513548,-2146.597232,-1302.362347,3256.906145
1069.513878,888.247130,-3064.381992,-296.082377
1069.514207,3997.112087,-5056.230287,1258.350101
1069.514537,3701.029710,-1149.143247,3849.070898
1069.514867,2738.761985,2834.553343,6513.812290
1069.515196,1480.411884,4749.792088,11547.212695
1069.515526,0.000000,5056.230287,15544.324782
1069.515856,-2886.803174,5745.716235,18135.045579
1069.516186,-4663.297435,4519.963438,17764.942608
1069.516515,-5107.421000,2681.334243,15174.221811
1069.516845,-3849.070898,229.828649,11399.171507
1069.517175,-1628.453072,-3983.696590,7328.038826
1069.517504,-148.041188,-5669.106685,4589.276840
1069.517834,1258.350101,-4443.353888,2664.741391
1069.518164,1480.411884,-3753.867940,3034.844362
1069.518493,1998.556043,-689.485948,3701.029710
1069.518823,1406.391290,536.266849,7624.121203
1069.519153,1258.350101,1532.190996,13397.727550
1069.519482,-444.123565,4060.306139,17098.757260
1069.519812,-2738.761985,4979.620737,17912.983796
1069.520142,-4737.318029,4366.744339,18209.066173
1069.520471,-6513.812290,3064.381992,16728.654289
1069.520801,-5551.544565,1455.581446,13619.789333
1069.521131,-3182.885551,-2068.457845,9400.615463
1069.521460,74.020594,-3983.696590,4589.276840
1069.521790,3404.947333,-2757.943793,1850.514855
1069.522120,3701.029710,-4060.306139,1850.514855
1069.522449,3849.070898,-1302.362347,2368.659014
1069.522779,2368.659014,1378.971896,5033.400406
1069.523109,1110.308913,3983.696590,10066.800811
1069.523438,-1332.370696,7354.516781,14508.036463
1069.523768,-3256.906145,6971.469032,15914.427753
1069.524098,-5033.400406,3830.477490,15692.365970
1069.524427,-5181.441594,1762.019645,14211.954086
1069.524757,-6069.688724,1225.752797,11399.171507
1069.525087,-4737.318029,-153.219100,8290.306550
1069.525416,-3034.844362,-2451.505594,3627.009116
1069.525746,-222.061783,-1991.848295,1258.350101
1069.526076,1850.514855,-3524.039291,-0.000000
1069.526405,3627.009116,-1225.752797,1184.329507
1069.526735,2442.679609,1532.190996,4071.132681
1069.527065,962.267725,2451.505594,8438.347739
1069.527394,-1628.453072,4903.011187,14063.912898
1069.527724,-3997.112087,6205.373534,17172.777854
1069.528054,-5921.647536,3907.087040,18505.148550
1069.528384,-6143.709319,2911.162892,17172.777854
1069.528713,-5625.565159,1455.581446,13841.851115
1069.529043,-2664.741391,-2451.505594,9844.739029
1069.529373,148.041188,-5592.497135,6365.771101
1069.529702,666.185348,-4903.011187,2220.617826
1069.530032,1924.535449,-3370.820191,3478.967927
1069.530362,2516.700203,-919.314598,5107.421000
1069.530691,3701.029710,1762.019645,6291.750507
1069.531021,3923.091493,766.095498,10214.842000
1069.531351,2590.720797,1532.190996,15174.221811
1069.531680,-1110.308913,4749.792088,18431.127956
1069.532010,-4663.297435,5669.106685,19245.354492
1069.532340,-5699.585753,4519.963438,18135.045579
1069.532669,-5625.565159,2145.067394,15100.201217
1069.532999,-3034.844362,-1532.190996,10658.965565
1069.533329,-296.082377,-5132.839837,6143.709319
1069.533658,2072.576638,-4443.353888,1258.350101
1069.533988,3478.967927,-3524.039291,740.205942
1069.534318,3256.906145,-1608.800546,2516.700203
1069.534647,2072.576638,919.314598,4663.297435
1069.534977,0.000000,3600.648841,8734.430116
1069.535307,-592.164754,5822.325785,12583.501014
1069.535636,-2220.617826,6588.421283,15100.201217
1069.535966,-3923.091493,4903.011187,15914.427753
1069.536296,-5699.585753,2604.724693,15544.324782
1069.536625,-6883.915261,919.314598,12805.562797
1069.536955,-6069.688724,689.485948,9770.718434
1069.537285,-4145.153275,-689.485948,5995.668130
1069.537614,-148.041188,-1455.581446,518.144159
1069.537944,3108.864956,-3294.210641,666.185348
1069.538274,4737.318029,-2221.676944,-0.000000
1069.538603,3849.070898,689.485948,2146.597232
1069.538933,2368.659014,3370.820191,6513.812290
1069.539263,-148.041188,5362.668486,12879.583391
1069.539592,-2886.803174,7354.516781,16950.716072
1069.539922,-5921.647536,5439.278036,17912.983796
1069.540252,-5921.647536,3064.381992,16728.654289
1069.540582,-6365.771101,612.876398,14656.077652
1069.540911,-4515.256246,-766.095498,12509.480420
1069.541241,-1924.535449,-2451.505594,8364.327145
1069.541571,296.082377,-3140.991542,4145.153275
1069.541900,2738.761985,-2987.772442,740.205942
1069.542230,4367.215058,-1072.533697,2516.700203
1069.542560,3552.988522,2528.115143,4219.173869
1069.542889,2960.823768,3370.820191,7476.080014
1069.543219,1924.535449,2451.505594,12213.398043
1069.543549,-592.164754,4749.792088,16506.592507
1069.543878,-4663.297435,4366.744339,18949.272115
1069.544208,-6661.853478,2221.676944,18727.210333
1069.544538,-7698.141797,536.266849,16506.592507
1069.544867,-6217.729913,-612.876398,13175.665768
1069.545197,-3034.844362,-2604.724693,9474.636058
1069.545527,1110.308913,-3907.087040,5329.482782
1069.545856,3182.885551,-2681.334243,1554.432478
1069.546186,6217.729913,-1991.848295,370.102971
1069.546516,6291.750507,689.485948,3330.926739
1069.546845,4811.338623,3677.258390,6661.853478
1069.547175,2368.659014,5286.058936,11029.068536
1069.547505,74.020594,7201.297681,14878.139434
1069.547834,-2368.659014,5286.058936,17320.819043
1069.548164,-4885.359217,2221.676944,18135.045579
1069.548494,-6809.894666,919.314598,16136.489536
1069.548823,-7254.018232,153.219100,11843.295072
1069.549153,-5847.626942,-1532.190996,7846.182985
1069.549483,-2368.659014,-3524.039291,2960.823768
1069.549812,888.247130,-3294.210641,962.267725
1069.550142,4219.173869,-4213.525239,-740.205942
1069.550472,4293.194464,-536.266849,1184.329507
1069.550801,1776.494261,3370.820191,2590.720797
1069.551131,0.000000,3600.648841,7994.224174
1069.551461,-2146.597232,4903.011187,14063.912898
1069.551790,-4663.297435,5822.325785,17987.004391
1069.552120,-6883.915261,3140.991542,18949.272115
1069.552450,-7920.203579,459.657299,16580.613101
1069.552779,-7920.203579,-689.485948,12509.480420
1069.553109,-4737.318029,-4060.306139,8956.491898
1069.553439,-962.267725,-6511.811733,7402.059420
1069.553769,1998.556043,-3753.867940,3182.885551
1069.554098,2294.638420,-536.266849,3404.947333
1069.554428,3775.050304,229.828649,2368.659014
1069.554758,5181.441594,612.876398,5403.503377
1069.555087,5255.462188,1608.800546,11473.192101
1069.555417,3034.844362,4366.744339,16654.633695
1069.555747,-1480.411884,6435.202183,18209.066173
1069.556076,-4811.338623,4519.963438,17616.901420
1069.556406,-6365.771101,1915.238745,17172.777854
1069.556736,-6069.688724,0.000000,15544.324782
1069.557065,-3775.050304,-2221.676944,11843.295072
1069.557395,-888.247130,-3983.696590,6365.771101
1069.557725,2516.700203,-1915.238745,1036.288319
1069.558054,3997.112087,-3140.991542,370.102971
1069.558384,5921.647536,-1225.752797,1332.370696
1069.558714,5033.400406,2528.115143,4959.379811
1069.559043,3034.844362,5975.544884,9104.533087
1069.559373,-740.205942,9193.145976,13101.645173
1069.559703,-3034.844362,9116.536426,15248.242405
1069.560032,-4959.379811,4903.011187,16580.613101
1069.560362,-6365.771101,1378.971896,16506.592507
1069.560692,-8512.368333,919.314598,14656.077652
1069.561021,-8142.265362,612.876398,10510.924376
1069.561351,-6365.771101,-1149.143247,8068.244768
1069.561681,-2664.741391,-3753.867940,740.205942
1069.562010,2072.576638,-3983.696590,-888.247130
1069.562340,7105.977043,-2834.553343,-666.185348
1069.562670,8142.265362,1378.971896,1776.494261
1069.562999,5107.421000,6665.030833,4737.318029
1069.563329,1110.308913,7354.516781,9770.718434
1069.563659,-1850.514855,7507.735880,15322.262999
1069.563988,-4367.215058,7967.393179,19245.354492
1069.564318,-6291.750507,6281.983084,19615.457463
1069.564648,-6661.853478,842.705048,15766.386565
1069.564977,-5773.606348,-2451.505594,10140.821405
1069.565307,-3330.926739,-4366.744339,6217.729913
1069.565637,74.020594,-5822.325785,3849.070898
1069.565967,1406.391290,-3677.258390,3256.906145
1069.566296,2368.659014,-1532.190996,1702.473667
1069.566626,2886.803174,842.705048,3997.112087
1069.566956,3182.885551,1532.190996,7105.977043
1069.567285,2368.659014,2298.286494,12065.356855
1069.567615,-444.123565,4443.353888,15914.427753
1069.567945,-4885.359217,5669.106685,18579.169144
1069.568274,-7402.059420,4136.915689,18949.272115
1069.568604,-7698.141797,612.876398,17838.963202
1069.568934,-6513.812290,-2221.676944,13397.727550
1069.569263,-3256.906145,-5592.497135,7920.203579
1069.569593,740.205942,-7354.516781,4071.132681
1069.569922,2738.761985,-5898.935335,2738.761985
1069.570252,5033.400406,-2757.943793,2516.700203
1069.570582,4737.318029,1072.533697,5181.441594
1069.570911,4441.235652,3907.087040,8290.306550
1069.571241,3849.070898,5056.230287,13101.645173
1069.571570,1554.432478,6052.154434,15692.365970
1069.571900,-2146.597232,6358.592633,16580.613101
1069.572230,-4959.379811,4136.915689,16580.613101
1069.572559,-5847.626942,1302.362347,15026.180623
1069.572889,-5847.626942,0.000000,11695.253884
1069.573219,-4663.297435,-2221.676944,8586.388927
1069.573548,-2368.659014,-4290.134789,1776.494261
1069.573878,1332.370696,-5132.839837,-370.102971
1069.574207,4367.215058,-3064.381992,222.061783
1069.574537,6143.709319,383.047749,1480.411884
1069.574867,4515.256246,3983.696590,3997.112087
1069.575196,1850.514855,6205.373534,7994.224174
1069.575526,-1998.556043,9193.145976,13397.727550
1069.575855,-3923.091493,11261.603821,16802.674883
1069.576185,-5847.626942,7201.297681,17616.901420
1069.576515,-7105.977043,1762.019645,15396.283594
1069.576844,-7772.162391,-919.314598,11325.150913
1069.577174,-6809.894666,-3753.867940,8290.306550
1069.577503,-4367.215058,-5745.716235,5699.585753
1069.577833,-2368.659014,-4903.011187,1628.453072
1069.578163,2146.597232,-4290.134789,1184.329507
1069.578492,4589.276840,-1762.019645,3627.009116
1069.578822,5107.421000,2834.553343,6735.874072
1069.579151,3849.070898,4903.011187,9844.739029
1069.579481,2590.720797,5592.497135,13249.686362
1069.579811,-518.144159,7354.516781,17246.798449
1069.580140,-3404.947333,7660.954980,20651.745782
1069.580470,-4589.276840,4443.353888,20429.683999
1069.580799,-4885.359217,842.705048,15396.283594
1069.581129,-3775.050304,-2987.772442,9474.636058
1069.581459,-1184.329507,-6741.640382,6439.791695
1069.581788,2368.659014,-6894.859482,3182.885551
1069.582118,3182.885551,-3217.601092,4737.318029
1069.582447,3478.967927,459.657299,3256.906145
1069.582777,3108.864956,2374.896044,4811.338623
1069.583107,2738.761985,2834.553343,9326.594869
1069.583436,1184.329507,5286.058936,14359.995275
1069.583766,-2368.659014,8580.269578,16358.551318
1069.584095,-4811.338623,6971.469032,16136.489536
1069.584425,-7105.977043,2987.772442,14804.118840
1069.584755,-7994.224174,-612.876398,12361.439231
1069.585084,-6735.874072,-2911.162892,9474.636058
1069.585414,-3775.050304,-4136.915689,5699.585753
1069.585743,-814.226536,-3677.258390,1036.288319
1069.586073,2442.679609,-4366.744339,-666.185348
1069.586403,3923.091493,-2528.115143,1110.308913
1069.586732,3997.112087,1378.971896,4811.338623
1069.587062,3256.906145,5362.668486,9622.677246
1069.587391,1184.329507,7660.954980,13175.665768
1069.587721,-1332.370696,9499.584175,15100.201217
1069.588051,-3849.070898,6128.763984,16210.510130
1069.588380,-4589.276840,1838.629195,16136.489536
1069.588710,-4737.318029,229.828649,13101.645173
1069.589039,-3552.988522,-919.314598,9474.636058
1069.589369,-1628.453072,-4749.792088,5477.523971
1069.589699,-296.082377,-5209.449386,2664.741391
1069.590028,666.185348,-6435.202183,1184.329507
1069.590358,3256.906145,-2911.162892,3627.009116
1069.590687,3997.112087,2068.457845,6217.729913
1069.591017,3478.967927,4826.401637,8586.388927
1069.591347,1776.494261,3983.696590,12879.583391
1069.591676,-814.226536,4826.401637,16284.530724
1069.592006,-4441.235652,7048.078582,18431.127956
1069.592335,-6069.688724,5362.668486,18727.210333
1069.592665,-7476.080014,2911.162892,15174.221811
1069.592995,-6661.853478,-2374.896044,11029.068536
1069.593324,-3997.112087,-7354.516781,7772.162391
1069.593654,-296.082377,-7967.393179,4071.132681
1069.593983,1332.370696,-6205.373534,3256.906145
1069.594313,2812.782580,-2528.115143,2368.659014
1069.594643,3182.885551,229.828649,4589.276840
1069.594972,3034.844362,2298.286494,9474.636058
1069.595302,2368.659014,5056.230287,15100.201217
1069.595632,666.185348,9576.193725,16580.613101
1069.595961,-1924.535449,9499.584175,15766.386565
1069.596291,-3182.885551,3753.867940,15470.304188
1069.596620,-4293.194464,1225.752797,14434.015869
1069.596950,-4367.215058,383.047749,11547.212695
1069.597280,-3478.967927,-2374.896044,7994.224174
1069.597609,-1554.432478,-3830.477490,1258.350101
1069.597939,666.185348,-5286.058936,148.041188
1069.598268,3478.967927,-5362.668486,740.205942
1069.598598,4293.194464,-919.314598,3627.009116
