#time,accel_x,accel_y,accel_z
919.150909,-1036.288319,612.876398,9622.677246
919.151239,-1110.308913,842.705048,9548.656652
919.151568,-1258.350101,995.924147,9474.636058
919.151898,-1036.288319,995.924147,9622.677246
919.152228,-1258.350101,842.705048,9622.677246
919.152557,-888.247130,1225.752797,9696.697840
919.152887,-1036.288319,766.095498,9400.615463
919.153217,-1184.329507,766.095498,9548.656652
919.153547,-1110.308913,995.924147,9622.677246
919.153876,-888.247130,1072.533697,9474.636058
919.154206,-740.205942,1302.362347,9770.718434
919.154536,-1110.308913,995.924147,9548.656652
919.154866,-1036.288319,995.924147,9622.677246
919.155195,-962.267725,919.314598,9474.636058
919.155525,-962.267725,995.924147,9622.677246
919.155855,-592.164754,766.095498,9622.677246
919.156185,-1110.308913,689.485948,9474.636058
919.156514,-888.247130,1149.143247,9474.636058
919.156844,-1036.288319,1149.143247,9622.677246
919.157174,-1184.329507,995.924147,9622.677246
919.157503,-962.267725,1225.752797,9622.677246
919.157833,-740.205942,919.314598,9252.574275
919.158163,-962.267725,1072.533697,9474.636058
919.158493,-962.267725,1149.143247,9696.697840
919.158822,-1110.308913,995.924147,9400.615463
919.159152,-1110.308913,995.924147,9474.636058
919.159482,-1184.329507,1762.019645,9474.636058
919.159812,-1036.288319,842.705048,9622.677246
919.160141,-1110.308913,1072.533697,9622.677246
919.160471,-1036.288319,919.314598,9548.656652
919.160801,-1110.308913,1072.533697,9474.636058
919.161131,-1184.329507,1149.143247,9326.594869
919.161460,-962.267725,842.705048,9548.656652
919.161790,-1110.308913,766.095498,9548.656652
919.162120,-1036.288319,1072.533697,9474.636058
919.162449,-1036.288319,1072.533697,9548.656652
919.162779,-1258.350101,1225.752797,9326.594869
919.163109,-1258.350101,1378.971896,9548.656652
919.163439,-888.247130,919.314598,9548.656652
919.163768,-1110.308913,995.924147,9474.636058
919.164098,-1036.288319,919.314598,9548.656652
919.164428,-888.247130,919.314598,9696.697840
919.164758,-814.226536,766.095498,9548.656652
919.165087,-962.267725,995.924147,9548.656652
919.165417,-1036.288319,1149.143247,9474.636058
919.165747,-1110.308913,919.314598,9548.656652
919.166077,-1184.329507,919.314598,9622.677246
919.166406,-814.226536,1149.143247,9696.697840
919.166736,-1036.288319,919.314598,9474.636058
919.167066,-962.267725,766.095498,9622.677246
919.167395,-1110.308913,1072.533697,9474.636058
919.167725,-1110.308913,995.924147,9474.636058
919.168055,-740.205942,612.876398,9696.697840
919.168385,-1184.329507,1072.533697,9252.574275
919.168714,-1110.308913,995.924147,9474.636058
919.169044,-888.247130,766.095498,9400.615463
919.169374,-888.247130,689.485948,9548.656652
919.169704,-1036.288319,612.876398,9326.594869
919.170033,-962.267725,919.314598,9918.759623
919.170363,-1184.329507,842.705048,9474.636058
919.170693,-888.247130,1149.143247,9548.656652
919.171023,-962.267725,842.705048,9474.636058
919.171352,-962.267725,1149.143247,9474.636058
919.171682,-740.205942,536.266849,9252.574275
919.172012,-814.226536,766.095498,9474.636058
919.172341,-962.267725,1149.143247,9474.636058
919.172671,-962.267725,1149.143247,9474.636058
919.173001,-888.247130,1072.533697,9696.697840
919.173331,-1110.308913,1532.190996,9474.636058
919.173660,-1036.288319,1378.971896,9178.553681
919.173990,-888.247130,842.705048,9696.697840
919.174320,-1036.288319,995.924147,9474.636058
919.174650,-1110.308913,995.924147,9474.636058
919.174979,-1110.308913,919.314598,9622.677246
919.175309,-962.267725,689.485948,9104.533087
919.175639,-1258.350101,919.314598,9474.636058
919.175969,-1110.308913,995.924147,9548.656652
919.176298,-1258.350101,995.924147,9622.677246
919.176628,-1110.308913,1072.533697,9622.677246
919.176958,-1184.329507,1225.752797,9474.636058
919.177287,-1184.329507,766.095498,9548.656652
919.177617,-888.247130,842.705048,9252.574275
919.177947,-296.082377,995.924147,8956.491898
919.178277,814.226536,536.266849,9400.615463
919.178606,740.205942,612.876398,9178.553681
919.178936,962.267725,383.047749,8808.450710
919.179266,296.082377,842.705048,9474.636058
919.179596,0.000000,1072.533697,10140.821405
919.179925,-666.185348,1149.143247,10436.903782
919.180255,-666.185348,536.266849,10510.924376
919.180585,-444.123565,0.000000,9622.677246
919.180915,0.000000,0.000000,9400.615463
919.181244,888.247130,153.219100,9326.594869
919.181574,1850.514855,0.000000,8882.471304
919.181904,2738.761985,536.266849,8734.430116
919.182233,3701.029710,1225.752797,8956.491898
919.182563,3701.029710,1378.971896,9104.533087
919.182893,3627.009116,2068.457845,9400.615463
919.183223,3330.926739,1608.800546,10066.800811
919.183552,2664.741391,919.314598,10140.821405
919.183882,1850.514855,1532.190996,10214.842000
919.184212,1036.288319,919.314598,10658.965565
919.184542,1184.329507,0.000000,10658.965565
919.184871,1776.494261,-229.828649,10362.883188
919.185201,2072.576638,-459.657299,9474.636058
919.185531,3478.967927,-612.876398,9326.594869
919.185861,3701.029710,459.657299,8808.450710
919.186190,4367.215058,1608.800546,9252.574275
919.186520,3923.091493,2374.896044,9548.656652
919.186850,3034.844362,2911.162892,10066.800811
919.187179,1480.411884,3064.381992,10436.903782
919.187509,0.000000,2528.115143,10658.965565
919.187839,-1850.514855,1762.019645,9474.636058
919.188169,-1702.473667,766.095498,8734.430116
919.188498,-592.164754,-612.876398,7772.162391
919.188828,962.267725,-1378.971896,7031.956449
919.189158,2516.700203,-766.095498,6587.832884
919.189488,3478.967927,-306.438199,6735.874072
919.189817,3923.091493,1072.533697,7920.203579
919.190147,3182.885551,3370.820191,9770.718434
919.190477,2220.617826,4596.572988,11177.109724
919.190807,1332.370696,4213.525239,12287.418637
919.191136,-370.102971,2987.772442,11991.336260
919.191466,-962.267725,995.924147,12435.459826
919.191796,-1628.453072,-842.705048,11621.233289
919.192126,-1480.411884,-1762.019645,10732.986159
919.192455,-666.185348,-2221.676944,9178.553681
919.192785,1184.329507,-2145.067394,8142.265362
919.193115,3256.906145,-1532.190996,7476.080014
919.193444,4589.276840,-306.438199,7179.997637
919.193774,4959.379811,1455.581446,7254.018232
919.194104,4737.318029,2987.772442,8068.244768
919.194434,4145.153275,3983.696590,9474.636058
919.194763,3256.906145,4290.134789,10436.903782
919.195093,2368.659014,3600.648841,11325.150913
919.195423,1184.329507,2221.676944,11695.253884
919.195753,74.020594,459.657299,11473.192101
919.196082,-592.164754,-766.095498,10881.027347
919.196412,-888.247130,-1532.190996,10362.883188
919.196742,-1036.288319,-1991.848295,10584.944971
919.197072,-296.082377,-1455.581446,10658.965565
919.197401,0.000000,-459.657299,9696.697840
919.197731,888.247130,0.000000,8586.388927
919.198061,2664.741391,612.876398,7698.141797
919.198390,3923.091493,1072.533697,7994.224174
919.198720,4737.318029,1072.533697,8068.244768
919.199050,4589.276840,1072.533697,8290.306550
919.199380,3849.070898,1225.752797,9326.594869
919.199709,3256.906145,1608.800546,9622.677246
919.200039,1628.453072,2221.676944,10436.903782
919.200369,666.185348,1838.629195,10584.944971
919.200699,592.164754,1455.581446,10362.883188
919.201028,666.185348,1455.581446,10362.883188
919.201358,888.247130,1685.410096,9770.718434
919.201688,0.000000,1072.533697,8956.491898
919.202018,74.020594,536.266849,8586.388927
919.202347,0.000000,536.266849,8364.327145
919.202677,-148.041188,919.314598,8956.491898
919.203007,-666.185348,995.924147,8956.491898
919.203336,-1184.329507,612.876398,8734.430116
919.203666,-1480.411884,536.266849,9104.533087
919.203996,-1998.556043,383.047749,9400.615463
919.204326,-1924.535449,459.657299,10436.903782
919.204655,-1850.514855,153.219100,11251.130318
919.204985,-2294.638420,842.705048,11473.192101
919.205315,-2590.720797,1225.752797,10214.842000
919.205645,-1110.308913,459.657299,10066.800811
919.205974,296.082377,383.047749,9400.615463
919.206304,1628.453072,689.485948,9474.636058
919.206634,2368.659014,1762.019645,9252.574275
919.206964,3034.844362,2911.162892,8956.491898
919.207293,3701.029710,2987.772442,8882.471304
919.207623,3404.947333,2911.162892,9030.512492
919.207953,2146.597232,3064.381992,9548.656652
919.208282,518.144159,3677.258390,9844.739029
919.208612,-1036.288319,2451.505594,9992.780217
919.208942,-2664.741391,1149.143247,10288.862594
919.209272,-3923.091493,229.828649,9992.780217
919.209601,-4885.359217,-1225.752797,9770.718434
919.209931,-5995.668130,-1685.410096,9400.615463
919.210261,-6217.729913,-842.705048,8068.244768
919.210591,-5181.441594,-919.314598,7994.224174
919.210920,-3404.947333,-612.876398,7550.100608
919.211250,-1554.432478,153.219100,7698.141797
919.211580,296.082377,1838.629195,7105.977043
919.211910,2220.617826,2681.334243,6883.915261
919.212239,3849.070898,1991.848295,7179.997637
919.212569,4145.153275,2834.553343,9844.739029
919.212899,2220.617826,3983.696590,11769.274478
919.213228,296.082377,4136.915689,13175.665768
919.213558,-1480.411884,3140.991542,13545.768739
919.213888,-2368.659014,2145.067394,12287.418637
919.214218,-2960.823768,-229.828649,11325.150913
919.214547,-3330.926739,-3524.039291,10807.006753
919.214877,-3404.947333,-2528.115143,10436.903782
919.215207,-3701.029710,-1685.410096,8882.471304
919.215537,-2072.576638,-2068.457845,7846.182985
919.215866,-370.102971,-1225.752797,6587.832884
919.216196,2072.576638,0.000000,6365.771101
919.216526,4663.297435,306.438199,6957.935855
919.216856,5403.503377,1762.019645,7105.977043
919.217185,4811.338623,4366.744339,8068.244768
919.217515,2516.700203,4519.963438,10436.903782
919.217845,-518.144159,4519.963438,13471.748144
919.218174,-3775.050304,4519.963438,13767.830521
919.218504,-5847.626942,2221.676944,12879.583391
919.218834,-7254.018232,-919.314598,11769.274478
919.219164,-7476.080014,-2374.896044,10732.986159
919.219493,-7402.059420,-3600.648841,9696.697840
919.219823,-5625.565159,-3677.258390,7846.182985
919.220153,-2960.823768,-2987.772442,6365.771101
919.220483,148.041188,-995.924147,4885.359217
919.220812,3256.906145,1302.362347,3627.009116
919.221142,6069.688724,766.095498,4663.297435
919.221472,7328.038826,2221.676944,6883.915261
919.221802,6069.688724,4596.572988,9548.656652
919.222131,2738.761985,6281.983084,12509.480420
919.222461,-1554.432478,5592.497135,15026.180623
919.222791,-4811.338623,3907.087040,15544.324782
919.223120,-6587.832884,2221.676944,14285.974681
919.223450,-6661.853478,-2681.334243,11917.315666
919.223780,-6291.750507,-5592.497135,10436.903782
919.224109,-6069.688724,-4519.963438,8660.409521
919.224439,-4885.359217,-3677.258390,7624.121203
919.224769,-2368.659014,-2451.505594,6957.935855
919.225098,296.082377,153.219100,5625.565159
919.225428,3775.050304,2451.505594,4367.215058
919.225757,6217.729913,2834.553343,5329.482782
919.226087,7105.977043,3524.039291,7772.162391
919.226416,5329.482782,5056.230287,10732.986159
919.226746,1258.350101,4903.011187,13101.645173
919.227075,-3775.050304,4213.525239,15322.262999
919.227405,-6587.832884,3830.477490,15618.345376
919.227735,-7772.162391,1685.410096,13545.768739
919.228064,-6661.853478,-3294.210641,10881.027347
919.228394,-5033.400406,-5975.544884,8734.430116
919.228723,-3404.947333,-4826.401637,7254.018232
919.229053,-2146.597232,-2604.724693,6809.894666
919.229382,-518.144159,-536.266849,6291.750507
919.229712,1998.556043,1838.629195,5255.462188
919.230041,4737.318029,3983.696590,5329.482782
919.230371,6365.771101,3983.696590,6661.853478
919.230700,6143.709319,4596.572988,8882.471304
919.231030,3701.029710,4979.620737,11547.212695
919.231360,-518.144159,4443.353888,13545.768739
919.231689,-4663.297435,4903.011187,13841.851115
919.232019,-7105.977043,3830.477490,13249.686362
919.232348,-6513.812290,-383.047749,11177.109724
919.232678,-5403.503377,-4749.792088,9400.615463
919.233007,-4293.194464,-5362.668486,8364.327145
919.233337,-2960.823768,-3600.648841,7179.997637
919.233666,-2146.597232,-1455.581446,6513.812290
919.233996,0.000000,383.047749,6217.729913
919.234326,2442.679609,1762.019645,6587.832884
919.234655,4811.338623,2298.286494,8290.306550
919.234985,5921.647536,4673.182538,8216.285956
919.235314,5181.441594,5286.058936,9252.574275
919.235644,4071.132681,4749.792088,11695.253884
919.235973,1110.308913,4136.915689,13841.851115
919.236303,-2368.659014,3524.039291,13841.851115
919.236632,-4811.338623,2374.896044,12953.603985
919.236962,-5773.606348,0.000000,11547.212695
919.237291,-6069.688724,-1991.848295,10658.965565
919.237621,-5995.668130,-3217.601092,9474.636058
919.237951,-4737.318029,-4136.915689,7994.224174
919.238280,-2886.803174,-2757.943793,6217.729913
919.238610,-962.267725,-919.314598,6439.791695
919.238939,1110.308913,1608.800546,6809.894666
919.239269,2146.597232,3370.820191,6735.874072
919.239598,3701.029710,2911.162892,7031.956449
919.239928,4441.235652,3294.210641,8734.430116
919.240257,3256.906145,4749.792088,11399.171507
919.240587,-148.041188,4290.134789,12953.603985
919.240917,-3034.844362,3907.087040,13915.871710
919.241246,-5551.544565,3140.991542,12879.583391
919.241576,-5699.585753,1225.752797,11473.192101
919.241905,-4219.173869,-2374.896044,10214.842000
919.242235,-3701.029710,-3217.601092,8808.450710
919.242564,-2960.823768,-1915.238745,7254.018232
919.242894,-1776.494261,-2145.067394,6143.709319
919.243223,222.061783,-229.828649,6513.812290
919.243553,1036.288319,2681.334243,6069.688724
919.243882,1850.514855,3294.210641,6291.750507
919.244212,2812.782580,2451.505594,7550.100608
919.244542,3182.885551,2604.724693,9770.718434
919.244871,1850.514855,3217.601092,11695.253884
919.245201,-1406.391290,2911.162892,13323.706956
919.245530,-3701.029710,3447.429741,12953.603985
919.245860,-4367.215058,1378.971896,12361.439231
919.246189,-4737.318029,-1838.629195,11103.089130
919.246519,-3997.112087,-2757.943793,10584.944971
919.246848,-3478.967927,-2145.067394,9474.636058
919.247178,-2368.659014,-1762.019645,8438.347739
919.247507,-518.144159,-1608.800546,7328.038826
919.247837,1406.391290,76.609550,6957.935855
919.248167,3256.906145,1072.533697,6661.853478
919.248496,4441.235652,2451.505594,7254.018232
919.248826,4589.276840,3447.429741,8068.244768
919.249155,4663.297435,2987.772442,9252.574275
919.249485,2442.679609,2451.505594,11547.212695
919.249814,-1332.370696,3140.991542,12879.583391
919.250144,-4515.256246,2987.772442,13619.789333
919.250473,-6217.729913,1991.848295,12805.562797
919.250803,-6439.791695,-459.657299,11177.109724
919.251133,-5995.668130,-3677.258390,9696.697840
919.251462,-5551.544565,-4366.744339,8660.409521
919.251792,-4145.153275,-3140.991542,7698.141797
919.252121,-2146.597232,-2451.505594,7031.956449
919.252451,518.144159,-919.314598,6217.729913
919.252780,2368.659014,1149.143247,6291.750507
919.253110,4589.276840,2145.067394,7254.018232
919.253439,5847.626942,2987.772442,8364.327145
919.253769,5403.503377,4366.744339,10066.800811
919.254098,3256.906145,5286.058936,12139.377449
919.254428,222.061783,4673.182538,13101.645173
919.254758,-3108.864956,3524.039291,14359.995275
919.255087,-5255.462188,2911.162892,13989.892304
919.255417,-6587.832884,0.000000,11621.233289
919.255746,-6587.832884,-3217.601092,9252.574275
919.256076,-5625.565159,-4673.182538,7994.224174
919.256405,-4589.276840,-4136.915689,6957.935855
919.256735,-2516.700203,-2145.067394,5551.544565
919.257064,-814.226536,536.266849,3552.988522
919.257394,1702.473667,1838.629195,4219.173869
919.257724,3701.029710,2221.676944,6809.894666
919.258053,3997.112087,3524.039291,10066.800811
919.258383,2146.597232,5286.058936,12657.521608
919.258712,-1258.350101,5669.106685,14285.974681
919.259042,-4811.338623,4903.011187,15322.262999
919.259371,-6661.853478,3524.039291,14137.933492
919.259701,-6069.688724,0.000000,11843.295072
919.260030,-4441.235652,-3294.210641,9474.636058
919.260360,-3627.009116,-4903.011187,7846.182985
919.260689,-2664.741391,-3677.258390,7179.997637
919.261019,-1776.494261,-2068.457845,6883.915261
919.261349,222.061783,-459.657299,6735.874072
919.261678,2442.679609,2451.505594,6661.853478
919.262008,5255.462188,3524.039291,6587.832884
919.262337,6957.935855,4903.011187,7624.121203
919.262667,6735.874072,5209.449386,9030.512492
919.262996,4589.276840,4979.620737,11325.150913
919.263326,1184.329507,5362.668486,13027.624579
919.263655,-2664.741391,4903.011187,13693.809927
919.263985,-5551.544565,2757.943793,13693.809927
919.264315,-6661.853478,0.000000,11991.336260
919.264644,-6217.729913,-2451.505594,9844.739029
919.264974,-5921.647536,-4596.572988,8364.327145
919.265303,-5403.503377,-4443.353888,7179.997637
919.265633,-4293.194464,-2451.505594,6661.853478
919.265962,-1924.535449,-689.485948,6809.894666
919.266292,444.123565,383.047749,7105.977043
919.266621,2812.782580,2145.067394,7254.018232
919.266951,5033.400406,3907.087040,7772.162391
919.267280,5921.647536,4136.915689,8734.430116
919.267610,5255.462188,4443.353888,11029.068536
919.267940,1924.535449,5132.839837,12953.603985
919.268269,-1110.308913,4903.011187,12953.603985
919.268599,-3330.926739,2911.162892,12583.501014
919.268928,-4367.215058,766.095498,11621.233289
919.269258,-4441.235652,-1838.629195,10510.924376
919.269587,-4441.235652,-3983.696590,9622.677246
919.269917,-3849.070898,-4136.915689,7994.224174
919.270246,-2590.720797,-2604.724693,7179.997637
919.270576,-1110.308913,-919.314598,7031.956449
919.270905,962.267725,459.657299,7772.162391
919.271235,2516.700203,2451.505594,7846.182985
919.271565,3552.988522,3064.381992,8142.265362
919.271894,4515.256246,2528.115143,9252.574275
919.272224,3330.926739,3983.696590,10807.006753
919.272553,370.102971,4519.963438,12879.583391
919.272883,-3330.926739,3524.039291,13767.830521
919.273212,-5699.585753,2451.505594,13027.624579
919.273542,-6069.688724,383.047749,11177.109724
919.273871,-5847.626942,-3217.601092,9178.553681
919.274201,-5625.565159,-4596.572988,8734.430116
919.274531,-4515.256246,-3907.087040,7698.141797
919.274860,-2664.741391,-2834.553343,7179.997637
919.275190,-666.185348,-306.438199,6217.729913
919.275519,1258.350101,3064.381992,5329.482782
919.275849,3627.009116,2221.676944,6439.791695
919.276178,5329.482782,2528.115143,8438.347739
919.276508,4959.379811,3600.648841,10436.903782
919.276837,2442.679609,4903.011187,12065.356855
919.277167,-444.123565,5132.839837,13915.871710
919.277496,-4071.132681,4060.306139,13915.871710
919.277826,-5551.544565,2298.286494,12287.418637
919.278156,-5255.462188,-1991.848295,10658.965565
919.278485,-4737.318029,-4136.915689,9178.553681
919.278815,-4737.318029,-4519.963438,7994.224174
919.279144,-3997.112087,-4136.915689,7476.080014
919.279474,-3256.906145,-2451.505594,7624.121203
919.279803,-888.247130,76.609550,7624.121203
919.280133,1628.453072,1532.190996,7328.038826
919.280462,4145.153275,3447.429741,7328.038826
919.280792,5921.647536,3983.696590,8660.409521
919.281122,5477.523971,3830.477490,9844.739029
919.281451,2738.761985,3983.696590,11843.295072
919.281781,-592.164754,4826.401637,12953.603985
919.282110,-3849.070898,4366.744339,13915.871710
919.282440,-6143.709319,1991.848295,13397.727550
919.282769,-7105.977043,-383.047749,11029.068536
919.283099,-6587.832884,-3677.258390,9400.615463
919.283428,-5477.523971,-4903.011187,7994.224174
919.283758,-4441.235652,-3370.820191,7031.956449
919.284087,-2886.803174,-2374.896044,6587.832884
919.284417,-888.247130,0.000000,6143.709319
919.284747,888.247130,2604.724693,5403.503377
919.285076,2960.823768,2834.553343,6439.791695
919.285406,5033.400406,3140.991542,8512.368333
919.285735,4589.276840,3983.696590,10732.986159
919.286065,2072.576638,5056.230287,12731.542202
919.286394,-1776.494261,4826.401637,13471.748144
919.286724,-4441.235652,3983.696590,12953.603985
919.287053,-5181.441594,1608.800546,11917.315666
919.287383,-4737.318029,-2298.286494,10436.903782
919.287713,-4589.276840,-3370.820191,9622.677246
919.288042,-3923.091493,-3370.820191,7698.141797
919.288372,-3108.864956,-3294.210641,7179.997637
919.288701,-1924.535449,-1378.971896,7179.997637
919.289031,74.020594,1225.752797,7105.977043
919.289360,2812.782580,2145.067394,6957.935855
919.289690,4367.215058,2911.162892,7328.038826
919.290019,4959.379811,4136.915689,8438.347739
919.290349,4441.235652,4213.525239,10658.965565
919.290678,1406.391290,4213.525239,12509.480420
919.291008,-2146.597232,4903.011187,13101.645173
919.291338,-4737.318029,3677.258390,12731.542202
919.291667,-5699.585753,689.485948,11917.315666
919.291997,-5625.565159,-2298.286494,10584.944971
919.292326,-5625.565159,-4366.744339,9030.512492
919.292656,-5033.400406,-4136.915689,8142.265362
919.292985,-3034.844362,-2911.162892,7179.997637
919.293315,-1480.411884,-1532.190996,7105.977043
919.293644,592.164754,153.219100,7105.977043
919.293974,2368.659014,2298.286494,7402.059420
919.294304,4441.235652,3294.210641,8290.306550
919.294633,5477.523971,4903.011187,8882.471304
919.294963,4441.235652,5209.449386,10066.800811
919.295292,1998.556043,5132.839837,11917.315666
919.295622,-814.226536,3677.258390,12583.501014
919.295951,-2960.823768,2528.115143,12435.459826
919.296281,-4367.215058,612.876398,11621.233289
919.296610,-5255.462188,-1455.581446,10362.883188
919.296940,-5921.647536,-2834.553343,8808.450710
919.297269,-5477.523971,-3983.696590,7550.100608
919.297599,-3923.091493,-3370.820191,7105.977043
919.297929,-2368.659014,-1302.362347,7179.997637
919.298258,-592.164754,689.485948,7550.100608
919.298588,962.267725,1302.362347,8142.265362
919.298917,1998.556043,2528.115143,8660.409521
919.299247,3849.070898,3217.601092,9400.615463
919.299576,4441.235652,3370.820191,10214.842000
919.299906,3108.864956,4443.353888,11769.274478
919.300235,0.000000,3907.087040,12139.377449
919.300565,-2220.617826,2221.676944,12435.459826
919.300894,-3997.112087,612.876398,11621.233289
919.301224,-4367.215058,-1225.752797,10732.986159
919.301554,-4737.318029,-2451.505594,10214.842000
919.301883,-4293.194464,-2528.115143,8734.430116
919.302213,-2886.803174,-2911.162892,7772.162391
919.302542,-592.164754,-2221.676944,7031.956449
919.302872,592.164754,76.609550,6439.791695
919.303201,1850.514855,2145.067394,7105.977043
919.303531,3108.864956,3064.381992,7994.224174
919.303860,2960.823768,2987.772442,8512.368333
919.304190,2442.679609,3983.696590,9992.780217
919.304520,222.061783,3600.648841,11473.192101
919.304849,-2442.679609,2987.772442,12805.562797
919.305179,-5329.482782,2757.943793,12731.542202
919.305508,-7031.956449,919.314598,11843.295072
919.305838,-6809.894666,-1455.581446,10584.944971
919.306167,-6143.709319,-3140.991542,9326.594869
919.306497,-4737.318029,-4060.306139,8142.265362
919.306826,-2590.720797,-3064.381992,7550.100608
919.307156,-444.123565,-1532.190996,7179.997637
919.307485,1406.391290,1685.410096,6661.853478
919.307815,3552.988522,3140.991542,6661.853478
919.308145,5551.544565,2528.115143,7624.121203
919.308474,6217.729913,3370.820191,9622.677246
919.308804,4737.318029,4519.963438,11029.068536
919.309133,1036.288319,4903.011187,12583.501014
919.309463,-2442.679609,3983.696590,13397.727550
919.309792,-5107.421000,2298.286494,13323.706956
919.310122,-6291.750507,-689.485948,11917.315666
919.310451,-6439.791695,-3753.867940,10881.027347
919.310781,-6069.688724,-3907.087040,9178.553681
919.311111,-5477.523971,-3447.429741,7994.224174
919.311440,-3627.009116,-2987.772442,6957.935855
919.311770,-1406.391290,-995.924147,6587.832884
919.312099,444.123565,1532.190996,5255.462188
919.312429,2664.741391,2834.553343,5329.482782
919.312758,4145.153275,2528.115143,6883.915261
919.313088,4145.153275,3294.210641,9474.636058
919.313417,1554.432478,3677.258390,11399.171507
919.313747,-2220.617826,4213.525239,13767.830521
919.314076,-4885.359217,4060.306139,14508.036463
919.314406,-6143.709319,2451.505594,13693.809927
919.314736,-5699.585753,-766.095498,11251.130318
919.315065,-4293.194464,-3753.867940,9474.636058
919.315395,-3256.906145,-3983.696590,7994.224174
919.315724,-2146.597232,-2681.334243,7476.080014
919.316054,-962.267725,-1455.581446,7328.038826
919.316383,814.226536,995.924147,7402.059420
919.316713,2516.700203,3064.381992,6957.935855
919.317042,4885.359217,3447.429741,6809.894666
919.317372,6809.894666,3064.381992,8142.265362
919.317702,6217.729913,3064.381992,10066.800811
919.318031,2664.741391,4443.353888,12213.398043
919.318361,-1702.473667,4979.620737,13101.645173
919.318690,-4293.194464,3753.867940,13101.645173
919.319020,-5699.585753,1302.362347,12583.501014
919.319349,-5995.668130,-1072.533697,11325.150913
919.319679,-6069.688724,-3217.601092,9696.697840
919.320008,-5847.626942,-3370.820191,8808.450710
919.320338,-4737.318029,-2451.505594,7476.080014
919.320667,-2368.659014,-1685.410096,6957.935855
919.320997,-444.123565,-536.266849,6069.688724
919.321327,1776.494261,1455.581446,6217.729913
919.321656,3849.070898,2374.896044,6957.935855
919.321986,5107.421000,3140.991542,8068.244768
919.322315,4811.338623,4443.353888,9548.656652
919.322645,2590.720797,4903.011187,10955.047942
919.322974,-370.102971,4596.572988,12731.542202
919.323304,-2738.761985,3600.648841,13397.727550
919.323633,-4071.132681,2451.505594,12953.603985
919.323963,-4737.318029,76.609550,11547.212695
919.324292,-4959.379811,-2221.676944,10214.842000
919.324622,-4515.256246,-2987.772442,9252.574275
919.324952,-2812.782580,-2987.772442,8142.265362
919.325281,-1332.370696,-1838.629195,7179.997637
919.325611,0.000000,-153.219100,6661.853478
919.325940,1776.494261,1455.581446,6883.915261
919.326270,3330.926739,1532.190996,7550.100608
919.326600,3775.050304,2911.162892,9178.553681
919.326929,3627.009116,3677.258390,10214.842000
919.327259,1332.370696,4519.963438,11621.233289
919.327588,-1480.411884,4290.134789,12509.480420
919.327918,-3923.091493,2528.115143,12657.521608
919.328248,-4959.379811,612.876398,12139.377449
919.328577,-5995.668130,-1225.752797,10658.965565
919.328907,-6217.729913,-2604.724693,9474.636058
919.329237,-5477.523971,-3370.820191,8364.327145
919.329566,-3256.906145,-3447.429741,7994.224174
919.329896,-1110.308913,-1915.238745,7179.997637
919.330226,592.164754,153.219100,6365.771101
919.330555,2368.659014,2451.505594,5551.544565
919.330885,4293.194464,2604.724693,6513.812290
919.331215,5329.482782,2911.162892,8216.285956
919.331544,4219.173869,3907.087040,10066.800811
919.331874,1036.288319,4749.792088,11769.274478
919.332204,-2220.617826,3753.867940,13175.665768
919.332533,-4811.338623,2451.505594,13767.830521
919.332863,-5995.668130,1072.533697,12657.521608
919.333192,-5921.647536,-1685.410096,10881.027347
919.333522,-5551.544565,-4136.915689,9252.574275
919.333852,-4737.318029,-3447.429741,8142.265362
919.334181,-3256.906145,-3064.381992,7402.059420
919.334511,-1184.329507,-1991.848295,7254.018232
919.334841,518.144159,536.266849,6809.894666
919.335170,2516.700203,2298.286494,7254.018232
919.335500,3997.112087,2528.115143,7624.121203
919.335830,5107.421000,2374.896044,8808.450710
919.336159,4145.153275,3140.991542,10658.965565
919.336489,1258.350101,3983.696590,12583.501014
919.336819,-1702.473667,3983.696590,13397.727550
919.337148,-4737.318029,3370.820191,13545.768739
919.337478,-6143.709319,995.924147,12583.501014
919.337807,-6661.853478,-1455.581446,11473.192101
919.338137,-6291.750507,-2451.505594,9770.718434
919.338467,-5033.400406,-2911.162892,8364.327145
919.338796,-3404.947333,-2451.505594,7105.977043
919.339126,-1184.329507,-1762.019645,5995.668130
919.339456,1258.350101,76.609550,5403.503377
919.339785,3034.844362,1378.971896,5847.626942
919.340115,4293.194464,2757.943793,7105.977043
919.340445,4663.297435,4443.353888,8068.244768
919.340774,3256.906145,3983.696590,9622.677246
919.341104,740.205942,4213.525239,11621.233289
919.341434,-2294.638420,3830.477490,12879.583391
919.341763,-4589.276840,2681.334243,13323.706956
919.342093,-5699.585753,1225.752797,12435.459826
919.342423,-5847.626942,-1225.752797,11621.233289
919.342752,-5403.503377,-2145.067394,10140.821405
919.343082,-3923.091493,-2528.115143,8808.450710
919.343411,-2072.576638,-2221.676944,7328.038826
919.343741,222.061783,-689.485948,6217.729913
919.344071,2368.659014,766.095498,5921.647536
919.344400,4219.173869,2298.286494,6587.832884
919.344730,4737.318029,2911.162892,8068.244768
919.345060,4441.235652,3447.429741,9918.759623
919.345389,2664.741391,4519.963438,11399.171507
919.345719,74.020594,4290.134789,12509.480420
919.346049,-2368.659014,3677.258390,13471.748144
919.346378,-4663.297435,1685.410096,13249.686362
919.346708,-5477.523971,-459.657299,12435.459826
919.347038,-6069.688724,-1762.019645,10955.047942
919.347367,-5773.606348,-1762.019645,9696.697840
919.347697,-4737.318029,-2451.505594,7994.224174
919.348026,-2368.659014,-2145.067394,6809.894666
919.348356,444.123565,-919.314598,5477.523971
919.348686,2886.803174,1378.971896,4663.297435
919.349015,4811.338623,2374.896044,5699.585753
919.349345,5847.626942,3217.601092,7920.203579
919.349675,3849.070898,4749.792088,9474.636058
919.350004,1036.288319,5592.497135,10658.965565
919.350334,-1998.556043,5056.230287,11843.295072
919.350664,-4515.256246,3447.429741,12953.603985
919.350993,-5995.668130,919.314598,12953.603985
919.351323,-6883.915261,-1378.971896,11695.253884
919.351653,-7476.080014,-3217.601092,10140.821405
919.351982,-5773.606348,-4060.306139,8734.430116
919.352312,-3775.050304,-4136.915689,7772.162391
919.352642,-888.247130,-2604.724693,6883.915261
919.352971,1554.432478,-229.828649,6957.935855
919.353301,4515.256246,1455.581446,6735.874072
919.353630,6291.750507,3370.820191,7550.100608
919.353960,7031.956449,4366.744339,9104.533087
919.354290,5921.647536,4673.182538,10732.986159
919.354619,3182.885551,5669.106685,12731.542202
919.354949,148.041188,4826.401637,13767.830521
919.355279,-2368.659014,2681.334243,13989.892304
919.355608,-4441.235652,459.657299,13101.645173
919.355938,-5995.668130,-1455.581446,10955.047942
919.356268,-6217.729913,-3217.601092,9844.739029
919.356597,-5921.647536,-3753.867940,8660.409521
919.356927,-4367.215058,-3064.381992,6957.935855
919.357257,-2960.823768,-2374.896044,5847.626942
919.357586,-518.144159,-689.485948,5847.626942
919.357916,1554.432478,1302.362347,6587.832884
919.358246,3256.906145,2681.334243,7105.977043
919.358575,3330.926739,3677.258390,7624.121203
919.358905,2812.782580,3600.648841,9252.574275
919.359234,1110.308913,3753.867940,11621.233289
919.359564,-1332.370696,4366.744339,13101.645173
919.359894,-3330.926739,3600.648841,13249.686362
919.360223,-4441.235652,1532.190996,12213.398043
919.360553,-4663.297435,-995.924147,10955.047942
919.360883,-3997.112087,-2451.505594,10288.862594
919.361212,-3256.906145,-2451.505594,8956.491898
919.361542,-2294.638420,-1378.971896,7254.018232
919.361872,-518.144159,-536.266849,6365.771101
919.362201,1258.350101,842.705048,6439.791695
919.362531,3182.885551,1608.800546,6661.853478
919.362861,4663.297435,2374.896044,7624.121203
919.363190,4737.318029,2834.553343,8882.471304
919.363520,3256.906145,3217.601092,10436.903782
919.363849,592.164754,3907.087040,12583.501014
919.364179,-2220.617826,3830.477490,13545.768739
919.364509,-4515.256246,2604.724693,13545.768739
919.364838,-5847.626942,459.657299,12509.480420
919.365168,-6513.812290,-995.924147,11103.089130
919.365498,-6809.894666,-2757.943793,10140.821405
919.365827,-6217.729913,-3294.210641,8734.430116
919.366157,-4885.359217,-3064.381992,7105.977043
919.366487,-2516.700203,-2451.505594,5921.647536
919.366816,814.226536,-1378.971896,5995.668130
919.367146,2664.741391,1149.143247,5921.647536
919.367476,4145.153275,2987.772442,6143.709319
919.367805,5033.400406,2757.943793,7402.059420
919.368135,4589.276840,3600.648841,10140.821405
919.368465,1776.494261,4903.011187,12509.480420
919.368794,-1924.535449,4979.620737,14063.912898
919.369124,-4737.318029,3753.867940,14285.974681
919.369453,-5699.585753,1991.848295,12509.480420
919.369783,-5181.441594,-1608.800546,10436.903782
919.370113,-3923.091493,-4903.011187,9178.553681
919.370442,-3404.947333,-4366.744339,7772.162391
919.370772,-2516.700203,-3294.210641,7105.977043
919.371102,-1332.370696,-1991.848295,6809.894666
919.371431,444.123565,919.314598,6957.935855
919.371761,2590.720797,2528.115143,7550.100608
919.372091,4811.338623,3294.210641,8512.368333
919.372420,5181.441594,3830.477490,9474.636058
919.372750,4071.132681,4979.620737,10436.903782
919.373080,1258.350101,4903.011187,11843.295072
919.373409,-1924.535449,4060.306139,13027.624579
919.373739,-4663.297435,2451.505594,13471.748144
919.374068,-5625.565159,536.266849,12509.480420
919.374398,-6217.729913,-1685.410096,11251.130318
919.374728,-5921.647536,-2757.943793,9474.636058
919.375057,-4737.318029,-3217.601092,7402.059420
919.375387,-2072.576638,-3140.991542,6069.688724
919.375717,666.185348,-2374.896044,5773.606348
919.376046,1998.556043,229.828649,6143.709319
919.376376,3404.947333,2681.334243,6883.915261
919.376706,4219.173869,4136.915689,7624.121203
919.377035,4737.318029,4903.011187,8956.491898
919.377365,3775.050304,5209.449386,10436.903782
919.377695,1110.308913,5209.449386,12509.480420
919.378024,-1554.432478,4290.134789,12805.562797
919.378354,-4367.215058,2604.724693,12435.459826
919.378684,-5699.585753,919.314598,11473.192101
919.379013,-5921.647536,-1838.629195,10436.903782
919.379343,-5773.606348,-3217.601092,9474.636058
919.379672,-4737.318029,-3447.429741,7920.203579
919.380002,-3108.864956,-2757.943793,7105.977043
919.380332,-888.247130,-842.705048,6809.894666
919.380661,1628.453072,612.876398,7105.977043
919.380991,3330.926739,2298.286494,7698.141797
919.381321,3997.112087,3600.648841,9030.512492
919.381650,3849.070898,4443.353888,10436.903782
919.381980,2590.720797,5515.887586,11843.295072
919.382310,370.102971,5669.106685,12805.562797
919.382639,-1480.411884,3753.867940,12805.562797
919.382969,-3478.967927,1532.190996,12805.562797
919.383299,-4737.318029,-306.438199,11399.171507
919.383628,-5403.503377,-2221.676944,9696.697840
919.383958,-5625.565159,-3447.429741,8882.471304
919.384287,-4737.318029,-2298.286494,7476.080014
919.384617,-2738.761985,-2451.505594,6661.853478
919.384947,-666.185348,-1302.362347,6587.832884
919.385276,1332.370696,1072.533697,6735.874072
919.385606,2812.782580,3064.381992,6883.915261
919.385936,3923.091493,3677.258390,7179.997637
919.386265,3701.029710,3140.991542,8364.327145
919.386595,2368.659014,3753.867940,10732.986159
919.386925,-296.082377,3830.477490,12583.501014
919.387254,-3552.988522,3524.039291,13249.686362
919.387584,-5921.647536,2145.067394,12731.542202
919.387914,-6217.729913,-306.438199,10732.986159
919.388243,-5255.462188,-2987.772442,9326.594869
919.388573,-4071.132681,-4290.134789,8586.388927
919.388903,-3108.864956,-4213.525239,7698.141797
919.389232,-1702.473667,-2604.724693,7254.018232
919.389562,148.041188,-153.219100,6957.935855
919.389891,1998.556043,1532.190996,7254.018232
919.390221,4219.173869,2451.505594,8956.491898
919.390551,4885.359217,3294.210641,9992.780217
919.390880,4293.194464,4290.134789,11325.150913
919.391210,2294.638420,5056.230287,12065.356855
919.391540,148.041188,4596.572988,12509.480420
919.391869,-2146.597232,2451.505594,13101.645173
919.392199,-3849.070898,76.609550,12805.562797
919.392529,-4885.359217,-1838.629195,11695.253884
919.392858,-5995.668130,-2374.896044,9992.780217
919.393188,-6439.791695,-2528.115143,8216.285956
919.393518,-4885.359217,-3447.429741,6735.874072
919.393847,-2516.700203,-2834.553343,6587.832884
919.394177,0.000000,-1149.143247,6217.729913
919.394507,2220.617826,1378.971896,6291.750507
919.394836,3330.926739,3677.258390,6365.771101
919.395166,3849.070898,4443.353888,7179.997637
919.395495,3478.967927,3907.087040,9252.574275
919.395825,1554.432478,4136.915689,11473.192101
919.396155,-1628.453072,4136.915689,13101.645173
919.396484,-4589.276840,3677.258390,13989.892304
919.396814,-6291.750507,2145.067394,12953.603985
919.397144,-6809.894666,-689.485948,11251.130318
919.397473,-5699.585753,-3600.648841,9474.636058
919.397803,-4441.235652,-4826.401637,8364.327145
919.398133,-2960.823768,-3524.039291,7550.100608
919.398462,-962.267725,-1991.848295,7550.100608
919.398792,1110.308913,536.266849,7179.997637
919.399122,2886.803174,2145.067394,7105.977043
919.399451,4737.318029,2911.162892,8290.306550
919.399781,5477.523971,3447.429741,9548.656652
919.400110,4589.276840,4979.620737,11103.089130
919.400440,2072.576638,5439.278036,12139.377449
919.400770,-592.164754,4596.572988,13101.645173
919.401099,-2812.782580,3064.381992,13323.706956
919.401429,-4293.194464,1072.533697,12213.398043
919.401759,-5033.400406,-1915.238745,10807.006753
919.402088,-5551.544565,-2911.162892,9622.677246
919.402418,-5551.544565,-2528.115143,8586.388927
919.402748,-4737.318029,-2451.505594,7179.997637
919.403077,-2664.741391,-1608.800546,6291.750507
919.403407,0.000000,0.000000,5699.585753
919.403737,1480.411884,1532.190996,6069.688724
919.404066,2368.659014,3064.381992,6735.874072
919.404396,2738.761985,3677.258390,7476.080014
919.404726,2294.638420,3677.258390,9696.697840
919.405055,444.123565,4136.915689,11769.274478
919.405385,-1850.514855,4290.134789,12583.501014
919.405714,-3775.050304,2681.334243,12657.521608
919.406044,-4145.153275,995.924147,11769.274478
919.406374,-4293.194464,-842.705048,9992.780217
919.406703,-3256.906145,-2604.724693,9400.615463
919.407033,-2368.659014,-3753.867940,8586.388927
919.407363,-1702.473667,-1532.190996,8142.265362
919.407692,-296.082377,0.000000,7994.224174
919.408022,1480.411884,1608.800546,7624.121203
919.408352,3256.906145,2451.505594,7920.203579
919.408681,4737.318029,2757.943793,8512.368333
919.409011,4811.338623,3677.258390,10214.842000
919.409341,3034.844362,4136.915689,11325.150913
919.409670,74.020594,4826.401637,12287.418637
919.410000,-2812.782580,3600.648841,12731.542202
919.410329,-5255.462188,1455.581446,12731.542202
919.410659,-6291.750507,0.000000,11621.233289
919.410989,-6957.935855,-1915.238745,10140.821405
919.411318,-6661.853478,-3294.210641,9178.553681
919.411648,-5551.544565,-3447.429741,7920.203579
919.411978,-3701.029710,-2987.772442,6957.935855
919.412307,-1480.411884,-1532.190996,7105.977043
919.412637,1110.308913,1149.143247,6513.812290
919.412967,3182.885551,3370.820191,6439.791695
919.413296,5033.400406,3830.477490,7179.997637
919.413626,5403.503377,3447.429741,8956.491898
919.413956,4071.132681,4749.792088,10807.006753
919.414285,592.164754,5209.449386,12065.356855
919.414615,-2368.659014,4136.915689,13397.727550
919.414945,-4589.276840,2757.943793,13027.624579
919.415274,-5255.462188,306.438199,11103.089130
919.415604,-4515.256246,-3447.429741,9178.553681
919.415933,-3997.112087,-4979.620737,7846.182985
919.416263,-3404.947333,-3600.648841,7698.141797
919.416593,-2738.761985,-2145.067394,7254.018232
919.416922,-1110.308913,-766.095498,7328.038826
919.417252,814.226536,1532.190996,7476.080014
919.417582,2960.823768,2451.505594,8438.347739
919.417911,4515.256246,2604.724693,9474.636058
919.418241,4145.153275,4060.306139,10584.944971
919.418571,2220.617826,4519.963438,11547.212695
919.418900,-296.082377,3753.867940,12065.356855
919.419230,-2368.659014,2834.553343,13175.665768
919.419560,-4515.256246,1455.581446,12657.521608
919.419889,-5329.482782,-1149.143247,11769.274478
919.420219,-5773.606348,-2298.286494,10214.842000
919.420548,-5773.606348,-3064.381992,9030.512492
919.420878,-4663.297435,-3370.820191,7550.100608
919.421208,-2960.823768,-2528.115143,6587.832884
919.421537,-814.226536,-536.266849,7031.956449
919.421867,1184.329507,1532.190996,7105.977043
919.422197,2590.720797,3217.601092,6587.832884
919.422526,3627.009116,3294.210641,7031.956449
919.422856,3923.091493,3064.381992,8290.306550
919.423186,2220.617826,3600.648841,10881.027347
919.423515,-814.226536,3753.867940,12805.562797
919.423845,-3923.091493,2757.943793,13323.706956
919.424175,-6069.688724,2068.457845,12805.562797
919.424504,-6217.729913,0.000000,11251.130318
919.424834,-5625.565159,-2757.943793,10140.821405
919.425164,-4811.338623,-3907.087040,9400.615463
919.425493,-3997.112087,-2528.115143,8068.244768
919.425823,-2368.659014,-2068.457845,7254.018232
919.426152,-148.041188,-229.828649,7105.977043
919.426482,1998.556043,1838.629195,7031.956449
919.426812,3701.029710,2451.505594,7328.038826
919.427141,5033.400406,2604.724693,8142.265362
919.427471,4811.338623,3600.648841,9992.780217
919.427801,2590.720797,4443.353888,11769.274478
919.428130,0.000000,4290.134789,12657.521608
919.428460,-3256.906145,3217.601092,12731.542202
919.428790,-4737.318029,766.095498,12361.439231
919.429119,-5329.482782,-1225.752797,11843.295072
919.429449,-5551.544565,-2068.457845,9918.759623
919.429778,-5033.400406,-3064.381992,8660.409521
919.430108,-4145.153275,-2681.334243,7254.018232
919.430438,-2294.638420,-1532.190996,7254.018232
919.430767,370.102971,0.000000,6587.832884
919.431097,2442.679609,1608.800546,6365.771101
919.431427,3849.070898,3294.210641,7105.977043
919.431756,4663.297435,4596.572988,7698.141797
919.432086,4145.153275,4060.306139,9104.533087
919.432416,1998.556043,4749.792088,10881.027347
919.432745,-1036.288319,4749.792088,12213.398043
919.433075,-4145.153275,3064.381992,12657.521608
919.433404,-5477.523971,1685.410096,11991.336260
919.433734,-5477.523971,-459.657299,10955.047942
919.434064,-5329.482782,-2604.724693,10066.800811
919.434393,-4811.338623,-3064.381992,8956.491898
919.434723,-3478.967927,-2451.505594,8068.244768
919.435053,-1332.370696,-1532.190996,7476.080014
919.435382,1258.350101,766.095498,6809.894666
919.435712,3108.864956,2451.505594,7254.018232
919.436042,4737.318029,2528.115143,7920.203579
919.436371,5181.441594,2757.943793,9178.553681
919.436701,4071.132681,4443.353888,10732.986159
919.437031,1850.514855,5439.278036,11251.130318
919.437360,-1110.308913,4136.915689,12361.439231
919.437690,-3108.864956,2451.505594,13101.645173
919.438019,-4441.235652,612.876398,12657.521608
919.438349,-5551.544565,-1532.190996,11177.109724
919.438679,-5699.585753,-2757.943793,9992.780217
919.439008,-5699.585753,-2834.553343,8438.347739
919.439338,-4441.235652,-2528.115143,7402.059420
919.439668,-2072.576638,-1685.410096,7105.977043
919.439997,740.205942,-229.828649,6365.771101
919.440327,2812.782580,1685.410096,6439.791695
919.440657,3849.070898,2834.553343,6513.812290
919.440986,3997.112087,3524.039291,7846.182985
919.441316,2738.761985,3677.258390,9696.697840
919.441645,148.041188,4290.134789,11621.233289
919.441975,-2294.638420,4290.134789,12953.603985
919.442305,-4441.235652,2757.943793,13471.748144
919.442634,-5921.647536,766.095498,12731.542202
919.442964,-6365.771101,-995.924147,10807.006753
919.443294,-5699.585753,-2987.772442,9622.677246
919.443623,-4219.173869,-3907.087040,8808.450710
919.443953,-2812.782580,-2604.724693,8216.285956
919.444283,-962.267725,-1378.971896,7624.121203
919.444612,1184.329507,229.828649,7179.997637
919.444942,3108.864956,2221.676944,7328.038826
919.445271,4589.276840,2681.334243,8216.285956
919.445601,5477.523971,2911.162892,9696.697840
919.445931,4441.235652,4290.134789,10807.006753
919.446260,2146.597232,3983.696590,11029.068536
919.446590,-370.102971,2298.286494,12879.583391
919.446920,-2738.761985,1072.533697,14063.912898
919.447249,-5033.400406,995.924147,13323.706956
919.447579,-5625.565159,-383.047749,11029.068536
919.447909,-5477.523971,-1532.190996,8734.430116
919.448238,-3997.112087,-2528.115143,6735.874072
919.448568,-1776.494261,-3217.601092,5625.565159
919.448898,0.000000,-1991.848295,5403.503377
919.449227,962.267725,1762.019645,6217.729913
919.449557,1480.411884,3140.991542,7254.018232
919.449886,1776.494261,3370.820191,8364.327145
919.450216,1406.391290,3677.258390,9474.636058
919.450546,444.123565,3447.429741,10436.903782
919.450875,-1332.370696,3447.429741,11843.295072
919.451205,-3478.967927,2681.334243,12361.439231
919.451535,-5477.523971,1532.190996,12287.418637
919.451864,-5773.606348,-612.876398,11325.150913
919.452194,-5329.482782,-2298.286494,10436.903782
919.452524,-4589.276840,-2604.724693,9474.636058
919.452853,-3330.926739,-2374.896044,8956.491898
919.453183,-1850.514855,-1762.019645,7772.162391
919.453512,370.102971,-689.485948,7328.038826
919.453842,2738.761985,1225.752797,7624.121203
919.454172,4515.256246,2145.067394,8290.306550
919.454501,5255.462188,2451.505594,9178.553681
919.454831,4663.297435,3217.601092,10140.821405
919.455161,2738.761985,4596.572988,11325.150913
919.455490,888.247130,4136.915689,12361.439231
919.455820,-1480.411884,2221.676944,13841.851115
919.456150,-4589.276840,1149.143247,13471.748144
919.456479,-6661.853478,766.095498,12361.439231
919.456809,-8142.265362,-229.828649,9918.759623
919.457138,-7254.018232,-1838.629195,7920.203579
919.457468,-5477.523971,-3447.429741,6661.853478
919.457798,-3478.967927,-3753.867940,5699.585753
919.458127,-1258.350101,-2221.676944,5255.462188
919.458457,518.144159,76.609550,5995.668130
919.458787,2516.700203,2757.943793,7105.977043
919.459116,3627.009116,3294.210641,7994.224174
919.459446,3775.050304,3983.696590,9252.574275
919.459776,3034.844362,4443.353888,10584.944971
919.460105,1110.308913,5056.230287,11769.274478
919.460435,-518.144159,4290.134789,12879.583391
919.460765,-2516.700203,2757.943793,12805.562797
919.461094,-3923.091493,612.876398,11695.253884
919.461424,-3849.070898,-1915.238745,10214.842000
919.461753,-3404.947333,-2374.896044,9622.677246
919.462083,-2812.782580,-2068.457845,8512.368333
919.462413,-1776.494261,-1762.019645,7031.956449
919.462742,740.205942,-766.095498,6069.688724
919.463072,3182.885551,1302.362347,6069.688724
919.463402,4367.215058,1685.410096,6735.874072
919.463731,3923.091493,2451.505594,8512.368333
919.464061,2442.679609,3753.867940,10288.862594
919.464391,370.102971,4443.353888,12139.377449
919.464720,-1776.494261,4060.306139,13841.851115
919.465050,-3404.947333,2834.553343,14508.036463
919.465379,-5255.462188,766.095498,13841.851115
919.465709,-6069.688724,-1149.143247,11843.295072
919.466039,-5921.647536,-1915.238745,10214.842000
919.466368,-4737.318029,-1991.848295,8216.285956
919.466698,-2738.761985,-1991.848295,7105.977043
919.467028,-444.123565,-1149.143247,5995.668130
919.467357,1924.535449,-383.047749,5625.565159
919.467687,3627.009116,2145.067394,6365.771101
919.468017,4663.297435,4519.963438,6439.791695
919.468346,4293.194464,4903.011187,7105.977043
919.468676,3478.967927,4136.915689,9030.512492
919.469005,1184.329507,4213.525239,11991.336260
919.469335,-1776.494261,3830.477490,13989.892304
919.469665,-5107.421000,3217.601092,13767.830521
919.469994,-7105.977043,1225.752797,12435.459826
919.470324,-7031.956449,-919.314598,11103.089130
919.470654,-6143.709319,-3447.429741,10140.821405
919.470983,-4663.297435,-4826.401637,9178.553681
919.471313,-3701.029710,-2604.724693,7402.059420
919.471643,-2072.576638,-1225.752797,6809.894666
919.471972,592.164754,536.266849,5921.647536
919.472302,3256.906145,919.314598,6883.915261
919.472632,4959.379811,1915.238745,7994.224174
919.472961,5181.441594,2757.943793,8808.450710
919.473291,3997.112087,3600.648841,10362.883188
919.473620,2220.617826,4673.182538,11991.336260
919.473950,-222.061783,3753.867940,12953.603985
919.474280,-2738.761985,1608.800546,13915.871710
919.474609,-4515.256246,229.828649,13323.706956
919.474939,-5329.482782,-919.314598,11621.233289
919.475269,-5477.523971,-1915.238745,9696.697840
919.475598,-4663.297435,-2604.724693,7476.080014
919.475928,-2664.741391,-3140.991542,5995.668130
919.476258,-666.185348,-2298.286494,5107.421000
919.476587,1628.453072,-689.485948,5329.482782
919.476917,2960.823768,995.924147,6661.853478
919.477246,3330.926739,3370.820191,7994.224174
919.477576,2960.823768,3140.991542,9178.553681
919.477906,2072.576638,4213.525239,10510.924376
919.478235,370.102971,4060.306139,12065.356855
919.478565,-1998.556043,3217.601092,13323.706956
919.478895,-4663.297435,2528.115143,13249.686362
919.479224,-6143.709319,0.000000,12065.356855
919.479554,-6439.791695,-2298.286494,11325.150913
919.479884,-6217.729913,-2987.772442,10584.944971
919.480213,-5403.503377,-3140.991542,9178.553681
919.480543,-3330.926739,-3064.381992,7254.018232
919.480872,-370.102971,-2298.286494,5995.668130
919.481202,2812.782580,-153.219100,5329.482782
919.481532,5181.441594,1225.752797,6587.832884
919.481861,5995.668130,2681.334243,8216.285956
919.482191,4959.379811,4596.572988,9918.759623
919.482521,2886.803174,5975.544884,11547.212695
919.482850,888.247130,5822.325785,12435.459826
919.483180,-1332.370696,3983.696590,13693.809927
919.483510,-3849.070898,1915.238745,13397.727550
919.483839,-5403.503377,229.828649,12213.398043
919.484169,-6439.791695,-1762.019645,10881.027347
919.484499,-6365.771101,-2757.943793,9104.533087
919.484828,-6217.729913,-3524.039291,7179.997637
919.485158,-4293.194464,-3064.381992,6143.709319
919.485487,-1702.473667,-1685.410096,5477.523971
919.485817,962.267725,0.000000,5995.668130
919.486147,2590.720797,2528.115143,6291.750507
919.486476,3182.885551,3983.696590,7476.080014
919.486806,3034.844362,4596.572988,9178.553681
919.487136,2072.576638,5439.278036,11103.089130
919.487465,-296.082377,5439.278036,12805.562797
919.487795,-2516.700203,3983.696590,13175.665768
919.488125,-4219.173869,2374.896044,12139.377449
919.488454,-5033.400406,-229.828649,11251.130318
919.488784,-4663.297435,-2145.067394,10140.821405
919.489113,-4293.194464,-2987.772442,9252.574275
919.489443,-2812.782580,-2757.943793,7550.100608
919.489773,-1258.350101,-2068.457845,6883.915261
919.490102,740.205942,-229.828649,6883.915261
919.490432,2738.761985,1608.800546,7031.956449
919.490762,4589.276840,2528.115143,7772.162391
919.491091,5255.462188,3830.477490,8734.430116
919.491421,4811.338623,4826.401637,10732.986159
919.491751,3478.967927,4519.963438,11843.295072
919.492080,296.082377,3983.696590,13175.665768
919.492410,-2738.761985,2834.553343,14063.912898
919.492739,-4737.318029,1455.581446,13323.706956
919.493069,-5477.523971,-612.876398,11177.109724
919.493399,-5625.565159,-2298.286494,9474.636058
919.493728,-5255.462188,-2834.553343,7920.203579
919.494058,-3849.070898,-3217.601092,5921.647536
919.494388,-1628.453072,-2757.943793,5329.482782
919.494717,0.000000,-995.924147,5625.565159
919.495047,2220.617826,1762.019645,6735.874072
919.495377,3034.844362,3524.039291,8290.306550
919.495706,3256.906145,4903.011187,8660.409521
919.496036,2812.782580,5286.058936,9400.615463
919.496366,1702.473667,4290.134789,11547.212695
919.496695,-444.123565,3294.210641,12805.562797
919.497025,-3627.009116,3217.601092,13175.665768
919.497354,-5255.462188,1455.581446,12361.439231
919.497684,-5699.585753,-766.095498,10955.047942
919.498014,-5699.585753,-2911.162892,9696.697840
919.498343,-4737.318029,-4826.401637,8956.491898
919.498673,-3478.967927,-3907.087040,8290.306550
919.499003,-1776.494261,-1685.410096,7994.224174
919.499332,370.102971,0.000000,7105.977043
919.499662,3182.885551,1915.238745,7402.059420
919.499992,5255.462188,2298.286494,7328.038826
919.500321,6291.750507,2374.896044,8734.430116
919.500651,5551.544565,3753.867940,10140.821405
919.500980,3108.864956,5056.230287,12065.356855
919.501310,-222.061783,4673.182538,13249.686362
919.501640,-3478.967927,2604.724693,13619.789333
919.501969,-5107.421000,1532.190996,12583.501014
919.502299,-5403.503377,-842.705048,10658.965565
919.502629,-5255.462188,-2681.334243,8734.430116
919.502958,-4737.318029,-3140.991542,7031.956449
919.503288,-4071.132681,-3447.429741,5625.565159
919.503618,-1998.556043,-2757.943793,5625.565159
919.503947,0.000000,76.609550,6365.771101
919.504277,1110.308913,2068.457845,7328.038826
919.504606,1850.514855,3217.601092,8586.388927
919.504936,2442.679609,4136.915689,9400.615463
919.505266,2516.700203,3907.087040,10140.821405
919.505595,1184.329507,3064.381992,10881.027347
919.505925,-444.123565,3370.820191,11695.253884
919.506255,-2590.720797,1685.410096,12139.377449
919.506584,-4145.153275,-1072.533697,12657.521608
919.506914,-5255.462188,-1838.629195,11843.295072
919.507244,-5181.441594,-1532.190996,10881.027347
919.507573,-4515.256246,-2451.505594,9030.512492
919.507903,-2294.638420,-1991.848295,7624.121203
919.508233,518.144159,-1532.190996,6291.750507
919.508562,3775.050304,-229.828649,5921.647536
919.508892,5255.462188,2145.067394,6661.853478
919.509221,4737.318029,4366.744339,8438.347739
919.509551,4145.153275,5209.449386,10214.842000
919.509881,1850.514855,5209.449386,11473.192101
919.510210,-1036.288319,4826.401637,11917.315666
919.510540,-3552.988522,2221.676944,12435.459826
919.510870,-5921.647536,612.876398,13175.665768
919.511199,-7624.121203,-1149.143247,12287.418637
919.511529,-8882.471304,-3064.381992,10510.924376
919.511859,-8586.388927,-4596.572988,8512.368333
919.512188,-6143.709319,-4596.572988,6735.874072
919.512518,-2442.679609,-3217.601092,6291.750507
919.512847,592.164754,-1915.238745,6291.750507
919.513177,3108.864956,766.095498,6661.853478
919.513507,4441.235652,3524.039291,7402.059420
919.513836,5033.400406,4979.620737,8882.471304
919.514166,4959.379811,5975.544884,10436.903782
919.514496,3256.906145,6358.592633,12139.377449
919.514825,1332.370696,4826.401637,12509.480420
919.515155,-888.247130,2911.162892,11843.295072
919.515485,-3404.947333,842.705048,11473.192101
919.515814,-4737.318029,-995.924147,10362.883188
919.516144,-5181.441594,-3753.867940,10955.047942
919.516473,-5921.647536,-3677.258390,10584.944971
919.516803,-6291.750507,-2145.067394,8956.491898
919.517133,-4515.256246,-1302.362347,6957.935855
919.517462,-1184.329507,-995.924147,6587.832884
919.517792,2072.576638,995.924147,6439.791695
919.518122,3627.009116,2145.067394,7328.038826
919.518451,4515.256246,3217.601092,8438.347739
919.518781,3627.009116,4290.134789,9696.697840
919.519111,2072.576638,5209.449386,11399.171507
919.519440,0.000000,4136.915689,12879.583391
919.519770,-1480.411884,2911.162892,13545.768739
919.520100,-3182.885551,1532.190996,12731.542202
919.520429,-3775.050304,-153.219100,11399.171507
919.520759,-4145.153275,-995.924147,9770.718434
919.521088,-4367.215058,-1685.410096,8290.306550
919.521418,-3256.906145,-1838.629195,6365.771101
919.521748,-1036.288319,-1378.971896,5699.585753
919.522077,1036.288319,229.828649,6069.688724
919.522407,2738.761985,1762.019645,6587.832884
919.522737,3478.967927,3064.381992,7254.018232
919.523066,3627.009116,4213.525239,7994.224174
919.523396,3182.885551,4673.182538,9622.677246
919.523726,1480.411884,4903.011187,11399.171507
919.524055,-1258.350101,4903.011187,12139.377449
919.524385,-3775.050304,2834.553343,11695.253884
919.524714,-4959.379811,-306.438199,11843.295072
919.525044,-5181.441594,-2298.286494,12583.501014
919.525374,-6217.729913,-2451.505594,11843.295072
919.525703,-6883.915261,-2834.553343,10066.800811
919.526033,-5773.606348,-2528.115143,7994.224174
919.526363,-2516.700203,-1532.190996,7105.977043
919.526692,1406.391290,-306.438199,6143.709319
919.527022,4515.256246,383.047749,6439.791695
919.527352,5773.606348,2145.067394,7624.121203
919.527681,5181.441594,4443.353888,9326.594869
919.528011,4071.132681,5822.325785,10955.047942
919.528340,2368.659014,6128.763984,11695.253884
919.528670,148.041188,4903.011187,12583.501014
919.529000,-1776.494261,1991.848295,12805.562797
919.529329,-3256.906145,-612.876398,12509.480420
919.529659,-4663.297435,-2221.676944,11325.150913
919.529989,-6069.688724,-2681.334243,8956.491898
919.530318,-6587.832884,-2834.553343,7994.224174
919.530648,-5403.503377,-2911.162892,6661.853478
919.530977,-2442.679609,-2298.286494,6291.750507
919.531307,74.020594,-1149.143247,6143.709319
919.531637,1998.556043,1149.143247,6513.812290
919.531966,3034.844362,3600.648841,7254.018232
919.532296,3256.906145,3677.258390,8808.450710
919.532626,2664.741391,3753.867940,10066.800811
919.532955,518.144159,4290.134789,11029.068536
919.533285,-1776.494261,3217.601092,11325.150913
919.533614,-3256.906145,995.924147,11547.212695
919.533944,-3997.112087,-842.705048,12361.439231
919.534274,-4589.276840,-2374.896044,12435.459826
919.534603,-5403.503377,-3064.381992,11991.336260
919.534933,-5921.647536,-2757.943793,10362.883188
919.535262,-4515.256246,-1532.190996,8290.306550
919.535592,-962.267725,-995.924147,7624.121203
919.535922,2368.659014,229.828649,7105.977043
919.536251,4441.235652,1378.971896,6661.853478
919.536581,5551.544565,2145.067394,7254.018232
919.536911,5033.400406,3830.477490,8808.450710
919.537240,3256.906145,4749.792088,9844.739029
919.537570,962.267725,4519.963438,11843.295072
919.537899,-1480.411884,3447.429741,12361.439231
919.538229,-3701.029710,1149.143247,12953.603985
919.538559,-5181.441594,-612.876398,12731.542202
919.538888,-6365.771101,-1685.410096,11843.295072
919.539218,-7031.956449,-1991.848295,10362.883188
919.539548,-7328.038826,-2145.067394,8512.368333
919.539877,-5699.585753,-2451.505594,6365.771101
919.540207,-2442.679609,-1685.410096,5699.585753
919.540536,370.102971,-689.485948,6587.832884
919.540866,2146.597232,1378.971896,6883.915261
919.541196,2664.741391,3370.820191,7624.121203
919.541525,2812.782580,4290.134789,8364.327145
919.541855,2738.761985,4366.744339,9622.677246
919.542185,1036.288319,4290.134789,10510.924376
919.542514,-962.267725,3753.867940,11547.212695
919.542844,-2886.803174,2757.943793,11843.295072
919.543173,-4071.132681,1378.971896,11695.253884
919.543503,-4367.215058,0.000000,11029.068536
919.543833,-4737.318029,-1838.629195,10066.800811
919.544162,-4811.338623,-2298.286494,9178.553681
919.544492,-3701.029710,-2451.505594,8808.450710
919.544822,-2072.576638,-383.047749,8142.265362
919.545151,666.185348,1149.143247,7254.018232
919.545481,2886.803174,1915.238745,7328.038826
919.545810,5033.400406,1915.238745,7846.182985
919.546140,5033.400406,2604.724693,8660.409521
919.546470,3775.050304,3753.867940,10362.883188
919.546799,1332.370696,4136.915689,11621.233289
919.547129,-1184.329507,3370.820191,13175.665768
919.547458,-3775.050304,1991.848295,13767.830521
919.547788,-4811.338623,766.095498,12657.521608
919.548118,-5107.421000,-612.876398,10510.924376
919.548447,-4737.318029,-1378.971896,8586.388927
919.548777,-4219.173869,-2451.505594,6957.935855
919.549107,-2590.720797,-2374.896044,6143.709319
919.549436,-222.061783,-842.705048,6217.729913
919.549766,1110.308913,842.705048,6735.874072
919.550095,2220.617826,3140.991542,7105.977043
919.550425,2738.761985,4060.306139,7698.141797
919.550755,2738.761985,3830.477490,8882.471304
919.551084,2220.617826,3907.087040,10288.862594
919.551414,148.041188,4826.401637,11251.130318
919.551744,-2368.659014,3447.429741,11251.130318
919.552073,-4145.153275,153.219100,11843.295072
919.552403,-4959.379811,-2911.162892,13249.686362
919.552732,-5625.565159,-2757.943793,13619.789333
919.553062,-6513.812290,-1378.971896,11769.274478
919.553392,-5403.503377,-1915.238745,8586.388927
919.553721,-2368.659014,-1838.629195,7402.059420
919.554051,1480.411884,-1072.533697,6069.688724
919.554381,4737.318029,76.609550,5255.462188
919.554710,6661.853478,1608.800546,5255.462188
919.555040,6365.771101,4213.525239,7105.977043
919.555369,4219.173869,5132.839837,9992.780217
919.555699,1850.514855,4749.792088,12583.501014
919.556029,-1184.329507,4903.011187,13767.830521
919.556358,-3627.009116,3600.648841,13989.892304
919.556688,-4737.318029,306.438199,13989.892304
919.557018,-5773.606348,-1378.971896,12657.521608
919.557347,-6661.853478,-2911.162892,11029.068536
919.557677,-6883.915261,-3983.696590,8660.409521
919.558006,-5551.544565,-2374.896044,6735.874072
919.558336,-2812.782580,-766.095498,5773.606348
919.558666,444.123565,-612.876398,5255.462188
919.558995,2368.659014,0.000000,5699.585753
919.559325,3478.967927,2528.115143,6883.915261
919.559654,3552.988522,4136.915689,8142.265362
919.559984,3182.885551,4213.525239,9326.594869
919.560314,1850.514855,4596.572988,10881.027347
919.560643,-296.082377,3294.210641,11843.295072
919.560973,-1924.535449,459.657299,13397.727550
919.561303,-3108.864956,-1072.533697,14730.098246
919.561632,-5181.441594,76.609550,13915.871710
919.561962,-6587.832884,0.000000,11917.315666
919.562291,-6143.709319,-1225.752797,9400.615463
919.562621,-4145.153275,-766.095498,6513.812290
919.562951,-814.226536,-1378.971896,4219.173869
919.563280,2368.659014,-1072.533697,3552.988522
919.563610,3923.091493,612.876398,5329.482782
919.563940,2516.700203,2604.724693,7772.162391
919.564269,1406.391290,3600.648841,9474.636058
919.564599,888.247130,3524.039291,10436.903782
919.564928,518.144159,3447.429741,10807.006753
919.565258,-370.102971,1838.629195,11547.212695
919.565588,-2220.617826,-1149.143247,13471.748144
919.565917,-3775.050304,-689.485948,14878.139434
919.566247,-5921.647536,-306.438199,14359.995275
919.566577,-7402.059420,0.000000,12361.439231
919.566906,-6217.729913,-612.876398,9918.759623
919.567236,-3404.947333,-1838.629195,6957.935855
919.567565,222.061783,-2604.724693,4885.359217
919.567895,3404.947333,-2451.505594,3849.070898
919.568225,4959.379811,153.219100,5329.482782
919.568554,4589.276840,3140.991542,7624.121203
919.568884,2738.761985,4903.011187,9400.615463
919.569214,1110.308913,5132.839837,10510.924376
919.569543,-148.041188,4903.011187,11325.150913
919.569873,-1406.391290,3677.258390,11917.315666
919.570202,-3256.906145,1685.410096,11843.295072
919.570532,-4367.215058,-1685.410096,12287.418637
919.570862,-6291.750507,-2604.724693,13101.645173
919.571191,-7994.224174,-1532.190996,12435.459826
919.571521,-7920.203579,-1608.800546,9844.739029
919.571850,-5699.585753,-1685.410096,7402.059420
919.572180,-1184.329507,-1608.800546,6143.709319
919.572510,3701.029710,-919.314598,5033.400406
919.572839,6439.791695,612.876398,4959.379811
919.573169,7105.977043,2834.553343,6291.750507
919.573499,5773.606348,5056.230287,8512.368333
919.573828,3478.967927,5898.935335,10732.986159
919.574158,1036.288319,6205.373534,12213.398043
919.574487,-1258.350101,3907.087040,13915.871710
919.574817,-3256.906145,1685.410096,14730.098246
919.575147,-4663.297435,306.438199,13989.892304
919.575476,-5477.523971,-995.924147,11917.315666
919.575806,-5477.523971,-1991.848295,9326.594869
919.576136,-5477.523971,-2221.676944,5995.668130
919.576465,-3330.926739,-1991.848295,4515.256246
919.576795,-148.041188,-995.924147,4737.318029
919.577124,1776.494261,0.000000,6143.709319
919.577454,2812.782580,2604.724693,7105.977043
919.577784,2738.761985,5132.839837,7994.224174
919.578113,2590.720797,4596.572988,8808.450710
919.578443,1998.556043,4826.401637,10214.842000
919.578773,-444.123565,4519.963438,11917.315666
919.579102,-2368.659014,3447.429741,12583.501014
919.579432,-4367.215058,1685.410096,11917.315666
919.579761,-5033.400406,-1762.019645,13323.706956
919.580091,-5477.523971,-2451.505594,13915.871710
919.580421,-7031.956449,-2451.505594,12583.501014
919.580750,-6587.832884,-1455.581446,9474.636058
919.581080,-4219.173869,-766.095498,6883.915261
919.581410,444.123565,-1149.143247,4885.359217
919.581739,4737.318029,0.000000,4515.256246
919.582069,6735.874072,76.609550,5255.462188
919.582398,7031.956449,2911.162892,7254.018232
919.582728,4959.379811,6358.592633,9178.553681
919.583058,2960.823768,5515.887586,11029.068536
919.583387,592.164754,5132.839837,13027.624579
919.583717,-2442.679609,2757.943793,14211.954086
919.584046,-4293.194464,612.876398,14878.139434
919.584376,-5255.462188,-459.657299,13989.892304
919.584706,-6735.874072,-1608.800546,11547.212695
919.585035,-7179.997637,-2374.896044,8882.471304
919.585365,-6365.771101,-3294.210641,6513.812290
919.585695,-3404.947333,-2681.334243,4811.338623
919.586024,-370.102971,-1532.190996,4145.153275
919.586354,1776.494261,0.000000,4737.318029
919.586683,3108.864956,2298.286494,6661.853478
919.587013,2590.720797,3370.820191,7476.080014
919.587343,2368.659014,3753.867940,8734.430116
919.587672,1702.473667,4749.792088,10807.006753
919.588002,-666.185348,4596.572988,12435.459826
919.588332,-2368.659014,3217.601092,12953.603985
919.588661,-3849.070898,0.000000,13471.748144
919.588991,-4441.235652,-2681.334243,13989.892304
919.589320,-4885.359217,-2145.067394,13619.789333
919.589650,-5699.585753,-2298.286494,11547.212695
919.589980,-4885.359217,-1685.410096,8586.388927
919.590309,-1850.514855,-1378.971896,6587.832884
919.590639,2664.741391,-1149.143247,4959.379811
919.590969,5847.626942,0.000000,4589.276840
919.591298,6661.853478,1532.190996,6217.729913
919.591628,5995.668130,4519.963438,7846.182985
919.591957,3849.070898,5439.278036,10436.903782
919.592287,1776.494261,5209.449386,11695.253884
919.592617,-962.267725,4366.744339,12583.501014
919.592946,-3775.050304,919.314598,14582.057057
919.593276,-5773.606348,-689.485948,14878.139434
919.593606,-7402.059420,-689.485948,13471.748144
919.593935,-8586.388927,-1991.848295,11029.068536
919.594265,-8364.327145,-2451.505594,7994.224174
919.594594,-6143.709319,-3217.601092,5477.523971
919.594924,-2294.638420,-3294.210641,3182.885551
919.595254,888.247130,-2451.505594,3923.091493
919.595583,3034.844362,459.657299,5847.626942
919.595913,3478.967927,4213.525239,7254.018232
919.596242,3034.844362,5132.839837,8734.430116
919.596572,3034.844362,5822.325785,9770.718434
919.596902,2220.617826,5592.497135,10584.944971
919.597231,444.123565,4136.915689,11917.315666
919.597561,-1332.370696,3064.381992,12435.459826
919.597891,-3849.070898,1072.533697,12361.439231
919.598220,-5477.523971,-306.438199,11843.295072
919.598550,-6143.709319,-3753.867940,12287.418637
919.598879,-6217.729913,-3600.648841,11843.295072
919.599209,-6365.771101,-1608.800546,9548.656652
919.599539,-3997.112087,-2068.457845,7105.977043
919.599868,370.102971,-1302.362347,5625.565159
919.600198,3923.091493,-229.828649,5329.482782
919.600528,5773.606348,1455.581446,5995.668130
919.600857,6291.750507,2374.896044,7550.100608
919.601187,4663.297435,4903.011187,10214.842000
919.601516,2220.617826,6741.640382,12287.418637
919.601846,-592.164754,4519.963438,13989.892304
919.602176,-3108.864956,2911.162892,14359.995275
919.602505,-4737.318029,1455.581446,14285.974681
919.602835,-5477.523971,-1225.752797,13101.645173
919.603165,-6069.688724,-1685.410096,10362.883188
919.603494,-6069.688724,-2604.724693,7254.018232
919.603824,-4219.173869,-3753.867940,4959.379811
919.604153,-1480.411884,-2604.724693,3701.029710
919.604483,1702.473667,-536.266849,4737.318029
919.604813,3552.988522,1149.143247,5995.668130
919.605142,3923.091493,3983.696590,7105.977043
919.605472,3404.947333,5669.106685,7846.182985
919.605802,3404.947333,5439.278036,10214.842000
919.606131,2146.597232,5592.497135,11843.295072
919.606461,-666.185348,4443.353888,12509.480420
919.606790,-3552.988522,612.876398,13841.851115
919.607120,-5403.503377,-1149.143247,14359.995275
919.607450,-6883.915261,-536.266849,13397.727550
919.607779,-7105.977043,-2374.896044,11103.089130
919.608109,-5551.544565,-2987.772442,8438.347739
919.608438,-3182.885551,-2528.115143,5477.523971
919.608768,888.247130,-2604.724693,4145.153275
919.609098,4737.318029,-1072.533697,3997.112087
919.609427,5773.606348,2987.772442,5773.606348
919.609757,5255.462188,5132.839837,8956.491898
919.610087,3701.029710,5592.497135,10955.047942
919.610416,1480.411884,7201.297681,11917.315666
919.610746,0.000000,5898.935335,12879.583391
919.611075,-1702.473667,2374.896044,13471.748144
919.611405,-3775.050304,459.657299,13989.892304
919.611735,-5551.544565,-1685.410096,14063.912898
919.612064,-7105.977043,-3370.820191,12435.459826
919.612394,-7846.182985,-2834.553343,9474.636058
919.612724,-6883.915261,-2451.505594,7105.977043
919.613053,-3997.112087,-2145.067394,5551.544565
919.613383,-148.041188,-1378.971896,4811.338623
919.613712,2664.741391,0.000000,4885.359217
919.614042,4145.153275,2068.457845,6439.791695
919.614372,3849.070898,4290.134789,7624.121203
919.614701,3182.885551,5286.058936,9622.677246
919.615031,1998.556043,5056.230287,10955.047942
919.615361,592.164754,4136.915689,11695.253884
919.615690,-888.247130,1838.629195,12805.562797
919.616020,-3182.885551,-995.924147,13619.789333
919.616349,-4737.318029,0.000000,12953.603985
919.616679,-6587.832884,-536.266849,11843.295072
919.617009,-6513.812290,-2221.676944,9326.594869
919.617338,-5255.462188,-2221.676944,6217.729913
919.617668,-2738.761985,-2528.115143,5033.400406
919.617998,222.061783,-2604.724693,5773.606348
919.618327,2220.617826,536.266849,6809.894666
919.618657,2960.823768,3217.601092,7920.203579
919.618986,3627.009116,3830.477490,8882.471304
919.619316,3182.885551,3830.477490,9696.697840
919.619646,2664.741391,3294.210641,10658.965565
919.619975,1776.494261,2145.067394,13101.645173
919.620305,-666.185348,1225.752797,14211.954086
919.620634,-3701.029710,1378.971896,14211.954086
919.620964,-5181.441594,-153.219100,13397.727550
919.621294,-5477.523971,-1225.752797,11325.150913
919.621623,-5181.441594,-1608.800546,8882.471304
919.621953,-3849.070898,-2681.334243,6069.688724
919.622283,-1406.391290,-2528.115143,4293.194464
919.622612,1332.370696,-1225.752797,5181.441594
919.622942,2516.700203,842.705048,7105.977043
919.623271,2146.597232,3140.991542,8216.285956
919.623601,1554.432478,5362.668486,8586.388927
919.623931,1554.432478,4749.792088,9622.677246
919.624260,962.267725,4290.134789,10881.027347
919.624590,-888.247130,3983.696590,11473.192101
919.624920,-2960.823768,1838.629195,11177.109724
919.625249,-4737.318029,-1072.533697,11695.253884
919.625579,-5773.606348,-2221.676944,13101.645173
919.625908,-7105.977043,-2221.676944,13249.686362
919.626238,-7846.182985,-2451.505594,10881.027347
919.626568,-5995.668130,-2451.505594,7846.182985
919.626897,-2368.659014,-1455.581446,6217.729913
919.627227,2664.741391,-1302.362347,5403.503377
919.627557,6143.709319,153.219100,5403.503377
919.627886,7328.038826,2374.896044,6217.729913
919.628216,6513.812290,4749.792088,7920.203579
919.628545,5033.400406,6128.763984,10288.862594
919.628875,3330.926739,6128.763984,12435.459826
919.629205,370.102971,4519.963438,14063.912898
919.629534,-2442.679609,2145.067394,14582.057057
919.629863,-4663.297435,536.266849,14211.954086
919.630193,-5403.503377,-1225.752797,12657.521608
919.630522,-5995.668130,-4213.525239,10066.800811
919.630852,-6513.812290,-3907.087040,7624.121203
919.631181,-5699.585753,-3064.381992,5921.647536
919.631511,-2664.741391,-1991.848295,4737.318029
919.631840,296.082377,153.219100,5107.421000
919.632169,2738.761985,1302.362347,6217.729913
919.632499,3404.947333,3677.258390,7402.059420
919.632828,3330.926739,4903.011187,8364.327145
919.633158,2664.741391,5209.449386,9474.636058
919.633487,1258.350101,5745.716235,11103.089130
919.633816,-666.185348,4826.401637,11917.315666
919.634146,-2294.638420,1532.190996,11769.274478
919.634475,-3404.947333,-2068.457845,13397.727550
919.634805,-5107.421000,-2298.286494,13693.809927
919.635134,-7031.956449,-1608.800546,12805.562797
919.635463,-6883.915261,-2374.896044,9844.739029
919.635793,-4737.318029,-612.876398,7328.038826
919.636122,-370.102971,-995.924147,5995.668130
919.636452,4219.173869,-919.314598,5255.462188
919.636781,5995.668130,995.924147,4885.359217
919.637111,6069.688724,4060.306139,6587.832884
919.637440,4959.379811,5132.839837,8956.491898
919.637769,3552.988522,5669.106685,10955.047942
919.638099,1184.329507,6128.763984,11843.295072
919.638428,-1702.473667,3217.601092,12953.603985
919.638758,-3701.029710,383.047749,13989.892304
919.639087,-4885.359217,0.000000,13767.830521
919.639416,-6143.709319,-1608.800546,12879.583391
919.639746,-7254.018232,-2221.676944,10658.965565
919.640075,-7402.059420,-2451.505594,7846.182985
919.640405,-4959.379811,-2757.943793,5995.668130
919.640734,-1406.391290,-2145.067394,4885.359217
919.641064,1480.411884,-153.219100,5255.462188
919.641393,3404.947333,1838.629195,6217.729913
919.641722,4145.153275,3447.429741,7698.141797
919.642052,3330.926739,4673.182538,9030.512492
919.642381,2294.638420,5439.278036,10436.903782
919.642711,814.226536,5362.668486,11399.171507
919.643040,-814.226536,4366.744339,11547.212695
919.643369,-2368.659014,995.924147,12213.398043
919.643699,-3330.926739,-2451.505594,13249.686362
919.644028,-4737.318029,-1915.238745,13027.624579
919.644358,-6365.771101,-2451.505594,11843.295072
919.644687,-6143.709319,-2451.505594,9474.636058
919.645016,-4293.194464,-1225.752797,7031.956449
919.645346,0.000000,-1072.533697,5847.626942
919.645675,3849.070898,-919.314598,5329.482782
919.646005,5477.523971,842.705048,5773.606348
919.646334,5551.544565,4136.915689,7550.100608
919.646664,4663.297435,4903.011187,9622.677246
919.646993,2664.741391,4979.620737,10881.027347
919.647322,296.082377,5286.058936,11843.295072
919.647652,-2294.638420,1915.238745,13027.624579
919.647981,-4219.173869,0.000000,13989.892304
919.648311,-5921.647536,-383.047749,13989.892304
919.648640,-7105.977043,-1838.629195,12213.398043
919.648969,-7476.080014,-2604.724693,9696.697840
919.649299,-6661.853478,-3294.210641,7105.977043
919.649628,-3775.050304,-2604.724693,5107.421000
919.649958,-592.164754,-1532.190996,4219.173869
919.650287,2294.638420,0.000000,4885.359217
919.650617,3923.091493,2221.676944,6587.832884
919.650946,3849.070898,4136.915689,7772.162391
919.651275,3108.864956,5286.058936,8586.388927
919.651605,2368.659014,4979.620737,9770.718434
919.651934,666.185348,4443.353888,11547.212695
919.652264,-1628.453072,3447.429741,12213.398043
919.652593,-3627.009116,995.924147,11917.315666
919.652922,-4515.256246,-1685.410096,11991.336260
919.653252,-5181.441594,-3600.648841,12953.603985
919.653581,-6957.935855,-2911.162892,12805.562797
919.653911,-7476.080014,-1915.238745,10362.883188
919.654240,-5625.565159,-1378.971896,7698.141797
919.654569,-1332.370696,-995.924147,6439.791695
919.654899,2960.823768,-76.609550,5255.462188
919.655228,5847.626942,306.438199,5773.606348
919.655558,6513.812290,1915.238745,7105.977043
919.655887,4811.338623,4673.182538,8956.491898
919.656217,2738.761985,5362.668486,10881.027347
919.656546,814.226536,4979.620737,12731.542202
919.656875,-1258.350101,2834.553343,13841.851115
919.657205,-3330.926739,689.485948,14730.098246
919.657534,-4811.338623,-919.314598,14211.954086
919.657864,-5699.585753,-1149.143247,12287.418637
919.658193,-6069.688724,-1838.629195,9844.739029
919.658522,-5921.647536,-2374.896044,7476.080014
919.658852,-3404.947333,-2145.067394,5403.503377
919.659181,74.020594,-689.485948,4589.276840
919.659511,2960.823768,459.657299,4811.338623
919.659840,4589.276840,3064.381992,5995.668130
919.660169,3997.112087,4213.525239,7846.182985
919.660499,3404.947333,5056.230287,9326.594869
919.660828,1776.494261,4979.620737,10066.800811
919.661158,-296.082377,3907.087040,11695.253884
919.661487,-2294.638420,1302.362347,13693.809927
919.661817,-4515.256246,0.000000,15026.180623
919.662146,-6069.688724,-612.876398,13397.727550
919.662475,-5921.647536,-1302.362347,11399.171507
919.662805,-4959.379811,-2221.676944,8956.491898
919.663134,-3108.864956,-2221.676944,6291.750507
919.663464,-444.123565,-1302.362347,4737.318029
919.663793,3108.864956,536.266849,4219.173869
919.664122,5181.441594,2451.505594,5921.647536
919.664452,5403.503377,4596.572988,8068.244768
919.664781,3849.070898,5592.497135,9252.574275
919.665111,2220.617826,5822.325785,10584.944971
919.665440,1480.411884,5209.449386,12213.398043
919.665770,-814.226536,3907.087040,12731.542202
919.666099,-3404.947333,383.047749,13619.789333
919.666428,-5551.544565,-2298.286494,14285.974681
919.666758,-7476.080014,-1991.848295,14137.933492
919.667087,-8364.327145,-1685.410096,12139.377449
919.667417,-7920.203579,-1915.238745,9030.512492
919.667746,-5625.565159,-1991.848295,6439.791695
919.668075,-1480.411884,-1685.410096,4737.318029
919.668405,2516.700203,-1608.800546,4515.256246
919.668734,4811.338623,1072.533697,5255.462188
919.669064,4885.359217,4673.182538,7402.059420
919.669393,3775.050304,4979.620737,8660.409521
919.669722,2442.679609,5439.278036,10214.842000
919.670052,1776.494261,5592.497135,11399.171507
919.670381,74.020594,2221.676944,12583.501014
919.670711,-2590.720797,995.924147,14063.912898
919.671040,-5773.606348,306.438199,14211.954086
919.671370,-7179.997637,-459.657299,13323.706956
919.671699,-7476.080014,-1455.581446,11103.089130
919.672028,-6735.874072,-2298.286494,7846.182985
919.672358,-4441.235652,-2528.115143,4811.338623
919.672687,-740.205942,-3140.991542,4219.173869
919.673017,2368.659014,-1149.143247,5033.400406
919.673346,3701.029710,2298.286494,6513.812290
919.673675,3923.091493,3370.820191,7476.080014
919.674005,4145.153275,3907.087040,8290.306550
919.674334,3256.906145,4903.011187,9474.636058
919.674664,2812.782580,3370.820191,12065.356855
919.674993,1036.288319,1685.410096,14508.036463
919.675323,-2590.720797,1455.581446,15470.304188
919.675652,-5033.400406,1149.143247,14878.139434
919.675981,-5921.647536,-842.705048,13545.768739
919.676311,-5329.482782,-1685.410096,11177.109724
919.676640,-3997.112087,-2221.676944,7772.162391
919.676970,-2220.617826,-3217.601092,4811.338623
919.677299,592.164754,-1915.238745,3997.112087
919.677628,2664.741391,0.000000,4737.318029
919.677958,3404.947333,2068.457845,6957.935855
919.678287,2664.741391,3983.696590,8068.244768
919.678617,1850.514855,4903.011187,8808.450710
919.678946,888.247130,4213.525239,9548.656652
919.679275,-296.082377,3447.429741,10807.006753
919.679605,-2294.638420,2145.067394,11547.212695
919.679934,-4219.173869,-919.314598,13323.706956
919.680264,-6365.771101,-2298.286494,14508.036463
919.680593,-8364.327145,-689.485948,14137.933492
919.680923,-8882.471304,-1225.752797,11621.233289
919.681252,-7254.018232,-2374.896044,8438.347739
919.681581,-3478.967927,-2145.067394,6587.832884
919.681911,814.226536,-1608.800546,4959.379811
919.682240,4663.297435,-842.705048,4367.215058
919.682570,6439.791695,1838.629195,5329.482782
919.682899,5699.585753,4290.134789,7105.977043
919.683228,4293.194464,4903.011187,9030.512492
919.683558,3330.926739,5745.716235,10658.965565
919.683887,1628.453072,5209.449386,11843.295072
919.684217,-740.205942,2911.162892,12213.398043
919.684546,-3256.906145,459.657299,13249.686362
919.684875,-5329.482782,-1608.800546,14656.077652
919.685205,-7920.203579,-1685.410096,14211.954086
919.685534,-9770.718434,-1455.581446,11621.233289
919.685864,-8808.450710,-2221.676944,8660.409521
919.686193,-4885.359217,-2451.505594,7031.956449
919.686523,-666.185348,-2298.286494,4959.379811
919.686852,3108.864956,-1685.410096,3923.091493
919.687181,5181.441594,1149.143247,4663.297435
919.687511,4885.359217,4213.525239,6365.771101
919.687840,3552.988522,5286.058936,8808.450710
919.688170,2146.597232,5592.497135,11029.068536
919.688499,148.041188,5515.887586,12065.356855
919.688828,-1480.411884,3064.381992,13175.665768
919.689158,-3034.844362,153.219100,14211.954086
919.689487,-4737.318029,-1302.362347,14434.015869
919.689817,-5773.606348,-1838.629195,13175.665768
919.690146,-5847.626942,-2451.505594,10732.986159
919.690476,-4885.359217,-2068.457845,7846.182985
919.690805,-1998.556043,-1225.752797,5995.668130
919.691134,2146.597232,-612.876398,5033.400406
919.691464,5477.523971,612.876398,4737.318029
919.691793,6661.853478,3217.601092,5033.400406
919.692123,6365.771101,4673.182538,6735.874072
919.692452,4885.359217,4826.401637,9104.533087
919.692781,1998.556043,5439.278036,11029.068536
919.693111,-962.267725,4826.401637,13471.748144
919.693440,-3404.947333,2298.286494,14359.995275
919.693770,-5403.503377,459.657299,15026.180623
919.694099,-6587.832884,-1149.143247,13545.768739
919.694428,-6957.935855,-2451.505594,11473.192101
919.694758,-6439.791695,-3064.381992,9104.533087
919.695087,-5255.462188,-2068.457845,5773.606348
919.695417,-2516.700203,-1455.581446,4219.173869
919.695746,1110.308913,0.000000,4737.318029
919.696076,3256.906145,1608.800546,6069.688724
919.696405,3701.029710,3217.601092,7328.038826
919.696734,3404.947333,4903.011187,8142.265362
919.697064,2960.823768,5286.058936,9104.533087
919.697393,1628.453072,4673.182538,11325.150913
919.697723,-740.205942,3983.696590,12213.398043
919.698052,-2886.803174,2145.067394,12361.439231
919.698381,-4219.173869,-1072.533697,13027.624579
919.698711,-5551.544565,-2145.067394,13767.830521
919.699040,-7179.997637,-842.705048,13545.768739
919.699370,-7402.059420,-2145.067394,10955.047942
919.699699,-5551.544565,-2145.067394,8068.244768
919.700029,-2294.638420,-1532.190996,5773.606348
919.700358,2220.617826,-1532.190996,4737.318029
919.700687,5329.482782,-229.828649,4737.318029
919.701017,5921.647536,1838.629195,6365.771101
919.701346,4663.297435,3907.087040,7920.203579
919.701676,2960.823768,4596.572988,10214.842000
919.702005,1110.308913,5439.278036,11695.253884
919.702334,-814.226536,4673.182538,13619.789333
919.702664,-2812.782580,1608.800546,14804.118840
919.702993,-4737.318029,153.219100,14285.974681
919.703323,-5847.626942,-1072.533697,13175.665768
919.703652,-6513.812290,-2145.067394,11103.089130
919.703981,-6513.812290,-2221.676944,8290.306550
919.704311,-4811.338623,-2221.676944,6069.688724
919.704640,-1332.370696,-1838.629195,4293.194464
919.704970,1924.535449,-1149.143247,3997.112087
919.705299,3627.009116,766.095498,4959.379811
919.705629,4367.215058,3600.648841,6661.853478
919.705958,3775.050304,4443.353888,7772.162391
919.706287,2664.741391,5209.449386,9622.677246
919.706617,1110.308913,5056.230287,11399.171507
919.706946,-1110.308913,4060.306139,12139.377449
919.707276,-2960.823768,612.876398,13545.768739
919.707605,-4737.318029,-1532.190996,14582.057057
919.707934,-6439.791695,-612.876398,14434.015869
919.708264,-7402.059420,-1378.971896,12065.356855
919.708593,-6143.709319,-3064.381992,9400.615463
919.708923,-3923.091493,-2451.505594,6439.791695
919.709252,-370.102971,-919.314598,5403.503377
919.709581,3404.947333,-995.924147,4663.297435
919.709911,4811.338623,1225.752797,5107.421000
919.710240,5033.400406,3983.696590,7105.977043
919.710570,4441.235652,4596.572988,9474.636058
919.710899,2960.823768,4826.401637,10732.986159
919.711229,444.123565,5286.058936,11399.171507
919.711558,-1258.350101,2987.772442,12583.501014
919.711887,-2886.803174,0.000000,14285.974681
919.712217,-4959.379811,-919.314598,15174.221811
919.712546,-7254.018232,-1455.581446,13841.851115
919.712876,-8512.368333,-1762.019645,11029.068536
919.713205,-7698.141797,-2221.676944,8438.347739
919.713534,-4737.318029,-2298.286494,6291.750507
919.713864,-592.164754,-2221.676944,4885.359217
919.714193,2368.659014,-842.705048,4219.173869
919.714523,3552.988522,1838.629195,4663.297435
919.714852,4145.153275,3983.696590,6661.853478
919.715182,3701.029710,4903.011187,9104.533087
919.715511,2368.659014,5592.497135,10807.006753
919.715840,592.164754,5286.058936,11399.171507
919.716170,-1110.308913,2681.334243,12509.480420
919.716499,-3034.844362,0.000000,14137.933492
919.716829,-5033.400406,-842.705048,13841.851115
919.717158,-6365.771101,-1072.533697,12583.501014
919.717487,-6513.812290,-2451.505594,10214.842000
919.717817,-4515.256246,-1915.238745,6809.894666
919.718146,-1850.514855,-1838.629195,4589.276840
919.718476,1628.453072,-1072.533697,4071.132681
919.718805,4441.235652,459.657299,4737.318029
919.719134,5107.421000,3447.429741,6809.894666
919.719464,4441.235652,6205.373534,8290.306550
919.719793,3478.967927,5898.935335,9992.780217
919.720123,1554.432478,5822.325785,11473.192101
919.720452,-518.144159,4443.353888,12509.480420
919.720782,-2294.638420,612.876398,13545.768739
919.721111,-4145.153275,-1532.190996,14582.057057
919.721440,-6513.812290,-1685.410096,14211.954086
919.721770,-7772.162391,-2221.676944,12583.501014
919.722099,-7328.038826,-2528.115143,9474.636058
919.722429,-5107.421000,-2451.505594,6365.771101
919.722758,-1406.391290,-1915.238745,4441.235652
919.723087,2590.720797,-1762.019645,3701.029710
919.723417,4737.318029,1838.629195,5255.462188
919.723746,5255.462188,4596.572988,7179.997637
919.724076,5033.400406,5209.449386,9178.553681
919.724405,2960.823768,6588.421283,10288.862594
919.724734,1110.308913,5975.544884,11769.274478
919.725064,-888.247130,3677.258390,13175.665768
919.725393,-3552.988522,1608.800546,13397.727550
919.725723,-6069.688724,-459.657299,13397.727550
919.726052,-6883.915261,-2221.676944,12287.418637
919.726382,-7624.121203,-4060.306139,11325.150913
919.726711,-7179.997637,-3600.648841,9104.533087
919.727040,-5921.647536,-3370.820191,6883.915261
919.727370,-2368.659014,-2068.457845,5477.523971
919.727699,1776.494261,-612.876398,5181.441594
919.728029,4811.338623,1225.752797,6069.688724
919.728358,6217.729913,4136.915689,7402.059420
919.728687,5995.668130,4596.572988,8364.327145
919.729017,4737.318029,5362.668486,9844.739029
919.729346,3108.864956,5669.106685,11621.233289
919.729676,592.164754,3524.039291,13175.665768
919.730005,-1554.432478,1378.971896,14804.118840
919.730335,-4293.194464,0.000000,14211.954086
919.730664,-5921.647536,-1225.752797,13323.706956
919.730993,-6883.915261,-2298.286494,11177.109724
919.731323,-6735.874072,-2987.772442,8808.450710
919.731652,-5033.400406,-3140.991542,6439.791695
919.731982,-2368.659014,-1838.629195,5033.400406
919.732311,370.102971,-536.266849,4737.318029
919.732641,2368.659014,1225.752797,5921.647536
919.732970,2960.823768,3140.991542,7402.059420
919.733300,2294.638420,4596.572988,8290.306550
919.733629,1776.494261,4596.572988,9400.615463
919.733959,370.102971,4443.353888,11029.068536
919.734288,-1554.432478,3983.696590,11769.274478
919.734618,-3256.906145,1072.533697,11991.336260
919.734947,-4293.194464,-1991.848295,13545.768739
919.735277,-5255.462188,-1838.629195,13767.830521
919.735606,-6439.791695,-1302.362347,12287.418637
919.735936,-6809.894666,-2374.896044,9844.739029
919.736266,-4515.256246,-1991.848295,7624.121203
919.736595,-740.205942,-766.095498,5995.668130
919.736925,3256.906145,-689.485948,5403.503377
919.737254,6069.688724,612.876398,5699.585753
919.737584,5847.626942,3447.429741,6513.812290
919.737913,4959.379811,4749.792088,7920.203579
919.738243,3849.070898,4903.011187,9770.718434
919.738572,2368.659014,5209.449386,11547.212695
919.738902,-370.102971,3907.087040,12139.377449
919.739231,-2960.823768,1302.362347,13397.727550
919.739561,-5329.482782,-612.876398,14211.954086
919.739890,-6661.853478,-1685.410096,13989.892304
919.740220,-8142.265362,-2451.505594,12065.356855
919.740549,-8216.285956,-3064.381992,9326.594869
919.740879,-5773.606348,-2757.943793,7105.977043
919.741208,-2072.576638,-2374.896044,5033.400406
919.741538,1776.494261,-1378.971896,4515.256246
919.741867,4071.132681,536.266849,4737.318029
919.742197,4737.318029,3064.381992,6291.750507
919.742526,4515.256246,5209.449386,8364.327145
919.742856,3256.906145,6128.763984,10436.903782
919.743185,1406.391290,6281.983084,11843.295072
919.743515,-518.144159,4903.011187,12065.356855
919.743844,-1702.473667,1378.971896,12879.583391
919.744174,-2738.761985,-1838.629195,13323.706956
919.744503,-4145.153275,-2068.457845,13175.665768
919.744833,-6069.688724,-2681.334243,11843.295072
919.745163,-6661.853478,-2757.943793,9622.677246
919.745492,-5033.400406,-1915.238745,7179.997637
919.745822,-1480.411884,-1149.143247,5625.565159
919.746151,3478.967927,-153.219100,5033.400406
919.746481,5181.441594,1378.971896,5477.523971
919.746810,5625.565159,4290.134789,6883.915261
919.747140,4737.318029,5286.058936,8660.409521
919.747469,3034.844362,5592.497135,10510.924376
919.747799,666.185348,6818.249932,12287.418637
919.748128,-2072.576638,3983.696590,13101.645173
919.748458,-3849.070898,383.047749,14137.933492
919.748787,-5625.565159,-995.924147,13545.768739
919.749117,-6809.894666,-1762.019645,11991.336260
919.749446,-7402.059420,-3064.381992,9844.739029
919.749776,-6957.935855,-2681.334243,7476.080014
919.750105,-4737.318029,-2221.676944,6069.688724
919.750435,-1332.370696,-995.924147,4515.256246
919.750764,2368.659014,76.609550,4663.297435
919.751094,4515.256246,2451.505594,5847.626942
919.751423,4515.256246,4443.353888,7624.121203
919.751753,3849.070898,4903.011187,9252.574275
919.752082,2368.659014,6358.592633,10658.965565
919.752412,370.102971,5745.716235,11695.253884
919.752741,-1702.473667,3524.039291,12139.377449
919.753071,-3034.844362,842.705048,13175.665768
919.753400,-4589.276840,-1378.971896,13027.624579
919.753730,-5625.565159,-2451.505594,12361.439231
919.754060,-6883.915261,-3294.210641,11251.130318
919.754389,-6661.853478,-2987.772442,9474.636058
919.754719,-4367.215058,-1532.190996,7698.141797
919.755048,-962.267725,-995.924147,6143.709319
919.755378,2664.741391,0.000000,5551.544565
919.755707,5107.421000,1072.533697,6143.709319
919.756037,5847.626942,2987.772442,7179.997637
919.756366,5403.503377,3907.087040,9326.594869
919.756696,3404.947333,4596.572988,11399.171507
919.757025,962.267725,6128.763984,12213.398043
919.757355,-740.205942,3370.820191,13323.706956
919.757684,-2368.659014,-153.219100,14137.933492
919.758014,-4441.235652,-919.314598,13323.706956
919.758343,-5477.523971,-1532.190996,11621.233289
919.758673,-6291.750507,-2834.553343,9918.759623
919.759002,-5921.647536,-2987.772442,7846.182985
919.759332,-3849.070898,-2298.286494,5847.626942
919.759661,-518.144159,-1532.190996,5107.421000
919.759991,2220.617826,-383.047749,5033.400406
919.760320,4367.215058,2528.115143,6439.791695
919.760650,4219.173869,3830.477490,7328.038826
919.760979,3404.947333,4213.525239,8512.368333
919.761309,2294.638420,4979.620737,10214.842000
919.761638,0.000000,4826.401637,11399.171507
919.761968,-1702.473667,2451.505594,11991.336260
919.762297,-4219.173869,76.609550,13101.645173
919.762627,-5477.523971,-1302.362347,13767.830521
919.762957,-6735.874072,-1762.019645,12805.562797
919.763286,-7105.977043,-2911.162892,10732.986159
919.763616,-5477.523971,-2451.505594,8734.430116
919.763945,-3182.885551,-2221.676944,6513.812290
919.764275,518.144159,-1532.190996,5773.606348
919.764604,3108.864956,153.219100,5477.523971
919.764934,4663.297435,2374.896044,6661.853478
919.765263,5329.482782,4136.915689,7920.203579
919.765593,4441.235652,4903.011187,10066.800811
919.765922,2368.659014,5132.839837,11251.130318
919.766252,222.061783,4519.963438,11917.315666
919.766581,-2072.576638,1072.533697,13397.727550
919.766911,-4145.153275,-306.438199,14582.057057
919.767240,-6883.915261,-1149.143247,14656.077652
919.767570,-7994.224174,-2145.067394,13101.645173
919.767899,-7698.141797,-3064.381992,10066.800811
919.768229,-5921.647536,-2911.162892,7105.977043
919.768558,-2516.700203,-2528.115143,4959.379811
919.768888,1406.391290,-1378.971896,3701.029710
919.769217,3775.050304,919.314598,4071.132681
919.769547,4663.297435,3370.820191,5625.565159
919.769876,4589.276840,4903.011187,7476.080014
919.770206,3330.926739,5515.887586,9474.636058
919.770535,1628.453072,6205.373534,10658.965565
919.770865,-296.082377,4443.353888,11769.274478
919.771194,-2664.741391,1762.019645,12805.562797
919.771524,-4293.194464,-1685.410096,14211.954086
919.771853,-6143.709319,-1991.848295,13767.830521
919.772183,-7402.059420,-842.705048,12287.418637
919.772513,-6365.771101,-2374.896044,9770.718434
919.772842,-4071.132681,-2068.457845,7254.018232
919.773172,-962.267725,-1455.581446,5329.482782
919.773501,2886.803174,-766.095498,4441.235652
919.773831,5403.503377,1762.019645,4959.379811
919.774160,5921.647536,4749.792088,6365.771101
919.774490,5551.544565,5056.230287,8882.471304
919.774819,3775.050304,5132.839837,10584.944971
919.775149,1850.514855,4903.011187,12139.377449
919.775478,-592.164754,2604.724693,13989.892304
919.775808,-2738.761985,459.657299,14730.098246
919.776137,-5107.421000,229.828649,14730.098246
919.776467,-6069.688724,-1378.971896,13545.768739
919.776796,-5551.544565,-2451.505594,10807.006753
919.777126,-5107.421000,-2374.896044,7846.182985
919.777455,-3256.906145,-2298.286494,4959.379811
919.777785,-74.020594,-689.485948,3997.112087
919.778114,1924.535449,1608.800546,4219.173869
919.778444,2812.782580,2987.772442,5625.565159
919.778773,3034.844362,3524.039291,7624.121203
919.779103,1850.514855,4903.011187,8882.471304
919.779432,370.102971,5439.278036,10362.883188
919.779762,-962.267725,3983.696590,11769.274478
919.780091,-2590.720797,2451.505594,11547.212695
919.780421,-3849.070898,-842.705048,12139.377449
919.780750,-4589.276840,-3677.258390,13471.748144
919.781080,-5699.585753,-1838.629195,13471.748144
919.781410,-6883.915261,-995.924147,12213.398043
919.781739,-5921.647536,-1838.629195,9548.656652
919.782069,-3108.864956,-459.657299,7254.018232
919.782398,888.247130,229.828649,5255.462188
919.782728,5329.482782,-306.438199,4515.256246
919.783057,7328.038826,1762.019645,5033.400406
919.783387,6735.874072,4596.572988,6883.915261
919.783716,5255.462188,4979.620737,8956.491898
919.784046,2590.720797,4903.011187,10807.006753
919.784375,0.000000,5286.058936,12361.439231
919.784705,-2220.617826,2221.676944,14656.077652
919.785034,-5033.400406,0.000000,15174.221811
919.785364,-6661.853478,-689.485948,14508.036463
919.785693,-7254.018232,-2987.772442,12361.439231
919.786023,-7550.100608,-3677.258390,10288.862594
919.786352,-7105.977043,-2528.115143,8068.244768
919.786682,-4071.132681,-1915.238745,5625.565159
919.787011,-592.164754,-1302.362347,4441.235652
919.787341,2738.761985,612.876398,4589.276840
919.787670,4811.338623,2604.724693,5995.668130
919.788000,4959.379811,3830.477490,7698.141797
919.788329,3849.070898,5132.839837,8734.430116
919.788659,2294.638420,5362.668486,10362.883188
919.788988,666.185348,4290.134789,11547.212695
919.789318,-1110.308913,1608.800546,13101.645173
919.789647,-2886.803174,-1302.362347,14582.057057
919.789977,-5181.441594,-1608.800546,14063.912898
919.790307,-6291.750507,-1762.019645,12509.480420
919.790636,-5995.668130,-2374.896044,11029.068536
919.790966,-4515.256246,-1991.848295,8586.388927
919.791295,-2294.638420,-1302.362347,6143.709319
919.791625,1406.391290,-1072.533697,4367.215058
919.791954,4737.318029,306.438199,4515.256246
919.792284,5107.421000,3217.601092,5921.647536
919.792613,4737.318029,4213.525239,7624.121203
919.792943,3034.844362,4213.525239,9252.574275
919.793272,1110.308913,4903.011187,10732.986159
919.793602,-1406.391290,3753.867940,11843.295072
919.793931,-3552.988522,689.485948,13767.830521
919.794261,-5181.441594,-536.266849,14952.160028
919.794590,-6661.853478,-2145.067394,14211.954086
919.794920,-7105.977043,-2451.505594,12509.480420
919.795249,-7254.018232,-2451.505594,9770.718434
919.795579,-5699.585753,-2145.067394,7179.997637
919.795908,-2812.782580,-1532.190996,5181.441594
919.796238,1036.288319,-383.047749,4441.235652
919.796567,4071.132681,1455.581446,4737.318029
919.796897,5329.482782,2834.553343,6143.709319
919.797226,4441.235652,3830.477490,7698.141797
919.797556,2886.803174,5362.668486,9252.574275
919.797885,1702.473667,4979.620737,10288.862594
919.798215,222.061783,3677.258390,11029.068536
919.798544,-2146.597232,1302.362347,12361.439231
919.798874,-3923.091493,-1608.800546,14137.933492
919.799204,-6217.729913,-2068.457845,14730.098246
919.799533,-7698.141797,-1608.800546,13619.789333
919.799863,-7920.203579,-1532.190996,11029.068536
919.800192,-6143.709319,-1455.581446,8364.327145
919.800522,-1850.514855,-2068.457845,6217.729913
919.800851,2442.679609,-1302.362347,4885.359217
919.801181,5255.462188,306.438199,4293.194464
919.801510,5995.668130,3370.820191,5255.462188
919.801840,5551.544565,4290.134789,7624.121203
919.802169,3775.050304,4903.011187,9992.780217
919.802499,1628.453072,5286.058936,11843.295072
919.802828,-370.102971,3524.039291,13619.789333
919.803158,-2442.679609,1302.362347,14656.077652
919.803487,-5033.400406,0.000000,15026.180623
919.803817,-5921.647536,-1455.581446,14063.912898
919.804146,-5995.668130,-2374.896044,11843.295072
919.804476,-6143.709319,-2068.457845,9104.533087
919.804805,-4441.235652,-1685.410096,5921.647536
919.805135,-1258.350101,-995.924147,4293.194464
919.805464,1998.556043,536.266849,3330.926739
919.805794,4367.215058,1991.848295,4219.173869
919.806123,4663.297435,3753.867940,6143.709319
919.806453,4071.132681,5056.230287,7846.182985
919.806782,2220.617826,5592.497135,9400.615463
919.807112,222.061783,5209.449386,10955.047942
919.807441,-1554.432478,4443.353888,11325.150913
919.807771,-3182.885551,1072.533697,12731.542202
919.808100,-4589.276840,-2834.553343,14137.933492
919.808430,-6365.771101,-2221.676944,14730.098246
919.808760,-8364.327145,-1149.143247,13249.686362
919.809089,-7328.038826,-1838.629195,10584.944971
919.809419,-5625.565159,-1225.752797,7254.018232
919.809748,-1184.329507,-459.657299,5699.585753
919.810078,3552.988522,-1149.143247,4367.215058
919.810407,6291.750507,153.219100,4663.297435
919.810737,6661.853478,4136.915689,6513.812290
919.811066,5329.482782,4903.011187,8734.430116
919.811396,3256.906145,4673.182538,10584.944971
919.811725,962.267725,5132.839837,11843.295072
919.812055,-962.267725,3370.820191,13619.789333
919.812384,-2886.803174,459.657299,15248.242405
919.812714,-5107.421000,-153.219100,15322.262999
919.813043,-6439.791695,-1532.190996,14137.933492
919.813373,-7550.100608,-2451.505594,11695.253884
919.813702,-7105.977043,-2451.505594,9030.512492
919.814032,-4663.297435,-1838.629195,6365.771101
919.814361,-814.226536,-1762.019645,4071.132681
919.814691,2738.761985,-842.705048,2886.803174
919.815020,4737.318029,1072.533697,4441.235652
919.815350,4885.359217,2604.724693,6809.894666
919.815679,3330.926739,4979.620737,8364.327145
919.816009,962.267725,5439.278036,9696.697840
919.816338,0.000000,5286.058936,11695.253884
919.816668,-1554.432478,3064.381992,12213.398043
919.816997,-2516.700203,-689.485948,13767.830521
919.817327,-3997.112087,-2834.553343,14730.098246
919.817657,-5847.626942,-1685.410096,13989.892304
919.817986,-6809.894666,-1532.190996,11843.295072
919.818316,-5551.544565,-1991.848295,8882.471304
919.818645,-3108.864956,-1072.533697,6735.874072
919.818975,222.061783,-459.657299,4441.235652
919.819304,4367.215058,-689.485948,3849.070898
919.819634,5773.606348,1455.581446,4663.297435
919.819963,5477.523971,4596.572988,6809.894666
919.820293,3775.050304,4136.915689,9474.636058
919.820622,1850.514855,4519.963438,11177.109724
919.820952,-518.144159,4136.915689,12953.603985
919.821281,-2738.761985,1302.362347,14656.077652
919.821611,-5033.400406,0.000000,15470.304188
919.821940,-6957.935855,-1225.752797,15100.201217
919.822270,-7179.997637,-2451.505594,13397.727550
919.822599,-6883.915261,-2298.286494,10362.883188
919.822929,-5773.606348,-1991.848295,6957.935855
919.823258,-2812.782580,-2145.067394,4293.194464
919.823588,592.164754,-766.095498,2812.782580
919.823917,3627.009116,919.314598,3849.070898
919.824247,4885.359217,2221.676944,6069.688724
919.824576,4293.194464,4366.744339,7550.100608
919.824906,2368.659014,5745.716235,8734.430116
919.825235,370.102971,4979.620737,10584.944971
919.825565,-666.185348,4213.525239,12361.439231
919.825894,-2664.741391,3294.210641,12287.418637
919.826224,-3997.112087,-1685.410096,13545.768739
919.826554,-5181.441594,-3600.648841,14508.036463
919.826883,-7179.997637,-1302.362347,14285.974681
919.827213,-7846.182985,-1915.238745,11621.233289
919.827542,-6069.688724,-2451.505594,8512.368333
919.827872,-2886.803174,-1378.971896,5699.585753
919.828201,1924.535449,-1225.752797,4367.215058
919.828531,5625.565159,-1455.581446,3997.112087
919.828860,6809.894666,2757.943793,5181.441594
919.829190,6513.812290,5362.668486,7402.059420
919.829519,5403.503377,4519.963438,10436.903782
919.829849,3034.844362,5286.058936,12583.501014
919.830178,518.144159,5822.325785,14656.077652
919.830508,-2368.659014,2987.772442,14952.160028
919.830837,-4515.256246,1149.143247,14508.036463
919.831167,-5551.544565,-536.266849,13323.706956
919.831496,-6217.729913,-3370.820191,10732.986159
919.831826,-7105.977043,-3217.601092,7698.141797
919.832156,-6069.688724,-2987.772442,4811.338623
919.832485,-3552.988522,-2451.505594,4663.297435
919.832815,-444.123565,-536.266849,5255.462188
919.833144,1850.514855,1302.362347,5403.503377
919.833474,3182.885551,2221.676944,6587.832884
919.833803,3849.070898,3370.820191,7550.100608
919.834133,3182.885551,5669.106685,9622.677246
919.834462,2516.700203,5898.935335,11103.089130
919.834792,370.102971,3753.867940,12435.459826
919.835122,-2072.576638,1838.629195,13693.809927
919.835451,-3775.050304,0.000000,14508.036463
919.835781,-4959.379811,-612.876398,13693.809927
919.836110,-5699.585753,-1838.629195,11843.295072
919.836440,-5329.482782,-2298.286494,9844.739029
919.836769,-3775.050304,-2681.334243,6587.832884
919.837099,-1184.329507,-1991.848295,4589.276840
919.837428,1702.473667,0.000000,4145.153275
919.837758,3478.967927,2298.286494,5847.626942
919.838088,3849.070898,3524.039291,7698.141797
919.838417,3552.988522,4979.620737,9474.636058
919.838747,1998.556043,5822.325785,10436.903782
919.839076,444.123565,5669.106685,11399.171507
919.839406,-1850.514855,2757.943793,13545.768739
919.839735,-3997.112087,766.095498,15322.262999
919.840065,-6069.688724,-536.266849,14582.057057
919.840394,-7254.018232,-1685.410096,12657.521608
919.840724,-7254.018232,-2681.334243,10214.842000
919.841054,-6365.771101,-3064.381992,8142.265362
919.841383,-3923.091493,-3294.210641,6217.729913
919.841713,-740.205942,-1302.362347,4293.194464
919.842042,2590.720797,459.657299,3478.967927
919.842372,5033.400406,2834.553343,4663.297435
919.842701,5551.544565,3370.820191,6883.915261
919.843031,4441.235652,5056.230287,8808.450710
919.843360,2812.782580,5975.544884,10066.800811
919.843690,1406.391290,5209.449386,11177.109724
919.844019,-370.102971,3217.601092,12805.562797
919.844349,-2664.741391,689.485948,14359.995275
919.844679,-4663.297435,-1762.019645,14508.036463
919.845008,-6143.709319,-2068.457845,12361.439231
919.845338,-6439.791695,-2451.505594,10584.944971
919.845667,-5773.606348,-2911.162892,8364.327145
919.845997,-3552.988522,-2834.553343,6587.832884
919.846326,-814.226536,-1455.581446,5181.441594
919.846656,2368.659014,229.828649,4959.379811
919.846985,4515.256246,2451.505594,5921.647536
919.847315,5033.400406,3294.210641,7402.059420
919.847645,4145.153275,3524.039291,9178.553681
919.847974,2368.659014,3983.696590,11473.192101
919.848304,1036.288319,3677.258390,13471.748144
919.848633,-1036.288319,2374.896044,14804.118840
919.848963,-3552.988522,689.485948,14952.160028
919.849292,-5107.421000,-1532.190996,13767.830521
919.849622,-4885.359217,-3140.991542,12435.459826
919.849951,-4663.297435,-3217.601092,10436.903782
919.850281,-4737.318029,-2834.553343,7846.182985
919.850611,-3478.967927,-2451.505594,5699.585753
919.850940,-1110.308913,-842.705048,4663.297435
919.851270,2072.576638,995.924147,5107.421000
919.851599,4071.132681,2221.676944,6217.729913
919.851929,4145.153275,3294.210641,7328.038826
919.852258,3182.885551,4749.792088,8438.347739
919.852588,1332.370696,4366.744339,9770.718434
919.852917,-518.144159,4060.306139,11103.089130
919.853247,-2516.700203,2528.115143,11843.295072
919.853577,-4737.318029,-766.095498,13101.645173
919.853906,-6291.750507,-2298.286494,14211.954086
919.854236,-7476.080014,-1608.800546,13693.809927
919.854565,-7920.203579,-1915.238745,11399.171507
919.854895,-6883.915261,-3064.381992,8956.491898
919.855224,-3701.029710,-2374.896044,6587.832884
919.855554,740.205942,-1149.143247,5107.421000
919.855883,4071.132681,0.000000,4367.215058
919.856213,5847.626942,2451.505594,5107.421000
919.856543,5699.585753,4213.525239,7476.080014
919.856872,4737.318029,5439.278036,10066.800811
919.857202,2516.700203,6971.469032,11769.274478
919.857531,962.267725,6052.154434,12879.583391
919.857861,-962.267725,2221.676944,13915.871710
919.858190,-3478.967927,-229.828649,14508.036463
919.858520,-5551.544565,-459.657299,13693.809927
919.858849,-6883.915261,-2145.067394,12213.398043
919.859179,-7550.100608,-2145.067394,10140.821405
919.859509,-6883.915261,-1455.581446,7772.162391
919.859838,-4441.235652,-1838.629195,5181.441594
919.860168,-1036.288319,-1532.190996,3108.864956
919.860497,2590.720797,536.266849,3478.967927
919.860827,4663.297435,2451.505594,5551.544565
919.861156,4589.276840,4443.353888,7698.141797
919.861486,2812.782580,6511.811733,8956.491898
919.861815,1258.350101,6894.859482,10362.883188
919.862145,148.041188,5209.449386,11177.109724
919.862475,-1184.329507,2987.772442,12731.542202
919.862804,-2960.823768,-1149.143247,14211.954086
919.863134,-4885.359217,-1685.410096,13989.892304
919.863463,-6661.853478,-1532.190996,12657.521608
919.863793,-6513.812290,-2451.505594,10584.944971
919.864122,-4737.318029,-2451.505594,8512.368333
919.864452,-2220.617826,-1378.971896,6069.688724
919.864781,1850.514855,-1225.752797,4515.256246
919.865111,4885.359217,612.876398,4219.173869
919.865441,6217.729913,3447.429741,5255.462188
919.865770,5921.647536,4443.353888,7550.100608
919.866100,4145.153275,4826.401637,9992.780217
919.866429,1998.556043,6052.154434,12287.418637
919.866759,-518.144159,4136.915689,14063.912898
919.867088,-2146.597232,1608.800546,14878.139434
919.867418,-4515.256246,0.000000,14878.139434
919.867747,-5995.668130,-2068.457845,13471.748144
919.868077,-6217.729913,-3447.429741,11399.171507
919.868407,-5995.668130,-3830.477490,9252.574275
919.868736,-5033.400406,-2757.943793,7105.977043
919.869066,-3404.947333,-1532.190996,5403.503377
919.869395,-148.041188,0.000000,4441.235652
919.869725,2812.782580,1149.143247,5329.482782
919.870054,4441.235652,2145.067394,7254.018232
919.870384,3849.070898,4519.963438,8512.368333
919.870713,2368.659014,5822.325785,9622.677246
919.871043,1036.288319,4903.011187,10732.986159
919.871373,-518.144159,3907.087040,11103.089130
919.871702,-1776.494261,459.657299,12657.521608
919.872032,-3330.926739,-2451.505594,13915.871710
919.872361,-5551.544565,-1685.410096,13397.727550
919.872691,-6661.853478,-1532.190996,12065.356855
919.873020,-6069.688724,-3140.991542,10066.800811
919.873350,-4515.256246,-2681.334243,7624.121203
919.873679,-1702.473667,-1072.533697,6143.709319
919.874009,1924.535449,0.000000,5033.400406
919.874339,4515.256246,1838.629195,5255.462188
919.874668,5107.421000,4443.353888,6587.832884
919.874998,4589.276840,4366.744339,8364.327145
919.875327,2960.823768,4826.401637,10362.883188
919.875657,888.247130,5286.058936,12139.377449
919.875986,-1406.391290,3217.601092,13175.665768
919.876316,-3256.906145,995.924147,14211.954086
919.876645,-5477.523971,-919.314598,13767.830521
919.876975,-6143.709319,-2451.505594,12731.542202
919.877305,-6513.812290,-2757.943793,10732.986159
919.877634,-5921.647536,-1991.848295,7920.203579
919.877964,-4589.276840,-1762.019645,5699.585753
919.878293,-1924.535449,-1532.190996,4293.194464
919.878623,1110.308913,383.047749,4367.215058
919.878952,3330.926739,1762.019645,6217.729913
919.879282,3997.112087,3370.820191,7698.141797
919.879611,2812.782580,6052.154434,8808.450710
919.879941,1628.453072,5745.716235,9918.759623
919.880270,666.185348,4979.620737,11103.089130
919.880600,-666.185348,3524.039291,11029.068536
919.880930,-2368.659014,-153.219100,11843.295072
919.881259,-3701.029710,-3447.429741,13397.727550
919.881589,-6217.729913,-1991.848295,14878.139434
919.881918,-8068.244768,-919.314598,13471.748144
919.882248,-7328.038826,-2834.553343,10436.903782
919.882577,-4663.297435,-1838.629195,7476.080014
919.882907,0.000000,-689.485948,5625.565159
919.883236,4293.194464,-1378.971896,4737.318029
919.883566,6587.832884,1455.581446,4515.256246
919.883896,6439.791695,5209.449386,5477.523971
919.884225,5255.462188,5286.058936,7624.121203
919.884555,3330.926739,5592.497135,10881.027347
919.884884,0.000000,6128.763984,12139.377449
919.885214,-2516.700203,3294.210641,13767.830521
919.885543,-4367.215058,-612.876398,14952.160028
919.885873,-6143.709319,-1302.362347,15174.221811
919.886202,-7179.997637,-2757.943793,13989.892304
919.886532,-7254.018232,-4366.744339,10732.986159
919.886862,-6735.874072,-3677.258390,8438.347739
919.887191,-3997.112087,-2221.676944,5699.585753
919.887521,0.000000,-995.924147,4071.132681
919.887850,3775.050304,383.047749,3627.009116
919.888180,5625.565159,3370.820191,4441.235652
919.888509,6365.771101,4290.134789,6809.894666
919.888839,5477.523971,5515.887586,8734.430116
919.889168,3108.864956,6971.469032,9918.759623
919.889498,962.267725,5286.058936,10881.027347
919.889828,-962.267725,2451.505594,12435.459826
919.890157,-3108.864956,-1225.752797,14137.933492
919.890487,-5551.544565,-2068.457845,15248.242405
919.890816,-7698.141797,-1838.629195,13767.830521
919.891146,-8512.368333,-2604.724693,11843.295072
919.891475,-7105.977043,-2145.067394,9400.615463
919.891805,-4219.173869,-2145.067394,6217.729913
919.892134,-148.041188,-1378.971896,4811.338623
919.892464,3256.906145,459.657299,3997.112087
919.892794,4959.379811,3064.381992,5255.462188
919.893123,4959.379811,4596.572988,7328.038826
919.893453,3849.070898,5362.668486,9178.553681
919.893782,2294.638420,6435.202183,10658.965565
919.894112,296.082377,5209.449386,11473.192101
919.894441,-888.247130,1685.410096,13101.645173
919.894771,-2590.720797,-766.095498,14952.160028
919.895100,-4589.276840,-1838.629195,15026.180623
919.895430,-6513.812290,-1532.190996,13249.686362
919.895760,-7105.977043,-1378.971896,11473.192101
919.896089,-5921.647536,-1378.971896,8808.450710
919.896419,-2960.823768,-1378.971896,6069.688724
919.896748,444.123565,-766.095498,3997.112087
919.897078,3923.091493,842.705048,3034.844362
919.897407,5255.462188,2834.553343,4441.235652
919.897737,4959.379811,3294.210641,6735.874072
919.898066,3182.885551,5209.449386,8808.450710
919.898396,370.102971,5822.325785,9844.739029
919.898726,-962.267725,5286.058936,10362.883188
919.899055,-2516.700203,3140.991542,11399.171507
919.899385,-3775.050304,-995.924147,13841.851115
919.899714,-5107.421000,-2528.115143,14952.160028
919.900044,-7105.977043,-2298.286494,13767.830521
919.900373,-8290.306550,-1608.800546,11473.192101
919.900703,-6883.915261,-2298.286494,9252.574275
919.901032,-3256.906145,-1685.410096,7550.100608
919.901362,1110.308913,-612.876398,5921.647536
919.901692,4737.318029,-306.438199,4663.297435
919.902021,7031.956449,2451.505594,4959.379811
919.902351,7402.059420,3983.696590,6439.791695
919.902680,5551.544565,3983.696590,9474.636058
919.903010,2960.823768,4903.011187,11695.253884
919.903339,296.082377,4596.572988,13101.645173
919.903669,-1998.556043,2068.457845,14359.995275
919.903998,-3701.029710,-229.828649,14434.015869
919.904328,-5255.462188,-1838.629195,14656.077652
919.904658,-5921.647536,-3140.991542,12805.562797
919.904987,-6513.812290,-3447.429741,10066.800811
919.905317,-5699.585753,-2298.286494,7550.100608
919.905646,-3849.070898,-1072.533697,5329.482782
919.905976,-518.144159,-842.705048,3404.947333
919.906305,2294.638420,459.657299,3997.112087
919.906635,4071.132681,1455.581446,6291.750507
919.906964,3997.112087,3677.258390,7698.141797
919.907294,2072.576638,4979.620737,8586.388927
919.907624,-444.123565,4673.182538,9474.636058
919.907953,-1924.535449,3830.477490,11177.109724
919.908283,-2812.782580,1838.629195,11917.315666
919.908612,-3997.112087,-2374.896044,13841.851115
919.908942,-5181.441594,-2604.724693,14359.995275
919.909271,-7105.977043,0.000000,13841.851115
919.909601,-7624.121203,-1762.019645,11251.130318
919.909930,-5255.462188,-2681.334243,8734.430116
919.910260,-2146.597232,-1072.533697,5995.668130
919.910590,2220.617826,0.000000,4811.338623
919.910919,5847.626942,0.000000,4589.276840
919.911249,6439.791695,2911.162892,5329.482782
919.911578,5847.626942,4903.011187,7772.162391
919.911908,4663.297435,4290.134789,9770.718434
919.912237,2146.597232,5515.887586,11621.233289
919.912567,-592.164754,4290.134789,13175.665768
919.912896,-2442.679609,1302.362347,14952.160028
919.913226,-5033.400406,0.000000,15100.201217
919.913555,-6587.832884,-919.314598,14211.954086
919.913885,-7031.956449,-2068.457845,12509.480420
919.914215,-7179.997637,-2221.676944,9548.656652
919.914544,-5181.441594,-1991.848295,6735.874072
919.914874,-2368.659014,-2145.067394,4293.194464
919.915203,1036.288319,-536.266849,3404.947333
919.915533,3775.050304,1915.238745,3997.112087
919.915862,4959.379811,2528.115143,5847.626942
919.916192,4589.276840,4673.182538,7476.080014
919.916521,3034.844362,5822.325785,9104.533087
919.916851,1184.329507,4903.011187,10214.842000
919.917181,-222.061783,3983.696590,11843.295072
919.917510,-2220.617826,1225.752797,13989.892304
919.917840,-3775.050304,-1302.362347,15100.201217
919.918169,-5403.503377,-1149.143247,14211.954086
919.918499,-6217.729913,-1455.581446,12435.459826
919.918828,-5551.544565,-1991.848295,9918.759623
919.919158,-3849.070898,-1762.019645,7105.977043
919.919487,-518.144159,-612.876398,4811.338623
919.919817,3330.926739,383.047749,3923.091493
919.920147,5625.565159,1302.362347,4515.256246
919.920476,5699.585753,3983.696590,6365.771101
919.920806,5033.400406,4366.744339,8512.368333
919.921135,2886.803174,4749.792088,10214.842000
919.921465,296.082377,5362.668486,11325.150913
919.921794,-1702.473667,2451.505594,13545.768739
919.922124,-3478.967927,306.438199,15322.262999
919.922453,-5995.668130,-536.266849,15174.221811
919.922783,-7179.997637,-1838.629195,13693.809927
919.923113,-7402.059420,-2221.676944,11695.253884
919.923442,-6661.853478,-1991.848295,8808.450710
919.923772,-4589.276840,-1915.238745,6661.853478
919.924101,-1628.453072,-1608.800546,4663.297435
919.924431,1998.556043,0.000000,4515.256246
919.924760,4441.235652,1608.800546,6069.688724
919.925090,4737.318029,2987.772442,7031.956449
919.925419,3034.844362,4979.620737,7624.121203
919.925749,1998.556043,4903.011187,9400.615463
919.926079,1184.329507,4366.744339,10881.027347
919.926408,-666.185348,3983.696590,11695.253884
919.926738,-2368.659014,1532.190996,12139.377449
919.927067,-4663.297435,-1762.019645,13915.871710
919.927397,-6513.812290,-2221.676944,14508.036463
919.927726,-8216.285956,-1225.752797,13545.768739
919.928056,-7994.224174,-2298.286494,10584.944971
919.928385,-5181.441594,-1991.848295,8142.265362
919.928715,-1332.370696,-689.485948,5921.647536
919.929045,2664.741391,-1149.143247,4515.256246
919.929376,5773.606348,383.047749,4219.173869
919.929706,6587.832884,3753.867940,4959.379811
919.930035,5699.585753,4749.792088,7476.080014
919.930365,4367.215058,4519.963438,10807.006753
919.930694,1702.473667,5056.230287,12509.480420
919.931024,-1406.391290,3600.648841,13619.789333
919.931353,-3256.906145,1302.362347,14582.057057
919.931683,-4737.318029,153.219100,14434.015869
919.932012,-5255.462188,-1149.143247,13175.665768
919.932342,-5477.523971,-2298.286494,10066.800811
919.932671,-5181.441594,-2528.115143,6661.853478
919.933001,-3330.926739,-1685.410096,4959.379811
919.933330,-296.082377,-306.438199,4589.276840
919.933660,1776.494261,1302.362347,4589.276840
919.933989,3330.926739,2528.115143,6291.750507
919.934319,3182.885551,3677.258390,7254.018232
919.934648,2738.761985,4596.572988,8512.368333
919.934978,1184.329507,4443.353888,10066.800811
919.935307,-666.185348,2604.724693,12139.377449
919.935637,-2812.782580,76.609550,14137.933492
919.935966,-4959.379811,-306.438199,15396.283594
919.936296,-6883.915261,-995.924147,14656.077652
919.936625,-6957.935855,-1225.752797,12879.583391
919.936955,-5329.482782,-2298.286494,10732.986159
919.937284,-3256.906145,-2374.896044,7179.997637
919.937614,-370.102971,-1762.019645,4737.318029
919.937943,2738.761985,0.000000,4071.132681
919.938273,5403.503377,2451.505594,5033.400406
919.938602,5403.503377,3677.258390,6661.853478
919.938932,4737.318029,4443.353888,7920.203579
919.939261,3330.926739,5132.839837,9770.718434
919.939591,1406.391290,4749.792088,11325.150913
919.939920,-1184.329507,2987.772442,13249.686362
919.940250,-4071.132681,919.314598,14582.057057
919.940579,-6513.812290,-1302.362347,14804.118840
919.940909,-7846.182985,-2911.162892,13619.789333
919.941238,-8216.285956,-2374.896044,11843.295072
919.941568,-7402.059420,-2604.724693,9474.636058
919.941897,-5329.482782,-3140.991542,6587.832884
919.942227,-1998.556043,-2298.286494,4219.173869
919.942556,1702.473667,76.609550,2738.761985
919.942886,4959.379811,1225.752797,3923.091493
919.943216,5995.668130,3524.039291,6143.709319
919.943545,4885.359217,5132.839837,7698.141797
919.943875,3404.947333,5515.887586,9548.656652
919.944204,2516.700203,5745.716235,11473.192101
919.944534,0.000000,4596.572988,12509.480420
919.944863,-2368.659014,1149.143247,14434.015869
919.945193,-5181.441594,-1608.800546,15100.201217
919.945522,-7328.038826,-1532.190996,14359.995275
919.945852,-7550.100608,-1915.238745,12805.562797
919.946181,-6513.812290,-2451.505594,9844.739029
919.946511,-4293.194464,-3064.381992,7105.977043
919.946840,-1110.308913,-2068.457845,4737.318029
919.947170,2442.679609,-919.314598,3775.050304
919.947499,4959.379811,1378.971896,4219.173869
919.947829,5551.544565,4826.401637,5477.523971
919.948158,5107.421000,4443.353888,7772.162391
919.948488,3627.009116,5286.058936,10584.944971
919.948817,1628.453072,5515.887586,12731.542202
919.949147,-740.205942,2834.553343,14063.912898
919.949476,-3034.844362,1072.533697,15174.221811
919.949806,-5625.565159,-153.219100,15322.262999
919.950135,-6217.729913,-1302.362347,14063.912898
919.950465,-6069.688724,-2757.943793,11695.253884
919.950794,-5699.585753,-2451.505594,8734.430116
919.951124,-4145.153275,-2298.286494,5625.565159
919.951453,-1184.329507,-1302.362347,3552.988522
919.951783,2368.659014,689.485948,3997.112087
919.952112,4663.297435,2987.772442,4885.359217
919.952442,4737.318029,4213.525239,6291.750507
919.952771,3552.988522,5362.668486,7179.997637
919.953101,2368.659014,5669.106685,9326.594869
919.953430,592.164754,5286.058936,11399.171507
919.953760,-1554.432478,4060.306139,12361.439231
919.954089,-3404.947333,689.485948,13471.748144
919.954419,-5329.482782,-1991.848295,13989.892304
919.954748,-6883.915261,-2451.505594,14359.995275
919.955078,-8364.327145,-2374.896044,11917.315666
919.955407,-7476.080014,-2604.724693,10510.924376
919.955737,-5107.421000,-1991.848295,7772.162391
919.956066,-1406.391290,-842.705048,5403.503377
919.956396,2886.803174,-995.924147,4737.318029
919.956725,5921.647536,995.924147,5107.421000
919.957055,6069.688724,4136.915689,6143.709319
919.957384,4885.359217,4826.401637,8512.368333
919.957714,3552.988522,5822.325785,10732.986159
919.958043,1628.453072,5898.935335,12139.377449
919.958373,0.000000,2834.553343,13101.645173
919.958702,-1998.556043,76.609550,14063.912898
919.959032,-4663.297435,-1302.362347,14582.057057
919.959361,-6143.709319,-1991.848295,13767.830521
919.959691,-7550.100608,-3064.381992,11769.274478
919.960020,-6957.935855,-2834.553343,9252.574275
919.960350,-4737.318029,-2681.334243,6513.812290
919.960679,-1258.350101,-2528.115143,4589.276840
919.961009,2146.597232,-689.485948,3923.091493
919.961338,4145.153275,1685.410096,4737.318029
919.961668,4811.338623,3140.991542,6809.894666
919.961997,3997.112087,4979.620737,8142.265362
919.962327,1924.535449,6128.763984,10288.862594
919.962656,444.123565,5822.325785,11103.089130
919.962986,-962.267725,2757.943793,12361.439231
919.963315,-2812.782580,-766.095498,13841.851115
919.963645,-4663.297435,-1838.629195,14211.954086
919.963974,-6217.729913,-2451.505594,13545.768739
919.964304,-7031.956449,-2528.115143,11473.192101
919.964633,-6069.688724,-2681.334243,9178.553681
919.964963,-3404.947333,-2681.334243,6883.915261
919.965292,444.123565,-1838.629195,4959.379811
919.965622,3330.926739,842.705048,4515.256246
919.965951,5477.523971,3370.820191,5551.544565
919.966281,5847.626942,4903.011187,7179.997637
919.966610,5107.421000,4903.011187,9104.533087
919.966940,3182.885551,5898.935335,10658.965565
919.967270,888.247130,4749.792088,12583.501014
919.967599,-1628.453072,2604.724693,13841.851115
919.967929,-4589.276840,383.047749,14508.036463
919.968258,-6809.894666,-1302.362347,14582.057057
919.968588,-7624.121203,-2528.115143,13101.645173
919.968917,-7698.141797,-3217.601092,10510.924376
919.969247,-6883.915261,-2834.553343,7105.977043
919.969576,-4071.132681,-2987.772442,5181.441594
919.969906,-666.185348,-1685.410096,3923.091493
919.970235,2294.638420,612.876398,4367.215058
919.970565,4071.132681,2451.505594,6809.894666
919.970894,4145.153275,4979.620737,7698.141797
919.971224,2738.761985,6358.592633,9030.512492
919.971553,2072.576638,5822.325785,10510.924376
919.971883,444.123565,4826.401637,11473.192101
919.972212,-1406.391290,2681.334243,11695.253884
919.972542,-2812.782580,-995.924147,13175.665768
919.972871,-4737.318029,-2451.505594,14211.954086
919.973201,-6883.915261,-995.924147,13693.809927
919.973530,-7698.141797,-2068.457845,11547.212695
919.973860,-6143.709319,-2834.553343,8734.430116
