#time,accel_x,accel_y,accel_z
849.242468,-1036.288319,842.705048,9474.636058
849.242798,-444.123565,383.047749,9696.697840
849.243127,-1036.288319,766.095498,9696.697840
849.243457,-962.267725,842.705048,9474.636058
849.243787,-1036.288319,995.924147,9622.677246
849.244117,-962.267725,766.095498,9622.677246
849.244446,-962.267725,689.485948,9548.656652
849.244776,-962.267725,689.485948,9474.636058
849.245106,-962.267725,919.314598,9770.718434
849.245436,-1036.288319,612.876398,9622.677246
849.245765,-888.247130,689.485948,9696.697840
849.246095,-1110.308913,1149.143247,9696.697840
849.246425,-740.205942,1072.533697,9548.656652
849.246755,-1036.288319,995.924147,9400.615463
849.247084,-1110.308913,919.314598,9548.656652
849.247414,-1110.308913,842.705048,9474.636058
849.247744,-1036.288319,1149.143247,9326.594869
849.248074,-740.205942,766.095498,9696.697840
849.248403,-888.247130,919.314598,9548.656652
849.248733,-1110.308913,766.095498,9252.574275
849.249063,-888.247130,995.924147,9400.615463
849.249393,-1036.288319,995.924147,9400.615463
849.249722,-1110.308913,1072.533697,9474.636058
849.250052,-740.205942,1072.533697,9548.656652
849.250382,-888.247130,1149.143247,9326.594869
849.250712,-1110.308913,919.314598,9326.594869
849.251041,-962.267725,689.485948,9548.656652
849.251371,-666.185348,1072.533697,9622.677246
849.251701,-1036.288319,766.095498,9252.574275
849.252031,-962.267725,612.876398,9548.656652
849.252360,-1036.288319,919.314598,9548.656652
849.252690,-888.247130,766.095498,9474.636058
849.253020,-1036.288319,1149.143247,9474.636058
849.253350,-1036.288319,842.705048,9326.594869
849.253679,-962.267725,919.314598,9326.594869
849.254009,-1184.329507,689.485948,9622.677246
849.254339,-962.267725,919.314598,9622.677246
849.254669,-1036.288319,919.314598,9622.677246
849.254998,-1110.308913,995.924147,9622.677246
849.255328,-592.164754,919.314598,9844.739029
849.255658,-888.247130,995.924147,9696.697840
849.255987,-1110.308913,919.314598,9696.697840
849.256317,-1110.308913,842.705048,9622.677246
849.256647,-444.123565,1302.362347,9696.697840
849.256977,-888.247130,536.266849,9474.636058
849.257306,-1110.308913,842.705048,9844.739029
849.257636,-1110.308913,919.314598,9622.677246
849.257966,-962.267725,995.924147,9622.677246
849.258296,-888.247130,689.485948,9548.656652
849.258625,-1036.288319,995.924147,9474.636058
849.258955,-1110.308913,1072.533697,9474.636058
849.259285,-1258.350101,842.705048,9400.615463
849.259615,-962.267725,766.095498,9548.656652
849.259944,-1258.350101,919.314598,9400.615463
849.260274,-888.247130,612.876398,9252.574275
849.260604,-888.247130,766.095498,9474.636058
849.260934,-1036.288319,919.314598,9474.636058
849.261263,-1110.308913,842.705048,9474.636058
849.261593,-962.267725,689.485948,9252.574275
849.261923,-666.185348,919.314598,9252.574275
849.262253,-962.267725,995.924147,9252.574275
849.262582,-1184.329507,842.705048,9474.636058
849.262912,-1406.391290,766.095498,9474.636058
849.263242,-962.267725,995.924147,9548.656652
849.263572,-888.247130,842.705048,9474.636058
849.263901,-962.267725,1455.581446,9548.656652
849.264231,-962.267725,995.924147,9474.636058
849.264561,-962.267725,842.705048,9474.636058
849.264891,-1036.288319,842.705048,9326.594869
849.265220,-1110.308913,842.705048,9400.615463
849.265550,-740.205942,995.924147,9474.636058
849.265880,-1332.370696,1225.752797,9474.636058
849.266210,-1036.288319,1072.533697,9548.656652
849.266539,-1110.308913,919.314598,9548.656652
849.266869,-1110.308913,919.314598,9548.656652
849.267199,-962.267725,919.314598,9474.636058
849.267529,-1332.370696,1455.581446,9400.615463
849.267858,-1036.288319,842.705048,9622.677246
849.268188,-740.205942,919.314598,9178.553681
849.268518,-370.102971,995.924147,9252.574275
849.268848,592.164754,536.266849,9474.636058
849.269177,1258.350101,536.266849,9474.636058
849.269507,740.205942,689.485948,9252.574275
849.269837,592.164754,842.705048,9548.656652
849.270167,0.000000,766.095498,10140.821405
849.270496,-444.123565,995.924147,10658.965565
849.270826,-740.205942,842.705048,10510.924376
849.271156,-592.164754,229.828649,9992.780217
849.271486,0.000000,0.000000,9400.615463
849.271815,962.267725,0.000000,9178.553681
849.272145,1850.514855,-229.828649,9030.512492
849.272475,2442.679609,1072.533697,8512.368333
849.272805,3404.947333,919.314598,8512.368333
849.273134,3701.029710,1685.410096,9030.512492
849.273464,3552.988522,2298.286494,9252.574275
849.273794,3256.906145,1685.410096,10066.800811
849.274124,2664.741391,919.314598,10288.862594
849.274453,1998.556043,1455.581446,10510.924376
849.274783,1332.370696,766.095498,10732.986159
849.275113,1332.370696,0.000000,10510.924376
849.275443,1628.453072,-383.047749,10288.862594
849.275772,2220.617826,-383.047749,9400.615463
849.276102,3108.864956,-229.828649,8660.409521
849.276432,4145.153275,536.266849,8956.491898
849.276762,4589.276840,1762.019645,9326.594869
849.277091,4219.173869,2451.505594,9548.656652
849.277421,3330.926739,2911.162892,10140.821405
849.277751,2072.576638,3217.601092,10510.924376
849.278081,0.000000,3064.381992,10436.903782
849.278410,-1924.535449,2298.286494,9844.739029
849.278740,-1998.556043,536.266849,8882.471304
849.279070,-888.247130,-766.095498,7772.162391
849.279400,888.247130,-1532.190996,7105.977043
849.279729,2590.720797,-919.314598,6735.874072
849.280059,3330.926739,-383.047749,7105.977043
849.280389,3478.967927,1072.533697,8142.265362
849.280719,2516.700203,3140.991542,10214.842000
849.281048,1184.329507,4596.572988,11843.295072
849.281378,-444.123565,4060.306139,12065.356855
849.281708,-1332.370696,2757.943793,12509.480420
849.282038,-1924.535449,995.924147,11917.315666
849.282367,-2220.617826,-995.924147,10955.047942
849.282697,-1850.514855,-2221.676944,10140.821405
849.283027,-814.226536,-2374.896044,9030.512492
849.283357,0.000000,-1762.019645,7476.080014
849.283686,2220.617826,-689.485948,7402.059420
849.284016,3849.070898,459.657299,7179.997637
849.284346,4441.235652,2068.457845,7476.080014
849.284676,4071.132681,3677.258390,8290.306550
849.285005,2590.720797,3983.696590,9474.636058
849.285335,814.226536,4366.744339,10807.006753
849.285665,-1184.329507,3830.477490,11843.295072
849.285995,-2886.803174,1915.238745,11769.274478
849.286324,-3182.885551,-229.828649,11103.089130
849.286654,-3182.885551,-1991.848295,10584.944971
849.286984,-3923.091493,-2834.553343,9696.697840
849.287314,-4145.153275,-2528.115143,9474.636058
849.287643,-3627.009116,-1532.190996,9548.656652
849.287973,-2368.659014,-306.438199,9474.636058
849.288303,-1036.288319,1302.362347,9030.512492
849.288633,74.020594,1378.971896,8660.409521
849.288962,1776.494261,1149.143247,8512.368333
849.289292,2442.679609,919.314598,8216.285956
849.289622,3182.885551,995.924147,8586.388927
849.289952,3627.009116,1225.752797,9030.512492
849.290281,3923.091493,995.924147,9844.739029
849.290611,3034.844362,995.924147,10362.883188
849.290941,2072.576638,1378.971896,10955.047942
849.291271,1110.308913,2221.676944,11547.212695
849.291600,-222.061783,2451.505594,11769.274478
849.291930,-1554.432478,1915.238745,11621.233289
849.292260,-2960.823768,2221.676944,10807.006753
849.292590,-3701.029710,1225.752797,9474.636058
849.292919,-3552.988522,-689.485948,7846.182985
849.293249,-3108.864956,-1838.629195,6513.812290
849.293579,-2442.679609,-1149.143247,5699.585753
849.293909,-1554.432478,-1532.190996,5699.585753
849.294238,-444.123565,-383.047749,6735.874072
849.294568,-1036.288319,612.876398,8290.306550
849.294898,-2368.659014,2451.505594,10214.842000
849.295228,-3701.029710,3294.210641,11991.336260
849.295557,-4071.132681,3524.039291,12731.542202
849.295887,-4663.297435,3447.429741,13249.686362
849.296217,-4219.173869,2374.896044,12287.418637
849.296547,-2516.700203,0.000000,10436.903782
849.296876,-296.082377,-1455.581446,8586.388927
849.297206,2072.576638,-919.314598,7550.100608
849.297536,3404.947333,-842.705048,7179.997637
849.297866,4219.173869,153.219100,7402.059420
849.298195,4219.173869,2145.067394,8512.368333
849.298525,3034.844362,3907.087040,9696.697840
849.298855,1998.556043,5132.839837,11325.150913
849.299185,-148.041188,5286.058936,12139.377449
849.299514,-2812.782580,4519.963438,12361.439231
849.299844,-4885.359217,2834.553343,11547.212695
849.300174,-5551.544565,0.000000,9844.739029
849.300504,-4737.318029,-2528.115143,8216.285956
849.300833,-3330.926739,-3600.648841,6365.771101
849.301163,-1850.514855,-3064.381992,5329.482782
849.301493,-148.041188,-2068.457845,5551.544565
849.301823,888.247130,0.000000,6883.915261
849.302152,148.041188,2834.553343,8512.368333
849.302482,-370.102971,4519.963438,10288.862594
849.302812,-1184.329507,5898.935335,11917.315666
849.303142,-2368.659014,4979.620737,12879.583391
849.303471,-3478.967927,2987.772442,12361.439231
849.303801,-3701.029710,536.266849,11325.150913
849.304131,-2516.700203,-1685.410096,9622.677246
849.304461,-518.144159,-2834.553343,8586.388927
849.304790,888.247130,-3677.258390,7476.080014
849.305120,2812.782580,-2604.724693,7179.997637
849.305450,4145.153275,-995.924147,7179.997637
849.305780,4293.194464,919.314598,8438.347739
849.306109,3849.070898,3294.210641,10436.903782
849.306439,1776.494261,5439.278036,12213.398043
849.306769,-740.205942,5439.278036,13471.748144
849.307099,-3775.050304,4903.011187,13027.624579
849.307428,-5477.523971,1762.019645,11843.295072
849.307758,-5329.482782,-612.876398,10140.821405
849.308088,-4293.194464,-3524.039291,7920.203579
849.308418,-3330.926739,-4826.401637,6143.709319
849.308747,-2072.576638,-4519.963438,5625.565159
849.309077,-962.267725,-2757.943793,6883.915261
849.309407,-888.247130,612.876398,8068.244768
849.309737,-1924.535449,2681.334243,10436.903782
849.310066,-2368.659014,5362.668486,12139.377449
849.310396,-2590.720797,5898.935335,12805.562797
849.310726,-3182.885551,4136.915689,12065.356855
849.311056,-3108.864956,1225.752797,11177.109724
849.311385,-2220.617826,-995.924147,9474.636058
849.311715,-814.226536,-2451.505594,8512.368333
849.312045,370.102971,-3447.429741,8142.265362
849.312375,1850.514855,-2987.772442,7846.182985
849.312704,3034.844362,-1225.752797,7846.182985
849.313034,4219.173869,842.705048,8438.347739
849.313364,3849.070898,3983.696590,9992.780217
849.313694,3256.906145,6128.763984,10881.027347
849.314023,1924.535449,6894.859482,11769.274478
849.314353,-888.247130,6358.592633,11547.212695
849.314683,-2886.803174,4979.620737,11325.150913
849.315013,-3478.967927,1149.143247,9400.615463
849.315342,-3478.967927,-1915.238745,7920.203579
849.315672,-3108.864956,-3830.477490,6735.874072
849.316002,-2368.659014,-4366.744339,6365.771101
849.316332,-1776.494261,-2604.724693,6291.750507
849.316661,-962.267725,-459.657299,6513.812290
849.316991,-592.164754,1991.848295,8586.388927
849.317321,-444.123565,4213.525239,10881.027347
849.317651,-740.205942,5975.544884,11843.295072
849.317980,-1554.432478,5822.325785,11843.295072
849.318310,-1924.535449,4749.792088,11029.068536
849.318640,-1406.391290,1455.581446,10510.924376
849.318970,-518.144159,-919.314598,9622.677246
849.319299,148.041188,-2451.505594,9400.615463
849.319628,740.205942,-3064.381992,8364.327145
849.319958,1406.391290,-2451.505594,8586.388927
849.320287,2220.617826,-689.485948,9474.636058
849.320617,2146.597232,1302.362347,10658.965565
849.320946,1332.370696,3370.820191,11251.130318
849.321275,74.020594,4826.401637,11547.212695
849.321605,-1184.329507,5132.839837,11251.130318
849.321934,-2368.659014,3524.039291,10066.800811
849.322264,-3552.988522,612.876398,9548.656652
849.322593,-3627.009116,-1302.362347,8512.368333
849.322923,-3182.885551,-2911.162892,7105.977043
849.323252,-2368.659014,-3677.258390,6957.935855
849.323581,-2146.597232,-3064.381992,7031.956449
849.323911,-2146.597232,-2068.457845,8068.244768
849.324240,-2516.700203,919.314598,9844.739029
849.324570,-2812.782580,2987.772442,11547.212695
849.324899,-3330.926739,4596.572988,12361.439231
849.325228,-3552.988522,4136.915689,11695.253884
849.325558,-3478.967927,2298.286494,11547.212695
849.325887,-2960.823768,-153.219100,9992.780217
849.326217,-1628.453072,-1455.581446,8808.450710
849.326546,-222.061783,-2221.676944,7846.182985
849.326876,1184.329507,-3217.601092,7254.018232
849.327205,2294.638420,-3064.381992,7402.059420
849.327534,2960.823768,-1072.533697,8364.327145
849.327864,2960.823768,1532.190996,9844.739029
849.328193,2368.659014,3907.087040,11399.171507
849.328523,888.247130,5209.449386,12065.356855
849.328852,-1110.308913,5975.544884,11917.315666
849.329181,-1554.432478,3830.477490,11843.295072
849.329511,-2072.576638,1762.019645,10807.006753
849.329840,-2294.638420,-153.219100,9104.533087
849.330170,-2072.576638,-2145.067394,7772.162391
849.330499,-2220.617826,-3983.696590,6883.915261
849.330829,-1110.308913,-2681.334243,6809.894666
849.331158,-962.267725,-689.485948,7031.956449
849.331487,-370.102971,1455.581446,8068.244768
849.331817,-592.164754,2987.772442,9770.718434
849.332146,-1406.391290,4290.134789,11251.130318
849.332476,-2146.597232,5132.839837,11547.212695
849.332805,-3108.864956,4443.353888,10955.047942
849.333134,-2812.782580,2451.505594,10140.821405
849.333464,-1850.514855,-229.828649,9252.574275
849.333793,-592.164754,-1838.629195,8586.388927
849.334123,444.123565,-2757.943793,7698.141797
849.334452,1702.473667,-2145.067394,7179.997637
849.334782,1924.535449,-306.438199,8586.388927
849.335111,1406.391290,2451.505594,9918.759623
849.335440,1184.329507,3907.087040,11251.130318
849.335770,222.061783,4673.182538,11547.212695
849.336099,-1258.350101,5362.668486,11177.109724
849.336429,-2146.597232,4519.963438,10807.006753
849.336758,-2886.803174,1532.190996,9918.759623
849.337087,-2812.782580,-842.705048,9030.512492
849.337417,-3108.864956,-1915.238745,7254.018232
849.337746,-2516.700203,-2145.067394,6069.688724
849.338076,-2220.617826,-2681.334243,6735.874072
849.338405,-1850.514855,-1608.800546,7772.162391
849.338734,-2368.659014,919.314598,9400.615463
849.339064,-3034.844362,2604.724693,11547.212695
849.339393,-3404.947333,4596.572988,12213.398043
849.339723,-4071.132681,4826.401637,12583.501014
849.340052,-4515.256246,3140.991542,11843.295072
849.340382,-3404.947333,229.828649,10584.944971
849.340711,-1850.514855,-1685.410096,9400.615463
849.341040,-222.061783,-2451.505594,7698.141797
849.341370,1332.370696,-3447.429741,7254.018232
849.341699,2220.617826,-2987.772442,7624.121203
849.342029,2812.782580,-1072.533697,8438.347739
849.342358,3034.844362,1532.190996,9918.759623
849.342687,2368.659014,3753.867940,11177.109724
849.343017,1554.432478,5822.325785,11917.315666
849.343346,-296.082377,5515.887586,11917.315666
849.343676,-1480.411884,3983.696590,11473.192101
849.344005,-2146.597232,1455.581446,10140.821405
849.344335,-2146.597232,-766.095498,8882.471304
849.344664,-1776.494261,-2145.067394,7772.162391
849.344993,-1258.350101,-3677.258390,7031.956449
849.345323,-962.267725,-2757.943793,7105.977043
849.345652,0.000000,-1225.752797,7254.018232
849.345982,-370.102971,1149.143247,8216.285956
849.346311,0.000000,2987.772442,10510.924376
849.346640,-518.144159,4290.134789,11325.150913
849.346970,-2072.576638,5056.230287,11843.295072
849.347299,-3404.947333,4136.915689,11325.150913
849.347629,-3478.967927,2298.286494,10584.944971
849.347958,-2220.617826,-766.095498,9770.718434
849.348288,-1110.308913,-2451.505594,9178.553681
849.348617,74.020594,-3447.429741,8142.265362
849.348946,1184.329507,-2604.724693,7698.141797
849.349276,2294.638420,-1225.752797,8364.327145
849.349605,2368.659014,1762.019645,9548.656652
849.349935,1776.494261,4136.915689,11103.089130
849.350264,1036.288319,5132.839837,11621.233289
849.350593,-518.144159,5898.935335,11843.295072
849.350923,-2220.617826,5362.668486,11621.233289
849.351252,-3034.844362,2451.505594,10881.027347
849.351582,-3256.906145,0.000000,9474.636058
849.351911,-3182.885551,-1915.238745,7179.997637
849.352241,-3034.844362,-2834.553343,6217.729913
849.352570,-2516.700203,-2834.553343,6809.894666
849.352899,-2442.679609,-1608.800546,7920.203579
849.353229,-2960.823768,842.705048,9178.553681
849.353558,-3256.906145,2757.943793,11177.109724
849.353888,-3849.070898,4519.963438,11991.336260
849.354217,-3997.112087,5056.230287,11769.274478
849.354546,-4071.132681,3524.039291,11029.068536
849.354876,-3182.885551,1302.362347,10214.842000
849.355205,-1924.535449,-383.047749,8438.347739
849.355535,148.041188,-1378.971896,7550.100608
849.355864,1554.432478,-2221.676944,7179.997637
849.356194,2220.617826,-2298.286494,7179.997637
849.356523,3478.967927,-536.266849,8290.306550
849.356852,3701.029710,1455.581446,9474.636058
849.357182,3108.864956,3677.258390,10658.965565
849.357511,1924.535449,5362.668486,11399.171507
849.357841,222.061783,5822.325785,11843.295072
849.358170,-1258.350101,4290.134789,11769.274478
849.358499,-2294.638420,2374.896044,10510.924376
849.358829,-2368.659014,-229.828649,9104.533087
849.359158,-2516.700203,-2451.505594,7476.080014
849.359488,-2146.597232,-3983.696590,7328.038826
849.359817,-1850.514855,-3753.867940,7624.121203
849.360146,-1406.391290,-2068.457845,8068.244768
849.360476,-1110.308913,76.609550,8364.327145
849.360805,-1110.308913,1685.410096,9474.636058
849.361135,-888.247130,3217.601092,11103.089130
849.361464,-1036.288319,3677.258390,11251.130318
849.361794,-1850.514855,3447.429741,11103.089130
849.362123,-2368.659014,1915.238745,10066.800811
849.362452,-1628.453072,459.657299,10362.883188
849.362782,-666.185348,-1532.190996,9548.656652
849.363111,370.102971,-2451.505594,9326.594869
849.363441,1332.370696,-2681.334243,8586.388927
849.363770,1924.535449,-1762.019645,8734.430116
849.364099,2368.659014,76.609550,9252.574275
849.364429,1850.514855,2451.505594,10732.986159
849.364758,444.123565,3447.429741,11473.192101
849.365088,-888.247130,4519.963438,11621.233289
849.365417,-2146.597232,4213.525239,11029.068536
849.365747,-2960.823768,2145.067394,10214.842000
849.366076,-2664.741391,-842.705048,8808.450710
849.366405,-2886.803174,-2451.505594,7624.121203
849.366735,-2664.741391,-3370.820191,7328.038826
849.367064,-2664.741391,-2451.505594,7402.059420
849.367394,-2886.803174,-689.485948,7254.018232
849.367723,-2516.700203,1532.190996,7772.162391
849.368052,-2146.597232,2145.067394,9400.615463
849.368382,-2146.597232,3370.820191,10807.006753
849.368711,-2516.700203,4443.353888,11695.253884
849.369041,-3923.091493,4443.353888,11621.233289
849.369370,-4515.256246,2834.553343,11029.068536
849.369700,-3552.988522,919.314598,10510.924376
849.370029,-1702.473667,-919.314598,9252.574275
849.370358,148.041188,-2298.286494,7846.182985
849.370688,1406.391290,-2911.162892,7105.977043
849.371017,2294.638420,-2145.067394,7254.018232
849.371347,3182.885551,842.705048,8882.471304
849.371676,2294.638420,3677.258390,10288.862594
849.372005,1406.391290,4519.963438,11103.089130
849.372335,0.000000,5592.497135,11399.171507
849.372664,-1258.350101,4596.572988,11029.068536
849.372994,-2294.638420,2145.067394,10288.862594
849.373323,-2738.761985,-383.047749,9030.512492
849.373653,-2664.741391,-1532.190996,7920.203579
849.373982,-2442.679609,-3064.381992,7550.100608
849.374311,-2146.597232,-3370.820191,8290.306550
849.374641,-1924.535449,-1072.533697,8512.368333
849.374970,-1776.494261,689.485948,8734.430116
849.375300,-1184.329507,2451.505594,9474.636058
849.375629,-444.123565,3524.039291,10362.883188
849.375958,0.000000,4060.306139,10658.965565
849.376288,-370.102971,3830.477490,10362.883188
849.376617,-1110.308913,2374.896044,10140.821405
849.376947,-1332.370696,689.485948,9770.718434
849.377276,-666.185348,-612.876398,9326.594869
849.377605,0.000000,-2145.067394,8438.347739
849.377935,1702.473667,-2911.162892,8216.285956
849.378264,1850.514855,-1991.848295,8290.306550
849.378594,2146.597232,-153.219100,9400.615463
849.378923,1480.411884,2374.896044,10807.006753
849.379253,74.020594,3524.039291,11843.295072
849.379582,-1554.432478,4366.744339,12287.418637
849.379911,-2664.741391,4519.963438,12065.356855
849.380241,-3478.967927,2451.505594,11177.109724
849.380570,-3552.988522,0.000000,9696.697840
849.380900,-3478.967927,-1915.238745,7994.224174
849.381229,-3034.844362,-2987.772442,7402.059420
849.381558,-2960.823768,-2604.724693,6513.812290
849.381888,-2442.679609,-1072.533697,6291.750507
849.382217,-1924.535449,689.485948,7031.956449
849.382547,-1554.432478,1685.410096,9178.553681
849.382876,-1702.473667,2987.772442,10955.047942
849.383206,-2738.761985,4903.011187,11991.336260
849.383535,-3923.091493,5132.839837,11843.295072
849.383864,-4737.318029,3677.258390,11843.295072
849.384194,-3849.070898,689.485948,10732.986159
849.384523,-1924.535449,-1838.629195,9622.677246
849.384853,0.000000,-2451.505594,8216.285956
849.385182,1480.411884,-2604.724693,7254.018232
849.385511,2812.782580,-1762.019645,7179.997637
849.385841,3108.864956,612.876398,8142.265362
849.386170,3034.844362,3140.991542,9770.718434
849.386500,2368.659014,4596.572988,11029.068536
849.386829,1406.391290,5745.716235,11399.171507
849.387159,-296.082377,5822.325785,10955.047942
849.387488,-1628.453072,3600.648841,10732.986159
849.387817,-2294.638420,306.438199,9474.636058
849.388147,-2146.597232,-1378.971896,8364.327145
849.388476,-2146.597232,-2528.115143,7476.080014
849.388806,-2072.576638,-3064.381992,7328.038826
849.389135,-1702.473667,-1915.238745,8068.244768
849.389464,-1332.370696,229.828649,8364.327145
849.389794,-1036.288319,2451.505594,8956.491898
849.390123,-444.123565,4060.306139,10362.883188
849.390453,0.000000,5056.230287,10807.006753
849.390782,-1628.453072,4749.792088,10881.027347
849.391112,-2590.720797,3140.991542,10807.006753
849.391441,-2516.700203,919.314598,10436.903782
849.391770,-1702.473667,-842.705048,9548.656652
849.392100,-296.082377,-2145.067394,9030.512492
849.392429,592.164754,-3447.429741,8216.285956
849.392759,1702.473667,-2757.943793,8438.347739
849.393088,2368.659014,-459.657299,9252.574275
849.393417,2220.617826,2221.676944,10436.903782
849.393747,1184.329507,4136.915689,11621.233289
849.394076,-148.041188,5056.230287,12361.439231
849.394406,-1776.494261,4673.182538,11843.295072
849.394735,-2812.782580,3140.991542,11399.171507
849.395065,-3108.864956,536.266849,9622.677246
849.395394,-3182.885551,-1608.800546,8364.327145
849.395723,-2812.782580,-3064.381992,7402.059420
849.396053,-2812.782580,-2681.334243,6217.729913
849.396382,-2368.659014,-2451.505594,6365.771101
849.396712,-1850.514855,-842.705048,7698.141797
849.397041,-1924.535449,1532.190996,9622.677246
849.397370,-2516.700203,3447.429741,11473.192101
849.397700,-3404.947333,4596.572988,11991.336260
849.398029,-4589.276840,4596.572988,11843.295072
849.398359,-4663.297435,2681.334243,11029.068536
849.398688,-3404.947333,0.000000,10140.821405
849.399017,-1776.494261,-1378.971896,8882.471304
849.399347,-148.041188,-2451.505594,7772.162391
849.399676,1406.391290,-3217.601092,7476.080014
849.400006,2368.659014,-1915.238745,7624.121203
849.400335,3108.864956,612.876398,9030.512492
849.400665,3256.906145,2911.162892,10362.883188
849.400994,2812.782580,4443.353888,11177.109724
849.401323,1850.514855,6281.983084,11695.253884
849.401653,148.041188,5822.325785,11399.171507
849.401982,-1110.308913,3677.258390,10732.986159
849.402312,-1850.514855,842.705048,9696.697840
849.402641,-1998.556043,-1225.752797,8364.327145
849.402970,-2294.638420,-3217.601092,7772.162391
849.403300,-1998.556043,-3753.867940,7624.121203
849.403629,-1776.494261,-2451.505594,7994.224174
849.403959,-1258.350101,-383.047749,8438.347739
849.404288,-296.082377,1762.019645,8956.491898
849.404618,-296.082377,3907.087040,10658.965565
849.404947,-444.123565,4979.620737,10881.027347
849.405276,-1184.329507,4903.011187,10732.986159
849.405606,-2220.617826,3753.867940,10436.903782
849.405935,-2294.638420,1378.971896,10066.800811
849.406265,-1554.432478,0.000000,9400.615463
849.406594,-1036.288319,-1762.019645,9030.512492
849.406923,-296.082377,-2757.943793,8512.368333
849.407253,666.185348,-2451.505594,8068.244768
849.407582,1850.514855,-612.876398,8808.450710
849.407912,2220.617826,1838.629195,9770.718434
849.408241,1850.514855,3294.210641,10955.047942
849.408571,444.123565,4366.744339,11103.089130
849.408900,-370.102971,5132.839837,11325.150913
849.409229,-1924.535449,3983.696590,10658.965565
849.409559,-2812.782580,1302.362347,9548.656652
849.409888,-2886.803174,-612.876398,8660.409521
849.410218,-2590.720797,-2834.553343,8290.306550
849.410547,-2664.741391,-2681.334243,7254.018232
849.410876,-2960.823768,-2221.676944,7105.977043
849.411206,-2442.679609,-1378.971896,7698.141797
849.411535,-2146.597232,76.609550,9104.533087
849.411865,-2738.761985,2451.505594,11251.130318
849.412194,-3404.947333,3753.867940,12065.356855
849.412524,-4145.153275,4366.744339,12213.398043
849.412853,-4441.235652,3447.429741,11621.233289
849.413182,-3849.070898,536.266849,10510.924376
849.413512,-2220.617826,-1838.629195,9622.677246
849.413841,-592.164754,-2451.505594,8290.306550
849.414171,666.185348,-3140.991542,7254.018232
849.414500,1776.494261,-2757.943793,7846.182985
849.414829,2590.720797,-842.705048,8734.430116
849.415159,2590.720797,1455.581446,9696.697840
849.415488,2516.700203,3370.820191,11029.068536
849.415818,1776.494261,4979.620737,11621.233289
849.416147,592.164754,5669.106685,11621.233289
849.416477,-814.226536,3983.696590,10436.903782
849.416806,-1776.494261,1149.143247,9992.780217
849.417135,-2146.597232,-383.047749,8882.471304
849.417465,-2072.576638,-2298.286494,7846.182985
849.417794,-2146.597232,-3140.991542,7624.121203
849.418123,-1924.535449,-2911.162892,7550.100608
849.418453,-1480.411884,-766.095498,7624.121203
849.418782,-814.226536,1149.143247,7846.182985
849.419111,-296.082377,2757.943793,9178.553681
849.419441,-222.061783,4060.306139,10732.986159
849.419770,-1258.350101,4903.011187,10732.986159
849.420099,-2664.741391,4366.744339,11029.068536
849.420429,-3108.864956,2604.724693,10140.821405
849.420758,-2368.659014,612.876398,9844.739029
849.421087,-1184.329507,-1378.971896,9326.594869
849.421417,222.061783,-2757.943793,8660.409521
849.421746,1110.308913,-3064.381992,7920.203579
849.422075,1924.535449,-536.266849,8438.347739
849.422405,2146.597232,1685.410096,9622.677246
849.422734,1776.494261,3294.210641,10955.047942
849.423063,814.226536,4443.353888,11399.171507
849.423393,-592.164754,5132.839837,11473.192101
849.423722,-1406.391290,5132.839837,10955.047942
849.424051,-2664.741391,1991.848295,9992.780217
849.424380,-3108.864956,-153.219100,9474.636058
849.424710,-3034.844362,-1762.019645,8290.306550
849.425039,-3108.864956,-2604.724693,7105.977043
849.425368,-2442.679609,-2604.724693,7254.018232
849.425698,-2516.700203,-1378.971896,8068.244768
849.426027,-2442.679609,1149.143247,9622.677246
849.426356,-2590.720797,2834.553343,10658.965565
849.426686,-2812.782580,3677.258390,11843.295072
849.427015,-3182.885551,4596.572988,11399.171507
849.427344,-3256.906145,3140.991542,10881.027347
849.427674,-2886.803174,1072.533697,10362.883188
849.428003,-2220.617826,-536.266849,9326.594869
849.428332,-1110.308913,-1378.971896,8216.285956
849.428662,296.082377,-2604.724693,7402.059420
849.428991,1258.350101,-2757.943793,7624.121203
849.429320,1998.556043,-995.924147,8364.327145
849.429650,2664.741391,1378.971896,9622.677246
849.429979,2294.638420,3677.258390,10807.006753
849.430308,1850.514855,4979.620737,11695.253884
849.430637,666.185348,5286.058936,11029.068536
849.430967,-518.144159,4290.134789,10436.903782
849.431296,-1184.329507,1838.629195,10140.821405
849.431625,-1258.350101,-153.219100,9030.512492
849.431955,-1480.411884,-1762.019645,7624.121203
849.432284,-1850.514855,-2298.286494,7105.977043
849.432613,-1776.494261,-3064.381992,7328.038826
849.432943,-1628.453072,-1762.019645,8216.285956
849.433272,-1258.350101,612.876398,9252.574275
849.433601,-1110.308913,2604.724693,10436.903782
849.433931,-1258.350101,3677.258390,11251.130318
849.434260,-1998.556043,3907.087040,11325.150913
849.434589,-2368.659014,3447.429741,11325.150913
849.434919,-2442.679609,2145.067394,10584.944971
849.435248,-1850.514855,306.438199,9770.718434
849.435577,-666.185348,-1225.752797,9030.512492
849.435906,222.061783,-2757.943793,8512.368333
849.436236,1332.370696,-2681.334243,7698.141797
849.436565,2072.576638,-1532.190996,8660.409521
849.436894,2294.638420,1149.143247,9844.739029
849.437224,1702.473667,3370.820191,10955.047942
849.437553,666.185348,4060.306139,11399.171507
849.437882,-444.123565,4673.182538,11103.089130
849.438212,-2072.576638,4213.525239,11029.068536
849.438541,-3108.864956,2298.286494,10140.821405
849.438870,-3182.885551,-153.219100,9178.553681
849.439200,-3182.885551,-2068.457845,7846.182985
849.439529,-3034.844362,-3370.820191,7476.080014
849.439858,-2664.741391,-2528.115143,7624.121203
849.440188,-2590.720797,-689.485948,7920.203579
849.440517,-2294.638420,1685.410096,8364.327145
849.440846,-1702.473667,2528.115143,9474.636058
849.441176,-1554.432478,3600.648841,10288.862594
849.441505,-2072.576638,4673.182538,10658.965565
849.441834,-2812.782580,3753.867940,10362.883188
849.442163,-3108.864956,2374.896044,10214.842000
849.442493,-2368.659014,306.438199,9696.697840
849.442822,-1110.308913,-1608.800546,8808.450710
849.443151,74.020594,-2681.334243,8068.244768
849.443481,888.247130,-2528.115143,8438.347739
849.443810,1628.453072,-995.924147,8808.450710
849.444139,2368.659014,1149.143247,9918.759623
849.444469,2294.638420,3140.991542,10881.027347
849.444798,1554.432478,3907.087040,10955.047942
849.445127,666.185348,4749.792088,11325.150913
849.445457,0.000000,4060.306139,10807.006753
849.445786,-1554.432478,2451.505594,10140.821405
849.446115,-1850.514855,-306.438199,8882.471304
849.446445,-1554.432478,-2298.286494,7920.203579
849.446774,-1332.370696,-2911.162892,7254.018232
849.447103,-888.247130,-3294.210641,8142.265362
849.447433,-962.267725,-1762.019645,8438.347739
849.447762,-1036.288319,766.095498,9104.533087
849.448091,-518.144159,2911.162892,10288.862594
849.448420,-740.205942,3753.867940,10955.047942
849.448750,-962.267725,4749.792088,11325.150913
849.449079,-1924.535449,3753.867940,10881.027347
849.449408,-2516.700203,2068.457845,10214.842000
849.449738,-1998.556043,76.609550,9918.759623
849.450067,-1332.370696,-1455.581446,9770.718434
849.450396,-444.123565,-2451.505594,8512.368333
849.450726,0.000000,-2911.162892,7846.182985
849.451055,1332.370696,-2068.457845,8068.244768
849.451384,2072.576638,0.000000,8956.491898
849.451714,1998.556043,2451.505594,10066.800811
849.452043,888.247130,3447.429741,10807.006753
849.452372,-592.164754,4596.572988,11251.130318
849.452702,-1702.473667,4366.744339,11251.130318
849.453031,-2368.659014,2528.115143,10214.842000
849.453360,-2294.638420,229.828649,9178.553681
849.453690,-2368.659014,-1991.848295,7994.224174
849.454019,-1924.535449,-2834.553343,7994.224174
849.454348,-2368.659014,-2834.553343,8364.327145
849.454677,-2960.823768,-995.924147,9252.574275
849.455007,-2738.761985,1685.410096,9696.697840
849.455336,-2442.679609,3524.039291,9696.697840
849.455665,-1480.411884,3677.258390,10658.965565
849.455995,-1110.308913,3370.820191,10584.944971
849.456324,-1924.535449,3600.648841,10140.821405
849.456653,-2442.679609,2298.286494,10066.800811
849.456983,-2960.823768,842.705048,9622.677246
849.457312,-2368.659014,-383.047749,9326.594869
849.457641,-1184.329507,-1532.190996,8512.368333
849.457971,0.000000,-2604.724693,7698.141797
849.458300,888.247130,-2145.067394,8068.244768
849.458629,1480.411884,-459.657299,9326.594869
849.458959,1184.329507,1991.848295,10881.027347
849.459288,74.020594,3447.429741,11695.253884
849.459617,-1036.288319,4366.744339,11843.295072
849.459946,-1998.556043,4290.134789,11177.109724
849.460276,-2146.597232,2374.896044,10066.800811
849.460605,-1628.453072,-383.047749,8882.471304
849.460934,-888.247130,-1838.629195,7105.977043
849.461264,-296.082377,-2911.162892,6735.874072
849.461593,-222.061783,-3064.381992,7550.100608
849.461922,-148.041188,-1302.362347,8586.388927
849.462252,0.000000,1225.752797,8734.430116
849.462581,-518.144159,3140.991542,8882.471304
849.462910,666.185348,3370.820191,10362.883188
849.463240,370.102971,3524.039291,10214.842000
849.463569,-592.164754,3140.991542,10584.944971
849.463898,-1924.535449,2221.676944,10362.883188
849.464228,-2738.761985,1072.533697,10066.800811
849.464557,-2812.782580,-919.314598,9918.759623
849.464886,-2294.638420,-2374.896044,9622.677246
849.465216,-1184.329507,-2987.772442,8956.491898
849.465545,74.020594,-2528.115143,8808.450710
849.465874,518.144159,-919.314598,9474.636058
849.466203,740.205942,1762.019645,10066.800811
849.466533,0.000000,3217.601092,11177.109724
849.466862,-1036.288319,3677.258390,11325.150913
849.467191,-1924.535449,4060.306139,11029.068536
849.467521,-2072.576638,2757.943793,10658.965565
849.467850,-2072.576638,536.266849,9474.636058
849.468179,-1628.453072,-1225.752797,8882.471304
849.468509,-1480.411884,-2374.896044,7994.224174
849.468838,-1480.411884,-2451.505594,8586.388927
849.469167,-1776.494261,-1225.752797,9030.512492
849.469497,-2590.720797,1915.238745,8734.430116
849.469826,-2220.617826,3217.601092,9548.656652
849.470155,-1258.350101,3447.429741,10288.862594
849.470485,-1110.308913,4060.306139,11103.089130
849.470814,-2368.659014,3753.867940,10288.862594
849.471143,-3182.885551,3140.991542,9844.739029
849.471473,-3627.009116,919.314598,9104.533087
849.471802,-2812.782580,-536.266849,8216.285956
849.472131,-1184.329507,-1991.848295,7846.182985
849.472460,74.020594,-2834.553343,7476.080014
849.472790,1628.453072,-1532.190996,7772.162391
849.473119,2368.659014,153.219100,8216.285956
849.473448,2146.597232,2681.334243,9770.718434
849.473778,962.267725,4749.792088,10584.944971
849.474107,222.061783,5209.449386,11103.089130
849.474436,-222.061783,4903.011187,11547.212695
849.474766,-1184.329507,3370.820191,10510.924376
849.475095,-1332.370696,766.095498,9622.677246
849.475424,-1406.391290,-1149.143247,8290.306550
849.475754,-962.267725,-2604.724693,7698.141797
849.476083,-444.123565,-2528.115143,7920.203579
849.476412,-444.123565,-1685.410096,7920.203579
849.476742,-148.041188,689.485948,8660.409521
849.477071,0.000000,2451.505594,9548.656652
849.477400,74.020594,3447.429741,10584.944971
849.477729,-296.082377,4290.134789,11251.130318
849.478059,-1628.453072,4290.134789,11177.109724
849.478388,-2664.741391,2451.505594,10732.986159
849.478717,-3034.844362,766.095498,10658.965565
849.479047,-2738.761985,-1225.752797,10288.862594
849.479376,-1702.473667,-1991.848295,9548.656652
849.479705,-518.144159,-3370.820191,8956.491898
849.480035,0.000000,-2298.286494,8438.347739
849.480364,666.185348,-689.485948,9400.615463
849.480693,962.267725,1685.410096,10362.883188
849.481023,370.102971,3294.210641,11325.150913
849.481352,-814.226536,4443.353888,11251.130318
849.481681,-1036.288319,4213.525239,10658.965565
849.482011,-1776.494261,2374.896044,9992.780217
849.482340,-1998.556043,153.219100,9252.574275
849.482669,-1924.535449,-1378.971896,7846.182985
849.482999,-1998.556043,-2451.505594,7402.059420
849.483328,-1776.494261,-2604.724693,7402.059420
849.483657,-1554.432478,-842.705048,8068.244768
849.483986,-1850.514855,1149.143247,8142.265362
849.484316,-1628.453072,2528.115143,9326.594869
849.484645,-1184.329507,3370.820191,10288.862594
849.484974,-1702.473667,3370.820191,10881.027347
849.485304,-3256.906145,3140.991542,10955.047942
849.485633,-4071.132681,2451.505594,10658.965565
849.485962,-4441.235652,536.266849,10288.862594
849.486292,-3108.864956,-1225.752797,9474.636058
849.486621,-1554.432478,-2221.676944,8734.430116
849.486950,74.020594,-2757.943793,7772.162391
849.487280,1406.391290,-2451.505594,7846.182985
849.487609,2294.638420,0.000000,8882.471304
849.487938,2220.617826,2911.162892,9918.759623
849.488268,2072.576638,4519.963438,11029.068536
849.488597,1258.350101,5669.106685,11325.150913
849.488926,222.061783,5209.449386,10955.047942
849.489256,-740.205942,3370.820191,10510.924376
849.489585,-1332.370696,689.485948,9844.739029
849.489914,-1184.329507,-842.705048,8364.327145
849.490243,-888.247130,-2298.286494,7328.038826
849.490573,-888.247130,-2834.553343,7550.100608
849.490902,-518.144159,-1991.848295,8660.409521
849.491231,-888.247130,383.047749,8586.388927
849.491561,-444.123565,2834.553343,9622.677246
849.491890,-370.102971,3677.258390,10584.944971
849.492219,-740.205942,4519.963438,10881.027347
849.492549,-1702.473667,4366.744339,10436.903782
849.492878,-2886.803174,2911.162892,9918.759623
849.493207,-3182.885551,612.876398,9252.574275
849.493537,-2590.720797,-1072.533697,8882.471304
849.493866,-2294.638420,-1915.238745,8438.347739
849.494195,-1184.329507,-2528.115143,8364.327145
849.494525,0.000000,-1991.848295,8586.388927
849.494854,1036.288319,-459.657299,8660.409521
849.495183,1628.453072,1532.190996,9770.718434
849.495513,1258.350101,3370.820191,10436.903782
849.495842,592.164754,4136.915689,11399.171507
849.496171,-962.267725,4979.620737,11177.109724
849.496500,-2146.597232,3294.210641,10881.027347
849.496830,-2664.741391,766.095498,9992.780217
849.497159,-2442.679609,-1302.362347,8956.491898
849.497488,-2146.597232,-2604.724693,7846.182985
849.497818,-2146.597232,-3677.258390,7920.203579
849.498147,-1998.556043,-1915.238745,8216.285956
849.498476,-2294.638420,306.438199,8142.265362
849.498806,-2220.617826,1915.238745,9178.553681
849.499135,-1776.494261,2757.943793,10658.965565
849.499464,-2072.576638,3830.477490,11547.212695
849.499794,-3034.844362,4060.306139,11399.171507
849.500123,-4145.153275,2451.505594,10732.986159
849.500452,-4293.194464,383.047749,10510.924376
849.500782,-3404.947333,-1455.581446,9770.718434
849.501111,-2072.576638,-2757.943793,8808.450710
849.501440,-592.164754,-2911.162892,8290.306550
849.501769,666.185348,-2604.724693,7994.224174
849.502099,1998.556043,-1149.143247,9030.512492
849.502428,2368.659014,1762.019645,9844.739029
849.502757,2442.679609,3983.696590,10584.944971
849.503087,1628.453072,5132.839837,10881.027347
849.503416,592.164754,5439.278036,10955.047942
849.503745,-222.061783,3830.477490,10288.862594
849.504075,-962.267725,1225.752797,9474.636058
849.504404,-1110.308913,-536.266849,8290.306550
849.504733,-1110.308913,-1838.629195,7105.977043
849.505063,-962.267725,-2987.772442,7402.059420
849.505392,-888.247130,-2221.676944,7846.182985
849.505721,-1332.370696,-153.219100,8142.265362
849.506051,-1036.288319,1378.971896,8808.450710
849.506380,-1258.350101,3524.039291,10214.842000
849.506709,-1628.453072,4519.963438,10881.027347
849.507039,-2368.659014,4213.525239,10807.006753
849.507368,-3552.988522,3217.601092,10214.842000
849.507697,-3627.009116,1302.362347,9844.739029
849.508026,-2738.761985,-612.876398,9030.512492
849.508356,-1924.535449,-2145.067394,9030.512492
849.508685,-740.205942,-2757.943793,8364.327145
849.509014,74.020594,-2757.943793,8290.306550
849.509344,1480.411884,-766.095498,9104.533087
849.509673,1924.535449,1685.410096,9770.718434
849.510002,1776.494261,3600.648841,11399.171507
849.510332,444.123565,4519.963438,11695.253884
849.510661,-518.144159,5132.839837,11917.315666
849.510990,-1628.453072,4290.134789,11769.274478
849.511320,-1998.556043,1915.238745,10510.924376
849.511649,-1924.535449,-536.266849,9326.594869
849.511978,-1776.494261,-1838.629195,8142.265362
849.512308,-1850.514855,-2604.724693,7328.038826
849.512637,-1702.473667,-1915.238745,7402.059420
849.512966,-1850.514855,-995.924147,7772.162391
849.513296,-1702.473667,2145.067394,8734.430116
849.513625,-2664.741391,2681.334243,10510.924376
849.513954,-3108.864956,3524.039291,11843.295072
849.514283,-4367.215058,4060.306139,11473.192101
849.514613,-4811.338623,2757.943793,10732.986159
849.514942,-4589.276840,459.657299,9622.677246
849.515271,-2886.803174,-1608.800546,9252.574275
849.515601,-1332.370696,-2298.286494,8290.306550
849.515930,222.061783,-2604.724693,7402.059420
849.516259,1406.391290,-2221.676944,7328.038826
849.516589,2664.741391,-229.828649,8068.244768
849.516918,3182.885551,2604.724693,9770.718434
849.517247,3108.864956,4213.525239,10807.006753
849.517576,2146.597232,5209.449386,11251.130318
849.517906,888.247130,5515.887586,11177.109724
849.518235,-296.082377,4136.915689,10732.986159
849.518564,-1036.288319,1455.581446,9918.759623
849.518894,-1628.453072,-919.314598,8660.409521
849.519223,-1628.453072,-2145.067394,7772.162391
849.519552,-1776.494261,-3447.429741,7846.182985
849.519881,-1702.473667,-2451.505594,8068.244768
849.520211,-1110.308913,-459.657299,8290.306550
849.520540,-1406.391290,1302.362347,8882.471304
849.520869,-1184.329507,2834.553343,10510.924376
849.521198,-1702.473667,3983.696590,11399.171507
849.521528,-2368.659014,4366.744339,11251.130318
849.521857,-3108.864956,3447.429741,10881.027347
849.522186,-3330.926739,1608.800546,10214.842000
849.522515,-2738.761985,-766.095498,9770.718434
849.522845,-1480.411884,-1915.238745,9252.574275
849.523174,-518.144159,-2374.896044,8660.409521
849.523503,370.102971,-2221.676944,8512.368333
849.523833,1776.494261,-842.705048,8882.471304
849.524162,1998.556043,1762.019645,9696.697840
849.524491,1776.494261,3217.601092,11029.068536
849.524820,592.164754,4596.572988,11251.130318
849.525150,-370.102971,5515.887586,11103.089130
849.525479,-1332.370696,4213.525239,10362.883188
849.525808,-1480.411884,1532.190996,9474.636058
849.526137,-2146.597232,-536.266849,7920.203579
849.526467,-1702.473667,-1762.019645,7254.018232
849.526796,-1702.473667,-2528.115143,7105.977043
849.527125,-2146.597232,-1838.629195,7846.182985
849.527454,-2516.700203,919.314598,7476.080014
849.527784,-2738.761985,1991.848295,8660.409521
849.528113,-2442.679609,2604.724693,9770.718434
849.528442,-2516.700203,3294.210641,11177.109724
849.528771,-3404.947333,4136.915689,11177.109724
849.529101,-4145.153275,2604.724693,10584.944971
849.529430,-4885.359217,919.314598,10436.903782
849.529759,-3775.050304,-766.095498,9696.697840
849.530089,-2072.576638,-2757.943793,9030.512492
849.530418,0.000000,-3294.210641,8438.347739
849.530747,1332.370696,-2221.676944,8438.347739
849.531076,3108.864956,-459.657299,9252.574275
849.531406,3182.885551,1991.848295,10140.821405
849.531735,3034.844362,3907.087040,11177.109724
849.532064,2368.659014,4903.011187,11695.253884
849.532393,1702.473667,5132.839837,11769.274478
849.532723,0.000000,4366.744339,11251.130318
849.533052,-1036.288319,1685.410096,10362.883188
849.533381,-1406.391290,-995.924147,8882.471304
849.533710,-1480.411884,-2451.505594,7698.141797
849.534040,-1332.370696,-3677.258390,7624.121203
849.534369,-1110.308913,-3064.381992,8512.368333
849.534698,-1776.494261,-1378.971896,8438.347739
849.535028,-1850.514855,1378.971896,8956.491898
849.535357,-1554.432478,2911.162892,10288.862594
849.535686,-1480.411884,3830.477490,11103.089130
849.536015,-1184.329507,4673.182538,10807.006753
849.536345,-2664.741391,3064.381992,10066.800811
849.536674,-3034.844362,1225.752797,9474.636058
849.537003,-2664.741391,-612.876398,9104.533087
849.537332,-1702.473667,-1302.362347,8882.471304
849.537662,-740.205942,-2068.457845,8364.327145
849.537991,222.061783,-2451.505594,7698.141797
849.538320,1628.453072,-1608.800546,8290.306550
849.538649,2294.638420,766.095498,9252.574275
849.538979,1998.556043,3217.601092,10214.842000
849.539308,1110.308913,4596.572988,11473.192101
849.539637,-148.041188,5439.278036,11547.212695
849.539967,-1480.411884,4749.792088,11251.130318
849.540296,-2368.659014,2451.505594,10362.883188
849.540625,-2220.617826,0.000000,9326.594869
849.540954,-1850.514855,-1762.019645,7994.224174
849.541284,-1776.494261,-2911.162892,7550.100608
849.541613,-1554.432478,-2528.115143,7994.224174
849.541942,-1998.556043,-842.705048,8586.388927
849.542271,-2516.700203,1532.190996,9326.594869
849.542601,-2516.700203,3524.039291,10584.944971
849.542930,-2294.638420,4979.620737,11251.130318
849.543259,-2516.700203,4673.182538,10436.903782
849.543588,-3627.009116,3140.991542,9992.780217
849.543918,-3923.091493,766.095498,9622.677246
849.544247,-3627.009116,-919.314598,9474.636058
849.544576,-2886.803174,-1685.410096,9178.553681
849.544906,-2072.576638,-2221.676944,8808.450710
849.545235,-518.144159,-2451.505594,7994.224174
849.545564,1406.391290,-1838.629195,8364.327145
849.545893,2664.741391,153.219100,9474.636058
849.546223,2738.761985,2451.505594,10288.862594
849.546552,2516.700203,3983.696590,11325.150913
849.546881,1702.473667,5132.839837,11251.130318
849.547210,592.164754,4596.572988,11473.192101
849.547540,0.000000,2604.724693,10807.006753
849.547869,-518.144159,383.047749,9178.553681
849.548198,-370.102971,-1149.143247,7624.121203
849.548527,296.082377,-3140.991542,6957.935855
849.548857,444.123565,-3447.429741,7179.997637
849.549186,-296.082377,-1915.238745,8142.265362
849.549515,-1258.350101,536.266849,8956.491898
849.549844,-1628.453072,2987.772442,10288.862594
849.550174,-1850.514855,4136.915689,11177.109724
849.550503,-2220.617826,3983.696590,11103.089130
849.550832,-3034.844362,3064.381992,10658.965565
849.551162,-3701.029710,1991.848295,10288.862594
849.551491,-3627.009116,0.000000,10066.800811
849.551820,-2960.823768,-842.705048,9548.656652
849.552149,-2516.700203,-2068.457845,8734.430116
849.552479,-1480.411884,-2604.724693,8364.327145
849.552808,0.000000,-2068.457845,8512.368333
849.553137,1406.391290,229.828649,9326.594869
849.553466,1628.453072,2068.457845,10066.800811
849.553796,1480.411884,3677.258390,10807.006753
849.554125,0.000000,4596.572988,11177.109724
849.554454,-814.226536,4903.011187,10955.047942
849.554783,-1702.473667,2987.772442,10881.027347
849.555113,-1924.535449,689.485948,9622.677246
849.555442,-1776.494261,-612.876398,8364.327145
849.555771,-1628.453072,-2604.724693,8068.244768
849.556101,-1554.432478,-2911.162892,8290.306550
849.556430,-1998.556043,-1149.143247,8512.368333
849.556759,-2368.659014,919.314598,9030.512492
849.557088,-2072.576638,3370.820191,9844.739029
849.557418,-1924.535449,3677.258390,10288.862594
849.557747,-2072.576638,3907.087040,10362.883188
849.558076,-2368.659014,3140.991542,9474.636058
849.558405,-3034.844362,1991.848295,9104.533087
849.558735,-3034.844362,153.219100,9030.512492
849.559064,-2886.803174,-842.705048,8660.409521
849.559393,-1924.535449,-1762.019645,8142.265362
849.559722,-592.164754,-2451.505594,7920.203579
849.560052,740.205942,-2374.896044,8586.388927
849.560381,1998.556043,229.828649,9770.718434
849.560710,1776.494261,2834.553343,11177.109724
849.561040,1628.453072,4136.915689,11399.171507
849.561369,666.185348,4979.620737,11029.068536
849.561698,-74.020594,4519.963438,10658.965565
849.562027,-592.164754,2451.505594,10214.842000
849.562357,-592.164754,0.000000,9548.656652
849.562686,-592.164754,-1685.410096,8216.285956
849.563015,-296.082377,-2221.676944,7476.080014
849.563344,-222.061783,-2834.553343,7624.121203
849.563674,0.000000,-1838.629195,8142.265362
849.564003,-296.082377,459.657299,8882.471304
849.564332,-222.061783,2528.115143,9844.739029
849.564661,-888.247130,3830.477490,11325.150913
849.564991,-1628.453072,4519.963438,11621.233289
849.565320,-2664.741391,4060.306139,11399.171507
849.565649,-3478.967927,2298.286494,10732.986159
849.565979,-3627.009116,0.000000,10140.821405
849.566308,-2960.823768,-689.485948,9622.677246
849.566637,-2146.597232,-1991.848295,8586.388927
849.566966,-888.247130,-3217.601092,7920.203579
849.567296,222.061783,-2681.334243,7772.162391
849.567625,1258.350101,-306.438199,8364.327145
849.567954,1332.370696,1991.848295,9474.636058
849.568283,962.267725,3524.039291,10732.986159
849.568613,-148.041188,4903.011187,10881.027347
849.568942,-1110.308913,4903.011187,10807.006753
849.569271,-1998.556043,3064.381992,10732.986159
849.569600,-2072.576638,995.924147,9918.759623
849.569930,-2072.576638,-536.266849,8734.430116
849.570259,-1702.473667,-2145.067394,8142.265362
849.570588,-1628.453072,-2604.724693,8142.265362
849.570918,-2072.576638,-1378.971896,8660.409521
849.571247,-1776.494261,1378.971896,8882.471304
849.571576,-1702.473667,3294.210641,9474.636058
849.571905,-1480.411884,3753.867940,10066.800811
849.572235,-1554.432478,3677.258390,10140.821405
849.572564,-1998.556043,3294.210641,10066.800811
849.572893,-3182.885551,1838.629195,9548.656652
849.573222,-3478.967927,919.314598,9696.697840
849.573552,-2960.823768,-612.876398,9474.636058
849.573881,-2072.576638,-1608.800546,8882.471304
849.574210,-666.185348,-2834.553343,8586.388927
849.574539,518.144159,-2221.676944,8586.388927
849.574869,1776.494261,306.438199,9770.718434
849.575198,2072.576638,2451.505594,10066.800811
849.575527,1332.370696,4136.915689,10510.924376
849.575856,888.247130,4443.353888,10881.027347
849.576186,0.000000,4673.182538,11029.068536
849.576515,-444.123565,3217.601092,10288.862594
849.576844,-1184.329507,1225.752797,9622.677246
849.577174,-1110.308913,-1149.143247,8364.327145
849.577503,-370.102971,-2604.724693,7254.018232
849.577832,0.000000,-3064.381992,7476.080014
849.578161,0.000000,-1455.581446,8142.265362
849.578491,-296.082377,76.609550,8882.471304
849.578820,-518.144159,2757.943793,9696.697840
849.579149,-666.185348,3983.696590,10807.006753
849.579478,-1184.329507,4290.134789,11029.068536
849.579808,-1702.473667,4060.306139,10732.986159
849.580137,-2960.823768,2681.334243,10436.903782
849.580466,-2812.782580,689.485948,9696.697840
849.580795,-2442.679609,-1455.581446,9400.615463
849.581125,-1850.514855,-2221.676944,8882.471304
849.581454,-1332.370696,-2681.334243,8216.285956
849.581783,-296.082377,-2681.334243,8586.388927
849.582113,740.205942,-306.438199,8956.491898
849.582442,1110.308913,1378.971896,9770.718434
849.582771,814.226536,2987.772442,10807.006753
849.583100,0.000000,4213.525239,11473.192101
849.583430,-1406.391290,4366.744339,11621.233289
849.583759,-2368.659014,3294.210641,11103.089130
849.584088,-2738.761985,842.705048,10140.821405
849.584417,-2442.679609,-1149.143247,9030.512492
849.584747,-1702.473667,-2451.505594,8290.306550
849.585076,-1332.370696,-2911.162892,8142.265362
849.585405,-1110.308913,-1455.581446,8438.347739
849.585734,-1702.473667,995.924147,8068.244768
849.586064,-1258.350101,2681.334243,8734.430116
849.586393,-888.247130,3294.210641,9992.780217
849.586722,-1258.350101,4060.306139,11177.109724
849.587052,-2220.617826,3983.696590,10436.903782
849.587381,-3552.988522,2604.724693,10288.862594
849.587710,-4145.153275,612.876398,10066.800811
849.588039,-3627.009116,-1302.362347,9548.656652
849.588369,-2146.597232,-2757.943793,9178.553681
849.588698,-444.123565,-2834.553343,8438.347739
849.589027,592.164754,-2451.505594,8068.244768
849.589356,1776.494261,-612.876398,8586.388927
849.589686,2442.679609,2298.286494,9844.739029
849.590015,2368.659014,4060.306139,10436.903782
849.590344,1850.514855,5132.839837,10955.047942
849.590673,888.247130,5822.325785,10881.027347
849.591003,-518.144159,4136.915689,10436.903782
849.591332,-1110.308913,1225.752797,9622.677246
849.591661,-962.267725,-1149.143247,8512.368333
849.591991,-740.205942,-2528.115143,7550.100608
849.592320,-592.164754,-3753.867940,7624.121203
849.592649,-740.205942,-2757.943793,8290.306550
849.592978,-888.247130,-459.657299,8808.450710
849.593308,-814.226536,2374.896044,9474.636058
849.593637,-666.185348,3524.039291,10658.965565
849.593966,-814.226536,4673.182538,10955.047942
849.594295,-1554.432478,4826.401637,11103.089130
849.594625,-2664.741391,3370.820191,10658.965565
849.594954,-3034.844362,1455.581446,9992.780217
849.595283,-2664.741391,-536.266849,9622.677246
849.595612,-2072.576638,-1915.238745,8956.491898
849.595942,-1184.329507,-3294.210641,8808.450710
849.596271,-888.247130,-2987.772442,8438.347739
849.596600,222.061783,-1532.190996,8586.388927
849.596929,1036.288319,689.485948,9326.594869
849.597259,1110.308913,3140.991542,10510.924376
849.597588,74.020594,4366.744339,10955.047942
849.597917,-1406.391290,5286.058936,11029.068536
849.598247,-2146.597232,4213.525239,10881.027347
849.598576,-2590.720797,1608.800546,10066.800811
849.598905,-2368.659014,-459.657299,9030.512492
849.599234,-1924.535449,-1915.238745,7994.224174
849.599564,-1998.556043,-2757.943793,7402.059420
849.599893,-1850.514855,-2145.067394,7328.038826
849.600222,-1776.494261,-766.095498,7328.038826
849.600551,-1332.370696,1225.752797,8882.471304
849.600881,-1480.411884,2834.553343,10658.965565
849.601210,-2220.617826,3140.991542,11695.253884
849.601539,-3256.906145,4136.915689,11621.233289
849.601868,-3923.091493,2987.772442,10881.027347
849.602198,-3775.050304,536.266849,10510.924376
849.602527,-2960.823768,-1072.533697,9622.677246
849.602856,-1702.473667,-2068.457845,8660.409521
849.603186,-444.123565,-3140.991542,7920.203579
849.603515,814.226536,-2911.162892,8068.244768
849.603844,1924.535449,-919.314598,8586.388927
849.604173,2590.720797,1225.752797,9622.677246
849.604503,2590.720797,3140.991542,10066.800811
849.604832,1776.494261,4903.011187,11103.089130
849.605161,888.247130,5745.716235,11177.109724
849.605490,-222.061783,4366.744339,10881.027347
849.605820,-1258.350101,1915.238745,10362.883188
849.606149,-1628.453072,0.000000,8586.388927
849.606478,-1480.411884,-1915.238745,8290.306550
849.606807,-1258.350101,-2987.772442,8068.244768
849.607137,-1332.370696,-2681.334243,8142.265362
849.607466,-1332.370696,-766.095498,8216.285956
849.607795,-814.226536,1072.533697,8808.450710
849.608125,-222.061783,3907.087040,10066.800811
849.608454,-814.226536,4290.134789,10658.965565
849.608783,-1332.370696,4673.182538,10436.903782
849.609112,-2368.659014,3677.258390,9770.718434
849.609442,-2368.659014,1762.019645,9770.718434
849.609771,-1554.432478,-306.438199,9474.636058
849.610100,-1184.329507,-1225.752797,9030.512492
849.610429,-666.185348,-2451.505594,8734.430116
849.610759,148.041188,-2604.724693,8512.368333
849.611088,1110.308913,-919.314598,8808.450710
849.611417,2072.576638,1685.410096,9622.677246
849.611746,1776.494261,3447.429741,10584.944971
849.612076,666.185348,4596.572988,11325.150913
849.612405,-518.144159,5592.497135,11251.130318
849.612734,-1332.370696,4673.182538,10510.924376
849.613064,-1850.514855,2068.457845,9696.697840
849.613393,-2368.659014,-306.438199,8512.368333
849.613722,-2442.679609,-2145.067394,7846.182985
849.614051,-2294.638420,-2757.943793,7846.182985
849.614381,-2516.700203,-1991.848295,7920.203579
849.614710,-2960.823768,-153.219100,7994.224174
849.615039,-2738.761985,1072.533697,8956.491898
849.615368,-2368.659014,1991.848295,10436.903782
849.615698,-2368.659014,2987.772442,11621.233289
849.616027,-2960.823768,3524.039291,11695.253884
849.616356,-3997.112087,2681.334243,11325.150913
849.616685,-3775.050304,2298.286494,11251.130318
849.617015,-2960.823768,-229.828649,10362.883188
849.617344,-1258.350101,-2145.067394,9030.512492
849.617673,222.061783,-2757.943793,8068.244768
849.618002,1480.411884,-2681.334243,7846.182985
849.618332,2368.659014,-766.095498,8142.265362
849.618661,2738.761985,1455.581446,9252.574275
849.618990,2442.679609,3677.258390,10584.944971
849.619320,1628.453072,4826.401637,11029.068536
849.619649,222.061783,4903.011187,11177.109724
849.619979,-666.185348,4366.744339,10955.047942
849.620308,-1628.453072,1532.190996,9548.656652
849.620638,-1702.473667,-612.876398,8512.368333
849.620967,-1628.453072,-2221.676944,7402.059420
849.621297,-1332.370696,-3600.648841,7254.018232
849.621626,-1332.370696,-3064.381992,7920.203579
849.621955,-1332.370696,-919.314598,7994.224174
849.622285,-1628.453072,1608.800546,8734.430116
849.622614,-1184.329507,2987.772442,10214.842000
849.622944,-962.267725,4213.525239,10955.047942
849.623273,-1332.370696,4519.963438,10732.986159
849.623603,-1628.453072,3447.429741,9918.759623
849.623932,-2072.576638,1915.238745,9918.759623
849.624261,-2220.617826,0.000000,9548.656652
849.624591,-1850.514855,-1302.362347,9252.574275
849.624920,-666.185348,-2298.286494,8956.491898
849.625250,296.082377,-2374.896044,8734.430116
849.625579,962.267725,-919.314598,8882.471304
849.625909,1850.514855,995.924147,9770.718434
849.626238,1776.494261,2834.553343,10807.006753
849.626568,1184.329507,4136.915689,11695.253884
849.626897,0.000000,5056.230287,11991.336260
849.627226,-1480.411884,5362.668486,11473.192101
849.627556,-2368.659014,3294.210641,10288.862594
849.627885,-2368.659014,612.876398,8734.430116
849.628215,-2294.638420,-1302.362347,7402.059420
849.628544,-2146.597232,-2604.724693,7031.956449
849.628874,-2294.638420,-2451.505594,7402.059420
849.629203,-2960.823768,-919.314598,7846.182985
849.629533,-3627.009116,1149.143247,8216.285956
849.629862,-3627.009116,2757.943793,9622.677246
849.630191,-3404.947333,2911.162892,10584.944971
849.630521,-3849.070898,2757.943793,11029.068536
849.630850,-4589.276840,2987.772442,10362.883188
849.631180,-4515.256246,1378.971896,10214.842000
849.631509,-3552.988522,-612.876398,9622.677246
849.631839,-1702.473667,-2068.457845,8808.450710
849.632168,592.164754,-2681.334243,8438.347739
849.632497,2368.659014,-2298.286494,8364.327145
849.632827,3404.947333,-1149.143247,8512.368333
849.633156,3997.112087,1608.800546,9326.594869
849.633486,3997.112087,3447.429741,10436.903782
849.633815,2886.803174,4673.182538,11029.068536
849.634145,1776.494261,4979.620737,11399.171507
849.634474,0.000000,4366.744339,11177.109724
849.634804,-1776.494261,2221.676944,10881.027347
849.635133,-2516.700203,-612.876398,9548.656652
849.635462,-2516.700203,-2528.115143,8290.306550
849.635792,-2442.679609,-3830.477490,7624.121203
849.636121,-1998.556043,-3983.696590,7772.162391
849.636451,-1776.494261,-1838.629195,8438.347739
849.636780,-2072.576638,995.924147,9030.512492
849.637110,-1628.453072,2834.553343,9992.780217
849.637439,-1480.411884,3907.087040,10955.047942
849.637768,-1258.350101,4596.572988,10955.047942
849.638098,-2368.659014,4136.915689,10807.006753
849.638427,-3034.844362,2451.505594,10362.883188
849.638757,-2664.741391,459.657299,9918.759623
849.639086,-2072.576638,-1149.143247,9548.656652
849.639416,-962.267725,-1608.800546,8660.409521
849.639745,0.000000,-2374.896044,8364.327145
849.640075,1258.350101,-1685.410096,8068.244768
849.640404,2368.659014,536.266849,8882.471304
849.640733,2294.638420,2604.724693,9622.677246
849.641063,1776.494261,4136.915689,10807.006753
849.641392,444.123565,4749.792088,10955.047942
849.641722,-962.267725,5209.449386,10584.944971
849.642051,-2220.617826,3064.381992,10214.842000
849.642381,-2960.823768,459.657299,9252.574275
849.642710,-2738.761985,-1225.752797,7994.224174
849.643040,-2442.679609,-2604.724693,7402.059420
849.643369,-2368.659014,-3294.210641,7698.141797
849.643698,-2886.803174,-1378.971896,8364.327145
849.644028,-2738.761985,612.876398,8956.491898
849.644357,-2812.782580,2987.772442,9178.553681
849.644687,-2146.597232,4290.134789,9622.677246
849.645016,-1702.473667,3830.477490,10066.800811
849.645346,-2072.576638,2911.162892,9770.718434
849.645675,-3108.864956,2298.286494,9992.780217
849.646004,-3330.926739,459.657299,9992.780217
849.646334,-3034.844362,-842.705048,9918.759623
849.646663,-2072.576638,-1762.019645,9548.656652
849.646993,-888.247130,-2681.334243,9178.553681
849.647322,592.164754,-2451.505594,9400.615463
849.647652,2072.576638,-612.876398,9696.697840
849.647981,2664.741391,2145.067394,10658.965565
849.648311,2220.617826,3600.648841,11029.068536
849.648640,1332.370696,4136.915689,11177.109724
849.648969,444.123565,3753.867940,11547.212695
849.649299,-296.082377,2681.334243,10881.027347
849.649628,-814.226536,689.485948,9770.718434
849.649958,-814.226536,-766.095498,8438.347739
849.650287,-740.205942,-2757.943793,7254.018232
849.650617,-666.185348,-3677.258390,7550.100608
849.650946,-740.205942,-2451.505594,7920.203579
849.651275,-1406.391290,0.000000,8586.388927
849.651605,-1554.432478,2451.505594,9474.636058
849.651934,-1406.391290,3447.429741,10732.986159
849.652264,-1776.494261,4136.915689,11103.089130
849.652593,-2368.659014,3983.696590,10584.944971
849.652923,-3034.844362,2681.334243,9844.739029
849.653252,-3108.864956,766.095498,9252.574275
849.653582,-2442.679609,-306.438199,8660.409521
849.653911,-1776.494261,-1838.629195,8216.285956
849.654240,-518.144159,-2451.505594,7772.162391
849.654570,444.123565,-2298.286494,7772.162391
849.654899,1480.411884,-153.219100,8660.409521
849.655229,1480.411884,1991.848295,9992.780217
849.655558,1110.308913,3370.820191,10732.986159
849.655888,74.020594,4826.401637,11399.171507
849.656217,-962.267725,5209.449386,11399.171507
849.656547,-1776.494261,3600.648841,11103.089130
849.656876,-2072.576638,1378.971896,10140.821405
849.657205,-1702.473667,-459.657299,8882.471304
849.657535,-1702.473667,-1915.238745,8142.265362
849.657864,-1850.514855,-2298.286494,8290.306550
849.658194,-1924.535449,-1685.410096,8734.430116
849.658523,-2146.597232,383.047749,9178.553681
849.658853,-1998.556043,2604.724693,9770.718434
849.659182,-1776.494261,3524.039291,10807.006753
849.659511,-1924.535449,4060.306139,10807.006753
849.659841,-2442.679609,3983.696590,10214.842000
849.660170,-3256.906145,2451.505594,9474.636058
849.660500,-3627.009116,1378.971896,9030.512492
849.660829,-2886.803174,-766.095498,9030.512492
849.661159,-2072.576638,-1455.581446,8808.450710
849.661488,-1184.329507,-2068.457845,8068.244768
849.661818,222.061783,-1838.629195,8290.306550
849.662147,1554.432478,-229.828649,8734.430116
849.662476,2072.576638,1762.019645,9844.739029
849.662806,1850.514855,3983.696590,10732.986159
849.663135,962.267725,5056.230287,10955.047942
849.663465,222.061783,4596.572988,10584.944971
849.663794,-592.164754,3140.991542,10288.862594
849.664124,-1110.308913,76.609550,9770.718434
849.664453,-1480.411884,-995.924147,7846.182985
849.664782,-962.267725,-2221.676944,7402.059420
849.665112,-518.144159,-2911.162892,7328.038826
849.665441,-592.164754,-2451.505594,7772.162391
849.665771,-592.164754,-383.047749,8364.327145
849.666100,-814.226536,2068.457845,9178.553681
849.666430,-592.164754,3370.820191,10436.903782
849.666759,-888.247130,3677.258390,11177.109724
849.667089,-1776.494261,3677.258390,11029.068536
849.667418,-2516.700203,2145.067394,10658.965565
849.667747,-2664.741391,689.485948,10658.965565
849.668077,-2738.761985,-536.266849,10066.800811
849.668406,-1924.535449,-1762.019645,9474.636058
849.668736,-1184.329507,-2757.943793,9104.533087
849.669065,-296.082377,-2911.162892,8734.430116
849.669395,1036.288319,-995.924147,9178.553681
849.669724,1110.308913,689.485948,9770.718434
849.670054,740.205942,3217.601092,11103.089130
849.670383,0.000000,4596.572988,11547.212695
849.670712,-1036.288319,4826.401637,11325.150913
849.671042,-1184.329507,3524.039291,10436.903782
849.671371,-1998.556043,1378.971896,9548.656652
849.671701,-1776.494261,-383.047749,8586.388927
849.672030,-1258.350101,-2145.067394,7994.224174
849.672360,-1332.370696,-2451.505594,7772.162391
849.672689,-1406.391290,-1915.238745,7920.203579
849.673018,-1850.514855,306.438199,8290.306550
849.673348,-1924.535449,2374.896044,9622.677246
849.673677,-1998.556043,3677.258390,10214.842000
849.674007,-1998.556043,3907.087040,10510.924376
849.674336,-2368.659014,3753.867940,9992.780217
849.674666,-2960.823768,2528.115143,9474.636058
849.674995,-3108.864956,919.314598,9030.512492
849.675325,-2812.782580,-612.876398,9030.512492
849.675654,-2072.576638,-1608.800546,8660.409521
849.675983,-1110.308913,-2068.457845,8142.265362
849.676313,-74.020594,-1378.971896,8364.327145
849.676642,1850.514855,0.000000,8586.388927
849.676972,2146.597232,1991.848295,9326.594869
849.677301,1924.535449,3600.648841,10140.821405
849.677631,1332.370696,4290.134789,10732.986159
849.677960,296.082377,4749.792088,11029.068536
849.678290,-740.205942,3524.039291,10807.006753
849.678619,-1776.494261,1685.410096,10436.903782
849.678948,-1480.411884,-612.876398,9252.574275
849.679278,-888.247130,-2451.505594,8142.265362
849.679607,-444.123565,-3447.429741,8364.327145
849.679937,-296.082377,-2451.505594,8734.430116
849.680266,-444.123565,0.000000,8956.491898
849.680596,-444.123565,1991.848295,9548.656652
849.680925,-148.041188,3447.429741,10807.006753
849.681254,-370.102971,4213.525239,11251.130318
849.681584,-1036.288319,4443.353888,10955.047942
849.681913,-1998.556043,3140.991542,10362.883188
849.682243,-2664.741391,995.924147,9918.759623
849.682572,-2368.659014,-919.314598,9400.615463
849.682902,-1702.473667,-1991.848295,9252.574275
849.683231,-592.164754,-2451.505594,8808.450710
849.683561,-740.205942,-3064.381992,8216.285956
849.683890,74.020594,-1378.971896,8660.409521
849.684219,740.205942,1072.533697,9548.656652
849.684549,666.185348,2528.115143,10807.006753
849.684878,0.000000,4060.306139,11029.068536
849.685208,-740.205942,4519.963438,10658.965565
849.685537,-1480.411884,3830.477490,10362.883188
849.685867,-2072.576638,1455.581446,9548.656652
849.686196,-2146.597232,-612.876398,8438.347739
849.686525,-1702.473667,-2221.676944,7698.141797
849.686855,-1258.350101,-2528.115143,7846.182985
849.687184,-1776.494261,-1762.019645,7698.141797
849.687514,-2072.576638,-306.438199,8586.388927
849.687843,-2220.617826,1838.629195,8808.450710
849.688173,-1924.535449,2911.162892,9622.677246
849.688502,-1850.514855,3370.820191,10436.903782
849.688832,-2368.659014,3983.696590,10658.965565
849.689161,-3404.947333,2451.505594,10436.903782
849.689490,-4515.256246,766.095498,10436.903782
849.689820,-4219.173869,-612.876398,10140.821405
849.690149,-2960.823768,-1608.800546,9548.656652
849.690479,-1332.370696,-2298.286494,8660.409521
849.690808,0.000000,-2681.334243,8882.471304
849.691138,1406.391290,-1149.143247,9252.574275
849.691467,1998.556043,919.314598,9992.780217
849.691797,1702.473667,3370.820191,10732.986159
849.692126,666.185348,4519.963438,11029.068536
849.692455,0.000000,5209.449386,11399.171507
849.692785,-740.205942,3524.039291,11251.130318
849.693114,-1258.350101,1225.752797,10436.903782
849.693444,-1406.391290,-306.438199,8956.491898
849.693773,-1184.329507,-1991.848295,7179.997637
849.694103,-592.164754,-3140.991542,6883.915261
849.694432,-296.082377,-2528.115143,7476.080014
849.694761,-148.041188,-536.266849,8142.265362
849.695091,-222.061783,2145.067394,8512.368333
849.695420,0.000000,3677.258390,9474.636058
849.695750,-222.061783,4826.401637,10436.903782
849.696079,-1184.329507,4443.353888,10436.903782
849.696409,-2220.617826,3217.601092,10362.883188
849.696738,-2590.720797,1915.238745,9844.739029
849.697068,-2368.659014,76.609550,9400.615463
849.697397,-1702.473667,-995.924147,8364.327145
849.697726,-962.267725,-2911.162892,7920.203579
849.698056,74.020594,-2757.943793,7846.182985
849.698385,962.267725,-842.705048,8364.327145
849.698715,1480.411884,1455.581446,9326.594869
849.699044,1406.391290,3217.601092,10584.944971
849.699374,518.144159,4290.134789,11029.068536
849.699703,-666.185348,4903.011187,11621.233289
849.700032,-1702.473667,4366.744339,10807.006753
849.700362,-1850.514855,2145.067394,10214.842000
849.700691,-1850.514855,-612.876398,9252.574275
849.701021,-1776.494261,-1378.971896,8364.327145
849.701350,-1702.473667,-3217.601092,8216.285956
849.701680,-2368.659014,-2528.115143,9326.594869
849.702009,-2368.659014,-919.314598,9622.677246
849.702339,-2516.700203,1685.410096,10066.800811
849.702668,-1998.556043,2911.162892,10732.986159
849.702997,-1554.432478,2987.772442,10584.944971
849.703327,-1850.514855,2834.553343,10732.986159
849.703656,-2368.659014,2451.505594,10066.800811
849.703986,-3108.864956,1302.362347,9622.677246
849.704315,-2960.823768,-383.047749,9474.636058
849.704645,-1776.494261,-1225.752797,8956.491898
849.704974,-888.247130,-2451.505594,8068.244768
849.705304,74.020594,-2221.676944,7920.203579
849.705633,1184.329507,-995.924147,8290.306550
849.705962,1628.453072,1149.143247,9326.594869
849.706292,1184.329507,3294.210641,10288.862594
849.706621,592.164754,4136.915689,10510.924376
849.706951,-222.061783,4749.792088,10436.903782
849.707280,-962.267725,3677.258390,10140.821405
849.707610,-1628.453072,1762.019645,9548.656652
849.707939,-1628.453072,-306.438199,8512.368333
849.708268,-1184.329507,-1608.800546,7402.059420
849.708598,-740.205942,-2681.334243,7031.956449
849.708927,-592.164754,-2528.115143,7550.100608
849.709257,-518.144159,-689.485948,8438.347739
849.709586,-370.102971,1991.848295,9474.636058
849.709916,-370.102971,3600.648841,10807.006753
849.710245,-814.226536,4290.134789,11399.171507
849.710575,-1184.329507,4366.744339,11473.192101
849.710904,-2072.576638,2987.772442,11103.089130
849.711233,-2294.638420,1225.752797,10881.027347
849.711563,-2146.597232,-306.438199,10066.800811
849.711892,-1406.391290,-1302.362347,9918.759623
849.712222,-296.082377,-1915.238745,9252.574275
849.712551,518.144159,-2451.505594,9030.512492
849.712881,1480.411884,-383.047749,9104.533087
849.713210,2368.659014,1378.971896,9770.718434
849.713539,2072.576638,3753.867940,10362.883188
849.713869,888.247130,4826.401637,11029.068536
849.714198,-666.185348,5592.497135,10807.006753
849.714528,-1924.535449,4749.792088,9992.780217
849.714857,-2664.741391,2451.505594,9252.574275
849.715187,-2738.761985,-536.266849,8512.368333
849.715516,-3256.906145,-2068.457845,7698.141797
849.715846,-3182.885551,-3370.820191,7846.182985
849.716175,-3182.885551,-2757.943793,8438.347739
849.716504,-3182.885551,-1378.971896,8734.430116
849.716834,-2812.782580,1455.581446,9178.553681
849.717163,-1924.535449,3064.381992,9918.759623
849.717493,-1110.308913,2987.772442,10214.842000
849.717822,-962.267725,3294.210641,10288.862594
849.718152,-1480.411884,3217.601092,9844.739029
849.718481,-1702.473667,2145.067394,9548.656652
849.718811,-1702.473667,153.219100,9252.574275
849.719140,-888.247130,-1302.362347,8734.430116
849.719469,0.000000,-1991.848295,8586.388927
849.719799,592.164754,-2298.286494,8364.327145
849.720128,1184.329507,-1149.143247,8956.491898
849.720458,2146.597232,766.095498,9474.636058
849.720787,1258.350101,2681.334243,10510.924376
849.721117,518.144159,3600.648841,11473.192101
849.721446,-888.247130,4366.744339,11621.233289
849.721776,-2072.576638,3524.039291,11251.130318
849.722105,-2886.803174,1762.019645,10658.965565
849.722435,-2590.720797,-766.095498,9622.677246
849.722764,-2368.659014,-2145.067394,7994.224174
849.723094,-1850.514855,-2604.724693,7476.080014
849.723423,-1184.329507,-3064.381992,7772.162391
849.723753,-592.164754,-1685.410096,8068.244768
849.724082,-370.102971,919.314598,9178.553681
849.724412,-444.123565,3064.381992,10214.842000
849.724741,0.000000,3983.696590,11251.130318
849.725071,-222.061783,4673.182538,11547.212695
849.725400,-740.205942,4213.525239,11103.089130
849.725730,-1480.411884,2451.505594,10140.821405
849.726059,-1258.350101,229.828649,9992.780217
849.726389,-518.144159,-536.266849,9844.739029
849.726718,-296.082377,-1455.581446,8882.471304
849.727048,370.102971,-2451.505594,8216.285956
849.727377,1554.432478,-1225.752797,7920.203579
849.727707,1776.494261,383.047749,8512.368333
849.728037,1776.494261,2221.676944,9548.656652
849.728366,740.205942,3524.039291,10362.883188
849.728696,-518.144159,4749.792088,10510.924376
849.729025,-1554.432478,3983.696590,9918.759623
849.729355,-2442.679609,3294.210641,9770.718434
849.729684,-2664.741391,689.485948,8660.409521
849.730014,-2442.679609,-1072.533697,7624.121203
849.730343,-2220.617826,-2451.505594,7698.141797
849.730673,-2442.679609,-2221.676944,8586.388927
849.731002,-2960.823768,-995.924147,9178.553681
849.731332,-2812.782580,536.266849,9400.615463
849.731661,-2516.700203,2221.676944,10140.821405
849.731991,-2072.576638,2834.553343,10955.047942
849.732320,-1850.514855,3064.381992,10955.047942
849.732650,-2294.638420,2834.553343,10362.883188
849.732979,-2812.782580,1532.190996,10066.800811
849.733309,-2738.761985,76.609550,10214.842000
849.733638,-1850.514855,-1455.581446,10214.842000
849.733968,-962.267725,-1762.019645,9548.656652
849.734297,74.020594,-2451.505594,9252.574275
849.734627,1258.350101,-2068.457845,8882.471304
849.734956,2220.617826,0.000000,9474.636058
849.735286,2220.617826,2298.286494,10362.883188
849.735615,1184.329507,3677.258390,11029.068536
849.735945,-222.061783,4443.353888,11029.068536
849.736274,-1554.432478,3677.258390,10658.965565
849.736604,-2220.617826,2221.676944,10510.924376
849.736934,-2590.720797,0.000000,9474.636058
849.737263,-2516.700203,-1685.410096,7994.224174
849.737593,-2072.576638,-2757.943793,7179.997637
849.737922,-1776.494261,-3294.210641,7179.997637
849.738252,-1850.514855,-1685.410096,7920.203579
849.738581,-1924.535449,459.657299,8142.265362
849.738911,-1480.411884,2374.896044,9474.636058
849.739240,-1258.350101,3524.039291,10436.903782
849.739570,-1332.370696,4136.915689,10362.883188
849.739899,-962.267725,3677.258390,9992.780217
849.740229,-1184.329507,2374.896044,9548.656652
849.740558,-1332.370696,842.705048,9622.677246
849.740888,-814.226536,-459.657299,9474.636058
849.741217,-296.082377,-1532.190996,8882.471304
849.741547,222.061783,-2374.896044,8660.409521
849.741876,740.205942,-1532.190996,9326.594869
849.742206,1628.453072,229.828649,9770.718434
849.742535,1554.432478,1685.410096,10732.986159
849.742865,888.247130,2911.162892,11103.089130
849.743194,0.000000,4060.306139,11177.109724
849.743524,-1332.370696,4213.525239,10658.965565
849.743853,-2072.576638,3217.601092,10140.821405
849.744183,-2146.597232,1149.143247,9252.574275
849.744512,-1776.494261,-689.485948,7846.182985
849.744842,-1702.473667,-1762.019645,7476.080014
849.745171,-1702.473667,-2068.457845,8586.388927
849.745501,-2368.659014,-536.266849,9178.553681
849.745830,-2664.741391,1072.533697,9548.656652
849.746160,-2664.741391,3140.991542,10436.903782
849.746490,-2368.659014,3294.210641,10362.883188
849.746819,-1776.494261,3907.087040,10658.965565
849.747149,-2294.638420,2757.943793,10214.842000
849.747478,-2664.741391,1838.629195,9770.718434
849.747808,-2664.741391,459.657299,9474.636058
849.748137,-2220.617826,-766.095498,9178.553681
849.748467,-740.205942,-1149.143247,9030.512492
849.748796,0.000000,-1532.190996,7920.203579
849.749126,1332.370696,-1532.190996,7994.224174
849.749455,2590.720797,689.485948,8734.430116
849.749785,2516.700203,2681.334243,9474.636058
849.750114,1924.535449,3294.210641,9918.759623
849.750444,666.185348,4060.306139,10807.006753
849.750773,-1036.288319,4596.572988,10732.986159
849.751103,-1924.535449,2757.943793,10584.944971
849.751432,-2220.617826,536.266849,9696.697840
849.751762,-1924.535449,-2221.676944,7846.182985
849.752091,-1258.350101,-3140.991542,7772.162391
849.752421,-1184.329507,-3370.820191,7920.203579
849.752750,-1258.350101,-1762.019645,8512.368333
849.753080,-1406.391290,459.657299,8882.471304
849.753409,-1184.329507,2451.505594,10066.800811
849.753739,-666.185348,3753.867940,10955.047942
849.754068,-666.185348,3753.867940,11251.130318
849.754398,-1480.411884,3524.039291,11177.109724
849.754727,-2220.617826,2451.505594,10510.924376
849.755057,-2368.659014,229.828649,10362.883188
849.755386,-1702.473667,-536.266849,10140.821405
849.755716,-962.267725,-2068.457845,9474.636058
849.756046,-444.123565,-2451.505594,8734.430116
849.756375,592.164754,-2068.457845,8882.471304
849.756705,1554.432478,0.000000,9178.553681
849.757034,2220.617826,2374.896044,10362.883188
849.757364,1406.391290,3064.381992,10436.903782
849.757693,0.000000,4673.182538,11177.109724
849.758023,-1110.308913,4903.011187,10584.944971
849.758352,-2072.576638,3370.820191,9844.739029
849.758682,-2294.638420,842.705048,8882.471304
849.759011,-1998.556043,-995.924147,7994.224174
849.759341,-1924.535449,-2451.505594,7328.038826
849.759670,-1998.556043,-2528.115143,8068.244768
849.760000,-2368.659014,-1149.143247,8808.450710
849.760329,-2738.761985,536.266849,9178.553681
849.760659,-2738.761985,3370.820191,9844.739029
849.760988,-2146.597232,3294.210641,10288.862594
849.761318,-1998.556043,3907.087040,10510.924376
849.761647,-2368.659014,3064.381992,10066.800811
849.761977,-2664.741391,2298.286494,9548.656652
849.762306,-2368.659014,612.876398,9326.594869
849.762636,-2294.638420,-459.657299,8808.450710
849.762965,-1184.329507,-1225.752797,8660.409521
849.763295,148.041188,-1838.629195,8068.244768
849.763624,1110.308913,-1455.581446,8438.347739
849.763954,2146.597232,383.047749,9178.553681
849.764283,2442.679609,2604.724693,9844.739029
849.764613,1776.494261,3524.039291,11103.089130
849.764942,592.164754,4366.744339,11917.315666
849.765272,-962.267725,4749.792088,11843.295072
849.765602,-2072.576638,3447.429741,11103.089130
849.765931,-2294.638420,459.657299,9770.718434
849.766261,-962.267725,-1072.533697,8216.285956
849.766590,-592.164754,-2757.943793,7328.038826
849.766920,-296.082377,-3217.601092,7105.977043
849.767249,-148.041188,-1991.848295,7328.038826
849.767579,-444.123565,919.314598,7846.182985
849.767908,-888.247130,2451.505594,8882.471304
849.768238,-666.185348,3524.039291,10436.903782
849.768567,-1036.288319,4596.572988,11103.089130
849.768897,-1702.473667,3830.477490,10732.986159
849.769226,-2516.700203,2298.286494,10436.903782
849.769556,-2960.823768,0.000000,9992.780217
849.769885,-3108.864956,-1302.362347,10288.862594
849.770215,-2738.761985,-1915.238745,9770.718434
849.770544,-1480.411884,-2528.115143,9474.636058
849.770874,0.000000,-2451.505594,8734.430116
849.771203,1036.288319,-612.876398,8438.347739
849.771533,2220.617826,919.314598,8956.491898
849.771862,2220.617826,3140.991542,9992.780217
849.772192,1258.350101,4749.792088,10584.944971
849.772521,74.020594,4903.011187,10362.883188
849.772851,-1184.329507,3753.867940,9918.759623
849.773180,-2072.576638,1225.752797,9252.574275
849.773510,-1998.556043,-1149.143247,8956.491898
849.773839,-1924.535449,-2451.505594,8660.409521
849.774169,-2294.638420,-2987.772442,8734.430116
849.774498,-3034.844362,-2145.067394,8956.491898
849.774828,-3404.947333,-1149.143247,9178.553681
849.775158,-3404.947333,1685.410096,10436.903782
849.775487,-2960.823768,3140.991542,11103.089130
849.775817,-2664.741391,3294.210641,11029.068536
849.776146,-2664.741391,3217.601092,10288.862594
849.776476,-2442.679609,2068.457845,9474.636058
849.776805,-2368.659014,536.266849,9400.615463
849.777135,-1850.514855,-842.705048,8956.491898
849.777464,-1036.288319,-1302.362347,8438.347739
849.777794,0.000000,-1685.410096,8290.306550
849.778123,740.205942,-1378.971896,8660.409521
849.778453,2146.597232,0.000000,9326.594869
849.778782,2368.659014,1915.238745,10214.842000
849.779112,1776.494261,2911.162892,11029.068536
849.779441,518.144159,3600.648841,12065.356855
849.779771,-962.267725,4596.572988,12139.377449
849.780100,-1850.514855,4136.915689,10584.944971
849.780430,-1924.535449,1838.629195,9030.512492
849.780759,-962.267725,-153.219100,7105.977043
849.781089,222.061783,-2451.505594,5699.585753
849.781418,888.247130,-3447.429741,5403.503377
849.781748,592.164754,-1455.581446,6513.812290
849.782077,-444.123565,766.095498,7402.059420
849.782407,-1850.514855,3217.601092,9474.636058
849.782736,-2220.617826,4290.134789,10658.965565
849.783066,-2220.617826,4213.525239,11547.212695
849.783395,-2368.659014,3677.258390,11399.171507
849.783725,-2960.823768,2145.067394,10955.047942
849.784055,-3701.029710,0.000000,10362.883188
849.784384,-3034.844362,-1532.190996,10066.800811
849.784714,-2442.679609,-1991.848295,9548.656652
849.785043,-1184.329507,-2374.896044,9030.512492
849.785373,444.123565,-1685.410096,8364.327145
849.785702,2294.638420,-689.485948,9030.512492
849.786032,2516.700203,1378.971896,9548.656652
849.786361,1924.535449,2987.772442,10584.944971
849.786691,740.205942,4443.353888,11399.171507
849.787020,-814.226536,5592.497135,11325.150913
849.787350,-2220.617826,3753.867940,10658.965565
849.787679,-2516.700203,1149.143247,10214.842000
849.788009,-2220.617826,-1762.019645,9030.512492
849.788338,-1924.535449,-2911.162892,8290.306550
849.788668,-2072.576638,-2987.772442,8660.409521
849.788997,-2812.782580,-1685.410096,9178.553681
849.789327,-3108.864956,-229.828649,9474.636058
849.789656,-2886.803174,1838.629195,9918.759623
849.789986,-2664.741391,3064.381992,10584.944971
849.790315,-2442.679609,3294.210641,10807.006753
849.790645,-2294.638420,3294.210641,9844.739029
849.790974,-3034.844362,2145.067394,9104.533087
849.791304,-2812.782580,383.047749,8512.368333
849.791633,-1850.514855,-1532.190996,8290.306550
849.791963,-814.226536,-1608.800546,8142.265362
849.792292,0.000000,-1225.752797,7994.224174
849.792622,1332.370696,-1915.238745,8068.244768
849.792951,2294.638420,76.609550,9252.574275
849.793281,2516.700203,1915.238745,10214.842000
849.793611,2146.597232,3753.867940,11325.150913
849.793940,1332.370696,4443.353888,11695.253884
849.794270,-370.102971,5056.230287,11325.150913
849.794599,-1480.411884,3600.648841,10584.944971
849.794929,-1850.514855,1225.752797,9474.636058
849.795258,-888.247130,-536.266849,7920.203579
849.795588,-296.082377,-2221.676944,6883.915261
849.795917,0.000000,-2757.943793,6513.812290
849.796247,0.000000,-1838.629195,7402.059420
849.796576,-740.205942,0.000000,8586.388927
849.796906,-1184.329507,2681.334243,9992.780217
849.797235,-1258.350101,4136.915689,11621.233289
849.797565,-1332.370696,4290.134789,11769.274478
849.797894,-1554.432478,3907.087040,11769.274478
849.798224,-2738.761985,2298.286494,11325.150913
849.798553,-3182.885551,536.266849,10955.047942
849.798883,-2738.761985,-229.828649,9844.739029
849.799212,-1628.453072,-1225.752797,9030.512492
849.799542,-296.082377,-2374.896044,7402.059420
849.799871,814.226536,-2451.505594,7402.059420
849.800201,1850.514855,-689.485948,7772.162391
849.800530,2220.617826,1378.971896,8882.471304
849.800860,1184.329507,3524.039291,10288.862594
849.801189,-592.164754,5209.449386,11029.068536
849.801519,-1554.432478,4903.011187,11251.130318
849.801848,-2738.761985,3677.258390,10955.047942
849.802178,-3034.844362,842.705048,10066.800811
849.802507,-2368.659014,-1149.143247,8808.450710
849.802837,-1850.514855,-2221.676944,7994.224174
849.803167,-1628.453072,-3447.429741,7698.141797
849.803496,-1702.473667,-2451.505594,7920.203579
849.803826,-1850.514855,-459.657299,8586.388927
849.804155,-1776.494261,1991.848295,9548.656652
849.804485,-1628.453072,3600.648841,10584.944971
849.804814,-1406.391290,3447.429741,10510.924376
849.805144,-1998.556043,3447.429741,10066.800811
849.805473,-2738.761985,2298.286494,9696.697840
849.805803,-3108.864956,536.266849,9770.718434
849.806132,-2664.741391,-919.314598,9770.718434
849.806462,-2294.638420,-1608.800546,9474.636058
849.806791,-1554.432478,-2451.505594,9104.533087
849.807121,-296.082377,-2145.067394,9252.574275
849.807450,888.247130,-383.047749,9474.636058
849.807780,1850.514855,1455.581446,10066.800811
849.808109,1776.494261,2298.286494,10658.965565
849.808439,1184.329507,4136.915689,11695.253884
849.808768,0.000000,4903.011187,11473.192101
849.809098,-1258.350101,3983.696590,10881.027347
849.809427,-1480.411884,1991.848295,9622.677246
849.809757,-666.185348,-612.876398,7846.182985
849.810086,148.041188,-1991.848295,6809.894666
849.810416,814.226536,-3064.381992,6661.853478
849.810745,370.102971,-1991.848295,7105.977043
849.811075,0.000000,383.047749,8216.285956
849.811404,-740.205942,2604.724693,9474.636058
849.811734,-1258.350101,4443.353888,10436.903782
849.812063,-1406.391290,4366.744339,11547.212695
849.812393,-1480.411884,3983.696590,11695.253884
849.812723,-2664.741391,2528.115143,11251.130318
849.813052,-3182.885551,1225.752797,10288.862594
849.813382,-2664.741391,-153.219100,9104.533087
849.813711,-1628.453072,-1302.362347,7772.162391
849.814041,-370.102971,-1991.848295,7402.059420
849.814370,1036.288319,-2374.896044,7254.018232
849.814700,2368.659014,-766.095498,7698.141797
849.815029,2590.720797,1455.581446,8438.347739
849.815359,2072.576638,3907.087040,9844.739029
849.815688,370.102971,4979.620737,11251.130318
849.816018,-1110.308913,5515.887586,11325.150913
849.816347,-2146.597232,4136.915689,11029.068536
849.816677,-3108.864956,1608.800546,10214.842000
849.817006,-2960.823768,-919.314598,9326.594869
849.817336,-2368.659014,-3064.381992,8364.327145
849.817665,-2294.638420,-3677.258390,8364.327145
849.817995,-2368.659014,-2681.334243,8586.388927
849.818324,-2368.659014,-1149.143247,9326.594869
849.818654,-2516.700203,1149.143247,9770.718434
849.818983,-2294.638420,2757.943793,10584.944971
849.819313,-1924.535449,3447.429741,11473.192101
849.819642,-1924.535449,3524.039291,10881.027347
849.819972,-2368.659014,2528.115143,10288.862594
849.820301,-3182.885551,766.095498,9400.615463
849.820631,-2590.720797,-1225.752797,9030.512492
849.820960,-1628.453072,-1915.238745,9030.512492
849.821290,-962.267725,-2145.067394,8808.450710
849.821619,0.000000,-2298.286494,8660.409521
849.821949,1258.350101,-842.705048,9030.512492
849.822279,1924.535449,1149.143247,9474.636058
849.822608,1924.535449,2757.943793,10732.986159
849.822938,814.226536,3753.867940,11695.253884
849.823267,-666.185348,4826.401637,11399.171507
849.823596,-1850.514855,4903.011187,10436.903782
849.823926,-2220.617826,2221.676944,9474.636058
849.824255,-1480.411884,-153.219100,7994.224174
849.824585,-518.144159,-2145.067394,6439.791695
849.824914,0.000000,-3140.991542,5921.647536
849.825244,-370.102971,-2374.896044,6735.874072
849.825573,-740.205942,0.000000,7698.141797
849.825903,-1480.411884,2528.115143,9030.512492
849.826232,-1628.453072,4213.525239,10066.800811
849.826562,-1480.411884,4519.963438,10732.986159
849.826891,-1332.370696,3830.477490,11103.089130
849.827220,-1998.556043,2528.115143,10955.047942
849.827550,-2960.823768,1149.143247,10436.903782
849.827879,-2960.823768,-229.828649,10510.924376
849.828209,-2516.700203,-1302.362347,9622.677246
849.828538,-1184.329507,-2068.457845,9030.512492
849.828868,74.020594,-2451.505594,8512.368333
849.829197,1628.453072,-1072.533697,8364.327145
849.829527,2590.720797,459.657299,8956.491898
849.829856,1924.535449,2987.772442,10362.883188
849.830186,444.123565,4903.011187,11325.150913
849.830515,-740.205942,5822.325785,11843.295072
849.830844,-1998.556043,4903.011187,10807.006753
849.831174,-2442.679609,1838.629195,10658.965565
849.831503,-2442.679609,-153.219100,9030.512492
849.831833,-1998.556043,-2068.457845,7994.224174
849.832162,-1924.535449,-3370.820191,7846.182985
849.832492,-2442.679609,-2604.724693,8438.347739
849.832821,-2738.761985,-995.924147,8808.450710
849.833151,-2442.679609,1149.143247,9252.574275
849.833480,-2516.700203,2681.334243,9992.780217
849.833810,-2146.597232,3370.820191,10807.006753
849.834139,-1850.514855,3370.820191,10436.903782
849.834468,-2368.659014,3294.210641,9696.697840
849.834798,-2368.659014,1378.971896,9474.636058
849.835127,-2442.679609,0.000000,9030.512492
849.835457,-1332.370696,-1072.533697,8512.368333
849.835786,-444.123565,-1762.019645,8142.265362
849.836116,1110.308913,-2374.896044,8512.368333
849.836445,2072.576638,-1378.971896,8216.285956
849.836775,2812.782580,459.657299,9474.636058
849.837104,2368.659014,2374.896044,10881.027347
849.837434,1332.370696,3907.087040,11769.274478
849.837763,-296.082377,4596.572988,11843.295072
849.838092,-1480.411884,4443.353888,10955.047942
849.838422,-1850.514855,2374.896044,10214.842000
849.838751,-1628.453072,-153.219100,9030.512492
849.839081,-814.226536,-1838.629195,7105.977043
849.839410,-296.082377,-3064.381992,6513.812290
849.839740,0.000000,-2834.553343,6957.935855
849.840069,-888.247130,-766.095498,8290.306550
849.840399,-1110.308913,1532.190996,9474.636058
849.840728,-1480.411884,3907.087040,10955.047942
849.841058,-1258.350101,4519.963438,11473.192101
849.841387,-1480.411884,3830.477490,11029.068536
849.841716,-1258.350101,2451.505594,11177.109724
849.842046,-2368.659014,766.095498,11103.089130
849.842375,-2664.741391,-383.047749,10732.986159
849.842705,-2664.741391,-1149.143247,10066.800811
849.843034,-1628.453072,-1685.410096,9104.533087
849.843364,148.041188,-2528.115143,8216.285956
849.843693,1998.556043,-2068.457845,8290.306550
849.844023,2664.741391,306.438199,8364.327145
849.844352,2590.720797,2757.943793,9104.533087
849.844682,1406.391290,4519.963438,10288.862594
849.845011,-222.061783,5975.544884,10807.006753
849.845341,-2220.617826,5975.544884,10732.986159
849.845670,-2960.823768,3217.601092,10066.800811
849.845999,-2960.823768,689.485948,9474.636058
849.846329,-2516.700203,-1378.971896,8364.327145
849.846658,-2368.659014,-2298.286494,8068.244768
849.846988,-2516.700203,-2451.505594,7920.203579
849.847317,-2812.782580,-1838.629195,8438.347739
849.847647,-2960.823768,536.266849,8956.491898
849.847976,-2738.761985,2757.943793,9696.697840
849.848306,-2368.659014,3600.648841,10436.903782
849.848635,-1628.453072,3600.648841,10140.821405
849.848965,-2368.659014,3447.429741,9474.636058
849.849294,-2516.700203,2298.286494,9474.636058
849.849623,-2368.659014,229.828649,9622.677246
849.849953,-1554.432478,-1149.143247,9252.574275
849.850282,-592.164754,-1302.362347,8734.430116
849.850612,592.164754,-1455.581446,8660.409521
849.850941,1924.535449,-1378.971896,9252.574275
849.851271,2738.761985,459.657299,9918.759623
849.851600,2664.741391,2221.676944,11399.171507
849.851930,1554.432478,3983.696590,12583.501014
849.852259,0.000000,4903.011187,12583.501014
849.852589,-1184.329507,4749.792088,11695.253884
849.852918,-1702.473667,2834.553343,9918.759623
849.853247,-1036.288319,76.609550,7994.224174
849.853577,-148.041188,-2451.505594,6217.729913
849.853906,518.144159,-3600.648841,5403.503377
849.854236,370.102971,-3140.991542,6069.688724
849.854565,-666.185348,-1072.533697,8068.244768
849.854895,-1924.535449,1302.362347,9400.615463
849.855224,-2368.659014,3294.210641,10510.924376
849.855554,-1998.556043,4290.134789,11695.253884
849.855883,-1554.432478,3830.477490,11325.150913
849.856213,-2072.576638,2451.505594,11473.192101
849.856542,-2886.803174,842.705048,10955.047942
849.856871,-3108.864956,-383.047749,10584.944971
849.857201,-2516.700203,-1072.533697,9400.615463
849.857530,-1480.411884,-1608.800546,8808.450710
849.857860,148.041188,-2451.505594,7846.182985
849.858189,2220.617826,-1838.629195,7254.018232
849.858519,3552.988522,0.000000,7994.224174
849.858848,3478.967927,2451.505594,9178.553681
849.859178,1924.535449,5132.839837,10658.965565
849.859507,-222.061783,5209.449386,11399.171507
849.859837,-1998.556043,5515.887586,11399.171507
849.860166,-3330.926739,3294.210641,10955.047942
849.860495,-3182.885551,766.095498,9844.739029
849.860825,-2738.761985,-1532.190996,8364.327145
849.861154,-2590.720797,-3217.601092,7920.203579
849.861484,-2812.782580,-3600.648841,8290.306550
849.861813,-3108.864956,-1838.629195,9104.533087
849.862143,-3256.906145,612.876398,9252.574275
849.862472,-3108.864956,2911.162892,9622.677246
849.862802,-2368.659014,3140.991542,10584.944971
849.863131,-1850.514855,3677.258390,10584.944971
849.863461,-1554.432478,2911.162892,9918.759623
849.863790,-1924.535449,1685.410096,9474.636058
849.864119,-2368.659014,-459.657299,9548.656652
849.864449,-1554.432478,-1455.581446,9400.615463
849.864778,-1184.329507,-1608.800546,9252.574275
849.865108,222.061783,-1991.848295,9030.512492
849.865437,1776.494261,-1915.238745,8956.491898
849.865767,2960.823768,0.000000,9474.636058
849.866096,3478.967927,1991.848295,10362.883188
849.866426,2146.597232,4213.525239,10881.027347
849.866755,888.247130,5362.668486,11029.068536
849.867085,-370.102971,5669.106685,10214.842000
849.867414,-1110.308913,3753.867940,9400.615463
849.867743,-1480.411884,1149.143247,7994.224174
849.868073,-1036.288319,-995.924147,6365.771101
849.868402,-740.205942,-2528.115143,6069.688724
849.868732,-1184.329507,-3524.039291,6735.874072
849.869061,-2146.597232,-1915.238745,7772.162391
849.869391,-3256.906145,0.000000,8956.491898
849.869720,-3034.844362,2298.286494,9770.718434
849.870050,-2442.679609,2604.724693,11769.274478
849.870379,-2146.597232,2604.724693,12361.439231
849.870709,-2664.741391,2221.676944,12139.377449
849.871038,-3034.844362,1532.190996,11399.171507
849.871367,-2664.741391,76.609550,10288.862594
849.871697,-1258.350101,-766.095498,9474.636058
849.872026,666.185348,-995.924147,8216.285956
849.872356,2146.597232,-2145.067394,7476.080014
849.872685,3256.906145,-1838.629195,7550.100608
849.873015,3627.009116,153.219100,8734.430116
849.873344,2664.741391,2834.553343,9992.780217
849.873674,666.185348,4213.525239,11769.274478
849.874003,-1628.453072,4979.620737,12435.459826
849.874333,-2960.823768,4673.182538,12435.459826
849.874662,-3997.112087,2528.115143,11547.212695
849.874991,-4589.276840,-229.828649,9992.780217
849.875321,-3923.091493,-2145.067394,8586.388927
849.875650,-3552.988522,-3294.210641,7105.977043
849.875980,-3182.885551,-3600.648841,7179.997637
849.876309,-2886.803174,-2145.067394,7550.100608
849.876639,-2886.803174,229.828649,7772.162391
849.876968,-2812.782580,2451.505594,8808.450710
849.877298,-2146.597232,3677.258390,9770.718434
849.877627,-1480.411884,3983.696590,10362.883188
849.877957,-1332.370696,3677.258390,9844.739029
849.878286,-1776.494261,2374.896044,9400.615463
849.878615,-1850.514855,612.876398,9474.636058
849.878945,-1258.350101,-766.095498,9474.636058
849.879274,-370.102971,-1608.800546,9474.636058
849.879604,814.226536,-1762.019645,9104.533087
849.879933,1924.535449,-1378.971896,9474.636058
849.880263,3256.906145,76.609550,9844.739029
849.880592,3108.864956,2451.505594,10362.883188
849.880922,2146.597232,3907.087040,11177.109724
849.881251,814.226536,5056.230287,11103.089130
849.881581,-518.144159,5209.449386,10584.944971
849.881910,-1628.453072,3907.087040,9252.574275
849.882239,-1850.514855,612.876398,8216.285956
849.882569,-1850.514855,-842.705048,7031.956449
849.882898,-1850.514855,-2374.896044,6217.729913
849.883228,-2072.576638,-3217.601092,6809.894666
849.883557,-2368.659014,-2757.943793,8142.265362
849.883887,-2812.782580,229.828649,9696.697840
849.884216,-2886.803174,2145.067394,10658.965565
849.884546,-1998.556043,2451.505594,12065.356855
849.884875,-1628.453072,2604.724693,12509.480420
849.885205,-1480.411884,2451.505594,12139.377449
849.885534,-1332.370696,2681.334243,11251.130318
849.885863,-1406.391290,995.924147,9992.780217
849.886193,0.000000,-153.219100,9178.553681
849.886522,1554.432478,-995.924147,7772.162391
849.886852,2664.741391,-1302.362347,7031.956449
849.887181,4145.153275,-919.314598,7031.956449
849.887511,3552.988522,383.047749,7698.141797
849.887840,2812.782580,2987.772442,9474.636058
849.888170,518.144159,4596.572988,10732.986159
849.888499,-1702.473667,4903.011187,11621.233289
849.888829,-3034.844362,4519.963438,11769.274478
849.889158,-4663.297435,2757.943793,10732.986159
849.889487,-5403.503377,0.000000,9918.759623
849.889817,-5181.441594,-1838.629195,8512.368333
849.890146,-4737.318029,-2911.162892,7254.018232
849.890476,-3923.091493,-3600.648841,7550.100608
849.890805,-3256.906145,-2374.896044,8882.471304
849.891135,-3256.906145,383.047749,9252.574275
849.891464,-3034.844362,2604.724693,9548.656652
849.891794,-2294.638420,3524.039291,10066.800811
849.892123,-1554.432478,3600.648841,10436.903782
849.892453,-740.205942,3677.258390,10807.006753
849.892782,-1406.391290,2145.067394,10288.862594
849.893111,-1628.453072,612.876398,10140.821405
849.893441,-814.226536,-536.266849,9770.718434
849.893770,370.102971,-1532.190996,9548.656652
849.894100,1628.453072,-1685.410096,9622.677246
849.894429,2368.659014,-1762.019645,9474.636058
849.894759,3182.885551,0.000000,9844.739029
849.895088,3108.864956,2374.896044,10214.842000
849.895418,2368.659014,3907.087040,10881.027347
849.895747,1258.350101,4366.744339,11399.171507
849.896077,-222.061783,5056.230287,10881.027347
849.896406,-1480.411884,4136.915689,9844.739029
849.896735,-2368.659014,1225.752797,8216.285956
849.897065,-1998.556043,-919.314598,6957.935855
849.897394,-1628.453072,-2451.505594,5847.626942
849.897724,-1480.411884,-3294.210641,6069.688724
849.898053,-1850.514855,-2068.457845,7179.997637
849.898383,-2220.617826,153.219100,8586.388927
849.898712,-2664.741391,2604.724693,9474.636058
849.899042,-2294.638420,3217.601092,10732.986159
849.899371,-1406.391290,3370.820191,11547.212695
849.899701,-740.205942,2987.772442,12065.356855
849.900030,-1554.432478,2221.676944,11251.130318
849.900359,-2146.597232,919.314598,10288.862594
849.900689,-1332.370696,-306.438199,9474.636058
849.901018,148.041188,-919.314598,8364.327145
849.901348,1924.535449,-1225.752797,7624.121203
849.901677,3108.864956,-1302.362347,7550.100608
849.902007,3701.029710,-229.828649,7846.182985
849.902336,3182.885551,1608.800546,9474.636058
849.902666,1184.329507,3753.867940,11325.150913
849.902995,-814.226536,4903.011187,12435.459826
849.903325,-2516.700203,4596.572988,12509.480420
849.903654,-4293.194464,3524.039291,11843.295072
849.903984,-4959.379811,689.485948,10807.006753
849.904313,-4219.173869,-1685.410096,9104.533087
849.904642,-3923.091493,-3140.991542,7476.080014
849.904972,-3256.906145,-3677.258390,7698.141797
849.905301,-3256.906145,-2834.553343,8438.347739
849.905631,-3404.947333,-383.047749,9252.574275
849.905960,-3256.906145,1762.019645,9770.718434
849.906290,-2738.761985,2987.772442,10214.842000
849.906619,-1924.535449,3830.477490,10510.924376
849.906949,-1184.329507,3524.039291,10362.883188
849.907278,-1480.411884,2374.896044,9696.697840
849.907608,-1554.432478,689.485948,9548.656652
849.907937,-1110.308913,-536.266849,9400.615463
849.908266,-222.061783,-1149.143247,8734.430116
849.908596,444.123565,-2221.676944,8586.388927
849.908925,1628.453072,-1455.581446,8882.471304
849.909255,2960.823768,-612.876398,9326.594869
849.909584,3256.906145,1225.752797,9992.780217
849.909914,2516.700203,3830.477490,10288.862594
849.910243,1184.329507,4366.744339,11473.192101
849.910573,-148.041188,5056.230287,11103.089130
849.910902,-1776.494261,4366.744339,10066.800811
849.911232,-2368.659014,2068.457845,8808.450710
849.911561,-2072.576638,-612.876398,7254.018232
849.911890,-1850.514855,-1762.019645,5847.626942
849.912220,-1406.391290,-2911.162892,6291.750507
849.912549,-1480.411884,-2374.896044,7254.018232
849.912879,-1850.514855,-459.657299,8438.347739
849.913208,-2368.659014,1915.238745,9696.697840
849.913538,-1998.556043,3370.820191,11769.274478
849.913867,-1628.453072,3370.820191,11917.315666
849.914197,-1406.391290,3294.210641,12509.480420
849.914526,-1998.556043,2528.115143,11843.295072
849.914856,-2442.679609,1532.190996,11103.089130
849.915185,-1924.535449,0.000000,9844.739029
849.915514,74.020594,-766.095498,8660.409521
849.915844,1406.391290,-1685.410096,7772.162391
849.916173,2516.700203,-1762.019645,7476.080014
849.916503,3256.906145,-306.438199,7698.141797
849.916832,3034.844362,1838.629195,8586.388927
849.917162,1850.514855,3370.820191,10436.903782
849.917491,-740.205942,4903.011187,11399.171507
849.917821,-2590.720797,4826.401637,11621.233289
849.918150,-3849.070898,3294.210641,11103.089130
849.918480,-4737.318029,995.924147,10362.883188
849.918809,-4737.318029,-1225.752797,8660.409521
849.919138,-4071.132681,-2757.943793,7624.121203
849.919468,-3997.112087,-3600.648841,7476.080014
849.919797,-3775.050304,-2911.162892,8068.244768
849.920127,-3552.988522,-1149.143247,9030.512492
849.920456,-3256.906145,1302.362347,9178.553681
849.920786,-2590.720797,3140.991542,9622.677246
849.921115,-1998.556043,3677.258390,10214.842000
849.921445,-1332.370696,3370.820191,9844.739029
849.921774,-1332.370696,2374.896044,9622.677246
849.922104,-1554.432478,612.876398,9548.656652
849.922433,-1184.329507,0.000000,9548.656652
849.922763,-444.123565,-1225.752797,9178.553681
849.923092,370.102971,-2145.067394,9030.512492
849.923422,1480.411884,-2298.286494,9400.615463
849.923751,2294.638420,-1302.362347,10066.800811
849.924080,2368.659014,689.485948,10584.944971
849.924410,1628.453072,2834.553343,11695.253884
849.924739,666.185348,4290.134789,11917.315666
849.925069,-592.164754,4443.353888,11547.212695
849.925398,-1480.411884,4136.915689,10436.903782
849.925728,-1924.535449,2374.896044,8660.409521
849.926057,-1480.411884,-612.876398,6957.935855
849.926387,-444.123565,-1838.629195,5847.626942
849.926716,-518.144159,-2834.553343,5551.544565
849.927045,-296.082377,-2068.457845,6957.935855
849.927375,-1036.288319,-383.047749,8512.368333
849.927704,-1702.473667,2298.286494,9622.677246
849.928034,-1850.514855,3753.867940,10584.944971
849.928363,-1480.411884,3524.039291,11843.295072
849.928693,-1258.350101,3140.991542,12139.377449
849.929022,-1998.556043,2451.505594,11991.336260
849.929352,-2590.720797,1762.019645,11103.089130
849.929681,-2516.700203,306.438199,9844.739029
849.930010,-1258.350101,-612.876398,8808.450710
849.930340,740.205942,-1455.581446,7328.038826
849.930669,2590.720797,-1915.238745,6661.853478
849.930999,3701.029710,-612.876398,6735.874072
849.931328,3552.988522,2145.067394,7550.100608
849.931658,2220.617826,3907.087040,9548.656652
849.931987,148.041188,4979.620737,11399.171507
849.932317,-2072.576638,5745.716235,11917.315666
849.932646,-3552.988522,4673.182538,11843.295072
849.932975,-4441.235652,1762.019645,10436.903782
849.933305,-4219.173869,-995.924147,9104.533087
849.933634,-3552.988522,-2604.724693,8068.244768
849.933964,-3404.947333,-3677.258390,7476.080014
849.934293,-3404.947333,-3064.381992,7994.224174
849.934623,-2960.823768,-536.266849,8808.450710
849.934952,-3404.947333,1608.800546,9474.636058
849.935282,-3034.844362,3294.210641,10510.924376
849.935611,-2442.679609,3983.696590,10881.027347
849.935940,-1776.494261,3907.087040,10732.986159
849.936270,-1924.535449,3447.429741,9918.759623
849.936599,-1998.556043,1608.800546,9844.739029
849.936929,-1998.556043,0.000000,9178.553681
849.937258,-740.205942,-1378.971896,9104.533087
849.937588,444.123565,-1608.800546,8660.409521
849.937917,1258.350101,-1991.848295,8660.409521
849.938247,2368.659014,-1762.019645,9474.636058
849.938576,2442.679609,0.000000,10066.800811
849.938905,1776.494261,2681.334243,11473.192101
849.939235,370.102971,4060.306139,11991.336260
849.939564,-740.205942,4366.744339,11695.253884
849.939894,-1480.411884,3907.087040,10436.903782
849.940223,-1850.514855,1762.019645,9104.533087
849.940553,-814.226536,-612.876398,7179.997637
849.940882,0.000000,-2221.676944,6069.688724
849.941212,222.061783,-2834.553343,5551.544565
849.941541,-222.061783,-2145.067394,6883.915261
849.941870,-1258.350101,-919.314598,8216.285956
849.942200,-2146.597232,2374.896044,9474.636058
849.942529,-2146.597232,3677.258390,10584.944971
849.942859,-1628.453072,3677.258390,11695.253884
849.943188,-1554.432478,2604.724693,11917.315666
849.943518,-2368.659014,1608.800546,11843.295072
849.943847,-3108.864956,842.705048,10807.006753
849.944177,-3034.844362,-383.047749,10436.903782
849.944506,-1702.473667,-1378.971896,9252.574275
849.944836,222.061783,-1455.581446,8216.285956
849.945165,1924.535449,-2145.067394,7402.059420
849.945494,3997.112087,-995.924147,7476.080014
849.945824,3923.091493,1455.581446,8660.409521
849.946153,2664.741391,3830.477490,10288.862594
849.946483,740.205942,5209.449386,12065.356855
849.946812,-1776.494261,5822.325785,12287.418637
849.947142,-3256.906145,4673.182538,12287.418637
849.947471,-3923.091493,1915.238745,11103.089130
849.947801,-3849.070898,-536.266849,9252.574275
849.948130,-3108.864956,-2681.334243,7624.121203
849.948459,-2886.803174,-3677.258390,6957.935855
849.948789,-2738.761985,-2987.772442,6883.915261
849.949118,-2738.761985,-995.924147,8290.306550
849.949448,-3330.926739,1455.581446,9104.533087
849.949777,-3478.967927,3677.258390,10066.800811
849.950107,-2960.823768,4290.134789,10658.965565
849.950436,-2072.576638,3753.867940,10881.027347
849.950766,-2368.659014,2528.115143,10881.027347
849.951095,-3034.844362,1072.533697,9992.780217
849.951424,-2664.741391,-612.876398,9474.636058
849.951754,-1702.473667,-842.705048,8734.430116
849.952083,0.000000,-1378.971896,8216.285956
849.952413,1480.411884,-1915.238745,7920.203579
849.952742,3256.906145,-842.705048,8364.327145
849.953072,3627.009116,1455.581446,8882.471304
849.953401,3404.947333,3524.039291,10066.800811
849.953731,2368.659014,4673.182538,11103.089130
849.954060,888.247130,5362.668486,11029.068536
849.954389,-888.247130,4903.011187,10955.047942
849.954719,-2072.576638,2374.896044,9918.759623
849.955048,-2072.576638,-306.438199,8734.430116
849.955378,-1554.432478,-2145.067394,7105.977043
849.955707,-1628.453072,-2911.162892,6587.832884
849.956037,-1850.514855,-3370.820191,6735.874072
849.956366,-2072.576638,-1991.848295,8438.347739
849.956696,-2368.659014,536.266849,9326.594869
849.957025,-2442.679609,2604.724693,10658.965565
849.957354,-1850.514855,3064.381992,11843.295072
849.957684,-1258.350101,2911.162892,12435.459826
849.958013,-1850.514855,2604.724693,11843.295072
849.958343,-2368.659014,1685.410096,10955.047942
849.958672,-2072.576638,-229.828649,9844.739029
849.959002,-444.123565,-1149.143247,9030.512492
849.959331,740.205942,-1532.190996,7846.182985
849.959661,2294.638420,-1915.238745,7698.141797
849.959990,3108.864956,-1302.362347,7772.162391
849.960319,3182.885551,842.705048,8882.471304
849.960649,1924.535449,2834.553343,10584.944971
849.960978,-222.061783,4366.744339,11917.315666
849.961308,-1998.556043,5362.668486,12361.439231
849.961637,-3552.988522,4213.525239,11769.274478
849.961967,-4663.297435,1838.629195,10362.883188
849.962296,-4441.235652,-919.314598,8882.471304
849.962626,-3701.029710,-3294.210641,7550.100608
849.962955,-3404.947333,-3600.648841,6587.832884
849.963284,-2960.823768,-2987.772442,7031.956449
849.963614,-2960.823768,-1532.190996,7772.162391
849.963943,-2738.761985,995.924147,8956.491898
849.964273,-2590.720797,2834.553343,9622.677246
849.964602,-2294.638420,3140.991542,10066.800811
849.964932,-1406.391290,4060.306139,10732.986159
849.965261,-1776.494261,2911.162892,10658.965565
849.965591,-2220.617826,1378.971896,10807.006753
849.965920,-2072.576638,-153.219100,10881.027347
849.966249,-1332.370696,-766.095498,10140.821405
849.966579,0.000000,-1608.800546,9474.636058
849.966908,1406.391290,-2221.676944,8808.450710
849.967238,3108.864956,-1455.581446,8660.409521
849.967567,4071.132681,306.438199,9030.512492
849.967897,3627.009116,2834.553343,9770.718434
849.968226,2516.700203,5362.668486,10955.047942
849.968556,888.247130,5515.887586,11325.150913
849.968885,-740.205942,5209.449386,10881.027347
849.969214,-2220.617826,3140.991542,9622.677246
849.969544,-2368.659014,612.876398,8216.285956
849.969873,-2146.597232,-1838.629195,6513.812290
849.970203,-1850.514855,-3064.381992,6587.832884
849.970532,-2442.679609,-3447.429741,7031.956449
849.970862,-3108.864956,-2145.067394,8216.285956
849.971191,-2812.782580,306.438199,9474.636058
849.971521,-2590.720797,2451.505594,10214.842000
849.971850,-1480.411884,3370.820191,11547.212695
849.972179,-444.123565,3140.991542,12065.356855
849.972509,-518.144159,2681.334243,11621.233289
849.972838,-1184.329507,2068.457845,10955.047942
849.973168,-962.267725,306.438199,9548.656652
849.973497,0.000000,-536.266849,9474.636058
849.973827,1110.308913,-766.095498,8142.265362
849.974156,2294.638420,-1302.362347,7031.956449
849.974486,3404.947333,-1455.581446,7105.977043
849.974815,3775.050304,383.047749,7846.182985
849.975144,2368.659014,2298.286494,9326.594869
849.975474,148.041188,4366.744339,11251.130318
849.975803,-2072.576638,5286.058936,12287.418637
849.976133,-3701.029710,4749.792088,11991.336260
849.976462,-5107.421000,2834.553343,11177.109724
849.976792,-5773.606348,0.000000,10214.842000
849.977121,-5107.421000,-2221.676944,8068.244768
849.977451,-4515.256246,-3064.381992,7328.038826
849.977780,-3997.112087,-3753.867940,7254.018232
849.978109,-3330.926739,-2451.505594,7994.224174
849.978439,-2664.741391,-306.438199,8882.471304
849.978768,-2516.700203,2145.067394,9696.697840
849.979098,-1998.556043,3907.087040,10362.883188
849.979427,-1480.411884,4213.525239,10807.006753
849.979757,-1036.288319,4060.306139,10807.006753
849.980086,-1332.370696,2374.896044,10436.903782
849.980416,-1258.350101,306.438199,10288.862594
849.980745,-740.205942,-612.876398,9918.759623
849.981074,0.000000,-1378.971896,9252.574275
849.981404,1110.308913,-1838.629195,8808.450710
849.981733,2516.700203,-1685.410096,8734.430116
849.982063,3330.926739,0.000000,8956.491898
849.982392,3478.967927,1608.800546,9770.718434
849.982722,2368.659014,3140.991542,10807.006753
849.983051,1036.288319,4673.182538,11177.109724
849.983381,-666.185348,4826.401637,11029.068536
849.983710,-2294.638420,4366.744339,10362.883188
849.984039,-2294.638420,1378.971896,8734.430116
849.984369,-2072.576638,-919.314598,7179.997637
849.984698,-1332.370696,-2528.115143,6217.729913
849.985028,-1184.329507,-3294.210641,6291.750507
849.985357,-1258.350101,-2221.676944,7254.018232
849.985687,-1702.473667,-459.657299,8142.265362
849.986016,-1850.514855,1991.848295,9400.615463
849.986346,-1480.411884,3447.429741,11103.089130
849.986675,-1184.329507,3753.867940,11769.274478
849.987004,-1036.288319,3294.210641,12065.356855
849.987334,-1776.494261,2298.286494,11251.130318
849.987663,-1554.432478,919.314598,11325.150913
849.987993,-1332.370696,-766.095498,10140.821405
849.988322,0.000000,-1532.190996,9104.533087
849.988652,1110.308913,-2068.457845,7994.224174
849.988981,2368.659014,-2068.457845,7476.080014
849.989311,3404.947333,0.000000,8216.285956
849.989640,3182.885551,1991.848295,9252.574275
849.989969,1924.535449,3677.258390,10881.027347
849.990299,0.000000,4979.620737,12139.377449
849.990628,-2368.659014,4979.620737,11621.233289
849.990958,-3627.009116,4060.306139,11325.150913
849.991287,-4441.235652,1302.362347,10436.903782
849.991617,-4737.318029,-1072.533697,9326.594869
849.991946,-4367.215058,-3064.381992,7920.203579
849.992276,-3997.112087,-3830.477490,7328.038826
849.992605,-3923.091493,-3600.648841,7846.182985
849.992935,-3478.967927,-1302.362347,8808.450710
849.993264,-3552.988522,1762.019645,9400.615463
849.993593,-3034.844362,3370.820191,10140.821405
849.993923,-2368.659014,3830.477490,10214.842000
849.994252,-1480.411884,3677.258390,9770.718434
849.994582,-1332.370696,2451.505594,9770.718434
849.994911,-1776.494261,1149.143247,9918.759623
849.995241,-1258.350101,-306.438199,9548.656652
849.995570,-592.164754,-919.314598,8956.491898
849.995900,592.164754,-1302.362347,8364.327145
849.996229,2220.617826,-1762.019645,8290.306550
849.996558,3182.885551,-766.095498,8956.491898
849.996888,3034.844362,1608.800546,9770.718434
849.997217,2516.700203,3524.039291,10732.986159
849.997547,962.267725,4596.572988,11473.192101
849.997876,-148.041188,5286.058936,10807.006753
849.998206,-1110.308913,3830.477490,10732.986159
849.998535,-1998.556043,1685.410096,9474.636058
849.998865,-1702.473667,-766.095498,7772.162391
849.999194,-1258.350101,-2374.896044,6439.791695
849.999523,-1332.370696,-3370.820191,6735.874072
849.999853,-1258.350101,-2987.772442,7402.059420
850.000182,-1776.494261,-919.314598,8956.491898
850.000512,-1776.494261,1608.800546,10066.800811
850.000841,-1776.494261,2987.772442,10955.047942
850.001171,-1332.370696,3370.820191,12065.356855
850.001500,-962.267725,3140.991542,11917.315666
850.001830,-1776.494261,2604.724693,11547.212695
850.002159,-1628.453072,1685.410096,10955.047942
850.002488,-1258.350101,0.000000,9622.677246
850.002818,0.000000,-919.314598,8586.388927
850.003147,1258.350101,-1608.800546,7624.121203
850.003477,2442.679609,-2451.505594,7402.059420
850.003806,3182.885551,-306.438199,8216.285956
850.004136,2886.803174,1838.629195,9252.574275
850.004465,1554.432478,3447.429741,10732.986159
850.004795,-370.102971,4903.011187,11991.336260
850.005124,-2368.659014,5439.278036,11991.336260
850.005453,-3997.112087,4213.525239,11251.130318
850.005783,-4589.276840,1455.581446,9844.739029
850.006112,-4219.173869,-689.485948,8364.327145
850.006442,-3849.070898,-2834.553343,7105.977043
850.006771,-3775.050304,-3600.648841,6439.791695
850.007101,-3404.947333,-2911.162892,7402.059420
850.007430,-3552.988522,-306.438199,8512.368333
850.007760,-3775.050304,1838.629195,8956.491898
850.008089,-3182.885551,2834.553343,10066.800811
850.008418,-2442.679609,3753.867940,10584.944971
850.008748,-2294.638420,3447.429741,9992.780217
850.009077,-2072.576638,2451.505594,10140.821405
850.009407,-2368.659014,995.924147,9622.677246
850.009736,-1850.514855,-689.485948,9844.739029
850.010066,-1184.329507,-1915.238745,9844.739029
850.010395,0.000000,-1991.848295,9548.656652
850.010725,962.267725,-1915.238745,9400.615463
850.011054,2072.576638,-1302.362347,9548.656652
850.011383,2516.700203,766.095498,10140.821405
850.011713,2146.597232,2987.772442,11029.068536
850.012042,1480.411884,3983.696590,11325.150913
850.012372,222.061783,4749.792088,11177.109724
850.012701,-666.185348,4519.963438,10362.883188
850.013031,-1480.411884,1915.238745,9326.594869
850.013360,-1110.308913,-459.657299,7994.224174
850.013690,-740.205942,-1608.800546,6143.709319
850.014019,-740.205942,-2757.943793,6661.853478
850.014348,-962.267725,-2604.724693,7772.162391
850.014678,-1628.453072,-766.095498,8734.430116
850.015007,-1924.535449,1532.190996,9696.697840
850.015337,-2072.576638,2451.505594,10881.027347
850.015666,-1850.514855,3294.210641,11695.253884
850.015996,-1628.453072,3140.991542,11917.315666
850.016325,-2220.617826,2451.505594,11325.150913
850.016655,-2442.679609,1378.971896,10436.903782
850.016984,-1628.453072,153.219100,9474.636058
850.017313,0.000000,0.000000,7920.203579
850.017643,1332.370696,-1225.752797,7105.977043
850.017972,2664.741391,-1685.410096,6735.874072
850.018302,3627.009116,-229.828649,7179.997637
850.018631,3775.050304,1685.410096,8438.347739
850.018961,2442.679609,3983.696590,9992.780217
850.019290,148.041188,4290.134789,11547.212695
850.019620,-1924.535449,5515.887586,12213.398043
850.019949,-3182.885551,4596.572988,11917.315666
850.020278,-4071.132681,1838.629195,10955.047942
850.020608,-3701.029710,-995.924147,9548.656652
850.020937,-3701.029710,-2068.457845,7624.121203
850.021267,-3256.906145,-3370.820191,7179.997637
850.021596,-2812.782580,-2834.553343,7920.203579
850.021926,-3256.906145,-995.924147,9104.533087
850.022255,-3627.009116,1915.238745,9622.677246
850.022585,-3627.009116,3600.648841,9622.677246
850.022914,-2516.700203,3830.477490,10436.903782
850.023243,-1850.514855,3447.429741,10584.944971
850.023573,-1924.535449,2451.505594,9844.739029
850.023902,-2072.576638,919.314598,9622.677246
850.024232,-1924.535449,-306.438199,9474.636058
850.024561,-1110.308913,-1072.533697,9474.636058
850.024891,-444.123565,-1532.190996,9622.677246
850.025220,666.185348,-1762.019645,9474.636058
850.025550,1850.514855,-1225.752797,9770.718434
850.025879,2664.741391,842.705048,10436.903782
850.026208,2072.576638,2528.115143,10807.006753
850.026538,1036.288319,3830.477490,11621.233289
850.026867,74.020594,4366.744339,10955.047942
850.027197,-740.205942,3753.867940,10066.800811
850.027526,-1036.288319,1915.238745,8882.471304
850.027856,-518.144159,-689.485948,7179.997637
850.028185,-444.123565,-1685.410096,6143.709319
850.028515,-814.226536,-2451.505594,6069.688724
850.028844,-962.267725,-1915.238745,7105.977043
850.029173,-1332.370696,-306.438199,8586.388927
850.029503,-1998.556043,2145.067394,9548.656652
850.029832,-2220.617826,3524.039291,10140.821405
850.030162,-1850.514855,2987.772442,11251.130318
850.030491,-1184.329507,2374.896044,11843.295072
850.030821,-1850.514855,1915.238745,11621.233289
850.031150,-2442.679609,1915.238745,11103.089130
850.031479,-2146.597232,-306.438199,10140.821405
850.031809,-1628.453072,-766.095498,9622.677246
850.032138,0.000000,-1072.533697,8364.327145
850.032467,1702.473667,-1685.410096,7698.141797
850.032797,3034.844362,-1302.362347,7698.141797
850.033126,3552.988522,1608.800546,8734.430116
850.033455,2516.700203,3524.039291,10066.800811
850.033785,1332.370696,5056.230287,11547.212695
850.034114,-1036.288319,5439.278036,11695.253884
850.034443,-2738.761985,4596.572988,11251.130318
850.034773,-3701.029710,2221.676944,10807.006753
850.035102,-3923.091493,-306.438199,9400.615463
850.035431,-3775.050304,-1991.848295,8216.285956
850.035761,-3256.906145,-3064.381992,7328.038826
850.036090,-3182.885551,-2911.162892,7624.121203
850.036419,-2960.823768,-1302.362347,8512.368333
850.036749,-2960.823768,842.705048,9030.512492
850.037078,-2812.782580,2834.553343,10066.800811
850.037407,-2442.679609,3600.648841,10732.986159
850.037737,-2294.638420,3830.477490,10955.047942
850.038066,-2368.659014,2911.162892,10658.965565
850.038395,-2812.782580,1685.410096,10066.800811
850.038724,-2368.659014,0.000000,9474.636058
850.039054,-1406.391290,-766.095498,8660.409521
850.039383,0.000000,-1378.971896,7846.182985
850.039712,1702.473667,-2068.457845,7698.141797
850.040042,2886.803174,-1225.752797,7846.182985
850.040371,3552.988522,842.705048,8882.471304
850.040700,2886.803174,2987.772442,10214.842000
850.041030,1924.535449,4366.744339,11547.212695
850.041359,296.082377,5056.230287,12139.377449
850.041688,-1480.411884,4826.401637,11399.171507
850.042018,-2294.638420,2911.162892,10288.862594
850.042347,-2516.700203,0.000000,8808.450710
850.042676,-1924.535449,-1991.848295,7624.121203
850.043006,-1628.453072,-3370.820191,6587.832884
850.043335,-1554.432478,-3447.429741,7031.956449
850.043664,-1998.556043,-2374.896044,7476.080014
850.043994,-1702.473667,306.438199,8882.471304
850.044323,-1628.453072,2451.505594,10066.800811
850.044652,-1332.370696,2911.162892,11399.171507
850.044982,-666.185348,2987.772442,11917.315666
850.045311,-1480.411884,2911.162892,11843.295072
850.045640,-1924.535449,1991.848295,10732.986159
850.045970,-1850.514855,229.828649,10658.965565
850.046299,-666.185348,-1072.533697,9770.718434
850.046628,518.144159,-1762.019645,9030.512492
850.046958,1628.453072,-2298.286494,8290.306550
850.047287,2960.823768,-1225.752797,7920.203579
850.047616,2960.823768,459.657299,8734.430116
850.047946,2442.679609,2757.943793,9770.718434
850.048275,888.247130,4366.744339,11103.089130
850.048604,-814.226536,5592.497135,11621.233289
850.048934,-2368.659014,4979.620737,11251.130318
850.049263,-3627.009116,2757.943793,10214.842000
850.049592,-4071.132681,0.000000,9030.512492
850.049922,-3775.050304,-2068.457845,7402.059420
850.050251,-3478.967927,-3217.601092,6735.874072
850.050580,-3552.988522,-2757.943793,6809.894666
850.050910,-3182.885551,-1532.190996,8142.265362
850.051239,-3404.947333,76.609550,9178.553681
850.051568,-3256.906145,2604.724693,10362.883188
850.051898,-2442.679609,3753.867940,11103.089130
850.052227,-2294.638420,3983.696590,11473.192101
850.052556,-2146.597232,2987.772442,10955.047942
850.052886,-2294.638420,2374.896044,10881.027347
850.053215,-2220.617826,459.657299,10436.903782
850.053544,-1406.391290,-229.828649,9474.636058
850.053874,-148.041188,-536.266849,8586.388927
850.054203,962.267725,-1991.848295,7772.162391
850.054532,1998.556043,-1149.143247,7772.162391
850.054862,2590.720797,229.828649,8216.285956
850.055191,2220.617826,2374.896044,9474.636058
850.055520,962.267725,3907.087040,10658.965565
850.055850,-592.164754,4519.963438,10955.047942
850.056179,-1998.556043,3524.039291,11399.171507
850.056508,-2738.761985,2221.676944,11103.089130
850.056838,-3330.926739,153.219100,9918.759623
850.057167,-2664.741391,-1378.971896,8290.306550
850.057496,-1332.370696,-2757.943793,6957.935855
850.057826,-814.226536,-3753.867940,6809.894666
850.058155,-296.082377,-2068.457845,7994.224174
850.058484,-296.082377,383.047749,8660.409521
850.058814,0.000000,3064.381992,9844.739029
850.059143,0.000000,4136.915689,11251.130318
850.059472,0.000000,3907.087040,11103.089130
850.059802,-666.185348,3217.601092,11399.171507
850.060131,-1776.494261,2145.067394,10955.047942
850.060460,-2072.576638,306.438199,10362.883188
850.060790,-1554.432478,-1225.752797,9548.656652
850.061119,-740.205942,-2221.676944,8882.471304
850.061448,0.000000,-2834.553343,8068.244768
850.061778,1184.329507,-2221.676944,7920.203579
850.062107,2072.576638,76.609550,8512.368333
850.062436,1776.494261,2298.286494,9474.636058
850.062766,888.247130,4443.353888,11029.068536
850.063095,-592.164754,5362.668486,11325.150913
850.063424,-1924.535449,4979.620737,11029.068536
850.063754,-2590.720797,3064.381992,10584.944971
850.064083,-3330.926739,536.266849,9696.697840
850.064412,-2960.823768,-919.314598,8438.347739
850.064742,-2886.803174,-2757.943793,7476.080014
850.065071,-2812.782580,-2834.553343,7550.100608
850.065400,-2664.741391,-1608.800546,8512.368333
850.065730,-2590.720797,0.000000,9030.512492
850.066059,-2590.720797,2451.505594,9992.780217
850.066388,-2220.617826,3753.867940,10732.986159
850.066718,-1850.514855,3830.477490,11399.171507
