#time,accel_x,accel_y,accel_z
1029.596801,-1110.308913,842.705048,9474.636058
1029.597130,-1110.308913,995.924147,9622.677246
1029.597460,-962.267725,919.314598,9770.718434
1029.597790,-1184.329507,689.485948,9622.677246
1029.598119,-814.226536,1225.752797,9770.718434
1029.598449,-888.247130,995.924147,9622.677246
1029.598778,-1184.329507,919.314598,9474.636058
1029.599108,-1036.288319,766.095498,9548.656652
1029.599437,-962.267725,842.705048,9548.656652
1029.599767,-814.226536,919.314598,9844.739029
1029.600096,-888.247130,919.314598,9400.615463
1029.600426,-1110.308913,766.095498,9548.656652
1029.600755,-888.247130,842.705048,9474.636058
1029.601085,-962.267725,1149.143247,9770.718434
1029.601415,-1036.288319,1225.752797,9400.615463
1029.601744,-592.164754,459.657299,9622.677246
1029.602074,-962.267725,689.485948,9474.636058
1029.602403,-1184.329507,995.924147,9400.615463
1029.602733,-1110.308913,919.314598,9474.636058
1029.603062,-888.247130,919.314598,9474.636058
1029.603392,-1036.288319,1072.533697,9326.594869
1029.603721,-740.205942,1225.752797,9474.636058
1029.604051,-1036.288319,919.314598,9474.636058
1029.604381,-1036.288319,919.314598,9548.656652
1029.604710,-1036.288319,1149.143247,9474.636058
1029.605040,-1258.350101,1225.752797,9178.553681
1029.605369,-1554.432478,766.095498,9104.533087
1029.605699,-1036.288319,919.314598,9474.636058
1029.606028,-1036.288319,995.924147,9622.677246
1029.606358,-1184.329507,919.314598,9474.636058
1029.606687,-1036.288319,766.095498,9548.656652
1029.607017,-888.247130,766.095498,9548.656652
1029.607346,-1036.288319,1072.533697,9548.656652
1029.607676,-888.247130,842.705048,9696.697840
1029.608006,-962.267725,842.705048,9548.656652
1029.608335,-1110.308913,689.485948,9622.677246
1029.608665,-1184.329507,383.047749,9474.636058
1029.608994,-888.247130,919.314598,9844.739029
1029.609324,-1184.329507,766.095498,9622.677246
1029.609653,-1110.308913,689.485948,9474.636058
1029.609983,-1036.288319,842.705048,9548.656652
1029.610312,-1184.329507,919.314598,9548.656652
1029.610642,-1036.288319,1455.581446,9548.656652
1029.610972,-962.267725,842.705048,9696.697840
1029.611301,-1110.308913,842.705048,9622.677246
1029.611631,-1184.329507,995.924147,9474.636058
1029.611960,-888.247130,919.314598,9548.656652
1029.612290,-814.226536,689.485948,9548.656652
1029.612619,-888.247130,995.924147,9400.615463
1029.612949,-1036.288319,766.095498,9474.636058
1029.613278,-888.247130,919.314598,9474.636058
1029.613608,-962.267725,766.095498,9474.636058
1029.613937,-1036.288319,1225.752797,8808.450710
1029.614267,-1258.350101,995.924147,9252.574275
1029.614597,-1036.288319,919.314598,9474.636058
1029.614926,-1110.308913,919.314598,9474.636058
1029.615256,-1184.329507,995.924147,9474.636058
1029.615585,-1110.308913,1225.752797,9326.594869
1029.615915,-740.205942,995.924147,9474.636058
1029.616244,-962.267725,1072.533697,9326.594869
1029.616574,-592.164754,919.314598,8956.491898
1029.616903,74.020594,766.095498,9104.533087
1029.617233,888.247130,459.657299,9252.574275
1029.617563,1036.288319,995.924147,9178.553681
1029.617892,814.226536,842.705048,9622.677246
1029.618222,74.020594,766.095498,9918.759623
1029.618551,-592.164754,1072.533697,10436.903782
1029.618881,-962.267725,766.095498,10510.924376
1029.619210,-296.082377,459.657299,10288.862594
1029.619540,0.000000,0.000000,9696.697840
1029.619869,370.102971,153.219100,9030.512492
1029.620199,1628.453072,76.609550,9400.615463
1029.620528,2368.659014,383.047749,8808.450710
1029.620858,2812.782580,1072.533697,8882.471304
1029.621188,3775.050304,1532.190996,9030.512492
1029.621517,3478.967927,2068.457845,9474.636058
1029.621847,3330.926739,1685.410096,9844.739029
1029.622176,3034.844362,1149.143247,10140.821405
1029.622506,2072.576638,1072.533697,10214.842000
1029.622835,1924.535449,76.609550,10436.903782
1029.623165,1480.411884,0.000000,10732.986159
1029.623494,1628.453072,0.000000,10510.924376
1029.623824,1850.514855,-306.438199,9844.739029
1029.624154,2516.700203,0.000000,9400.615463
1029.624483,3701.029710,0.000000,9030.512492
1029.624813,4293.194464,1302.362347,8808.450710
1029.625142,4071.132681,2298.286494,9252.574275
1029.625472,3404.947333,3064.381992,9622.677246
1029.625801,2368.659014,3294.210641,10288.862594
1029.626131,740.205942,2834.553343,10214.842000
1029.626460,-962.267725,2298.286494,9992.780217
1029.626790,-2146.597232,1455.581446,8956.491898
1029.627119,-1332.370696,0.000000,8216.285956
1029.627449,296.082377,-1455.581446,7328.038826
1029.627779,2072.576638,-1378.971896,6735.874072
1029.628108,3478.967927,0.000000,6587.832884
1029.628438,3849.070898,459.657299,7476.080014
1029.628767,3552.988522,2374.896044,9178.553681
1029.629097,2442.679609,4596.572988,10955.047942
1029.629426,1258.350101,4443.353888,11843.295072
1029.629756,296.082377,2604.724693,12065.356855
1029.630085,-148.041188,1838.629195,12213.398043
1029.630415,-962.267725,76.609550,11769.274478
1029.630745,-962.267725,-1991.848295,11177.109724
1029.631074,-592.164754,-2374.896044,9992.780217
1029.631404,222.061783,-1685.410096,8734.430116
1029.631733,1480.411884,-1762.019645,8512.368333
1029.632063,2960.823768,-842.705048,7772.162391
1029.632392,4145.153275,612.876398,7550.100608
1029.632722,4515.256246,1991.848295,8068.244768
1029.633051,4219.173869,2987.772442,8882.471304
1029.633381,4145.153275,4060.306139,9844.739029
1029.633710,3108.864956,3370.820191,10288.862594
1029.634040,2072.576638,2451.505594,11029.068536
1029.634370,1036.288319,1685.410096,11325.150913
1029.634699,148.041188,153.219100,10881.027347
1029.635029,-592.164754,-919.314598,10066.800811
1029.635358,-592.164754,-1378.971896,10288.862594
1029.635688,-148.041188,-1378.971896,10066.800811
1029.636017,148.041188,-766.095498,10288.862594
1029.636347,370.102971,0.000000,9696.697840
1029.636676,1554.432478,919.314598,8512.368333
1029.637006,2812.782580,536.266849,8216.285956
1029.637336,3923.091493,919.314598,8216.285956
1029.637665,4737.318029,612.876398,8290.306550
1029.637995,4885.359217,612.876398,7994.224174
1029.638324,4367.215058,1072.533697,8956.491898
1029.638654,3627.009116,1608.800546,9992.780217
1029.638983,2072.576638,2298.286494,10510.924376
1029.639313,1184.329507,2451.505594,10807.006753
1029.639642,1702.473667,1838.629195,10732.986159
1029.639972,1850.514855,1991.848295,10140.821405
1029.640301,1850.514855,1532.190996,8882.471304
1029.640631,2516.700203,536.266849,8068.244768
1029.640961,2664.741391,153.219100,7550.100608
1029.641290,2516.700203,612.876398,8216.285956
1029.641620,1776.494261,1532.190996,9030.512492
1029.641949,1184.329507,536.266849,9474.636058
1029.642279,296.082377,1225.752797,9844.739029
1029.642608,-666.185348,689.485948,10584.944971
1029.642938,-740.205942,306.438199,11473.192101
1029.643267,-740.205942,-306.438199,11917.315666
1029.643597,-1332.370696,-153.219100,11547.212695
1029.643927,-814.226536,76.609550,10658.965565
1029.644256,-148.041188,-306.438199,9326.594869
1029.644586,1850.514855,229.828649,8882.471304
1029.644915,4293.194464,1225.752797,7846.182985
1029.645245,6883.915261,2374.896044,7624.121203
1029.645574,8956.491898,2451.505594,7476.080014
1029.645904,8882.471304,3140.991542,8068.244768
1029.646233,7550.100608,4903.011187,9548.656652
1029.646563,5329.482782,5209.449386,10732.986159
1029.646892,2368.659014,3907.087040,12139.377449
1029.647222,-814.226536,2681.334243,13545.768739
1029.647552,-4441.235652,1149.143247,13619.789333
1029.647881,-7031.956449,-995.924147,12509.480420
1029.648211,-7328.038826,-2298.286494,10658.965565
1029.648540,-6291.750507,-3370.820191,7846.182985
1029.648870,-2516.700203,-3447.429741,4293.194464
1029.649199,3034.844362,-4213.525239,1776.494261
1029.649529,7994.224174,-3217.601092,2072.576638
1029.649858,10066.800811,1072.533697,4367.215058
1029.650188,9030.512492,5439.278036,6957.935855
1029.650518,7698.141797,8656.879127,9622.677246
1029.650847,5403.503377,9729.412825,12287.418637
1029.651177,1850.514855,8656.879127,14804.118840
1029.651506,-1850.514855,4290.134789,16284.530724
1029.651836,-4515.256246,0.000000,16062.468941
1029.652165,-6365.771101,-2298.286494,14211.954086
1029.652495,-5625.565159,-4366.744339,11325.150913
1029.652824,-1628.453072,-6818.249932,9622.677246
1029.653154,2442.679609,-7354.516781,6513.812290
1029.653483,6661.853478,-4290.134789,3182.885551
1029.653813,10881.027347,-2834.553343,2886.803174
1029.654143,12731.542202,766.095498,5921.647536
1029.654472,10288.862594,6741.640382,9104.533087
1029.654802,4737.318029,8656.879127,12583.501014
1029.655131,0.000000,9116.536426,14137.933492
1029.655461,-2368.659014,7584.345430,14508.036463
1029.655790,-1480.411884,2145.067394,13619.789333
1029.656120,-1258.350101,-3600.648841,11177.109724
1029.656449,-1628.453072,-5898.935335,6513.812290
1029.656779,296.082377,-7048.078582,4737.318029
1029.657109,2442.679609,-6435.202183,6069.688724
1029.657438,1998.556043,-1762.019645,8216.285956
1029.657768,1406.391290,2451.505594,9178.553681
1029.658097,888.247130,2911.162892,10066.800811
1029.658427,1850.514855,4596.572988,11843.295072
1029.658756,1702.473667,5286.058936,13693.809927
1029.659086,1258.350101,2834.553343,13693.809927
1029.659415,222.061783,-306.438199,11991.336260
1029.659745,-1406.391290,-1915.238745,10214.842000
1029.660074,-1850.514855,-1608.800546,9326.594869
1029.660404,-1628.453072,-2374.896044,6587.832884
1029.660734,962.267725,-4443.353888,3923.091493
1029.661063,4071.132681,-3907.087040,4219.173869
1029.661393,6735.874072,-306.438199,5995.668130
1029.661722,8438.347739,3140.991542,7402.059420
1029.662052,7254.018232,5745.716235,7846.182985
1029.662381,4293.194464,6435.202183,10288.862594
1029.662711,370.102971,6741.640382,14211.954086
1029.663040,-3775.050304,6894.859482,16580.613101
1029.663370,-6439.791695,5515.887586,16136.489536
1029.663700,-7994.224174,383.047749,14063.912898
1029.664029,-7698.141797,-4903.011187,12287.418637
1029.664359,-6143.709319,-6971.469032,9548.656652
1029.664688,-3775.050304,-6818.249932,6587.832884
1029.665018,-3404.947333,-4903.011187,3923.091493
1029.665348,-2442.679609,-995.924147,4071.132681
1029.665677,-518.144159,1685.410096,5107.421000
1029.666007,2442.679609,2221.676944,7328.038826
1029.666336,3775.050304,4749.792088,8882.471304
1029.666666,4663.297435,8427.050478,8882.471304
1029.666996,4737.318029,8273.831378,9104.533087
1029.667325,5995.668130,3294.210641,10955.047942
1029.667655,4219.173869,995.924147,12583.501014
1029.667985,-370.102971,3907.087040,13249.686362
1029.668314,-3775.050304,5515.887586,14137.933492
1029.668644,-4367.215058,4213.525239,13249.686362
1029.668974,-3478.967927,2298.286494,9844.739029
1029.669303,-1850.514855,-1455.581446,5921.647536
1029.669633,74.020594,-4443.353888,5033.400406
1029.669962,814.226536,-1915.238745,6957.935855
1029.670292,-1702.473667,919.314598,8142.265362
1029.670622,-4367.215058,4136.915689,7698.141797
1029.670951,-3256.906145,2987.772442,7031.956449
1029.671281,74.020594,-306.438199,7105.977043
1029.671611,2664.741391,-459.657299,7254.018232
1029.671940,3404.947333,1072.533697,7698.141797
1029.672270,3627.009116,612.876398,9770.718434
1029.672600,740.205942,1762.019645,10881.027347
1029.672929,-2516.700203,3677.258390,11325.150913
1029.673259,-2812.782580,3294.210641,11843.295072
1029.673589,-1036.288319,306.438199,13101.645173
1029.673918,-1480.411884,766.095498,12879.583391
1029.674248,-1924.535449,1302.362347,10510.924376
1029.674577,-2072.576638,-2528.115143,9474.636058
1029.674907,-2442.679609,-3753.867940,9770.718434
1029.675237,-4367.215058,-919.314598,10288.862594
1029.675566,-4737.318029,153.219100,10436.903782
1029.675896,-2516.700203,-1072.533697,10066.800811
1029.676226,-222.061783,-1608.800546,7624.121203
1029.676555,1850.514855,-689.485948,5551.544565
1029.676885,4367.215058,-919.314598,6291.750507
1029.677215,5107.421000,-612.876398,10214.842000
1029.677544,2664.741391,2374.896044,12805.562797
1029.677874,-2812.782580,5439.278036,13397.727550
1029.678203,-5477.523971,6128.763984,13101.645173
1029.678533,-4811.338623,2298.286494,13471.748144
1029.678863,-3182.885551,-1455.581446,13027.624579
1029.679192,-2886.803174,-1915.238745,11621.233289
1029.679522,-4145.153275,-2681.334243,9400.615463
1029.679852,-4737.318029,-2987.772442,7698.141797
1029.680181,-5921.647536,-2068.457845,7105.977043
1029.680511,-4811.338623,383.047749,6587.832884
1029.680841,-814.226536,995.924147,6217.729913
1029.681170,2664.741391,383.047749,5181.441594
1029.681500,4441.235652,2374.896044,4663.297435
1029.681829,5403.503377,2834.553343,6661.853478
1029.682159,4441.235652,1762.019645,10658.965565
1029.682489,518.144159,4903.011187,13841.851115
1029.682818,-4441.235652,9039.926876,13767.830521
1029.683148,-4071.132681,7048.078582,13249.686362
1029.683478,-2220.617826,1455.581446,11029.068536
1029.683807,-740.205942,-1915.238745,8216.285956
1029.684137,444.123565,-3753.867940,6587.832884
1029.684467,666.185348,-3140.991542,7550.100608
1029.684796,-1924.535449,0.000000,8660.409521
1029.685126,-4441.235652,3217.601092,7920.203579
1029.685455,-3108.864956,3753.867940,7105.977043
1029.685785,1036.288319,766.095498,6883.915261
1029.686115,4737.318029,0.000000,6735.874072
1029.686444,5255.462188,2374.896044,8364.327145
1029.686774,4071.132681,4290.134789,9474.636058
1029.687104,1924.535449,2987.772442,11251.130318
1029.687433,-1850.514855,3370.820191,13027.624579
1029.687763,-3108.864956,4903.011187,14285.974681
1029.688093,-2590.720797,2757.943793,13471.748144
1029.688422,-1554.432478,-612.876398,11325.150913
1029.688752,-888.247130,-2145.067394,9178.553681
1029.689082,-962.267725,-2911.162892,8364.327145
1029.689411,-1406.391290,-2374.896044,9030.512492
1029.689741,-2960.823768,-1149.143247,8956.491898
1029.690070,-3849.070898,2681.334243,7846.182985
1029.690400,-1776.494261,1608.800546,7624.121203
1029.690730,1332.370696,-2145.067394,8290.306550
1029.691059,2368.659014,-229.828649,8068.244768
1029.691389,1480.411884,1838.629195,7254.018232
1029.691719,1776.494261,1455.581446,10214.842000
1029.692048,0.000000,2757.943793,12953.603985
1029.692378,-2664.741391,4826.401637,12583.501014
1029.692708,-3775.050304,2604.724693,11029.068536
1029.693037,-3034.844362,0.000000,10955.047942
1029.693367,-3478.967927,-612.876398,10436.903782
1029.693696,-4367.215058,-1762.019645,9918.759623
1029.694026,-4589.276840,-3524.039291,9770.718434
1029.694356,-5995.668130,-2987.772442,9104.533087
1029.694685,-5995.668130,-1225.752797,8364.327145
1029.695015,-4737.318029,-1149.143247,7550.100608
1029.695345,0.000000,-919.314598,6513.812290
1029.695674,3478.967927,-1685.410096,5329.482782
1029.696004,5181.441594,-2221.676944,6957.935855
1029.696334,4811.338623,1608.800546,9992.780217
1029.696663,3627.009116,5286.058936,12509.480420
1029.696993,0.000000,5669.106685,14211.954086
1029.697322,-3182.885551,6971.469032,13619.789333
1029.697652,-2590.720797,5056.230287,12287.418637
1029.697982,444.123565,-766.095498,9918.759623
1029.698311,1924.535449,-4290.134789,7994.224174
1029.698641,296.082377,-2451.505594,7254.018232
1029.698971,-1480.411884,-1532.190996,7920.203579
1029.699300,-3404.947333,-1608.800546,8586.388927
1029.699630,-5033.400406,1455.581446,8438.347739
1029.699960,-3478.967927,2681.334243,8364.327145
1029.700289,444.123565,1072.533697,8956.491898
1029.700619,2738.761985,919.314598,8808.450710
1029.700948,3330.926739,1762.019645,7772.162391
1029.701278,2294.638420,2374.896044,7476.080014
1029.701608,1036.288319,2911.162892,9548.656652
1029.701937,-962.267725,3600.648841,12879.583391
1029.702267,-2738.761985,5362.668486,13989.892304
1029.702597,-3627.009116,4366.744339,12731.542202
1029.702926,-2294.638420,1072.533697,9696.697840
1029.703256,-444.123565,-2604.724693,7550.100608
1029.703586,222.061783,-2987.772442,7846.182985
1029.703915,-740.205942,-1225.752797,9474.636058
1029.704245,-2886.803174,766.095498,9622.677246
1029.704575,-4293.194464,3064.381992,7772.162391
1029.704904,-2220.617826,2451.505594,6957.935855
1029.705234,1850.514855,-1225.752797,7698.141797
1029.705563,4737.318029,-1838.629195,9030.512492
1029.705893,3923.091493,1378.971896,9326.594869
1029.706223,1924.535449,3600.648841,9918.759623
1029.706552,-962.267725,4060.306139,10955.047942
1029.706882,-3478.967927,4519.963438,12953.603985
1029.707212,-3627.009116,4596.572988,13693.809927
1029.707541,-3627.009116,3677.258390,12805.562797
1029.707871,-3330.926739,536.266849,9252.574275
1029.708201,-2960.823768,-3217.601092,7698.141797
1029.708530,-3404.947333,-3830.477490,8216.285956
1029.708860,-5329.482782,-2681.334243,9770.718434
1029.709189,-6809.894666,0.000000,10214.842000
1029.709519,-6513.812290,1838.629195,8438.347739
1029.709849,-3034.844362,1149.143247,6957.935855
1029.710178,1406.391290,-1838.629195,6291.750507
1029.710508,4811.338623,-2068.457845,7179.997637
1029.710838,5699.585753,842.705048,8290.306550
1029.711167,3478.967927,3294.210641,10955.047942
1029.711497,-296.082377,4749.792088,12879.583391
1029.711827,-2960.823768,5975.544884,13841.851115
1029.712156,-2294.638420,4290.134789,13027.624579
1029.712486,-148.041188,1838.629195,10955.047942
1029.712815,1258.350101,-229.828649,8512.368333
1029.713145,1184.329507,-1991.848295,6143.709319
1029.713475,-518.144159,-3677.258390,6365.771101
1029.713804,-2960.823768,-2451.505594,7846.182985
1029.714134,-5107.421000,1378.971896,9252.574275
1029.714464,-5033.400406,3830.477490,9844.739029
1029.714793,-2664.741391,2604.724693,9400.615463
1029.715123,296.082377,459.657299,7105.977043
1029.715453,2368.659014,-1302.362347,6365.771101
1029.715782,3552.988522,-842.705048,7698.141797
1029.716112,1628.453072,2298.286494,10510.924376
1029.716441,-2368.659014,4673.182538,12139.377449
1029.716771,-4885.359217,4519.963438,12583.501014
1029.717101,-4071.132681,2681.334243,12509.480420
1029.717430,-2368.659014,612.876398,11399.171507
1029.717760,-666.185348,-1378.971896,9252.574275
1029.718090,0.000000,-2451.505594,7920.203579
1029.718419,-370.102971,-2528.115143,8364.327145
1029.718749,-2146.597232,-1608.800546,9474.636058
1029.719079,-3923.091493,689.485948,9770.718434
1029.719408,-2516.700203,1838.629195,8734.430116
1029.719738,592.164754,766.095498,8660.409521
1029.720068,3849.070898,153.219100,8438.347739
1029.720397,5107.421000,-383.047749,8142.265362
1029.720727,4367.215058,153.219100,9252.574275
1029.721056,0.000000,2911.162892,10362.883188
1029.721386,-4589.276840,4979.620737,12139.377449
1029.721716,-6217.729913,4979.620737,13545.768739
1029.722045,-4811.338623,2221.676944,14063.912898
1029.722375,-3997.112087,-689.485948,11621.233289
1029.722705,-3330.926739,-2528.115143,8512.368333
1029.723034,-2146.597232,-3600.648841,6809.894666
1029.723364,-1924.535449,-3983.696590,7179.997637
1029.723694,-3478.967927,-1915.238745,7698.141797
1029.724023,-4071.132681,1302.362347,8068.244768
1029.724353,-1924.535449,3677.258390,8142.265362
1029.724682,1924.535449,3064.381992,7328.038826
1029.725012,4589.276840,689.485948,7179.997637
1029.725342,5477.523971,766.095498,7920.203579
1029.725671,4071.132681,1685.410096,10066.800811
1029.726001,222.061783,3064.381992,12879.583391
1029.726331,-3701.029710,6741.640382,13323.706956
1029.726660,-4441.235652,6435.202183,12065.356855
1029.726990,-2146.597232,995.924147,10732.986159
1029.727320,370.102971,-2298.286494,9252.574275
1029.727649,666.185348,-1685.410096,7105.977043
1029.727979,370.102971,-689.485948,6439.791695
1029.728308,-1850.514855,-689.485948,7105.977043
1029.728638,-4737.318029,1378.971896,9030.512492
1029.728968,-4811.338623,3217.601092,9696.697840
1029.729297,-1850.514855,1455.581446,9548.656652
1029.729627,740.205942,766.095498,8068.244768
1029.729957,2368.659014,1455.581446,7031.956449
1029.730286,2812.782580,536.266849,7920.203579
1029.730616,1998.556043,842.705048,10288.862594
1029.730946,-740.205942,3677.258390,12805.562797
1029.731275,-3849.070898,6205.373534,12805.562797
1029.731605,-4737.318029,5669.106685,11769.274478
1029.731934,-2442.679609,1838.629195,11621.233289
1029.732264,-888.247130,-766.095498,10288.862594
1029.732594,-666.185348,-1225.752797,8660.409521
1029.732923,-1776.494261,-1455.581446,7402.059420
1029.733253,-3849.070898,-1991.848295,7920.203579
1029.733583,-4885.359217,-919.314598,8586.388927
1029.733912,-4219.173869,459.657299,9178.553681
1029.734242,-1258.350101,-459.657299,9326.594869
1029.734572,1628.453072,-995.924147,8364.327145
1029.734901,2886.803174,-229.828649,7105.977043
1029.735231,2960.823768,459.657299,9104.533087
1029.735561,2072.576638,1762.019645,12065.356855
1029.735890,-1776.494261,4290.134789,13101.645173
1029.736220,-4589.276840,6358.592633,13101.645173
1029.736549,-4219.173869,4596.572988,12213.398043
1029.736879,-2442.679609,306.438199,10881.027347
1029.737209,-1184.329507,-2681.334243,9104.533087
1029.737538,-1702.473667,-3217.601092,8142.265362
1029.737868,-3182.885551,-3140.991542,8290.306550
1029.738198,-5107.421000,-1225.752797,9030.512492
1029.738527,-6291.750507,1149.143247,8364.327145
1029.738857,-4071.132681,1225.752797,8216.285956
1029.739187,-444.123565,-689.485948,7031.956449
1029.739516,2960.823768,-1302.362347,7105.977043
1029.739846,3997.112087,536.266849,8512.368333
1029.740175,2812.782580,1762.019645,10362.883188
1029.740505,0.000000,2604.724693,11695.253884
1029.740835,-2738.761985,4519.963438,12805.562797
1029.741164,-3182.885551,5362.668486,13027.624579
1029.741494,-1258.350101,2987.772442,11991.336260
1029.741824,296.082377,-536.266849,9696.697840
1029.742153,518.144159,-1608.800546,6661.853478
1029.742483,-444.123565,-1762.019645,7105.977043
1029.742813,-1924.535449,153.219100,9030.512492
1029.743142,-3923.091493,1608.800546,9770.718434
1029.743472,-4663.297435,3064.381992,9178.553681
1029.743801,-2368.659014,1915.238745,8068.244768
1029.744131,1184.329507,0.000000,7105.977043
1029.744461,3478.967927,0.000000,6217.729913
1029.744790,4293.194464,1149.143247,6735.874072
1029.745120,3034.844362,1991.848295,9400.615463
1029.745450,-222.061783,4136.915689,11177.109724
1029.745779,-3997.112087,6128.763984,12287.418637
1029.746109,-4293.194464,5515.887586,12287.418637
1029.746439,-2442.679609,2604.724693,11769.274478
1029.746768,-1184.329507,0.000000,10140.821405
1029.747098,-962.267725,-1532.190996,8290.306550
1029.747427,-1702.473667,-2604.724693,8216.285956
1029.747757,-3775.050304,-1378.971896,9104.533087
1029.748087,-5699.585753,1072.533697,9400.615463
1029.748416,-5181.441594,1762.019645,9178.553681
1029.748746,-1850.514855,229.828649,8586.388927
1029.749076,1480.411884,-766.095498,7772.162391
1029.749405,2442.679609,-842.705048,6143.709319
1029.749735,2294.638420,229.828649,7179.997637
1029.750065,1036.288319,1302.362347,10658.965565
1029.750394,-1850.514855,3370.820191,13249.686362
1029.750724,-4737.318029,5362.668486,13989.892304
1029.751054,-4515.256246,3294.210641,12435.459826
1029.751383,-1998.556043,-153.219100,11399.171507
1029.751713,148.041188,-3294.210641,9548.656652
1029.752042,444.123565,-3294.210641,8882.471304
1029.752372,-666.185348,-2451.505594,9622.677246
1029.752702,-2886.803174,-1072.533697,9992.780217
1029.753031,-5033.400406,1838.629195,10288.862594
1029.753361,-3552.988522,1915.238745,9326.594869
1029.753691,74.020594,-383.047749,8142.265362
1029.754020,3034.844362,-1762.019645,7105.977043
1029.754350,4441.235652,-1149.143247,6661.853478
1029.754680,3552.988522,-306.438199,8808.450710
1029.755009,1036.288319,536.266849,11029.068536
1029.755339,-2738.761985,3983.696590,12509.480420
1029.755668,-4293.194464,5362.668486,12435.459826
1029.755998,-2664.741391,3677.258390,11399.171507
1029.756328,-888.247130,0.000000,9844.739029
1029.756657,74.020594,-1915.238745,8216.285956
1029.756987,0.000000,-1838.629195,7179.997637
1029.757317,-1406.391290,-1685.410096,8512.368333
1029.757646,-3256.906145,76.609550,9474.636058
1029.757976,-4663.297435,2451.505594,9104.533087
1029.758306,-2442.679609,2221.676944,8290.306550
1029.758635,1554.432478,-306.438199,7402.059420
1029.758965,4885.359217,0.000000,6883.915261
1029.759294,5255.462188,1838.629195,7105.977043
1029.759624,4219.173869,2911.162892,9252.574275
1029.759954,1110.308913,4213.525239,10881.027347
1029.760283,-2812.782580,6435.202183,11843.295072
1029.760613,-3775.050304,5898.935335,11991.336260
1029.760943,-2812.782580,2757.943793,11843.295072
1029.761272,-2072.576638,689.485948,10955.047942
1029.761602,-2738.761985,-995.924147,8290.306550
1029.761932,-3330.926739,-2757.943793,7179.997637
1029.762261,-4145.153275,-2528.115143,8660.409521
1029.762591,-5477.523971,-383.047749,9918.759623
1029.762920,-6069.688724,2451.505594,9622.677246
1029.763250,-3701.029710,1608.800546,8586.388927
1029.763580,296.082377,153.219100,7920.203579
1029.763909,2738.761985,689.485948,7402.059420
1029.764239,3034.844362,1302.362347,7846.182985
1029.764569,1480.411884,1991.848295,10066.800811
1029.764898,-1036.288319,3753.867940,11991.336260
1029.765228,-3701.029710,5822.325785,12731.542202
1029.765558,-4293.194464,4673.182538,12213.398043
1029.765887,-2664.741391,919.314598,10732.986159
1029.766217,-888.247130,-2221.676944,9696.697840
1029.766547,-222.061783,-2681.334243,9178.553681
1029.766876,-1702.473667,-2374.896044,9104.533087
1029.767205,-3552.988522,-689.485948,9474.636058
1029.767535,-4737.318029,306.438199,9104.533087
1029.767864,-3923.091493,1455.581446,9326.594869
1029.768194,-518.144159,612.876398,8586.388927
1029.768523,2220.617826,-612.876398,7698.141797
1029.768852,3923.091493,-995.924147,6957.935855
1029.769182,3182.885551,383.047749,8734.430116
1029.769511,666.185348,1225.752797,10955.047942
1029.769841,-2294.638420,3217.601092,12583.501014
1029.770170,-3849.070898,5898.935335,12509.480420
1029.770500,-2886.803174,3370.820191,11991.336260
1029.770829,-1850.514855,459.657299,11399.171507
1029.771158,-740.205942,-1072.533697,9178.553681
1029.771488,-592.164754,-1149.143247,7698.141797
1029.771817,-1110.308913,-2374.896044,7476.080014
1029.772147,-3034.844362,-1915.238745,9178.553681
1029.772476,-3997.112087,1608.800546,8808.450710
1029.772805,-2220.617826,1838.629195,7105.977043
1029.773135,2220.617826,-842.705048,6513.812290
1029.773464,5181.441594,0.000000,6883.915261
1029.773794,5847.626942,1762.019645,6957.935855
1029.774123,5033.400406,1455.581446,8290.306550
1029.774453,2368.659014,2604.724693,11251.130318
1029.774782,-888.247130,6818.249932,12879.583391
1029.775111,-3108.864956,6665.030833,13397.727550
1029.775441,-2442.679609,3064.381992,13027.624579
1029.775770,-2368.659014,1072.533697,10510.924376
1029.776100,-1406.391290,-1532.190996,9030.512492
1029.776429,-1036.288319,-3600.648841,9400.615463
1029.776758,-3034.844362,-2374.896044,10140.821405
1029.777088,-5773.606348,766.095498,8734.430116
1029.777417,-5773.606348,2145.067394,6587.832884
1029.777747,-2738.761985,536.266849,5921.647536
1029.778076,1406.391290,-766.095498,7476.080014
1029.778406,1998.556043,76.609550,8364.327145
1029.778735,740.205942,2145.067394,9030.512492
1029.779064,-1110.308913,3907.087040,10214.842000
1029.779394,-2442.679609,3677.258390,12583.501014
1029.779723,-4737.318029,4213.525239,13397.727550
1029.780053,-4589.276840,2681.334243,12287.418637
1029.780382,-2738.761985,-383.047749,10807.006753
1029.780712,-962.267725,-995.924147,9400.615463
1029.781041,-666.185348,-536.266849,9252.574275
1029.781370,-1110.308913,-1608.800546,9400.615463
1029.781700,-2738.761985,-1378.971896,9326.594869
1029.782029,-4071.132681,689.485948,9326.594869
1029.782359,-2812.782580,2451.505594,9104.533087
1029.782688,0.000000,1149.143247,7402.059420
1029.783017,1924.535449,-1072.533697,6513.812290
1029.783347,3034.844362,-1072.533697,6883.915261
1029.783676,3330.926739,842.705048,8882.471304
1029.784006,1628.453072,1762.019645,11695.253884
1029.784335,-1924.535449,3140.991542,12953.603985
1029.784665,-5403.503377,5592.497135,12657.521608
1029.784994,-5181.441594,4136.915689,12213.398043
1029.785323,-2516.700203,229.828649,11695.253884
1029.785653,-370.102971,-1225.752797,9178.553681
1029.785982,-888.247130,-2145.067394,6661.853478
1029.786312,-1924.535449,-3600.648841,6883.915261
1029.786641,-3627.009116,-2298.286494,8808.450710
1029.786970,-4071.132681,766.095498,9474.636058
1029.787300,-2442.679609,1685.410096,8808.450710
1029.787629,1258.350101,0.000000,7105.977043
1029.787959,4441.235652,306.438199,6587.832884
1029.788288,6957.935855,766.095498,7105.977043
1029.788618,6809.894666,2068.457845,8438.347739
1029.788947,3849.070898,3907.087040,10658.965565
1029.789276,0.000000,5898.935335,12287.418637
1029.789606,-2960.823768,6741.640382,12731.542202
1029.789935,-1702.473667,3907.087040,12287.418637
1029.790265,74.020594,-766.095498,10288.862594
1029.790594,740.205942,-2834.553343,7994.224174
1029.790923,74.020594,-3217.601092,7698.141797
1029.791253,-1924.535449,-2374.896044,9474.636058
1029.791582,-4071.132681,153.219100,9992.780217
1029.791912,-5625.565159,3447.429741,8956.491898
1029.792241,-3330.926739,2451.505594,7772.162391
1029.792571,592.164754,-612.876398,7179.997637
1029.792900,2812.782580,-383.047749,7402.059420
1029.793229,3034.844362,919.314598,8142.265362
1029.793559,888.247130,2221.676944,9918.759623
1029.793888,-2516.700203,3217.601092,11473.192101
1029.794218,-5033.400406,4290.134789,12509.480420
1029.794547,-5107.421000,2987.772442,12509.480420
1029.794877,-3552.988522,689.485948,11695.253884
1029.795206,-2590.720797,-1302.362347,9770.718434
1029.795535,-1332.370696,-2298.286494,8142.265362
1029.795865,-1850.514855,-2987.772442,7624.121203
1029.796194,-2738.761985,-2451.505594,9474.636058
1029.796524,-4367.215058,-306.438199,10214.842000
1029.796853,-4145.153275,3294.210641,9696.697840
1029.797182,-1480.411884,1991.848295,8882.471304
1029.797512,1924.535449,-689.485948,7624.121203
1029.797841,4219.173869,-766.095498,6957.935855
1029.798171,4367.215058,229.828649,8068.244768
1029.798500,3627.009116,2068.457845,10807.006753
1029.798830,-592.164754,4366.744339,12361.439231
1029.799159,-4663.297435,5822.325785,12805.562797
1029.799488,-4737.318029,3907.087040,13915.871710
1029.799818,-4367.215058,1302.362347,13545.768739
1029.800147,-3923.091493,1225.752797,11251.130318
1029.800477,-3330.926739,-1072.533697,7772.162391
1029.800806,-2738.761985,-3983.696590,6217.729913
1029.801135,-3182.885551,-4443.353888,6883.915261
1029.801465,-3997.112087,-1991.848295,7476.080014
1029.801794,-2886.803174,1762.019645,8290.306550
1029.802124,0.000000,2451.505594,7254.018232
1029.802453,3182.885551,1302.362347,6291.750507
1029.802783,5847.626942,919.314598,6069.688724
1029.803112,7179.997637,1455.581446,7772.162391
1029.803441,5625.565159,2757.943793,11103.089130
1029.803771,1258.350101,6435.202183,13323.706956
1029.804100,-3034.844362,8656.879127,13175.665768
1029.804430,-3108.864956,4443.353888,12435.459826
1029.804759,-370.102971,-153.219100,11621.233289
1029.805088,1258.350101,-1685.410096,10288.862594
1029.805418,814.226536,-1532.190996,8734.430116
1029.805747,-1480.411884,-1072.533697,6143.709319
1029.806077,-3849.070898,-306.438199,5403.503377
1029.806406,-4515.256246,1225.752797,6069.688724
1029.806736,-2220.617826,1532.190996,8068.244768
1029.807065,592.164754,459.657299,8808.450710
1029.807394,1702.473667,1685.410096,8586.388927
1029.807724,1628.453072,2298.286494,8068.244768
1029.808053,1702.473667,1225.752797,9178.553681
1029.808383,518.144159,306.438199,12139.377449
1029.808712,-2368.659014,2528.115143,14508.036463
1029.809042,-4515.256246,5439.278036,14582.057057
1029.809371,-4145.153275,2757.943793,13323.706956
1029.809700,-2146.597232,-919.314598,11399.171507
1029.810030,-1036.288319,-2681.334243,9030.512492
1029.810359,-592.164754,-3983.696590,8216.285956
1029.810689,-1036.288319,-3140.991542,8364.327145
1029.811018,-2738.761985,0.000000,7328.038826
1029.811347,-3404.947333,1685.410096,6809.894666
1029.811677,-1258.350101,-689.485948,8216.285956
1029.812006,1480.411884,-1149.143247,9326.594869
1029.812336,2368.659014,1225.752797,8512.368333
1029.812665,2368.659014,2451.505594,9474.636058
1029.812995,518.144159,2298.286494,10584.944971
1029.813324,-2146.597232,2911.162892,12213.398043
1029.813653,-4071.132681,3140.991542,12583.501014
1029.813983,-3997.112087,2528.115143,12065.356855
1029.814312,-3108.864956,1225.752797,11029.068536
1029.814642,-2812.782580,-1225.752797,9252.574275
1029.814971,-2738.761985,-2987.772442,8512.368333
1029.815300,-3034.844362,-2681.334243,8068.244768
1029.815630,-3108.864956,-1838.629195,7698.141797
1029.815959,-3627.009116,-536.266849,7328.038826
1029.816289,-3256.906145,383.047749,7920.203579
1029.816618,-962.267725,76.609550,8956.491898
1029.816948,1480.411884,-383.047749,8734.430116
1029.817277,3404.947333,1455.581446,8068.244768
1029.817606,4737.318029,2145.067394,8290.306550
1029.817936,4071.132681,1225.752797,10362.883188
1029.818265,1184.329507,2681.334243,13101.645173
1029.818595,-1776.494261,5515.887586,13101.645173
1029.818924,-1406.391290,4673.182538,11843.295072
1029.819253,0.000000,2221.676944,10066.800811
1029.819583,888.247130,0.000000,8068.244768
1029.819912,1554.432478,-1991.848295,7994.224174
1029.820242,666.185348,-1608.800546,7846.182985
1029.820571,-1184.329507,842.705048,7698.141797
1029.820901,-2294.638420,3140.991542,6809.894666
1029.821230,-740.205942,2911.162892,6143.709319
1029.821559,888.247130,536.266849,7179.997637
1029.821889,2516.700203,536.266849,8586.388927
1029.822218,2294.638420,3064.381992,8734.430116
1029.822548,1554.432478,3600.648841,9770.718434
1029.822877,-1110.308913,2374.896044,12435.459826
1029.823207,-4515.256246,2987.772442,14211.954086
1029.823536,-5995.668130,3830.477490,13989.892304
1029.823865,-4811.338623,1378.971896,11843.295072
1029.824195,-2664.741391,-689.485948,9474.636058
1029.824524,-1776.494261,-2298.286494,7476.080014
1029.824854,-1036.288319,-3294.210641,7476.080014
1029.825183,-1332.370696,-2834.553343,7624.121203
1029.825512,-2960.823768,1149.143247,7846.182985
1029.825842,-2664.741391,3447.429741,7846.182985
1029.826171,-962.267725,1838.629195,8956.491898
1029.826501,1110.308913,0.000000,8808.450710
1029.826830,1554.432478,229.828649,8438.347739
1029.827160,2146.597232,842.705048,9400.615463
1029.827489,1776.494261,2374.896044,11621.233289
1029.827818,-1480.411884,2834.553343,13471.748144
1029.828148,-4589.276840,3064.381992,13397.727550
1029.828477,-5329.482782,2987.772442,13101.645173
1029.828807,-3775.050304,1302.362347,12213.398043
1029.829136,-2886.803174,-383.047749,10214.842000
1029.829465,-2516.700203,-2221.676944,7698.141797
1029.829795,-1998.556043,-3677.258390,7105.977043
1029.830124,-2812.782580,-4903.011187,8142.265362
1029.830454,-4441.235652,-1685.410096,9474.636058
1029.830783,-4885.359217,2757.943793,9030.512492
1029.831113,-2220.617826,766.095498,7328.038826
1029.831442,1554.432478,-1915.238745,6735.874072
1029.831771,4663.297435,-766.095498,6957.935855
1029.832101,5403.503377,995.924147,7994.224174
1029.832430,3997.112087,1455.581446,10066.800811
1029.832760,592.164754,3907.087040,12879.583391
1029.833089,-2072.576638,6511.811733,13989.892304
1029.833418,-1924.535449,5362.668486,13323.706956
1029.833748,-1184.329507,2834.553343,10288.862594
1029.834077,-814.226536,0.000000,7328.038826
1029.834407,-222.061783,-2451.505594,6291.750507
1029.834736,0.000000,-3447.429741,7550.100608
1029.835066,-2294.638420,-2374.896044,8512.368333
1029.835395,-4663.297435,1302.362347,8364.327145
1029.835724,-4145.153275,3524.039291,7179.997637
1029.836054,0.000000,689.485948,7031.956449
1029.836383,3775.050304,-995.924147,6439.791695
1029.836713,4811.338623,459.657299,6439.791695
1029.837042,4515.256246,2298.286494,9992.780217
1029.837372,1776.494261,2987.772442,13989.892304
1029.837701,-2516.700203,5822.325785,15248.242405
1029.838030,-4737.318029,6511.811733,13397.727550
1029.838360,-2738.761985,2528.115143,11843.295072
1029.838689,-148.041188,-766.095498,10584.944971
1029.839019,222.061783,-1455.581446,9178.553681
1029.839348,-518.144159,-2604.724693,8512.368333
1029.839677,-2294.638420,-2068.457845,7846.182985
1029.840007,-4737.318029,383.047749,8216.285956
1029.840336,-5181.441594,2911.162892,7846.182985
1029.840666,-2516.700203,2451.505594,7846.182985
1029.840995,-148.041188,-306.438199,7920.203579
1029.841325,1110.308913,229.828649,8216.285956
1029.841654,1036.288319,919.314598,8290.306550
1029.841983,962.267725,1149.143247,10584.944971
1029.842313,-1258.350101,2221.676944,12731.542202
1029.842642,-4737.318029,3677.258390,13249.686362
1029.842972,-4885.359217,3294.210641,12139.377449
1029.843301,-2886.803174,842.705048,10584.944971
1029.843630,-592.164754,-1762.019645,10214.842000
1029.843960,592.164754,-3677.258390,10584.944971
1029.844289,-962.267725,-3830.477490,11251.130318
1029.844619,-3849.070898,-1072.533697,9770.718434
1029.844948,-4959.379811,153.219100,8364.327145
1029.845278,-2738.761985,1455.581446,7105.977043
1029.845607,1184.329507,1225.752797,6809.894666
1029.845936,4515.256246,-2451.505594,6365.771101
1029.846266,5181.441594,-1532.190996,6513.812290
1029.846595,3849.070898,2145.067394,7624.121203
1029.846925,1258.350101,3370.820191,10066.800811
1029.847254,-1850.514855,3677.258390,13027.624579
1029.847583,-4737.318029,4826.401637,14285.974681
1029.847913,-4885.359217,4519.963438,13175.665768
1029.848242,-3034.844362,-153.219100,10807.006753
1029.848572,-1776.494261,-2528.115143,9178.553681
1029.848901,-1110.308913,-2451.505594,8142.265362
1029.849231,-1702.473667,-3907.087040,7772.162391
1029.849560,-2516.700203,-1762.019645,7624.121203
1029.849889,-3108.864956,1915.238745,6735.874072
1029.850219,-1258.350101,3830.477490,5847.626942
1029.850548,2664.741391,1455.581446,6439.791695
1029.850878,5625.565159,536.266849,7772.162391
1029.851207,6365.771101,3370.820191,8068.244768
1029.851537,4811.338623,3907.087040,8734.430116
1029.851866,1850.514855,3524.039291,11399.171507
1029.852195,-2368.659014,4060.306139,14878.139434
1029.852525,-5625.565159,5056.230287,15692.365970
1029.852854,-4811.338623,2911.162892,14137.933492
1029.853184,-3034.844362,153.219100,11103.089130
1029.853513,-2220.617826,-995.924147,8364.327145
1029.853842,-2294.638420,-2681.334243,7254.018232
1029.854172,-3330.926739,-3294.210641,6883.915261
1029.854501,-4589.276840,229.828649,7105.977043
1029.854831,-4959.379811,3217.601092,5995.668130
1029.855160,-3034.844362,2757.943793,7105.977043
1029.855490,-148.041188,-306.438199,8068.244768
1029.855819,1036.288319,383.047749,7698.141797
1029.856148,1924.535449,2145.067394,7105.977043
1029.856478,1850.514855,2068.457845,10066.800811
1029.856807,-740.205942,3907.087040,13693.809927
1029.857137,-5033.400406,5362.668486,15174.221811
1029.857466,-5773.606348,4136.915689,13693.809927
1029.857795,-2960.823768,1302.362347,11769.274478
1029.858125,-592.164754,-1838.629195,11325.150913
1029.858454,222.061783,-3217.601092,11177.109724
1029.858784,-1332.370696,-2681.334243,9622.677246
1029.859113,-2886.803174,-1915.238745,8364.327145
1029.859443,-2960.823768,-689.485948,7476.080014
1029.859772,-1258.350101,1225.752797,6883.915261
1029.860101,1332.370696,536.266849,6291.750507
1029.860431,3552.988522,-2451.505594,7031.956449
1029.860760,4441.235652,76.609550,7994.224174
1029.861090,3997.112087,2911.162892,9252.574275
1029.861419,2368.659014,1532.190996,12287.418637
1029.861748,-1998.556043,3370.820191,14508.036463
1029.862078,-6291.750507,6588.421283,13841.851115
1029.862407,-5773.606348,3983.696590,11473.192101
1029.862737,-3182.885551,-459.657299,10066.800811
1029.863066,-1406.391290,-2374.896044,8808.450710
1029.863396,-2072.576638,-3064.381992,7254.018232
1029.863725,-2738.761985,-4596.572988,7624.121203
1029.864054,-3627.009116,-1455.581446,8438.347739
1029.864384,-3923.091493,1838.629195,7846.182985
1029.864713,-2146.597232,1378.971896,6365.771101
1029.865043,1776.494261,842.705048,5995.668130
1029.865372,4885.359217,689.485948,7031.956449
1029.865702,6587.832884,2298.286494,8216.285956
1029.866031,5699.585753,3294.210641,9622.677246
1029.866361,2590.720797,3447.429741,11621.233289
1029.866690,-1406.391290,4826.401637,13175.665768
1029.867020,-3256.906145,4903.011187,13915.871710
1029.867350,-2886.803174,4060.306139,13989.892304
1029.867679,-2368.659014,1378.971896,11843.295072
1029.868009,-2960.823768,-842.705048,9104.533087
1029.868338,-3627.009116,-1302.362347,7031.956449
1029.868668,-2738.761985,-2604.724693,7550.100608
1029.868998,-4663.297435,-842.705048,7772.162391
1029.869327,-6661.853478,2604.724693,7254.018232
1029.869657,-6069.688724,2068.457845,7328.038826
1029.869986,-3034.844362,-229.828649,7402.059420
1029.870316,-740.205942,-383.047749,7772.162391
1029.870646,74.020594,1302.362347,8216.285956
1029.870975,74.020594,2068.457845,10288.862594
1029.871305,-2442.679609,3140.991542,11843.295072
1029.871634,-4293.194464,4673.182538,12139.377449
1029.871964,-3330.926739,3753.867940,11325.150913
1029.872294,-1332.370696,2757.943793,11177.109724
1029.872623,-222.061783,689.485948,11621.233289
1029.872953,0.000000,-459.657299,9400.615463
1029.873282,-296.082377,-2221.676944,8882.471304
1029.873612,-1036.288319,-3447.429741,10732.986159
1029.873942,-3034.844362,-689.485948,11029.068536
1029.874271,-4367.215058,3600.648841,9474.636058
1029.874601,-1332.370696,2145.067394,7994.224174
1029.874930,3330.926739,-1378.971896,6883.915261
1029.875260,5699.585753,-2298.286494,5625.565159
1029.875590,5773.606348,-919.314598,6439.791695
1029.875919,3701.029710,995.924147,9326.594869
1029.876249,-370.102971,4749.792088,13619.789333
1029.876578,-3552.988522,6588.421283,14359.995275
1029.876908,-4145.153275,4826.401637,12287.418637
1029.877238,-2294.638420,229.828649,9992.780217
1029.877567,148.041188,-2911.162892,9326.594869
1029.877897,740.205942,-3064.381992,8956.491898
1029.878226,-518.144159,-1762.019645,8290.306550
1029.878556,-2812.782580,-1762.019645,7994.224174
1029.878886,-3923.091493,0.000000,7550.100608
1029.879215,-2886.803174,2145.067394,7476.080014
1029.879545,1332.370696,1149.143247,7698.141797
1029.879874,4515.256246,-383.047749,7624.121203
1029.880204,4663.297435,2068.457845,6735.874072
1029.880534,4367.215058,2068.457845,7772.162391
1029.880863,3256.906145,995.924147,11103.089130
1029.881193,-814.226536,3140.991542,14508.036463
1029.881522,-4737.318029,6052.154434,14137.933492
1029.881852,-4293.194464,4290.134789,12509.480420
1029.882181,-1850.514855,-612.876398,10807.006753
1029.882511,0.000000,-1991.848295,8882.471304
1029.882841,-296.082377,-2834.553343,7254.018232
1029.883170,-1554.432478,-2298.286494,7772.162391
1029.883500,-3923.091493,1149.143247,8438.347739
1029.883829,-5625.565159,3294.210641,7772.162391
1029.884159,-5033.400406,3370.820191,7994.224174
1029.884489,-1850.514855,0.000000,8216.285956
1029.884818,-740.205942,995.924147,8882.471304
1029.885148,-592.164754,2451.505594,8660.409521
1029.885477,-962.267725,1991.848295,9992.780217
1029.885807,-1998.556043,2451.505594,11695.253884
1029.886137,-5181.441594,3217.601092,12139.377449
1029.886466,-6069.688724,3524.039291,11251.130318
1029.886796,-4737.318029,2298.286494,10584.944971
1029.887125,-2294.638420,0.000000,9844.739029
1029.887455,-1332.370696,-2221.676944,9770.718434
1029.887785,-2072.576638,-2374.896044,9030.512492
1029.888114,-3701.029710,-689.485948,8882.471304
1029.888444,-4293.194464,0.000000,8438.347739
1029.888773,-3330.926739,1225.752797,8216.285956
1029.889103,-666.185348,1685.410096,7328.038826
1029.889433,2886.803174,-1455.581446,6883.915261
1029.889762,4737.318029,-1149.143247,7328.038826
1029.890092,4737.318029,1608.800546,8068.244768
1029.890421,3256.906145,2221.676944,11473.192101
1029.890751,888.247130,2451.505594,14952.160028
1029.891081,-3034.844362,5362.668486,14952.160028
1029.891410,-4293.194464,6588.421283,11843.295072
1029.891740,-2590.720797,1685.410096,9030.512492
1029.892069,-370.102971,-2374.896044,8586.388927
1029.892399,296.082377,-3524.039291,8290.306550
1029.892729,-1332.370696,-3600.648841,8068.244768
1029.893058,-3330.926739,-1762.019645,8142.265362
1029.893388,-3997.112087,1149.143247,8512.368333
1029.893717,-2738.761985,1991.848295,7624.121203
1029.894047,666.185348,0.000000,6661.853478
1029.894377,4441.235652,-842.705048,6661.853478
1029.894706,5773.606348,995.924147,7105.977043
1029.895036,6365.771101,2911.162892,7772.162391
1029.895365,3923.091493,1915.238745,11843.295072
1029.895695,0.000000,3217.601092,14656.077652
1029.896025,-3478.967927,5975.544884,14359.995275
1029.896354,-2442.679609,4443.353888,12805.562797
1029.896684,0.000000,0.000000,11473.192101
1029.897013,1258.350101,-1455.581446,8734.430116
1029.897343,592.164754,-2298.286494,7328.038826
1029.897673,-296.082377,-2681.334243,8068.244768
1029.898002,-2072.576638,153.219100,9104.533087
1029.898332,-4663.297435,4290.134789,7846.182985
1029.898661,-5995.668130,2987.772442,6365.771101
1029.898991,-2886.803174,-306.438199,7105.977043
1029.899320,-370.102971,-995.924147,8660.409521
1029.899650,518.144159,689.485948,9104.533087
1029.899980,-444.123565,1302.362347,9104.533087
1029.900309,-3627.009116,1838.629195,9770.718434
1029.900639,-6513.812290,2834.553343,12287.418637
1029.900968,-6143.709319,3064.381992,12953.603985
1029.901298,-4219.173869,2451.505594,12583.501014
1029.901628,-3034.844362,1455.581446,11103.089130
1029.901957,-2960.823768,-1532.190996,8956.491898
1029.902287,-2738.761985,-2757.943793,8882.471304
1029.902616,-2886.803174,-2604.724693,9474.636058
1029.902946,-3923.091493,-383.047749,9622.677246
1029.903276,-4071.132681,2528.115143,8290.306550
1029.903605,-1998.556043,2068.457845,7105.977043
1029.903935,1924.535449,-1072.533697,6365.771101
1029.904264,4515.256246,-1915.238745,7698.141797
1029.904594,4663.297435,1072.533697,8438.347739
1029.904924,3478.967927,3983.696590,9992.780217
1029.905253,814.226536,4979.620737,11843.295072
1029.905583,-1998.556043,5132.839837,12953.603985
1029.905912,-3478.967927,4826.401637,12139.377449
1029.906242,-2590.720797,1608.800546,11843.295072
1029.906572,-1184.329507,-919.314598,11991.336260
1029.906901,-2146.597232,-1532.190996,10807.006753
1029.907231,-3701.029710,-2528.115143,8956.491898
1029.907560,-4515.256246,-4903.011187,8364.327145
1029.907890,-4737.318029,-2451.505594,8956.491898
1029.908220,-3627.009116,1991.848295,8142.265362
1029.908549,222.061783,2145.067394,6217.729913
1029.908879,3997.112087,-536.266849,4145.153275
1029.909208,6809.894666,383.047749,4515.256246
1029.909538,7402.059420,1991.848295,6587.832884
1029.909868,6439.791695,3600.648841,9844.739029
1029.910197,2368.659014,5286.058936,13249.686362
1029.910527,-1998.556043,7277.907231,13767.830521
1029.910856,-2294.638420,5209.449386,13101.645173
1029.911186,-888.247130,919.314598,12139.377449
1029.911516,0.000000,-1991.848295,10732.986159
1029.911845,-370.102971,-1608.800546,8734.430116
1029.912175,-1036.288319,-1532.190996,7846.182985
1029.912504,-2590.720797,-3064.381992,7846.182985
1029.912834,-4515.256246,689.485948,7624.121203
1029.913164,-4663.297435,4136.915689,6809.894666
1029.913493,-1258.350101,2298.286494,7105.977043
1029.913823,1184.329507,536.266849,7846.182985
1029.914152,888.247130,2451.505594,7994.224174
1029.914482,370.102971,2374.896044,8734.430116
1029.914812,-1332.370696,766.095498,11473.192101
1029.915141,-4441.235652,3370.820191,13693.809927
1029.915471,-6291.750507,4673.182538,13841.851115
1029.915800,-4663.297435,2068.457845,11917.315666
1029.916130,-2368.659014,-612.876398,9918.759623
1029.916459,-814.226536,-1608.800546,8956.491898
1029.916789,-740.205942,-1685.410096,8216.285956
1029.917119,-1628.453072,-1378.971896,8586.388927
1029.917448,-3108.864956,153.219100,9326.594869
1029.917778,-3923.091493,1608.800546,9548.656652
1029.918107,-3404.947333,2298.286494,9178.553681
1029.918437,-296.082377,383.047749,8512.368333
1029.918767,2368.659014,-612.876398,8586.388927
1029.919096,2960.823768,383.047749,8512.368333
1029.919426,2294.638420,1072.533697,9622.677246
1029.919755,296.082377,1915.238745,10807.006753
1029.920085,-3478.967927,3140.991542,11325.150913
1029.920415,-5477.523971,2757.943793,11621.233289
1029.920744,-4515.256246,1685.410096,11991.336260
1029.921074,-3108.864956,76.609550,11177.109724
1029.921403,-2442.679609,-1915.238745,10362.883188
1029.921733,-2590.720797,-3064.381992,8586.388927
1029.922063,-2368.659014,-2911.162892,7920.203579
1029.922392,-2516.700203,-2374.896044,8068.244768
1029.922722,-2220.617826,766.095498,7476.080014
1029.923051,222.061783,3370.820191,7031.956449
1029.923381,4219.173869,1072.533697,6957.935855
1029.923711,6513.812290,612.876398,7105.977043
1029.924040,6439.791695,3294.210641,7624.121203
1029.924370,5181.441594,3140.991542,10066.800811
1029.924699,3034.844362,1915.238745,13175.665768
1029.925029,-1554.432478,5056.230287,14137.933492
1029.925359,-3923.091493,5439.278036,12879.583391
1029.925688,-2812.782580,383.047749,10807.006753
1029.926018,-518.144159,-2528.115143,9548.656652
1029.926347,296.082377,-2298.286494,8660.409521
1029.926677,74.020594,-2145.067394,7920.203579
1029.927007,-1850.514855,-1072.533697,6957.935855
1029.927336,-3034.844362,1685.410096,7031.956449
1029.927666,-3256.906145,3677.258390,7105.977043
1029.927995,-1036.288319,3217.601092,7994.224174
1029.928325,962.267725,2221.676944,7994.224174
1029.928655,1924.535449,2068.457845,8586.388927
1029.928984,1036.288319,2374.896044,9326.594869
1029.929314,-888.247130,1378.971896,11917.315666
1029.929643,-3701.029710,1455.581446,14359.995275
1029.929973,-6587.832884,3370.820191,13989.892304
1029.930303,-6217.729913,3447.429741,12139.377449
1029.930632,-3701.029710,-383.047749,10362.883188
1029.930962,-962.267725,-2068.457845,9548.656652
1029.931291,0.000000,-1455.581446,8068.244768
1029.931621,-222.061783,-1455.581446,7179.997637
1029.931951,-1480.411884,153.219100,7254.018232
1029.932280,-2886.803174,2451.505594,7402.059420
1029.932610,-1776.494261,2604.724693,8142.265362
1029.932939,666.185348,153.219100,8808.450710
1029.933269,1776.494261,766.095498,9178.553681
1029.933598,2146.597232,995.924147,8956.491898
1029.933928,2368.659014,1149.143247,9326.594869
1029.934258,592.164754,1455.581446,11399.171507
1029.934587,-2442.679609,2681.334243,13693.809927
1029.934917,-4737.318029,3447.429741,13323.706956
1029.935246,-4663.297435,2987.772442,11917.315666
1029.935576,-3182.885551,153.219100,10510.924376
1029.935906,-1924.535449,-2911.162892,9918.759623
1029.936235,-1924.535449,-3370.820191,8956.491898
1029.936565,-2442.679609,-2834.553343,8808.450710
1029.936894,-3849.070898,-1608.800546,8438.347739
1029.937224,-4367.215058,1225.752797,7031.956449
1029.937554,-2220.617826,1762.019645,6069.688724
1029.937883,1998.556043,-1378.971896,6513.812290
1029.938213,4959.379811,-306.438199,7328.038826
1029.938542,5625.565159,2604.724693,7254.018232
1029.938872,4959.379811,3524.039291,8290.306550
1029.939202,2886.803174,2757.943793,11547.212695
1029.939531,-814.226536,4979.620737,14137.933492
1029.939861,-2294.638420,6205.373534,13619.789333
1029.940190,-1480.411884,3064.381992,11843.295072
1029.940520,0.000000,-229.828649,10066.800811
1029.940850,148.041188,-2145.067394,8438.347739
1029.941179,-444.123565,-3064.381992,7476.080014
1029.941509,-888.247130,-3064.381992,7920.203579
1029.941838,-3034.844362,-306.438199,9252.574275
1029.942168,-4811.338623,4213.525239,8808.450710
1029.942498,-3552.988522,2987.772442,7698.141797
1029.942827,0.000000,-612.876398,7698.141797
1029.943157,2294.638420,383.047749,7698.141797
1029.943486,2516.700203,1532.190996,8438.347739
1029.943816,1850.514855,1302.362347,10436.903782
1029.944146,-1184.329507,1608.800546,12583.501014
1029.944475,-4959.379811,4979.620737,13175.665768
1029.944805,-5181.441594,4903.011187,11843.295072
1029.945134,-2516.700203,1072.533697,10658.965565
1029.945464,-444.123565,-1149.143247,10066.800811
1029.945794,148.041188,-1838.629195,9104.533087
1029.946123,-888.247130,-2374.896044,9252.574275
1029.946453,-3256.906145,-919.314598,9696.697840
1029.946782,-5107.421000,2068.457845,9622.677246
1029.947112,-4441.235652,3600.648841,8364.327145
1029.947442,-740.205942,612.876398,7476.080014
1029.947771,2738.761985,-1608.800546,6439.791695
1029.948101,3627.009116,-612.876398,5773.606348
1029.948430,2738.761985,459.657299,7031.956449
1029.948760,1036.288319,1762.019645,10510.924376
1029.949090,-2368.659014,3217.601092,14063.912898
1029.949419,-5255.462188,4366.744339,14359.995275
1029.949749,-5551.544565,3294.210641,13175.665768
1029.950078,-3108.864956,0.000000,12213.398043
1029.950408,-1110.308913,-2528.115143,10584.944971
1029.950737,-814.226536,-4213.525239,9030.512492
1029.951067,-2146.597232,-3600.648841,9178.553681
1029.951397,-3256.906145,-1225.752797,9400.615463
1029.951726,-3997.112087,1762.019645,8290.306550
1029.952056,-2220.617826,2987.772442,6587.832884
1029.952385,1998.556043,689.485948,5773.606348
1029.952715,5107.421000,0.000000,6587.832884
1029.953045,5995.668130,1685.410096,7328.038826
1029.953374,4663.297435,2834.553343,9030.512492
1029.953704,1480.411884,3217.601092,11103.089130
1029.954033,-1628.453072,3524.039291,13323.706956
1029.954363,-3182.885551,3907.087040,13545.768739
1029.954693,-2294.638420,2298.286494,12065.356855
1029.955022,-888.247130,-536.266849,10362.883188
1029.955352,0.000000,-1225.752797,8438.347739
1029.955681,296.082377,-2374.896044,7772.162391
1029.956011,-888.247130,-3217.601092,8734.430116
1029.956341,-2664.741391,306.438199,9400.615463
1029.956670,-3849.070898,4366.744339,7254.018232
1029.957000,-1554.432478,3983.696590,5995.668130
1029.957329,2146.597232,459.657299,5921.647536
1029.957659,4293.194464,0.000000,7402.059420
1029.957989,4293.194464,689.485948,8660.409521
1029.958318,1998.556043,2374.896044,11103.089130
1029.958648,-2738.761985,4366.744339,13693.809927
1029.958977,-5995.668130,5898.935335,14359.995275
1029.959307,-6217.729913,3677.258390,12657.521608
1029.959637,-3404.947333,-383.047749,11177.109724
1029.959966,-1110.308913,-1532.190996,9474.636058
1029.960296,-740.205942,-1532.190996,7402.059420
1029.960625,-1184.329507,-2451.505594,6809.894666
1029.960955,-3034.844362,-2145.067394,7920.203579
1029.961285,-4737.318029,995.924147,8586.388927
1029.961614,-4145.153275,2834.553343,7402.059420
1029.961944,-1036.288319,1838.629195,7698.141797
1029.962273,2146.597232,0.000000,7624.121203
1029.962603,2812.782580,229.828649,7994.224174
1029.962933,2960.823768,306.438199,9326.594869
1029.963262,1036.288319,1991.848295,11251.130318
1029.963592,-2516.700203,3677.258390,12953.603985
1029.963921,-5625.565159,3983.696590,13619.789333
1029.964251,-5107.421000,1685.410096,13249.686362
1029.964581,-3478.967927,-1149.143247,12435.459826
1029.964910,-1776.494261,-2221.676944,11399.171507
1029.965240,-1554.432478,-2451.505594,8808.450710
1029.965569,-2146.597232,-3064.381992,8216.285956
1029.965899,-2960.823768,-2451.505594,8290.306550
1029.966229,-3108.864956,306.438199,8512.368333
1029.966558,-1554.432478,2911.162892,7254.018232
1029.966888,1258.350101,995.924147,6069.688724
1029.967217,3849.070898,0.000000,5995.668130
1029.967547,4737.318029,919.314598,7179.997637
1029.967877,4515.256246,1532.190996,8808.450710
1029.968206,2368.659014,2145.067394,11695.253884
1029.968536,-1480.411884,3140.991542,13767.830521
1029.968866,-4885.359217,5439.278036,13101.645173
1029.969195,-4293.194464,2987.772442,11991.336260
1029.969525,-1258.350101,-1685.410096,11325.150913
1029.969854,740.205942,-2145.067394,9326.594869
1029.970184,740.205942,-1532.190996,7328.038826
1029.970514,0.000000,-2451.505594,7402.059420
1029.970843,-1628.453072,-689.485948,8142.265362
1029.971173,-3256.906145,3983.696590,7698.141797
1029.971503,-1184.329507,5132.839837,6735.874072
1029.971832,2368.659014,1225.752797,6365.771101
1029.972162,4367.215058,842.705048,6069.688724
1029.972492,4367.215058,995.924147,6957.935855
1029.972821,3034.844362,0.000000,10066.800811
1029.973151,-444.123565,2681.334243,13545.768739
1029.973481,-4811.338623,6052.154434,14656.077652
1029.973810,-6439.791695,5822.325785,13323.706956
1029.974140,-3849.070898,536.266849,11843.295072
1029.974470,-1332.370696,-1608.800546,10955.047942
1029.974799,148.041188,-1838.629195,9844.739029
1029.975129,-814.226536,-1608.800546,8512.368333
1029.975459,-2516.700203,0.000000,8068.244768
1029.975788,-4737.318029,1608.800546,7846.182985
1029.976118,-4959.379811,3294.210641,5699.585753
1029.976448,-2220.617826,1762.019645,5995.668130
1029.976777,740.205942,-1302.362347,7476.080014
1029.977107,1036.288319,383.047749,8216.285956
1029.977437,-518.144159,1455.581446,8364.327145
1029.977766,-740.205942,1149.143247,11029.068536
1029.978096,-2590.720797,2451.505594,13545.768739
1029.978426,-4663.297435,4060.306139,13915.871710
1029.978755,-4589.276840,1685.410096,12583.501014
1029.979085,-3034.844362,-383.047749,11177.109724
1029.979414,-1850.514855,-995.924147,11769.274478
1029.979744,-1258.350101,-1685.410096,10881.027347
1029.980074,-1258.350101,-2451.505594,9400.615463
1029.980403,-2146.597232,-1149.143247,7328.038826
1029.980733,-1924.535449,0.000000,6809.894666
1029.981063,-888.247130,1608.800546,6217.729913
1029.981392,888.247130,1455.581446,7105.977043
1029.981722,2960.823768,0.000000,8438.347739
1029.982052,3478.967927,1685.410096,8512.368333
1029.982381,2590.720797,2681.334243,8808.450710
1029.982711,1776.494261,689.485948,11177.109724
1029.983041,-1628.453072,1072.533697,14063.912898
1029.983370,-4885.359217,5132.839837,13767.830521
1029.983700,-3923.091493,3983.696590,11843.295072
1029.984030,-1554.432478,-1072.533697,9918.759623
1029.984359,0.000000,-2221.676944,8512.368333
1029.984689,148.041188,-2604.724693,7846.182985
1029.985019,0.000000,-2528.115143,7994.224174
1029.985348,-1332.370696,1225.752797,8068.244768
1029.985678,-1776.494261,4213.525239,7105.977043
1029.986008,148.041188,3447.429741,5921.647536
1029.986337,3108.864956,0.000000,6513.812290
1029.986667,4811.338623,383.047749,7772.162391
1029.986997,4737.318029,2145.067394,8364.327145
1029.987326,3256.906145,2604.724693,9474.636058
1029.987656,888.247130,2451.505594,12657.521608
1029.987985,-2368.659014,3217.601092,14656.077652
1029.988315,-4367.215058,4136.915689,13471.748144
1029.988645,-3256.906145,2451.505594,11251.130318
1029.988974,-1258.350101,-689.485948,9548.656652
1029.989304,-814.226536,-842.705048,8660.409521
1029.989634,-1776.494261,-1915.238745,8512.368333
1029.989963,-3330.926739,-1762.019645,9622.677246
1029.990293,-5329.482782,1532.190996,9104.533087
1029.990623,-5847.626942,4136.915689,6957.935855
1029.990952,-2960.823768,1455.581446,5921.647536
1029.991282,296.082377,-2068.457845,7624.121203
1029.991612,1776.494261,-306.438199,8956.491898
1029.991941,740.205942,1762.019645,8956.491898
1029.992271,-740.205942,2451.505594,9992.780217
1029.992601,-2738.761985,3140.991542,12509.480420
1029.992930,-4441.235652,2911.162892,14285.974681
1029.993260,-4441.235652,1685.410096,13693.809927
1029.993590,-4145.153275,306.438199,11769.274478
1029.993919,-2738.761985,-536.266849,10436.903782
1029.994249,-2146.597232,-1838.629195,9400.615463
1029.994579,-1702.473667,-2911.162892,9030.512492
1029.994908,-1924.535449,-2681.334243,8660.409521
1029.995238,-2886.803174,-76.609550,7105.977043
1029.995568,-2368.659014,2451.505594,5699.585753
1029.995897,444.123565,1225.752797,6661.853478
1029.996227,3330.926739,-842.705048,8290.306550
1029.996557,3552.988522,1072.533697,8660.409521
1029.996886,2220.617826,2757.943793,8586.388927
1029.997216,962.267725,2834.553343,9400.615463
1029.997545,-592.164754,2374.896044,12361.439231
1029.997875,-3182.885551,1838.629195,14434.015869
1029.998205,-4515.256246,1608.800546,13767.830521
1029.998534,-4663.297435,153.219100,11843.295072
1029.998864,-2812.782580,-1072.533697,10436.903782
1029.999194,-1850.514855,-1762.019645,9252.574275
1029.999523,-1184.329507,-3524.039291,8512.368333
1029.999853,-1110.308913,-2451.505594,8068.244768
1030.000183,-1036.288319,1762.019645,6291.750507
1030.000512,370.102971,4749.792088,5107.421000
1030.000842,2738.761985,2451.505594,4811.338623
1030.001172,5107.421000,612.876398,6587.832884
1030.001501,6069.688724,2068.457845,7698.141797
1030.001831,5181.441594,2987.772442,9474.636058
1030.002161,2590.720797,3370.820191,12213.398043
1030.002490,-1850.514855,3447.429741,14508.036463
1030.002820,-4663.297435,3753.867940,14952.160028
1030.003150,-3997.112087,1608.800546,14211.954086
1030.003479,-1480.411884,-229.828649,12361.439231
1030.003809,-592.164754,-459.657299,9474.636058
1030.004139,-1850.514855,-1072.533697,6069.688724
1030.004468,-2886.803174,-2221.676944,5625.565159
1030.004798,-3182.885551,-919.314598,7402.059420
1030.005128,-3849.070898,3524.039291,7698.141797
1030.005457,-3552.988522,4136.915689,6365.771101
1030.005787,-2072.576638,153.219100,7031.956449
1030.006117,-666.185348,-536.266849,8364.327145
1030.006446,370.102971,1378.971896,9326.594869
1030.006776,592.164754,1225.752797,9992.780217
1030.007105,-1184.329507,2374.896044,11251.130318
1030.007435,-3849.070898,4596.572988,12657.521608
1030.007765,-4663.297435,2451.505594,13693.809927
1030.008094,-3627.009116,-689.485948,13619.789333
1030.008424,-3701.029710,689.485948,11843.295072
1030.008754,-3627.009116,229.828649,9474.636058
1030.009083,-2146.597232,-2451.505594,8216.285956
1030.009413,-1554.432478,-3140.991542,8956.491898
1030.009743,-2220.617826,-1532.190996,8586.388927
1030.010072,-2590.720797,919.314598,6883.915261
1030.010402,-888.247130,1532.190996,6957.935855
1030.010732,1110.308913,1149.143247,8512.368333
1030.011061,2368.659014,919.314598,9252.574275
1030.011391,2294.638420,1685.410096,8882.471304
1030.011721,1998.556043,2374.896044,9918.759623
1030.012050,-296.082377,3217.601092,11843.295072
1030.012380,-3923.091493,4903.011187,11843.295072
1030.012710,-4589.276840,2987.772442,11399.171507
1030.013039,-3923.091493,-1225.752797,11251.130318
1030.013369,-3256.906145,-1991.848295,12213.398043
1030.013699,-3552.988522,-1225.752797,11177.109724
1030.014028,-3256.906145,-2298.286494,9844.739029
1030.014358,-3627.009116,-2757.943793,8216.285956
1030.014688,-2960.823768,-766.095498,7698.141797
1030.015017,-666.185348,1991.848295,7105.977043
1030.015347,2812.782580,2068.457845,5921.647536
1030.015676,5625.565159,1991.848295,4959.379811
1030.016006,7328.038826,2757.943793,4441.235652
1030.016336,7476.080014,1762.019645,6809.894666
1030.016665,5847.626942,1991.848295,11473.192101
1030.016995,888.247130,4979.620737,14359.995275
1030.017325,-3034.844362,6971.469032,13767.830521
1030.017654,-3404.947333,3677.258390,12361.439231
1030.017984,-1628.453072,-1149.143247,11991.336260
1030.018314,-592.164754,-2681.334243,11843.295072
1030.018643,-888.247130,-2145.067394,10066.800811
1030.018973,-2442.679609,-1455.581446,8216.285956
1030.019303,-3997.112087,0.000000,7698.141797
1030.019632,-4959.379811,1838.629195,7105.977043
1030.019962,-3256.906145,2451.505594,6809.894666
1030.020292,0.000000,689.485948,6883.915261
1030.020621,1406.391290,766.095498,6735.874072
1030.020951,962.267725,1762.019645,7031.956449
1030.021281,148.041188,995.924147,9918.759623
1030.021610,-1554.432478,766.095498,13027.624579
1030.021940,-5181.441594,3447.429741,14804.118840
1030.022270,-6661.853478,4903.011187,13101.645173
1030.022599,-4219.173869,842.705048,11621.233289
1030.022929,-2072.576638,-2757.943793,10955.047942
1030.023259,-1036.288319,-1991.848295,10288.862594
1030.023588,-1036.288319,-1455.581446,9030.512492
1030.023918,-1480.411884,-766.095498,8068.244768
1030.024248,-2072.576638,995.924147,7772.162391
1030.024577,-2516.700203,2374.896044,7550.100608
1030.024907,-518.144159,1378.971896,8586.388927
1030.025236,1480.411884,229.828649,8808.450710
1030.025566,1554.432478,1838.629195,7920.203579
1030.025896,1702.473667,2451.505594,7920.203579
1030.026225,1184.329507,536.266849,9400.615463
1030.026555,-518.144159,1455.581446,11695.253884
1030.026885,-3849.070898,3294.210641,11769.274478
1030.027214,-5107.421000,4213.525239,10214.842000
1030.027544,-4219.173869,1149.143247,10288.862594
1030.027874,-3330.926739,-1915.238745,11843.295072
1030.028203,-3775.050304,-2068.457845,11695.253884
1030.028533,-3775.050304,-2221.676944,10436.903782
1030.028863,-4219.173869,-2681.334243,9178.553681
1030.029192,-4071.132681,306.438199,7550.100608
1030.029522,-2516.700203,1762.019645,5551.544565
1030.029852,2072.576638,76.609550,4959.379811
1030.030181,6513.812290,-766.095498,5255.462188
1030.030511,7698.141797,3064.381992,6217.729913
1030.030841,6883.915261,4596.572988,7550.100608
1030.031170,4663.297435,3064.381992,10658.965565
1030.031500,1184.329507,4290.134789,14211.954086
1030.031830,-1998.556043,5515.887586,15618.345376
1030.032159,-2516.700203,4213.525239,14582.057057
1030.032489,-1924.535449,383.047749,12509.480420
1030.032819,-1406.391290,-1838.629195,9918.759623
1030.033148,-1332.370696,-3370.820191,7846.182985
1030.033478,-1628.453072,-3753.867940,7328.038826
1030.033808,-2886.803174,-1302.362347,7772.162391
1030.034137,-4737.318029,2298.286494,7254.018232
1030.034467,-4885.359217,3830.477490,6809.894666
1030.034796,-2146.597232,1685.410096,7328.038826
1030.035126,888.247130,995.924147,8734.430116
1030.035456,2072.576638,1378.971896,8290.306550
1030.035785,1628.453072,1915.238745,9104.533087
1030.036115,-740.205942,1072.533697,11621.233289
1030.036445,-3627.009116,2145.067394,14656.077652
1030.036774,-5181.441594,3524.039291,14804.118840
1030.037104,-4293.194464,2221.676944,11843.295072
1030.037434,-2442.679609,-689.485948,9326.594869
1030.037763,-148.041188,-2298.286494,8512.368333
1030.038093,666.185348,-2221.676944,8512.368333
1030.038423,-888.247130,-1838.629195,8364.327145
1030.038752,-2960.823768,842.705048,8586.388927
1030.039082,-3404.947333,4136.915689,7179.997637
1030.039412,-1702.473667,3294.210641,6957.935855
1030.039741,1480.411884,-536.266849,7550.100608
1030.040071,2590.720797,-766.095498,8586.388927
1030.040401,2146.597232,1915.238745,8216.285956
1030.040730,1110.308913,2834.553343,8364.327145
1030.041060,-888.247130,2068.457845,10658.965565
1030.041390,-3627.009116,2451.505594,13027.624579
1030.041719,-5255.462188,2374.896044,13545.768739
1030.042049,-5625.565159,1149.143247,12583.501014
1030.042379,-4737.318029,0.000000,10955.047942
1030.042708,-3552.988522,-1302.362347,9918.759623
1030.043038,-2442.679609,-3447.429741,9178.553681
1030.043367,-2368.659014,-4213.525239,9400.615463
1030.043697,-2886.803174,-1225.752797,8364.327145
1030.044027,-2220.617826,2374.896044,5773.606348
1030.044356,1036.288319,2757.943793,5033.400406
1030.044686,4515.256246,76.609550,6143.709319
1030.045016,6217.729913,919.314598,7624.121203
1030.045345,5921.647536,2911.162892,8734.430116
1030.045675,4441.235652,3600.648841,10658.965565
1030.046005,1258.350101,4060.306139,12953.603985
1030.046334,-2368.659014,5132.839837,13915.871710
1030.046664,-3478.967927,3370.820191,12879.583391
1030.046994,-1850.514855,-919.314598,11991.336260
1030.047323,-148.041188,-1762.019645,10807.006753
1030.047653,-296.082377,-1685.410096,8734.430116
1030.047983,-1480.411884,-2834.553343,7994.224174
1030.048312,-2590.720797,-1608.800546,7994.224174
1030.048642,-3256.906145,2374.896044,7698.141797
1030.048972,-2146.597232,3907.087040,6217.729913
1030.049301,814.226536,1762.019645,5255.462188
1030.049631,2368.659014,0.000000,5847.626942
1030.049961,2368.659014,689.485948,8216.285956
1030.050290,1702.473667,1685.410096,10807.006753
1030.050620,-1258.350101,2451.505594,13693.809927
1030.050950,-4885.359217,3140.991542,14508.036463
1030.051279,-5995.668130,3600.648841,13175.665768
1030.051609,-4071.132681,1225.752797,11843.295072
1030.051939,-592.164754,-1608.800546,11325.150913
1030.052268,0.000000,-1991.848295,9030.512492
1030.052598,-666.185348,-919.314598,7105.977043
1030.052927,-1036.288319,-612.876398,6883.915261
1030.053257,-1628.453072,-229.828649,8586.388927
1030.053587,-1924.535449,2834.553343,7920.203579
1030.053916,-1184.329507,2757.943793,6661.853478
1030.054246,814.226536,-383.047749,6587.832884
1030.054576,1258.350101,-459.657299,7698.141797
1030.054905,1258.350101,2221.676944,9178.553681
1030.055235,888.247130,1608.800546,11177.109724
1030.055565,-814.226536,1991.848295,12213.398043
1030.055894,-4367.215058,3294.210641,12583.501014
1030.056224,-5477.523971,1532.190996,12509.480420
1030.056554,-4737.318029,153.219100,12879.583391
1030.056883,-4367.215058,-383.047749,11843.295072
1030.057213,-3330.926739,-612.876398,10658.965565
1030.057543,-2442.679609,-2374.896044,8438.347739
1030.057872,-1924.535449,-3064.381992,7402.059420
1030.058202,-2072.576638,-2451.505594,6883.915261
1030.058532,-1406.391290,1072.533697,5847.626942
1030.058861,222.061783,3217.601092,5329.482782
1030.059191,2738.761985,1072.533697,6587.832884
1030.059521,4589.276840,1455.581446,8438.347739
1030.059850,4515.256246,3524.039291,9622.677246
1030.060180,3627.009116,2757.943793,11399.171507
1030.060510,222.061783,2757.943793,13619.789333
1030.060839,-3034.844362,4749.792088,14582.057057
1030.061169,-3997.112087,3753.867940,13693.809927
1030.061499,-2664.741391,-306.438199,11769.274478
1030.061828,-888.247130,-919.314598,8956.491898
1030.062158,-740.205942,-306.438199,5921.647536
1030.062487,0.000000,-3677.258390,4589.276840
1030.062817,-518.144159,-3677.258390,6217.729913
1030.063147,-2146.597232,1838.629195,7994.224174
1030.063476,-3256.906145,4903.011187,8142.265362
1030.063806,-814.226536,3447.429741,7994.224174
1030.064136,1850.514855,1455.581446,7994.224174
1030.064465,3108.864956,689.485948,7994.224174
1030.064795,2664.741391,0.000000,10066.800811
1030.065125,222.061783,1762.019645,13767.830521
1030.065454,-3627.009116,5056.230287,15914.427753
1030.065784,-6069.688724,5439.278036,14137.933492
1030.066114,-4515.256246,2145.067394,10732.986159
1030.066443,-1406.391290,-1991.848295,8882.471304
1030.066773,518.144159,-2834.553343,8068.244768
1030.067103,444.123565,-1685.410096,7031.956449
1030.067432,-222.061783,-612.876398,7698.141797
1030.067762,-2072.576638,0.000000,8586.388927
1030.068091,-3849.070898,2374.896044,9178.553681
1030.068421,-3330.926739,3677.258390,8364.327145
1030.068751,-518.144159,1455.581446,7846.182985
1030.069080,1628.453072,153.219100,8364.327145
1030.069410,1332.370696,1915.238745,8586.388927
1030.069739,888.247130,1225.752797,10214.842000
1030.070069,-1702.473667,-229.828649,13249.686362
1030.070398,-6291.750507,2757.943793,14508.036463
1030.070728,-8734.430116,4979.620737,12731.542202
1030.071057,-7550.100608,1685.410096,10955.047942
1030.071387,-4367.215058,-2068.457845,9400.615463
1030.071717,-2072.576638,-2681.334243,8142.265362
1030.072046,-444.123565,-3447.429741,6957.935855
1030.072376,-962.267725,-2834.553343,6735.874072
1030.072705,-2368.659014,-612.876398,7772.162391
1030.073035,-4219.173869,3447.429741,8068.244768
1030.073364,-3330.926739,3294.210641,7846.182985
1030.073694,-518.144159,536.266849,9178.553681
1030.074023,962.267725,1149.143247,10436.903782
1030.074353,296.082377,2451.505594,9474.636058
1030.074682,148.041188,1072.533697,9548.656652
1030.075012,-814.226536,0.000000,11399.171507
1030.075342,-3997.112087,1991.848295,13101.645173
1030.075671,-7105.977043,3983.696590,11843.295072
1030.076001,-5551.544565,2987.772442,10510.924376
1030.076330,-3182.885551,0.000000,9104.533087
1030.076660,-1628.453072,-306.438199,8068.244768
1030.076989,-1480.411884,-229.828649,7031.956449
1030.077319,-1332.370696,-612.876398,7328.038826
1030.077648,-3182.885551,536.266849,8142.265362
1030.077978,-6809.894666,2911.162892,8882.471304
1030.078308,-8142.265362,3217.601092,9178.553681
1030.078637,-6735.874072,536.266849,9696.697840
1030.078967,-5107.421000,-229.828649,10140.821405
1030.079296,-4145.153275,1149.143247,9252.574275
1030.079626,-2590.720797,-459.657299,8290.306550
1030.079955,-1258.350101,-383.047749,8290.306550
1030.080285,-1110.308913,1532.190996,9844.739029
1030.080614,-2220.617826,3677.258390,11621.233289
1030.080944,-2886.803174,5056.230287,11399.171507
1030.081274,-3330.926739,3983.696590,10362.883188
1030.081603,-3552.988522,2604.724693,10584.944971
1030.081933,-4071.132681,1072.533697,11621.233289
1030.082262,-5033.400406,306.438199,11177.109724
1030.082592,-5551.544565,0.000000,9400.615463
1030.082921,-6513.812290,-612.876398,7698.141797
1030.083251,-5329.482782,-995.924147,7920.203579
1030.083580,-4737.318029,-1838.629195,8808.450710
1030.083910,-5255.462188,-1378.971896,8512.368333
1030.084239,-6217.729913,459.657299,8142.265362
1030.084569,-5551.544565,2451.505594,8660.409521
1030.084899,-3404.947333,3447.429741,9770.718434
1030.085228,-1998.556043,1762.019645,8956.491898
1030.085558,-1702.473667,766.095498,7476.080014
1030.085887,-1184.329507,1302.362347,7624.121203
1030.086217,-592.164754,1225.752797,9474.636058
1030.086546,-1628.453072,1455.581446,12287.418637
1030.086876,-4811.338623,1532.190996,13397.727550
1030.087205,-8438.347739,2221.676944,12509.480420
1030.087535,-9252.574275,1225.752797,11399.171507
1030.087865,-7920.203579,229.828649,11103.089130
1030.088194,-5329.482782,-383.047749,10066.800811
1030.088524,-3182.885551,-2451.505594,7550.100608
1030.088853,-1554.432478,-2834.553343,5921.647536
1030.089183,-518.144159,-995.924147,5255.462188
1030.089512,814.226536,612.876398,6365.771101
1030.089842,1850.514855,1915.238745,7846.182985
1030.090171,0.000000,2604.724693,9474.636058
1030.090501,-2590.720797,3217.601092,10807.006753
1030.090831,-4885.359217,2834.553343,11843.295072
1030.091160,-7105.977043,2528.115143,12583.501014
1030.091490,-8438.347739,1455.581446,12583.501014
1030.091819,-9030.512492,383.047749,10658.965565
1030.092149,-6365.771101,-1608.800546,9326.594869
1030.092478,-2886.803174,-2145.067394,7550.100608
1030.092808,-518.144159,-1991.848295,6143.709319
1030.093137,740.205942,-229.828649,5403.503377
1030.093467,1776.494261,2298.286494,6883.915261
1030.093796,1406.391290,4136.915689,9474.636058
1030.094126,-888.247130,6128.763984,11103.089130
1030.094456,-4441.235652,5286.058936,11621.233289
1030.094785,-7476.080014,1225.752797,14063.912898
1030.095115,-10362.883188,612.876398,15470.304188
1030.095444,-12583.501014,995.924147,14359.995275
1030.095774,-10955.047942,-1378.971896,10140.821405
1030.096103,-6957.935855,-3677.258390,5699.585753
1030.096433,-1998.556043,-4060.306139,2960.823768
1030.096762,2886.803174,-3907.087040,3034.844362
1030.097092,5181.441594,-229.828649,5181.441594
1030.097422,4145.153275,7048.078582,7476.080014
1030.097751,1406.391290,10572.117872,9326.594869
1030.098081,-296.082377,9193.145976,12509.480420
1030.098410,-2516.700203,8427.050478,14285.974681
1030.098740,-5181.441594,5975.544884,13767.830521
1030.099069,-7179.997637,-306.438199,13693.809927
1030.099399,-10436.903782,-3064.381992,13989.892304
1030.099728,-13619.789333,-3370.820191,12731.542202
1030.100058,-13545.768739,-4903.011187,9548.656652
1030.100388,-10362.883188,-5898.935335,4959.379811
1030.100717,-4737.318029,-4060.306139,2812.782580
1030.101047,814.226536,-2374.896044,2516.700203
1030.101376,3552.988522,76.609550,4145.153275
1030.101706,3627.009116,4366.744339,6143.709319
1030.102035,1628.453072,8044.002729,8512.368333
1030.102365,-814.226536,10112.460574,11473.192101
1030.102694,-3627.009116,7967.393179,12953.603985
1030.103024,-6069.688724,3677.258390,13397.727550
1030.103353,-7994.224174,-919.314598,12213.398043
1030.103683,-9252.574275,-3830.477490,11177.109724
1030.104013,-9326.594869,-5669.106685,11103.089130
1030.104342,-8364.327145,-5822.325785,11103.089130
1030.104672,-7476.080014,-4443.353888,9548.656652
1030.105001,-4367.215058,-2298.286494,7624.121203
1030.105331,-518.144159,-383.047749,6957.935855
1030.105660,2368.659014,2451.505594,7994.224174
1030.105990,2516.700203,4596.572988,9104.533087
1030.106319,1184.329507,5669.106685,10510.924376
1030.106649,-1480.411884,5209.449386,11843.295072
1030.106979,-3997.112087,3753.867940,13027.624579
1030.107308,-6439.791695,1685.410096,12583.501014
1030.107638,-8216.285956,-1378.971896,9992.780217
1030.107967,-7476.080014,-4366.744339,7920.203579
1030.108297,-5107.421000,-6281.983084,7179.997637
1030.108626,-3330.926739,-4596.572988,7402.059420
1030.108956,-2368.659014,-1608.800546,7105.977043
1030.109285,-1850.514855,689.485948,7624.121203
1030.109615,-1924.535449,4366.744339,9178.553681
1030.109945,-2146.597232,7354.516781,10658.965565
1030.110274,-2072.576638,7890.783629,11843.295072
1030.110604,-2664.741391,5669.106685,12435.459826
1030.110933,-3330.926739,3294.210641,12509.480420
1030.111263,-5107.421000,2145.067394,12213.398043
1030.111592,-5995.668130,-229.828649,11029.068536
1030.111922,-6883.915261,-1991.848295,8660.409521
1030.112251,-6513.812290,-2221.676944,7550.100608
1030.112581,-4367.215058,-459.657299,6957.935855
1030.112910,-1702.473667,1072.533697,7105.977043
1030.113240,0.000000,1991.848295,7105.977043
1030.113570,296.082377,3907.087040,7328.038826
1030.113899,-518.144159,5822.325785,8364.327145
1030.114229,-1554.432478,6588.421283,9992.780217
1030.114558,-2368.659014,6588.421283,11325.150913
1030.114888,-3701.029710,5132.839837,11547.212695
1030.115217,-4071.132681,3064.381992,10214.842000
1030.115547,-3256.906145,842.705048,9178.553681
1030.115876,-2368.659014,-1149.143247,8290.306550
1030.116206,-2442.679609,536.266849,8216.285956
1030.116536,-2368.659014,1455.581446,8068.244768
1030.116865,-2294.638420,3524.039291,8808.450710
1030.117195,-2664.741391,4903.011187,9622.677246
1030.117524,-2664.741391,5669.106685,10436.903782
1030.117854,-2442.679609,5669.106685,10214.842000
1030.118183,-1554.432478,4903.011187,10066.800811
1030.118513,-1776.494261,3830.477490,9844.739029
1030.118842,-1850.514855,2604.724693,9844.739029
1030.119172,-1628.453072,2145.067394,9622.677246
1030.119502,-1332.370696,2604.724693,9030.512492
1030.119831,-1628.453072,2987.772442,9252.574275
1030.120161,-888.247130,3370.820191,9844.739029
1030.120490,-740.205942,4673.182538,10807.006753
1030.120820,-1480.411884,6281.983084,11103.089130
1030.121149,-2738.761985,7048.078582,10881.027347
1030.121479,-3330.926739,6588.421283,9918.759623
1030.121808,-3256.906145,5669.106685,9178.553681
1030.122138,-2886.803174,4060.306139,7846.182985
1030.122467,-1332.370696,2145.067394,6513.812290
1030.122797,-296.082377,612.876398,5625.565159
1030.123127,0.000000,536.266849,5921.647536
1030.123456,-1258.350101,1149.143247,7105.977043
1030.123786,-2368.659014,3294.210641,8438.347739
1030.124115,-2590.720797,4903.011187,9918.759623
1030.124445,-2442.679609,6052.154434,10881.027347
1030.124774,-2220.617826,5975.544884,11103.089130
1030.125104,-1258.350101,5822.325785,10732.986159
1030.125433,-666.185348,4749.792088,10288.862594
1030.125763,0.000000,3753.867940,10658.965565
1030.126093,-296.082377,3524.039291,10510.924376
1030.126422,-666.185348,3677.258390,9770.718434
1030.126752,-1036.288319,2911.162892,8808.450710
1030.127081,-148.041188,2528.115143,8734.430116
1030.127411,518.144159,2681.334243,9104.533087
1030.127740,740.205942,2757.943793,9548.656652
1030.128070,-592.164754,2987.772442,10140.821405
1030.128399,-1924.535449,4366.744339,10658.965565
1030.128729,-3108.864956,4596.572988,11177.109724
1030.129059,-2590.720797,4366.744339,11843.295072
1030.129388,-2072.576638,4290.134789,11399.171507
1030.129718,-1776.494261,4060.306139,10436.903782
1030.130047,-740.205942,4213.525239,9918.759623
1030.130377,-370.102971,4366.744339,9622.677246
1030.130706,74.020594,5592.497135,9326.594869
1030.131036,518.144159,5362.668486,8586.388927
1030.131365,666.185348,4826.401637,6883.915261
1030.131695,888.247130,3370.820191,6587.832884
1030.132024,296.082377,1991.848295,6587.832884
1030.132354,-592.164754,1762.019645,7994.224174
1030.132684,-2220.617826,2145.067394,9104.533087
1030.133013,-3552.988522,2757.943793,9844.739029
1030.133343,-3552.988522,3294.210641,10584.944971
1030.133672,-2960.823768,3983.696590,11103.089130
1030.134002,-1924.535449,5056.230287,11325.150913
1030.134331,-1258.350101,6128.763984,10362.883188
1030.134661,-296.082377,6818.249932,9622.677246
1030.134990,1036.288319,6358.592633,9622.677246
1030.135320,1110.308913,6052.154434,8734.430116
1030.135650,-222.061783,6128.763984,8364.327145
1030.135979,-1554.432478,4903.011187,6735.874072
1030.136309,-1776.494261,2681.334243,6069.688724
1030.136638,-1554.432478,383.047749,6513.812290
1030.136968,-1480.411884,-612.876398,7402.059420
1030.137297,-2664.741391,-766.095498,8808.450710
1030.137627,-3256.906145,459.657299,9844.739029
1030.137956,-2738.761985,2451.505594,11029.068536
1030.138286,-1776.494261,3907.087040,12213.398043
1030.138615,-666.185348,4979.620737,13397.727550
1030.138945,-148.041188,6741.640382,13693.809927
1030.139275,-518.144159,7814.174080,12435.459826
1030.139604,148.041188,7124.688131,10955.047942
1030.139934,444.123565,4443.353888,9844.739029
1030.140263,148.041188,3370.820191,9326.594869
1030.140593,0.000000,3140.991542,8808.450710
1030.140922,-1628.453072,2757.943793,7624.121203
1030.141252,-2220.617826,1608.800546,6957.935855
1030.141581,-1628.453072,536.266849,7179.997637
1030.141911,-888.247130,1225.752797,8216.285956
1030.142241,-370.102971,2451.505594,9178.553681
1030.142570,0.000000,3447.429741,9252.574275
1030.142900,-444.123565,4213.525239,10288.862594
1030.143229,-1554.432478,5669.106685,11251.130318
1030.143559,-1998.556043,7048.078582,12213.398043
1030.143888,-1702.473667,7048.078582,13101.645173
1030.144218,-1924.535449,6358.592633,12139.377449
1030.144547,-2812.782580,6588.421283,10362.883188
1030.144877,-3330.926739,5362.668486,7698.141797
1030.145207,-1554.432478,3600.648841,5181.441594
1030.145536,1332.370696,2068.457845,4219.173869
1030.145866,3478.967927,1838.629195,4293.194464
1030.146195,3108.864956,3140.991542,5033.400406
1030.146525,814.226536,3370.820191,6735.874072
1030.146854,-2220.617826,4596.572988,8734.430116
1030.147184,-4145.153275,5592.497135,11621.233289
1030.147513,-4959.379811,6435.202183,14582.057057
1030.147843,-5255.462188,6588.421283,14656.077652
1030.148172,-5921.647536,4979.620737,13619.789333
1030.148502,-4885.359217,3064.381992,11325.150913
1030.148832,-2886.803174,2145.067394,9474.636058
1030.149161,148.041188,2068.457845,7920.203579
1030.149491,2960.823768,2834.553343,5773.606348
1030.149820,4811.338623,3370.820191,5181.441594
1030.150150,5625.565159,4136.915689,5625.565159
1030.150479,4145.153275,4749.792088,7476.080014
1030.150809,592.164754,6511.811733,10658.965565
1030.151138,-3182.885551,9039.926876,13027.624579
1030.151468,-5255.462188,8427.050478,14211.954086
1030.151798,-4885.359217,5362.668486,13767.830521
1030.152127,-3775.050304,1532.190996,11695.253884
1030.152457,-2368.659014,-612.876398,8956.491898
1030.152786,-1480.411884,-306.438199,5995.668130
1030.153116,-1258.350101,842.705048,5773.606348
1030.153445,-814.226536,2145.067394,7550.100608
1030.153775,-1036.288319,4290.134789,8438.347739
1030.154104,-1554.432478,5362.668486,7105.977043
1030.154434,-962.267725,3753.867940,5921.647536
1030.154764,-296.082377,1532.190996,7031.956449
1030.155093,-370.102971,1378.971896,10214.842000
1030.155423,-1850.514855,2834.553343,12731.542202
1030.155752,-3256.906145,3907.087040,13619.789333
1030.156082,-3552.988522,4213.525239,13101.645173
1030.156411,-2294.638420,2757.943793,12139.377449
1030.156741,-740.205942,2298.286494,9770.718434
1030.157070,740.205942,1072.533697,6809.894666
1030.157400,2516.700203,-1072.533697,4959.379811
1030.157729,3478.967927,-1685.410096,5181.441594
1030.158059,2960.823768,0.000000,6809.894666
1030.158389,962.267725,1302.362347,9252.574275
1030.158718,-1258.350101,2604.724693,12435.459826
1030.159048,-3627.009116,3753.867940,14211.954086
1030.159377,-4441.235652,4519.963438,14730.098246
1030.159707,-3627.009116,3294.210641,13545.768739
1030.160036,-2368.659014,766.095498,12583.501014
1030.160366,-1702.473667,-153.219100,10881.027347
1030.160695,-1110.308913,153.219100,9326.594869
1030.161025,-666.185348,1302.362347,7624.121203
1030.161355,-666.185348,2068.457845,7402.059420
1030.161684,-370.102971,2604.724693,7624.121203
1030.162014,0.000000,1685.410096,6143.709319
1030.162343,814.226536,-306.438199,4885.359217
1030.162673,1184.329507,-1532.190996,5995.668130
1030.163002,0.000000,-689.485948,9400.615463
1030.163332,-2294.638420,1225.752797,12361.439231
1030.163661,-3849.070898,3064.381992,15026.180623
1030.163991,-4885.359217,5822.325785,15692.365970
1030.164321,-4737.318029,6894.859482,13841.851115
1030.164650,-2294.638420,3983.696590,11695.253884
1030.164980,1110.308913,1149.143247,9030.512492
1030.165309,2368.659014,1378.971896,5699.585753
1030.165639,1628.453072,1991.848295,3478.967927
1030.165968,1406.391290,1915.238745,3923.091493
1030.166298,518.144159,1838.629195,6217.729913
1030.166627,-1850.514855,3983.696590,7402.059420
1030.166957,-2442.679609,3830.477490,7550.100608
1030.167286,-1480.411884,1225.752797,7624.121203
1030.167616,74.020594,-1532.190996,8956.491898
1030.167946,-888.247130,-766.095498,11029.068536
1030.168275,-2442.679609,1378.971896,12361.439231
1030.168605,-2664.741391,2298.286494,12879.583391
1030.168934,-2960.823768,3677.258390,12435.459826
1030.169264,-2442.679609,4826.401637,11029.068536
1030.169594,-888.247130,2987.772442,9030.512492
1030.169923,1258.350101,76.609550,7179.997637
1030.170253,2146.597232,-995.924147,5921.647536
1030.170582,1184.329507,-1762.019645,5033.400406
1030.170912,222.061783,-1455.581446,7031.956449
1030.171242,-1184.329507,-306.438199,10807.006753
1030.171571,-3034.844362,1608.800546,12065.356855
1030.171901,-3404.947333,1838.629195,11843.295072
1030.172230,-962.267725,0.000000,12139.377449
1030.172560,296.082377,-1762.019645,11917.315666
1030.172890,-296.082377,-1378.971896,12139.377449
1030.173219,-666.185348,-1532.190996,11103.089130
1030.173549,-518.144159,-1225.752797,11399.171507
1030.173878,-1036.288319,536.266849,11843.295072
1030.174208,-2220.617826,2298.286494,11399.171507
1030.174538,-1850.514855,612.876398,10658.965565
1030.174867,-518.144159,-1149.143247,9622.677246
1030.175197,-222.061783,-995.924147,8364.327145
1030.175526,-962.267725,-612.876398,7550.100608
1030.175856,-592.164754,-1149.143247,8734.430116
1030.176186,-1480.411884,-306.438199,9844.739029
1030.176515,-2072.576638,1378.971896,9992.780217
1030.176845,-1406.391290,1302.362347,8660.409521
1030.177174,74.020594,-689.485948,8216.285956
1030.177504,444.123565,-1762.019645,8438.347739
1030.177834,222.061783,-1072.533697,9030.512492
1030.178163,-666.185348,76.609550,9400.615463
1030.178493,-1110.308913,1378.971896,10658.965565
1030.178822,-2220.617826,3217.601092,11177.109724
1030.179152,-3182.885551,3677.258390,10807.006753
1030.179482,-1924.535449,2604.724693,10288.862594
1030.179811,-592.164754,1302.362347,9548.656652
1030.180141,-888.247130,1991.848295,8216.285956
1030.180470,-1036.288319,1762.019645,7254.018232
1030.180800,-962.267725,995.924147,7402.059420
1030.181130,-1110.308913,1915.238745,8216.285956
1030.181459,-1480.411884,3064.381992,7550.100608
1030.181789,-888.247130,2834.553343,7402.059420
1030.182118,0.000000,1149.143247,8068.244768
1030.182448,-518.144159,766.095498,8438.347739
1030.182778,-1184.329507,766.095498,8882.471304
1030.183107,-1184.329507,459.657299,11103.089130
1030.183437,-1258.350101,1685.410096,12361.439231
1030.183766,-2368.659014,4213.525239,12509.480420
1030.184096,-2368.659014,4519.963438,11547.212695
1030.184426,-1110.308913,2374.896044,10584.944971
1030.184755,74.020594,1838.629195,9622.677246
1030.185085,370.102971,2374.896044,8956.491898
1030.185414,296.082377,2451.505594,8290.306550
1030.185744,74.020594,1608.800546,8216.285956
1030.186074,-888.247130,1685.410096,7772.162391
1030.186403,-2220.617826,1532.190996,6735.874072
1030.186733,-1332.370696,153.219100,7105.977043
1030.187062,666.185348,-1532.190996,8956.491898
1030.187392,222.061783,-842.705048,9474.636058
1030.187722,-962.267725,-383.047749,10362.883188
1030.188051,-1850.514855,-383.047749,12065.356855
1030.188381,-2368.659014,1455.581446,13471.748144
1030.188710,-3108.864956,3753.867940,13619.789333
1030.189040,-2664.741391,3064.381992,11621.233289
1030.189370,-888.247130,0.000000,9326.594869
1030.189699,666.185348,-1915.238745,7772.162391
1030.190029,666.185348,-1991.848295,7031.956449
1030.190358,444.123565,-1762.019645,7328.038826
1030.190688,0.000000,-766.095498,8438.347739
1030.191018,-592.164754,0.000000,8882.471304
1030.191347,-518.144159,-153.219100,8586.388927
1030.191677,666.185348,-919.314598,8882.471304
1030.192006,1480.411884,-2451.505594,10584.944971
1030.192336,296.082377,-766.095498,12213.398043
1030.192666,-1628.453072,1455.581446,13249.686362
1030.192995,-2738.761985,2374.896044,13915.871710
1030.193325,-3108.864956,1991.848295,13175.665768
1030.193654,-3108.864956,1455.581446,11547.212695
1030.193984,-2072.576638,383.047749,9252.574275
1030.194314,-74.020594,-2757.943793,7105.977043
1030.194643,74.020594,-2987.772442,6291.750507
1030.194973,-592.164754,-383.047749,6957.935855
1030.195302,-1554.432478,1149.143247,7772.162391
1030.195632,-1628.453072,2068.457845,8364.327145
1030.195962,-1554.432478,2528.115143,7846.182985
1030.196291,-222.061783,1762.019645,7402.059420
1030.196621,1332.370696,-612.876398,7920.203579
1030.196950,1628.453072,-919.314598,9252.574275
1030.197280,-296.082377,0.000000,10658.965565
1030.197610,-2146.597232,1685.410096,11695.253884
1030.197939,-2886.803174,2374.896044,12657.521608
1030.198269,-3330.926739,2987.772442,12435.459826
1030.198598,-2738.761985,2451.505594,10807.006753
1030.198928,-814.226536,1225.752797,9030.512492
1030.199258,370.102971,153.219100,7105.977043
1030.199587,740.205942,0.000000,6365.771101
1030.199917,0.000000,842.705048,6957.935855
1030.200246,-740.205942,2145.067394,8660.409521
1030.200576,-2072.576638,2911.162892,9400.615463
1030.200906,-2664.741391,3830.477490,8216.285956
1030.201235,-1554.432478,1225.752797,7624.121203
1030.201565,444.123565,-1455.581446,8734.430116
1030.201894,1036.288319,-1532.190996,9696.697840
1030.202224,-296.082377,-306.438199,10510.924376
1030.202554,-1480.411884,76.609550,11547.212695
1030.202883,-2294.638420,1378.971896,13397.727550
1030.203213,-3256.906145,4060.306139,13989.892304
1030.203543,-2664.741391,3524.039291,12657.521608
1030.203872,0.000000,919.314598,10288.862594
1030.204202,1850.514855,-383.047749,7624.121203
1030.204531,2072.576638,-1302.362347,6957.935855
1030.204861,1406.391290,-1072.533697,7624.121203
1030.205191,296.082377,1378.971896,8882.471304
1030.205520,-814.226536,2757.943793,8956.491898
1030.205850,-888.247130,2298.286494,8068.244768
1030.206179,0.000000,-536.266849,8364.327145
1030.206509,1258.350101,-2298.286494,8882.471304
1030.206839,444.123565,-2145.067394,9992.780217
1030.207168,-1480.411884,-383.047749,10807.006753
1030.207498,-2738.761985,1378.971896,11769.274478
1030.207827,-3849.070898,2757.943793,13027.624579
1030.208157,-4071.132681,2528.115143,12139.377449
1030.208487,-2516.700203,1149.143247,9992.780217
1030.208816,-518.144159,-459.657299,8068.244768
1030.209146,1110.308913,-1838.629195,6513.812290
1030.209475,0.000000,-383.047749,5847.626942
1030.209805,-814.226536,383.047749,7550.100608
1030.210135,-888.247130,2451.505594,8808.450710
1030.210464,-1554.432478,3140.991542,8364.327145
1030.210794,-888.247130,2451.505594,7402.059420
1030.211123,740.205942,-1685.410096,8216.285956
1030.211453,1184.329507,-2681.334243,9252.574275
1030.211783,-222.061783,-1378.971896,10214.842000
1030.212112,-1998.556043,-536.266849,11325.150913
1030.212442,-2738.761985,766.095498,13545.768739
1030.212771,-3552.988522,3370.820191,14285.974681
1030.213101,-3330.926739,3294.210641,12361.439231
1030.213431,-1628.453072,766.095498,10140.821405
1030.213760,666.185348,-1532.190996,8660.409521
1030.214090,1110.308913,-229.828649,7402.059420
1030.214419,370.102971,842.705048,7402.059420
1030.214749,-296.082377,1149.143247,8290.306550
1030.215079,-1258.350101,2145.067394,9252.574275
1030.215408,-2886.803174,2911.162892,8734.430116
1030.215738,-2368.659014,1838.629195,8290.306550
1030.216067,-222.061783,-1378.971896,8512.368333
1030.216397,1036.288319,-1762.019645,8734.430116
1030.216727,296.082377,-1915.238745,9252.574275
1030.217056,-1554.432478,-1455.581446,10732.986159
1030.217386,-2590.720797,229.828649,12213.398043
1030.217715,-3701.029710,2757.943793,13397.727550
1030.218045,-3182.885551,2834.553343,12287.418637
1030.218375,-1702.473667,1378.971896,10955.047942
1030.218704,592.164754,306.438199,8734.430116
1030.219034,1702.473667,-306.438199,7031.956449
1030.219363,2072.576638,-689.485948,7031.956449
1030.219693,1776.494261,1072.533697,7846.182985
1030.220023,370.102971,2604.724693,8290.306550
1030.220352,-518.144159,2374.896044,8216.285956
1030.220682,0.000000,766.095498,8734.430116
1030.221011,1332.370696,-612.876398,9918.759623
1030.221341,740.205942,-995.924147,10362.883188
1030.221671,-1036.288319,0.000000,10436.903782
1030.222000,-2960.823768,536.266849,11991.336260
1030.222330,-4145.153275,2604.724693,13323.706956
1030.222659,-4367.215058,3370.820191,12953.603985
1030.222989,-3627.009116,2451.505594,10732.986159
1030.223319,-1702.473667,76.609550,8290.306550
1030.223648,-740.205942,-1378.971896,6587.832884
1030.223978,-222.061783,-306.438199,6439.791695
1030.224307,-592.164754,1225.752797,7402.059420
1030.224637,-592.164754,2757.943793,8290.306550
1030.224967,-666.185348,3753.867940,8142.265362
1030.225296,-518.144159,2987.772442,7698.141797
1030.225626,1258.350101,995.924147,8438.347739
1030.225955,1776.494261,-383.047749,9474.636058
1030.226285,222.061783,766.095498,9770.718434
1030.226615,-1184.329507,1072.533697,10955.047942
1030.226944,-1850.514855,1685.410096,12657.521608
1030.227274,-2664.741391,3064.381992,12953.603985
1030.227603,-3034.844362,2757.943793,11473.192101
1030.227933,-1998.556043,1532.190996,9548.656652
1030.228263,-370.102971,0.000000,8142.265362
1030.228592,814.226536,383.047749,7402.059420
1030.228922,148.041188,1455.581446,6883.915261
1030.229251,-444.123565,1608.800546,6883.915261
1030.229581,-1184.329507,2145.067394,7624.121203
1030.229911,-1998.556043,2911.162892,8364.327145
1030.230240,-1554.432478,2757.943793,8512.368333
1030.230570,-740.205942,76.609550,7328.038826
1030.230899,74.020594,-1915.238745,8290.306550
1030.231229,0.000000,-1685.410096,10288.862594
1030.231559,-1110.308913,-383.047749,12361.439231
1030.231888,-2146.597232,842.705048,13693.809927
1030.232218,-3330.926739,1991.848295,13619.789333
1030.232547,-3330.926739,2145.067394,13027.624579
1030.232877,-1628.453072,995.924147,12213.398043
1030.233207,148.041188,-229.828649,11177.109724
1030.233536,1036.288319,0.000000,8734.430116
1030.233866,1184.329507,-995.924147,6587.832884
1030.234195,666.185348,-1225.752797,7254.018232
1030.234525,296.082377,306.438199,8734.430116
1030.234855,0.000000,1225.752797,9400.615463
1030.235184,370.102971,1532.190996,9178.553681
1030.235514,2072.576638,459.657299,9104.533087
1030.235843,2294.638420,-1532.190996,9474.636058
1030.236173,740.205942,-1302.362347,11177.109724
1030.236503,-1924.535449,229.828649,12657.521608
1030.236832,-4071.132681,2604.724693,13545.768739
1030.237162,-4885.359217,3370.820191,12805.562797
1030.237491,-4515.256246,2451.505594,10807.006753
1030.237821,-2738.761985,-536.266849,9104.533087
1030.238151,-1406.391290,-2221.676944,7179.997637
1030.238480,-1480.411884,-1149.143247,5477.523971
1030.238810,-1554.432478,0.000000,5699.585753
1030.239140,-1110.308913,1455.581446,7402.059420
1030.239469,-1184.329507,3064.381992,7698.141797
1030.239799,-1110.308913,3294.210641,7179.997637
1030.240128,814.226536,1608.800546,7476.080014
1030.240458,1924.535449,766.095498,8364.327145
1030.240788,1184.329507,1455.581446,10140.821405
1030.241117,-962.267725,2374.896044,11473.192101
1030.241447,-2516.700203,2145.067394,12731.542202
1030.241776,-3108.864956,3907.087040,12805.562797
1030.242106,-2886.803174,3677.258390,11843.295072
1030.242436,-1554.432478,2221.676944,10066.800811
1030.242765,-888.247130,1225.752797,8586.388927
1030.243095,-222.061783,766.095498,6957.935855
1030.243424,0.000000,1378.971896,6143.709319
1030.243754,296.082377,1685.410096,7105.977043
1030.244084,-370.102971,2834.553343,8142.265362
1030.244413,-1332.370696,3447.429741,7846.182985
1030.244743,-1332.370696,3140.991542,7476.080014
1030.245072,0.000000,919.314598,8512.368333
1030.245402,370.102971,0.000000,10066.800811
1030.245732,-888.247130,842.705048,11399.171507
1030.246061,-2590.720797,383.047749,12435.459826
1030.246391,-3034.844362,1991.848295,13471.748144
1030.246720,-3552.988522,3217.601092,13101.645173
1030.247050,-2738.761985,2528.115143,11843.295072
1030.247380,-1258.350101,1302.362347,10584.944971
1030.247709,296.082377,-153.219100,9326.594869
1030.248039,1258.350101,689.485948,7254.018232
1030.248368,592.164754,229.828649,6587.832884
1030.248698,74.020594,689.485948,7402.059420
1030.249028,-370.102971,1838.629195,8734.430116
1030.249357,-814.226536,2374.896044,8734.430116
1030.249687,0.000000,612.876398,8364.327145
1030.250016,888.247130,-1991.848295,8512.368333
1030.250346,444.123565,-2451.505594,9548.656652
1030.250676,-1258.350101,-229.828649,10955.047942
1030.251005,-2368.659014,383.047749,12435.459826
1030.251335,-3034.844362,2221.676944,13249.686362
1030.251664,-3775.050304,3907.087040,12509.480420
1030.251994,-3034.844362,2451.505594,10436.903782
1030.252324,-1110.308913,-229.828649,8882.471304
1030.252653,444.123565,-2068.457845,8142.265362
1030.252983,-444.123565,-919.314598,7105.977043
1030.253312,-1628.453072,-153.219100,7994.224174
1030.253642,-2738.761985,1608.800546,9104.533087
1030.253972,-3108.864956,2528.115143,9104.533087
1030.254301,-2220.617826,842.705048,8068.244768
1030.254631,0.000000,-766.095498,8142.265362
1030.254960,1332.370696,-1608.800546,9030.512492
1030.255290,0.000000,0.000000,9696.697840
1030.255620,-1258.350101,689.485948,10288.862594
1030.255949,-1480.411884,1149.143247,12213.398043
1030.256279,-1998.556043,3524.039291,12879.583391
1030.256608,-2146.597232,5209.449386,11843.295072
1030.256938,-518.144159,3370.820191,9992.780217
1030.257268,666.185348,612.876398,8068.244768
1030.257597,1258.350101,76.609550,7179.997637
1030.257927,740.205942,842.705048,7105.977043
1030.258256,-518.144159,1762.019645,7550.100608
1030.258586,-1702.473667,1762.019645,8438.347739
1030.258916,-2516.700203,2528.115143,8364.327145
1030.259245,-2220.617826,2068.457845,7920.203579
1030.259575,-888.247130,459.657299,8438.347739
1030.259904,74.020594,-689.485948,9030.512492
1030.260234,-370.102971,689.485948,9622.677246
1030.260564,-1924.535449,1532.190996,10807.006753
1030.260893,-2516.700203,2221.676944,12065.356855
1030.261223,-3182.885551,4060.306139,12213.398043
1030.261552,-2886.803174,4290.134789,10955.047942
1030.261882,-666.185348,2451.505594,9474.636058
1030.262212,740.205942,536.266849,8808.450710
1030.262541,444.123565,-229.828649,7698.141797
1030.262871,-370.102971,153.219100,7328.038826
1030.263200,-888.247130,536.266849,8438.347739
1030.263530,-1184.329507,1991.848295,9918.759623
1030.263860,-962.267725,2681.334243,10140.821405
1030.264189,-592.164754,1072.533697,9474.636058
1030.264519,518.144159,-1302.362347,9326.594869
1030.264848,296.082377,-1608.800546,9770.718434
1030.265178,-962.267725,153.219100,10807.006753
1030.265508,-1924.535449,1149.143247,12213.398043
1030.265837,-3108.864956,1991.848295,12953.603985
1030.266167,-3478.967927,3140.991542,12139.377449
1030.266496,-2516.700203,1685.410096,10362.883188
1030.266826,-592.164754,-153.219100,9252.574275
1030.267156,222.061783,-536.266849,8364.327145
1030.267485,0.000000,0.000000,7994.224174
1030.267815,-1258.350101,766.095498,8438.347739
1030.268145,-1776.494261,2145.067394,9400.615463
1030.268474,-1480.411884,2757.943793,9400.615463
1030.268804,-1332.370696,2145.067394,8142.265362
1030.269133,0.000000,0.000000,7550.100608
1030.269463,962.267725,-1762.019645,8142.265362
1030.269793,444.123565,-1685.410096,9030.512492
1030.270122,-1554.432478,612.876398,10066.800811
1030.270452,-2812.782580,1838.629195,11177.109724
1030.270782,-2886.803174,2298.286494,11251.130318
1030.271111,-2960.823768,2757.943793,10288.862594
1030.271441,-1924.535449,2221.676944,9030.512492
1030.271771,0.000000,995.924147,8068.244768
1030.272100,370.102971,919.314598,7254.018232
1030.272430,74.020594,459.657299,6439.791695
1030.272760,-888.247130,612.876398,6957.935855
1030.273089,-1702.473667,1685.410096,8808.450710
1030.273419,-2368.659014,2987.772442,9252.574275
1030.273748,-1924.535449,2374.896044,8512.368333
1030.274078,-296.082377,-459.657299,8882.471304
1030.274408,888.247130,-1378.971896,9696.697840
1030.274737,-444.123565,-153.219100,10881.027347
1030.275067,-2146.597232,919.314598,11769.274478
1030.275397,-2886.803174,1455.581446,12583.501014
1030.275726,-3256.906145,2757.943793,13397.727550
1030.276056,-2738.761985,3524.039291,12583.501014
1030.276386,-1628.453072,1378.971896,10436.903782
1030.276715,-222.061783,-536.266849,9030.512492
1030.277045,518.144159,-383.047749,8142.265362
1030.277375,148.041188,612.876398,7994.224174
1030.277704,0.000000,76.609550,8660.409521
1030.278034,-962.267725,1762.019645,9474.636058
1030.278364,-1332.370696,2374.896044,9474.636058
1030.278693,-666.185348,612.876398,8586.388927
1030.279023,296.082377,-2068.457845,8734.430116
1030.279352,592.164754,-3064.381992,9474.636058
1030.279682,-1036.288319,-1608.800546,10436.903782
1030.280012,-2294.638420,-153.219100,12583.501014
1030.280341,-3256.906145,1149.143247,12731.542202
1030.280671,-3701.029710,1838.629195,11843.295072
1030.281001,-2738.761985,1378.971896,10436.903782
1030.281330,-888.247130,919.314598,8438.347739
1030.281660,740.205942,0.000000,7476.080014
1030.281990,814.226536,0.000000,6809.894666
1030.282319,-148.041188,459.657299,7105.977043
1030.282649,-1406.391290,1608.800546,8512.368333
1030.282979,-2146.597232,2528.115143,8808.450710
1030.283308,-1628.453072,2068.457845,7920.203579
1030.283638,-962.267725,0.000000,7476.080014
1030.283967,0.000000,-2145.067394,8882.471304
1030.284297,-666.185348,-1838.629195,10140.821405
1030.284627,-2368.659014,459.657299,10807.006753
1030.284956,-3330.926739,1608.800546,11991.336260
1030.285286,-3997.112087,3140.991542,12583.501014
1030.285616,-3330.926739,3600.648841,11991.336260
1030.285945,-1998.556043,2451.505594,9918.759623
1030.286275,74.020594,689.485948,8290.306550
1030.286605,1776.494261,1225.752797,6957.935855
1030.286934,1184.329507,1762.019645,6661.853478
1030.287264,148.041188,1762.019645,7402.059420
1030.287594,-814.226536,2145.067394,8438.347739
1030.287923,-1406.391290,2528.115143,8882.471304
1030.288253,-1184.329507,2911.162892,8808.450710
1030.288582,-148.041188,1532.190996,8808.450710
1030.288912,74.020594,-1072.533697,9104.533087
1030.289242,-222.061783,-1378.971896,9696.697840
1030.289571,-1702.473667,-153.219100,10732.986159
1030.289901,-3108.864956,1455.581446,12139.377449
1030.290231,-3404.947333,3983.696590,12435.459826
1030.290560,-3182.885551,3983.696590,11621.233289
1030.290890,-1628.453072,1915.238745,9178.553681
1030.291220,222.061783,-536.266849,7994.224174
1030.291549,962.267725,0.000000,7328.038826
1030.291879,370.102971,1149.143247,7328.038826
1030.292209,-592.164754,995.924147,8068.244768
1030.292538,-1554.432478,1532.190996,9548.656652
1030.292868,-2294.638420,1685.410096,10140.821405
1030.293197,-1850.514855,689.485948,9622.677246
1030.293527,-814.226536,-1302.362347,9104.533087
1030.293857,518.144159,-2221.676944,9252.574275
1030.294186,0.000000,-1762.019645,10288.862594
1030.294516,-962.267725,-995.924147,11621.233289
1030.294846,-2220.617826,1072.533697,12583.501014
1030.295175,-2738.761985,2757.943793,11695.253884
1030.295505,-2146.597232,2834.553343,10436.903782
1030.295835,-222.061783,383.047749,8882.471304
1030.296164,740.205942,-1072.533697,8142.265362
1030.296494,1036.288319,-766.095498,7624.121203
1030.296824,-222.061783,0.000000,7476.080014
1030.297153,-1406.391290,0.000000,7846.182985
1030.297483,-2072.576638,689.485948,9770.718434
1030.297812,-2368.659014,1378.971896,10362.883188
1030.298142,-1184.329507,0.000000,9770.718434
1030.298472,-518.144159,-1762.019645,9400.615463
1030.298801,-962.267725,-1991.848295,9696.697840
1030.299131,-1998.556043,-1072.533697,10658.965565
1030.299461,-2590.720797,153.219100,12509.480420
1030.299790,-3182.885551,2451.505594,13101.645173
1030.300120,-3256.906145,3370.820191,11325.150913
1030.300450,-2072.576638,919.314598,8956.491898
1030.300779,0.000000,-536.266849,8438.347739
1030.301109,1406.391290,-612.876398,8364.327145
1030.301439,962.267725,995.924147,7698.141797
1030.301768,0.000000,2298.286494,6883.915261
1030.302098,-444.123565,1455.581446,7698.141797
1030.302427,-222.061783,2298.286494,9178.553681
1030.302757,0.000000,3064.381992,9104.533087
1030.303087,222.061783,1991.848295,8364.327145
1030.303416,666.185348,-306.438199,8216.285956
1030.303746,-666.185348,-919.314598,8882.471304
1030.304076,-1850.514855,919.314598,11473.192101
1030.304405,-3330.926739,842.705048,12657.521608
1030.304735,-3775.050304,2451.505594,12139.377449
1030.305065,-4071.132681,4136.915689,10214.842000
1030.305394,-2516.700203,2298.286494,8586.388927
1030.305724,-370.102971,-153.219100,7772.162391
1030.306054,518.144159,-229.828649,7476.080014
1030.306383,0.000000,1532.190996,7179.997637
1030.306713,-962.267725,1991.848295,7328.038826
1030.307042,-1184.329507,1302.362347,8512.368333
1030.307372,-1332.370696,1149.143247,9696.697840
1030.307702,-666.185348,1225.752797,9770.718434
1030.308031,222.061783,-383.047749,9696.697840
1030.308361,740.205942,-995.924147,10214.842000
1030.308691,0.000000,-153.219100,11399.171507
1030.309020,-1480.411884,0.000000,12139.377449
1030.309350,-1702.473667,1455.581446,13101.645173
1030.309680,-2072.576638,3217.601092,12657.521608
1030.310009,-1924.535449,3064.381992,10658.965565
1030.310339,-666.185348,919.314598,9474.636058
1030.310669,888.247130,-842.705048,9030.512492
1030.310998,888.247130,-383.047749,8290.306550
1030.311328,-962.267725,229.828649,7772.162391
1030.311657,-1702.473667,1378.971896,8734.430116
1030.311987,-2072.576638,1225.752797,9770.718434
1030.312317,-2220.617826,1378.971896,9918.759623
1030.312646,-1406.391290,0.000000,9400.615463
1030.312976,-370.102971,-1225.752797,8364.327145
1030.313306,-814.226536,-1378.971896,9178.553681
1030.313635,-1702.473667,-383.047749,10288.862594
1030.313965,-2294.638420,536.266849,11473.192101
1030.314295,-2590.720797,1838.629195,11843.295072
1030.314624,-2442.679609,4213.525239,11399.171507
1030.314954,-1628.453072,3064.381992,8808.450710
1030.315284,74.020594,919.314598,7698.141797
1030.315613,1628.453072,-306.438199,6957.935855
1030.315943,1702.473667,229.828649,6883.915261
1030.316272,370.102971,1991.848295,7254.018232
1030.316602,-962.267725,2987.772442,7772.162391
1030.316932,-1332.370696,3370.820191,8586.388927
1030.317261,-888.247130,2298.286494,8290.306550
1030.317591,-222.061783,229.828649,7772.162391
1030.317921,518.144159,-1149.143247,8142.265362
1030.318250,148.041188,-1225.752797,9474.636058
1030.318580,-1924.535449,-306.438199,10658.965565
1030.318910,-3701.029710,1378.971896,12509.480420
1030.319239,-4145.153275,3217.601092,13471.748144
1030.319569,-3997.112087,4136.915689,12953.603985
1030.319899,-2886.803174,2987.772442,10807.006753
1030.320228,-1258.350101,1072.533697,9030.512492
1030.320558,148.041188,-1302.362347,7105.977043
1030.320887,592.164754,-995.924147,7402.059420
1030.321217,0.000000,766.095498,8660.409521
1030.321547,-592.164754,2298.286494,9770.718434
1030.321876,-1480.411884,2221.676944,9992.780217
1030.322206,-666.185348,1838.629195,9104.533087
1030.322536,1036.288319,-766.095498,9104.533087
1030.322865,2590.720797,-2451.505594,9770.718434
1030.323195,1628.453072,-842.705048,10658.965565
1030.323525,-740.205942,536.266849,10436.903782
1030.323854,-2294.638420,766.095498,12065.356855
1030.324184,-2886.803174,2528.115143,13027.624579
1030.324514,-2664.741391,3140.991542,12139.377449
1030.324843,-1924.535449,1072.533697,9622.677246
1030.325173,-222.061783,-383.047749,7476.080014
1030.325502,814.226536,-1685.410096,6365.771101
1030.325832,0.000000,-919.314598,6883.915261
1030.326162,-1554.432478,766.095498,7698.141797
1030.326491,-2368.659014,1991.848295,9030.512492
1030.326821,-2368.659014,2145.067394,9030.512492
1030.327151,-1554.432478,766.095498,8882.471304
1030.327480,-518.144159,-2068.457845,8364.327145
1030.327810,74.020594,-3447.429741,8882.471304
1030.328140,-592.164754,-1915.238745,10436.903782
1030.328469,-1850.514855,842.705048,11917.315666
1030.328799,-2442.679609,3140.991542,13027.624579
1030.329129,-2812.782580,3294.210641,12509.480420
1030.329458,-1850.514855,3140.991542,11029.068536
1030.329788,296.082377,1685.410096,9622.677246
1030.330118,1554.432478,689.485948,8290.306550
1030.330447,1776.494261,766.095498,6661.853478
1030.330777,518.144159,689.485948,6587.832884
1030.331106,-296.082377,1991.848295,8290.306550
1030.331436,-888.247130,3217.601092,9548.656652
1030.331766,-1110.308913,3907.087040,9474.636058
1030.332095,-592.164754,2145.067394,8512.368333
1030.332425,-370.102971,-1149.143247,7179.997637
1030.332755,-296.082377,-1762.019645,8956.491898
1030.333084,-1628.453072,459.657299,11251.130318
1030.333414,-3330.926739,2987.772442,12361.439231
1030.333744,-4663.297435,4213.525239,12435.459826
1030.334073,-4293.194464,4749.792088,11547.212695
1030.334403,-2664.741391,2604.724693,9474.636058
1030.334733,-296.082377,1149.143247,8438.347739
1030.335062,962.267725,919.314598,6587.832884
1030.335392,1110.308913,1378.971896,5699.585753
1030.335721,740.205942,1225.752797,6587.832884
1030.336051,148.041188,2451.505594,9104.533087
1030.336381,-1554.432478,3983.696590,9400.615463
1030.336710,-1406.391290,3294.210641,8068.244768
1030.337040,370.102971,536.266849,8290.306550
1030.337370,1776.494261,-689.485948,9326.594869
1030.337699,1110.308913,-153.219100,9696.697840
1030.338029,-814.226536,0.000000,10066.800811
1030.338359,-1998.556043,536.266849,11251.130318
1030.338688,-2664.741391,2528.115143,12435.459826
1030.339018,-2812.782580,3524.039291,12435.459826
1030.339348,-1480.411884,1072.533697,10584.944971
1030.339677,0.000000,-1532.190996,8808.450710
1030.340007,666.185348,-919.314598,8364.327145
1030.340336,74.020594,0.000000,8882.471304
1030.340666,-1258.350101,153.219100,9548.656652
1030.340996,-2368.659014,842.705048,10362.883188
1030.341325,-2368.659014,1762.019645,10510.924376
1030.341655,-1332.370696,153.219100,9770.718434
1030.341985,74.020594,-2298.286494,9400.615463
1030.342314,1184.329507,-2681.334243,10066.800811
1030.342644,222.061783,-1532.190996,10807.006753
1030.342974,-1924.535449,0.000000,11547.212695
1030.343303,-2368.659014,2145.067394,12583.501014
1030.343633,-2590.720797,2757.943793,12657.521608
1030.343963,-1998.556043,2528.115143,11325.150913
1030.344292,-592.164754,1532.190996,9400.615463
1030.344622,1332.370696,-689.485948,7698.141797
1030.344951,1258.350101,-1685.410096,6217.729913
1030.345281,-222.061783,-459.657299,6735.874072
1030.345611,-1554.432478,1762.019645,8438.347739
1030.345940,-2368.659014,3600.648841,8956.491898
1030.346270,-2072.576638,3830.477490,7846.182985
1030.346600,-444.123565,1608.800546,6661.853478
1030.346929,1332.370696,-995.924147,7179.997637
1030.347259,1184.329507,-919.314598,8364.327145
1030.347589,-888.247130,1072.533697,9252.574275
1030.347918,-2516.700203,1685.410096,10288.862594
1030.348248,-3330.926739,3677.258390,12287.418637
1030.348578,-4219.173869,4903.011187,12583.501014
1030.348907,-3404.947333,4060.306139,10510.924376
1030.349237,-1480.411884,1072.533697,8142.265362
1030.349566,740.205942,-1608.800546,6735.874072
1030.349896,1406.391290,76.609550,6587.832884
1030.350226,74.020594,1608.800546,7772.162391
1030.350555,-666.185348,2604.724693,9030.512492
1030.350885,-1184.329507,3907.087040,9696.697840
1030.351215,-666.185348,3753.867940,9622.677246
1030.351544,444.123565,1378.971896,9770.718434
1030.351874,1924.535449,76.609550,10584.944971
1030.352204,1480.411884,229.828649,10584.944971
1030.352533,0.000000,919.314598,10807.006753
1030.352863,-1850.514855,766.095498,12139.377449
1030.353193,-2886.803174,2145.067394,13397.727550
1030.353522,-4071.132681,3294.210641,12805.562797
1030.353852,-2886.803174,2068.457845,11103.089130
1030.354181,-962.267725,0.000000,9104.533087
1030.354511,0.000000,-1685.410096,7402.059420
1030.354841,0.000000,-1149.143247,7254.018232
1030.355170,-814.226536,383.047749,7698.141797
1030.355500,-888.247130,2221.676944,8956.491898
1030.355830,-1036.288319,3370.820191,8586.388927
1030.356159,-518.144159,1685.410096,8142.265362
1030.356489,296.082377,-1302.362347,8882.471304
1030.356819,1110.308913,-1302.362347,9622.677246
1030.357148,222.061783,-383.047749,9918.759623
1030.357478,-1036.288319,153.219100,10658.965565
1030.357808,-2146.597232,0.000000,11621.233289
1030.358137,-3478.967927,1225.752797,11843.295072
1030.358467,-2442.679609,2374.896044,11621.233289
1030.358796,-1406.391290,2145.067394,9178.553681
1030.359126,592.164754,306.438199,7476.080014
1030.359456,592.164754,-689.485948,6439.791695
1030.359785,222.061783,-1149.143247,6883.915261
1030.360115,-666.185348,383.047749,8438.347739
1030.360445,-1554.432478,1991.848295,8438.347739
1030.360774,-1702.473667,2681.334243,7994.224174
1030.361104,-1258.350101,612.876398,8216.285956
1030.361434,0.000000,-1378.971896,9770.718434
1030.361763,-518.144159,-1072.533697,10362.883188
1030.362093,-1480.411884,-612.876398,10066.800811
1030.362423,-2590.720797,153.219100,11325.150913
1030.362752,-3182.885551,1455.581446,13101.645173
1030.363082,-3701.029710,3217.601092,13471.748144
1030.363411,-2590.720797,3140.991542,11695.253884
1030.363741,-740.205942,1685.410096,8882.471304
1030.364071,1184.329507,842.705048,8068.244768
1030.364400,1480.411884,919.314598,7994.224174
1030.364730,370.102971,1225.752797,7624.121203
1030.365060,-740.205942,1608.800546,8142.265362
1030.365389,-1332.370696,2681.334243,8586.388927
1030.365719,-1554.432478,2221.676944,8512.368333
1030.366049,-962.267725,919.314598,8808.450710
1030.366378,0.000000,-1149.143247,9252.574275
1030.366708,296.082377,-1302.362347,9474.636058
1030.367038,-444.123565,383.047749,9992.780217
1030.367367,-1110.308913,1532.190996,11695.253884
1030.367697,-1850.514855,2681.334243,12361.439231
1030.368026,-2368.659014,3753.867940,11991.336260
1030.368356,-1628.453072,3677.258390,10658.965565
1030.368686,0.000000,2145.067394,9030.512492
1030.369015,592.164754,1378.971896,7328.038826
1030.369345,-148.041188,383.047749,7105.977043
1030.369675,-666.185348,-229.828649,7328.038826
1030.370004,-1110.308913,306.438199,8438.347739
1030.370334,-2146.597232,1225.752797,8956.491898
1030.370663,-2442.679609,1225.752797,8808.450710
1030.370993,-1332.370696,-459.657299,8808.450710
1030.371322,0.000000,-2298.286494,9400.615463
1030.371652,0.000000,-1072.533697,10510.924376
1030.371982,-962.267725,689.485948,11547.212695
1030.372311,-2294.638420,1762.019645,12583.501014
1030.372641,-2368.659014,3370.820191,13249.686362
1030.372970,-2220.617826,3370.820191,11547.212695
1030.373300,-814.226536,1455.581446,9178.553681
1030.373629,740.205942,0.000000,8216.285956
1030.373959,962.267725,-536.266849,8068.244768
1030.374288,296.082377,459.657299,8364.327145
1030.374618,-1332.370696,919.314598,7920.203579
1030.374947,-2072.576638,1072.533697,8586.388927
1030.375277,-1850.514855,1455.581446,8956.491898
1030.375607,-1036.288319,766.095498,8734.430116
1030.375936,74.020594,-612.876398,8956.491898
1030.376266,-370.102971,-2068.457845,8068.244768
1030.376595,-1184.329507,-842.705048,9178.553681
1030.376925,-2072.576638,229.828649,11103.089130
1030.377254,-2960.823768,2068.457845,13027.624579
1030.377584,-3552.988522,4596.572988,12509.480420
1030.377913,-3034.844362,3294.210641,9696.697840
1030.378243,-962.267725,-76.609550,7698.141797
1030.378573,592.164754,-1991.848295,7031.956449
1030.378902,666.185348,-383.047749,7476.080014
1030.379232,0.000000,1762.019645,7550.100608
1030.379561,-1184.329507,2451.505594,7402.059420
1030.379891,-1850.514855,1455.581446,7846.182985
1030.380220,-1258.350101,995.924147,8956.491898
1030.380550,-148.041188,0.000000,9696.697840
1030.380879,666.185348,-689.485948,9622.677246
1030.381209,518.144159,-1149.143247,9400.615463
1030.381538,-370.102971,-306.438199,10732.986159
1030.381868,-2146.597232,306.438199,13101.645173
1030.382198,-3108.864956,2221.676944,14508.036463
1030.382527,-3404.947333,4136.915689,13175.665768
1030.382857,-2294.638420,1991.848295,10658.965565
1030.383186,0.000000,-842.705048,9252.574275
1030.383516,666.185348,-2068.457845,8512.368333
1030.383845,444.123565,-842.705048,8142.265362
1030.384175,-444.123565,536.266849,8438.347739
1030.384504,-1480.411884,1608.800546,9104.533087
1030.384834,-2072.576638,2528.115143,9770.718434
1030.385163,-962.267725,536.266849,10140.821405
1030.385493,-296.082377,-766.095498,9252.574275
1030.385823,370.102971,-1838.629195,8882.471304
1030.386152,296.082377,-2145.067394,9474.636058
1030.386482,-740.205942,-1149.143247,11029.068536
1030.386811,-2368.659014,0.000000,12583.501014
1030.387141,-3552.988522,2451.505594,12583.501014
1030.387470,-3034.844362,3983.696590,11251.130318
1030.387800,-1554.432478,2528.115143,9252.574275
1030.388129,148.041188,0.000000,7920.203579
1030.388459,740.205942,-383.047749,6809.894666
1030.388789,148.041188,612.876398,7031.956449
1030.389118,-592.164754,2068.457845,7328.038826
1030.389448,-1776.494261,2451.505594,8290.306550
1030.389777,-2516.700203,2987.772442,8882.471304
1030.390107,-1628.453072,1225.752797,8142.265362
1030.390436,-222.061783,-689.485948,7994.224174
1030.390766,370.102971,-1991.848295,7846.182985
1030.391095,-222.061783,-612.876398,9178.553681
1030.391425,-1850.514855,1149.143247,11177.109724
1030.391754,-2738.761985,2528.115143,12805.562797
1030.392084,-3478.967927,4366.744339,12731.542202
1030.392414,-2812.782580,4903.011187,11251.130318
1030.392743,-1480.411884,2528.115143,9178.553681
1030.393073,148.041188,153.219100,8512.368333
1030.393402,592.164754,76.609550,7772.162391
1030.393732,0.000000,1838.629195,6661.853478
1030.394061,-1184.329507,1762.019645,7550.100608
1030.394391,-1776.494261,1915.238745,9178.553681
1030.394720,-2368.659014,2681.334243,9992.780217
1030.395050,-1554.432478,1685.410096,8808.450710
1030.395380,0.000000,-1149.143247,7994.224174
1030.395709,740.205942,-1532.190996,8586.388927
1030.396039,0.000000,-919.314598,10140.821405
1030.396368,-1184.329507,459.657299,12287.418637
1030.396698,-2516.700203,2221.676944,13101.645173
1030.397027,-3182.885551,4213.525239,12065.356855
1030.397357,-2146.597232,3370.820191,11029.068536
1030.397686,-296.082377,0.000000,9844.739029
1030.398016,1036.288319,-1455.581446,8438.347739
1030.398345,1184.329507,-1149.143247,7402.059420
1030.398675,370.102971,-306.438199,7031.956449
1030.399005,-1258.350101,995.924147,7920.203579
1030.399334,-2220.617826,1762.019645,9918.759623
1030.399664,-2368.659014,1991.848295,9622.677246
1030.399993,-1702.473667,-842.705048,8512.368333
1030.400323,-222.061783,-2604.724693,8290.306550
1030.400652,0.000000,-2604.724693,9104.533087
1030.400982,-518.144159,-2374.896044,10658.965565
1030.401311,-2294.638420,-1455.581446,12435.459826
1030.401641,-4145.153275,1608.800546,13323.706956
1030.401970,-4589.276840,4213.525239,13027.624579
1030.402300,-2516.700203,3217.601092,12065.356855
1030.402630,-296.082377,153.219100,9400.615463
1030.402959,1110.308913,-1915.238745,7402.059420
1030.403289,1406.391290,-2298.286494,7031.956449
1030.403618,518.144159,0.000000,8068.244768
1030.403948,-814.226536,2298.286494,9474.636058
1030.404277,-2146.597232,3524.039291,9548.656652
1030.404607,-1480.411884,2145.067394,9030.512492
1030.404936,0.000000,-995.924147,9400.615463
1030.405266,740.205942,-1378.971896,10140.821405
1030.405596,-370.102971,153.219100,9622.677246
1030.405925,-1776.494261,0.000000,10066.800811
1030.406255,-2442.679609,766.095498,11769.274478
1030.406584,-3775.050304,3217.601092,12435.459826
1030.406914,-3849.070898,4366.744339,11399.171507
1030.407243,-2664.741391,2451.505594,9252.574275
1030.407573,-1184.329507,919.314598,6957.935855
1030.407902,370.102971,-383.047749,5921.647536
1030.408232,740.205942,-153.219100,6365.771101
1030.408561,0.000000,1762.019645,7105.977043
1030.408891,-1258.350101,3677.258390,7846.182985
1030.409221,-2294.638420,4136.915689,8364.327145
1030.409550,-1480.411884,3064.381992,8290.306550
1030.409880,222.061783,153.219100,9326.594869
1030.410209,1036.288319,-383.047749,9548.656652
