#time,accel_x,accel_y,accel_z
971.320242,-962.267725,919.314598,9548.656652
971.320572,-666.185348,1302.362347,9548.656652
971.320901,-1036.288319,995.924147,9844.739029
971.321231,-1110.308913,842.705048,9548.656652
971.321560,-962.267725,919.314598,9622.677246
971.321890,-1184.329507,842.705048,9770.718434
971.322219,-814.226536,1302.362347,9622.677246
971.322549,-962.267725,842.705048,9326.594869
971.322879,-962.267725,689.485948,9474.636058
971.323208,-1184.329507,919.314598,9400.615463
971.323538,-1110.308913,766.095498,9474.636058
971.323867,-1184.329507,1072.533697,9474.636058
971.324197,-962.267725,1072.533697,9474.636058
971.324526,-962.267725,1149.143247,9622.677246
971.324856,-962.267725,1149.143247,9548.656652
971.325185,-1258.350101,842.705048,9326.594869
971.325515,-962.267725,1072.533697,9474.636058
971.325845,-1184.329507,842.705048,9178.553681
971.326174,-814.226536,689.485948,9474.636058
971.326504,-962.267725,995.924147,9548.656652
971.326833,-1036.288319,842.705048,9622.677246
971.327163,-1110.308913,1225.752797,9622.677246
971.327492,-740.205942,1378.971896,9252.574275
971.327822,-1036.288319,1149.143247,9252.574275
971.328151,-1110.308913,1072.533697,9326.594869
971.328481,-962.267725,919.314598,9474.636058
971.328811,-962.267725,995.924147,9548.656652
971.329140,-962.267725,1149.143247,9474.636058
971.329470,-814.226536,1225.752797,9474.636058
971.329799,-1332.370696,919.314598,9400.615463
971.330129,-962.267725,995.924147,9770.718434
971.330458,-1036.288319,919.314598,9622.677246
971.330788,-814.226536,766.095498,9622.677246
971.331117,-1036.288319,995.924147,9252.574275
971.331447,-1036.288319,1225.752797,9622.677246
971.331776,-1110.308913,919.314598,9474.636058
971.332106,-1110.308913,842.705048,9474.636058
971.332436,-1258.350101,1149.143247,9548.656652
971.332765,-1258.350101,919.314598,9622.677246
971.333095,-1110.308913,919.314598,9400.615463
971.333424,-1110.308913,919.314598,9696.697840
971.333754,-1110.308913,1072.533697,9548.656652
971.334083,-1184.329507,1149.143247,9474.636058
971.334413,-1036.288319,689.485948,9252.574275
971.334742,-1110.308913,1532.190996,9252.574275
971.335072,-962.267725,1149.143247,9474.636058
971.335402,-1110.308913,689.485948,9474.636058
971.335731,-962.267725,919.314598,9474.636058
971.336061,-814.226536,842.705048,9548.656652
971.336390,-1036.288319,1149.143247,9400.615463
971.336720,-1480.411884,842.705048,9474.636058
971.337049,-888.247130,1072.533697,9770.718434
971.337379,-1110.308913,919.314598,9696.697840
971.337708,-962.267725,919.314598,9548.656652
971.338038,-666.185348,1225.752797,9844.739029
971.338368,-814.226536,842.705048,9622.677246
971.338697,-962.267725,842.705048,9474.636058
971.339027,-1110.308913,842.705048,9400.615463
971.339356,-1036.288319,995.924147,9548.656652
971.339686,-962.267725,766.095498,9252.574275
971.340015,-888.247130,689.485948,9326.594869
971.340345,-962.267725,919.314598,9474.636058
971.340674,-1110.308913,1072.533697,9326.594869
971.341004,-1036.288319,995.924147,9622.677246
971.341334,-888.247130,1072.533697,9696.697840
971.341663,-666.185348,1149.143247,9696.697840
971.341993,-1110.308913,766.095498,9548.656652
971.342322,-888.247130,995.924147,9622.677246
971.342652,-1036.288319,1072.533697,9622.677246
971.342981,-1110.308913,995.924147,9918.759623
971.343311,-1332.370696,919.314598,9622.677246
971.343640,-888.247130,1532.190996,9474.636058
971.343970,-962.267725,766.095498,9548.656652
971.344300,-1184.329507,766.095498,9548.656652
971.344629,-1036.288319,919.314598,9548.656652
971.344959,-1184.329507,689.485948,9252.574275
971.345288,-740.205942,995.924147,9474.636058
971.345618,-222.061783,919.314598,8734.430116
971.345947,518.144159,536.266849,9252.574275
971.346277,1110.308913,689.485948,9400.615463
971.346606,962.267725,689.485948,8956.491898
971.346936,814.226536,766.095498,9548.656652
971.347266,0.000000,766.095498,10066.800811
971.347595,-592.164754,1149.143247,10362.883188
971.347925,-962.267725,766.095498,10732.986159
971.348254,-592.164754,153.219100,10362.883188
971.348584,0.000000,153.219100,9474.636058
971.348913,1036.288319,0.000000,9178.553681
971.349243,1924.535449,0.000000,8808.450710
971.349572,2886.803174,459.657299,8438.347739
971.349902,3552.988522,1225.752797,8438.347739
971.350232,4219.173869,2068.457845,9326.594869
971.350561,4219.173869,2374.896044,9252.574275
971.350891,3627.009116,1915.238745,9992.780217
971.351220,2812.782580,1378.971896,10214.842000
971.351550,1776.494261,995.924147,10436.903782
971.351879,1110.308913,995.924147,10955.047942
971.352209,1036.288319,0.000000,10881.027347
971.352538,1258.350101,-536.266849,10362.883188
971.352868,1702.473667,-536.266849,9474.636058
971.353197,2664.741391,-919.314598,9030.512492
971.353527,3552.988522,0.000000,8956.491898
971.353857,4219.173869,1378.971896,8956.491898
971.354186,4145.153275,2451.505594,9696.697840
971.354516,3182.885551,2757.943793,10214.842000
971.354845,1702.473667,3600.648841,10436.903782
971.355175,0.000000,2834.553343,10140.821405
971.355504,-1406.391290,2374.896044,9548.656652
971.355834,-1702.473667,383.047749,8808.450710
971.356163,-222.061783,-766.095498,7994.224174
971.356493,962.267725,-1302.362347,7105.977043
971.356823,2590.720797,-1455.581446,6661.853478
971.357152,3775.050304,-689.485948,6735.874072
971.357482,4293.194464,1532.190996,8142.265362
971.357811,3552.988522,3370.820191,9770.718434
971.358141,2368.659014,4596.572988,11769.274478
971.358470,1110.308913,4366.744339,12509.480420
971.358800,74.020594,2911.162892,12509.480420
971.359129,-518.144159,1762.019645,12065.356855
971.359459,-888.247130,-1302.362347,11251.130318
971.359789,-740.205942,-2298.286494,10140.821405
971.360118,0.000000,-2451.505594,8438.347739
971.360448,962.267725,-2221.676944,7624.121203
971.360777,2960.823768,-1762.019645,7328.038826
971.361107,4367.215058,0.000000,7328.038826
971.361436,4367.215058,1532.190996,7550.100608
971.361766,4219.173869,2911.162892,8290.306550
971.362095,3701.029710,4136.915689,9178.553681
971.362425,3108.864956,3907.087040,10584.944971
971.362755,2220.617826,3370.820191,11695.253884
971.363084,1332.370696,1838.629195,11843.295072
971.363414,74.020594,153.219100,11547.212695
971.363743,-814.226536,-995.924147,11029.068536
971.364073,-962.267725,-1378.971896,10881.027347
971.364402,-888.247130,-2068.457845,10362.883188
971.364732,-222.061783,-1685.410096,10510.924376
971.365061,444.123565,-995.924147,9918.759623
971.365391,1554.432478,229.828649,8882.471304
971.365721,2960.823768,842.705048,8142.265362
971.366050,4811.338623,842.705048,7994.224174
971.366380,5329.482782,1302.362347,8068.244768
971.366709,5181.441594,1225.752797,8068.244768
971.367039,4737.318029,1302.362347,8808.450710
971.367368,3404.947333,1225.752797,9844.739029
971.367698,1924.535449,1608.800546,10807.006753
971.368027,962.267725,1225.752797,11251.130318
971.368357,740.205942,1225.752797,10955.047942
971.368687,888.247130,1455.581446,10362.883188
971.369016,1110.308913,1225.752797,9548.656652
971.369346,1776.494261,842.705048,8660.409521
971.369675,2442.679609,536.266849,7402.059420
971.370005,3256.906145,229.828649,7624.121203
971.370334,2738.761985,1302.362347,8142.265362
971.370664,1924.535449,1378.971896,8808.450710
971.370993,888.247130,995.924147,9326.594869
971.371323,444.123565,1455.581446,10362.883188
971.371652,296.082377,766.095498,10881.027347
971.371982,0.000000,76.609550,11621.233289
971.372312,-370.102971,306.438199,11473.192101
971.372641,-1036.288319,612.876398,10288.862594
971.372971,-592.164754,766.095498,9104.533087
971.373300,1036.288319,383.047749,8364.327145
971.373630,2738.761985,1225.752797,8290.306550
971.373959,4367.215058,1838.629195,8438.347739
971.374289,5921.647536,2528.115143,8586.388927
971.374618,6957.935855,3064.381992,8660.409521
971.374948,7105.977043,2987.772442,9178.553681
971.375278,5551.544565,3140.991542,10362.883188
971.375607,3256.906145,2911.162892,11991.336260
971.375937,740.205942,2451.505594,13767.830521
971.376266,-2442.679609,1378.971896,14582.057057
971.376596,-5699.585753,1072.533697,13323.706956
971.376925,-7105.977043,-1149.143247,10807.006753
971.377255,-6957.935855,-2451.505594,8438.347739
971.377584,-4071.132681,-2528.115143,5033.400406
971.377914,962.267725,-3600.648841,2368.659014
971.378244,5847.626942,-3677.258390,2072.576638
971.378573,8142.265362,-306.438199,3256.906145
971.378903,7476.080014,5209.449386,5625.565159
971.379232,6069.688724,7124.688131,8290.306550
971.379562,4663.297435,7431.126331,12139.377449
971.379891,814.226536,8427.050478,16210.510130
971.380221,-3478.967927,6894.859482,16432.571912
971.380550,-7254.018232,2834.553343,15766.386565
971.380880,-9400.615463,-2221.676944,14359.995275
971.381210,-9178.553681,-4596.572988,12361.439231
971.381539,-6735.874072,-6741.640382,9474.636058
971.381869,-1850.514855,-7507.735880,6143.709319
971.382198,2960.823768,-5515.887586,2516.700203
971.382528,7105.977043,-2757.943793,1850.514855
971.382857,9918.759623,0.000000,3330.926739
971.383187,10140.821405,3447.429741,7105.977043
971.383516,7328.038826,8886.707777,11621.233289
971.383846,2072.576638,11568.042020,14137.933492
971.384176,-3330.926739,8580.269578,15914.427753
971.384505,-7031.956449,4136.915689,16136.489536
971.384835,-8512.368333,-919.314598,14285.974681
971.385164,-7698.141797,-5209.449386,11843.295072
971.385494,-5255.462188,-7507.735880,8216.285956
971.385823,-2294.638420,-7737.564530,4959.379811
971.386153,740.205942,-6205.373534,3701.029710
971.386482,3627.009116,-2451.505594,3923.091493
971.386812,5995.668130,1608.800546,5847.626942
971.387142,5699.585753,6052.154434,8882.471304
971.387471,2516.700203,9346.365076,11769.274478
971.387801,-2368.659014,9729.412825,13841.851115
971.388130,-5773.606348,7048.078582,14359.995275
971.388460,-7105.977043,2298.286494,14211.954086
971.388789,-6513.812290,-2298.286494,12731.542202
971.389119,-5329.482782,-6052.154434,9252.574275
971.389448,-2664.741391,-8503.660028,5403.503377
971.389778,814.226536,-8733.488677,4071.132681
971.390108,4367.215058,-5669.106685,5255.462188
971.390437,5625.565159,0.000000,7105.977043
971.390767,4071.132681,4443.353888,8956.491898
971.391096,1184.329507,8733.488677,10362.883188
971.391426,-888.247130,10189.070123,12583.501014
971.391755,-1480.411884,8273.831378,13989.892304
971.392085,-2368.659014,4749.792088,13915.871710
971.392414,-4515.256246,459.657299,10955.047942
971.392744,-4737.318029,-1762.019645,7994.224174
971.393073,-3256.906145,-4673.182538,6661.853478
971.393403,-2146.597232,-5669.106685,6587.832884
971.393733,-2072.576638,-3983.696590,7105.977043
971.394062,-2590.720797,-536.266849,7402.059420
971.394392,-2738.761985,2681.334243,9474.636058
971.394721,-3330.926739,5209.449386,10510.924376
971.395051,-2590.720797,6741.640382,11251.130318
971.395380,-1406.391290,4826.401637,11473.192101
971.395710,-666.185348,2604.724693,10881.027347
971.396040,222.061783,1532.190996,9844.739029
971.396369,666.185348,689.485948,9326.594869
971.396699,222.061783,-1608.800546,8734.430116
971.397028,0.000000,-2528.115143,9400.615463
971.397358,-962.267725,-689.485948,10066.800811
971.397687,-1850.514855,1838.629195,9770.718434
971.398017,-1702.473667,3447.429741,9474.636058
971.398347,-592.164754,3370.820191,9474.636058
971.398676,1110.308913,2757.943793,9104.533087
971.399006,2368.659014,2451.505594,8808.450710
971.399335,2590.720797,2451.505594,7846.182985
971.399665,2442.679609,2757.943793,7402.059420
971.399995,1406.391290,2451.505594,7846.182985
971.400324,0.000000,1378.971896,9770.718434
971.400654,-2294.638420,919.314598,10807.006753
971.400983,-4737.318029,1608.800546,10807.006753
971.401313,-6143.709319,1072.533697,10584.944971
971.401642,-5847.626942,459.657299,10732.986159
971.401972,-4737.318029,229.828649,10066.800811
971.402302,-2664.741391,-919.314598,8734.430116
971.402631,-222.061783,-536.266849,7179.997637
971.402961,2590.720797,766.095498,6809.894666
971.403290,3775.050304,1302.362347,7550.100608
971.403620,4071.132681,1532.190996,9622.677246
971.403949,2146.597232,2528.115143,10584.944971
971.404279,-666.185348,3524.039291,10955.047942
971.404609,-2516.700203,2834.553343,11251.130318
971.404938,-3034.844362,2068.457845,12435.459826
971.405268,-2072.576638,0.000000,12213.398043
971.405597,-1184.329507,-2451.505594,10214.842000
971.405927,74.020594,-2757.943793,7550.100608
971.406256,2146.597232,-1991.848295,6439.791695
971.406586,3997.112087,-1608.800546,6883.915261
971.406916,3923.091493,-306.438199,8808.450710
971.407245,1332.370696,2068.457845,9918.759623
971.407575,-1702.473667,3677.258390,10362.883188
971.407904,-4071.132681,4213.525239,11177.109724
971.408234,-4811.338623,2834.553343,11843.295072
971.408563,-4959.379811,153.219100,12139.377449
971.408893,-5477.523971,-2987.772442,10140.821405
971.409223,-4293.194464,-4443.353888,8068.244768
971.409552,-2146.597232,-4060.306139,7105.977043
971.409882,0.000000,-3753.867940,7476.080014
971.410211,814.226536,-1532.190996,8290.306550
971.410541,888.247130,229.828649,9474.636058
971.410870,-296.082377,2911.162892,10066.800811
971.411200,-1110.308913,5362.668486,11103.089130
971.411530,-1036.288319,5515.887586,11473.192101
971.411859,0.000000,3217.601092,11103.089130
971.412189,-296.082377,229.828649,10584.944971
971.412518,-888.247130,-1225.752797,9030.512492
971.412848,-888.247130,-383.047749,7994.224174
971.413178,-962.267725,-1685.410096,8586.388927
971.413507,-1702.473667,-2145.067394,10436.903782
971.413837,-3108.864956,-153.219100,11399.171507
971.414166,-4589.276840,1455.581446,11547.212695
971.414496,-4811.338623,2604.724693,11103.089130
971.414825,-4071.132681,2374.896044,9992.780217
971.415155,-2442.679609,1838.629195,8808.450710
971.415485,-740.205942,0.000000,8956.491898
971.415814,518.144159,0.000000,8808.450710
971.416144,1406.391290,1762.019645,7550.100608
971.416473,2072.576638,2145.067394,7179.997637
971.416803,2664.741391,1685.410096,8586.388927
971.417132,2738.761985,1762.019645,10288.862594
971.417462,814.226536,2834.553343,10658.965565
971.417792,-1850.514855,4749.792088,10510.924376
971.418121,-3182.885551,5209.449386,10955.047942
971.418451,-2960.823768,3907.087040,11029.068536
971.418780,-2368.659014,1991.848295,9474.636058
971.419110,-1036.288319,-229.828649,7328.038826
971.419439,0.000000,-229.828649,5625.565159
971.419769,1258.350101,229.828649,5625.565159
971.420099,2072.576638,459.657299,7254.018232
971.420428,1480.411884,995.924147,8586.388927
971.420758,-1184.329507,2451.505594,9696.697840
971.421087,-3108.864956,5056.230287,10510.924376
971.421417,-3478.967927,4903.011187,11621.233289
971.421746,-2516.700203,3830.477490,11843.295072
971.422076,-1850.514855,1072.533697,10584.944971
971.422406,-666.185348,-1072.533697,8882.471304
971.422735,518.144159,-1455.581446,8142.265362
971.423065,2146.597232,-612.876398,8364.327145
971.423394,2590.720797,-306.438199,8882.471304
971.423724,2146.597232,306.438199,9548.656652
971.424053,666.185348,1685.410096,10510.924376
971.424383,-888.247130,3447.429741,10732.986159
971.424713,-1776.494261,3983.696590,11547.212695
971.425042,-1850.514855,2757.943793,11695.253884
971.425372,-1924.535449,153.219100,10732.986159
971.425701,-1850.514855,-2145.067394,8956.491898
971.426031,-1184.329507,-2528.115143,7179.997637
971.426361,0.000000,-2451.505594,7402.059420
971.426690,1036.288319,-1915.238745,8364.327145
971.427020,962.267725,-995.924147,9326.594869
971.427349,-592.164754,76.609550,10584.944971
971.427679,-2960.823768,2451.505594,10510.924376
971.428008,-3775.050304,3064.381992,11399.171507
971.428338,-4071.132681,2451.505594,12139.377449
971.428668,-3923.091493,1149.143247,11621.233289
971.428997,-3552.988522,-1838.629195,9474.636058
971.429327,-2368.659014,-2911.162892,7105.977043
971.429656,-370.102971,-2987.772442,6365.771101
971.429986,888.247130,-2834.553343,7476.080014
971.430315,888.247130,-1915.238745,9030.512492
971.430645,-296.082377,-459.657299,10140.821405
971.430975,-2590.720797,1455.581446,10066.800811
971.431304,-3627.009116,3140.991542,11103.089130
971.431634,-3775.050304,3830.477490,11843.295072
971.431963,-3034.844362,2451.505594,11251.130318
971.432293,-2072.576638,0.000000,9474.636058
971.432622,-740.205942,-1302.362347,7698.141797
971.432952,518.144159,-1991.848295,6883.915261
971.433282,1036.288319,-1915.238745,8290.306550
971.433611,296.082377,-689.485948,9918.759623
971.433941,-1332.370696,995.924147,11547.212695
971.434270,-3256.906145,3370.820191,12139.377449
971.434600,-4367.215058,5209.449386,12139.377449
971.434929,-3849.070898,4213.525239,11769.274478
971.435259,-2294.638420,1915.238745,10732.986159
971.435589,-1406.391290,76.609550,9178.553681
971.435918,-666.185348,-229.828649,7254.018232
971.436248,370.102971,-383.047749,6587.832884
971.436577,1480.411884,153.219100,6587.832884
971.436907,1850.514855,842.705048,8142.265362
971.437236,1110.308913,1685.410096,9770.718434
971.437566,-814.226536,3830.477490,9770.718434
971.437896,-1924.535449,5439.278036,9622.677246
971.438225,-1998.556043,4903.011187,10066.800811
971.438555,-1332.370696,3600.648841,10807.006753
971.438884,-1110.308913,2451.505594,9844.739029
971.439214,-370.102971,612.876398,7772.162391
971.439544,740.205942,536.266849,6809.894666
971.439873,2294.638420,1685.410096,7550.100608
971.440203,2812.782580,842.705048,8142.265362
971.440532,1850.514855,612.876398,8882.471304
971.440862,-740.205942,2681.334243,9252.574275
971.441191,-2738.761985,4903.011187,9474.636058
971.441521,-2886.803174,4596.572988,10658.965565
971.441851,-2368.659014,2604.724693,11473.192101
971.442180,-2294.638420,1072.533697,9992.780217
971.442510,-2220.617826,-1225.752797,7698.141797
971.442839,-666.185348,-1991.848295,7476.080014
971.443169,592.164754,-1991.848295,8882.471304
971.443498,1480.411884,-842.705048,9918.759623
971.443828,74.020594,0.000000,10436.903782
971.444158,-1258.350101,1378.971896,10732.986159
971.444487,-2072.576638,3140.991542,10955.047942
971.444817,-1554.432478,2451.505594,11473.192101
971.445146,-1036.288319,2068.457845,11399.171507
971.445476,-962.267725,536.266849,10362.883188
971.445805,-592.164754,-1838.629195,8586.388927
971.446135,296.082377,-1991.848295,7994.224174
971.446465,1184.329507,-1915.238745,8512.368333
971.446794,962.267725,-995.924147,9252.574275
971.447124,296.082377,-612.876398,9696.697840
971.447453,-1776.494261,612.876398,10140.821405
971.447783,-3108.864956,2145.067394,10658.965565
971.448112,-4219.173869,2451.505594,11251.130318
971.448442,-4737.318029,1532.190996,11103.089130
971.448772,-4367.215058,-919.314598,10436.903782
971.449101,-3330.926739,-2298.286494,9178.553681
971.449431,-2368.659014,-2451.505594,7550.100608
971.449760,-1036.288319,-3140.991542,7254.018232
971.450090,296.082377,-2374.896044,8290.306550
971.450419,1184.329507,-1149.143247,9400.615463
971.450749,-296.082377,-76.609550,9844.739029
971.451079,-3256.906145,2757.943793,10436.903782
971.451408,-4441.235652,4443.353888,11029.068536
971.451738,-3923.091493,3064.381992,11325.150913
971.452067,-2960.823768,919.314598,10584.944971
971.452397,-2442.679609,-1225.752797,8364.327145
971.452727,-1628.453072,-1838.629195,6883.915261
971.453056,148.041188,-2528.115143,6883.915261
971.453386,1628.453072,-2068.457845,8512.368333
971.453715,1628.453072,-612.876398,10140.821405
971.454045,0.000000,536.266849,11547.212695
971.454374,-2072.576638,4213.525239,12287.418637
971.454704,-2812.782580,6128.763984,12805.562797
971.455034,-2146.597232,5286.058936,12213.398043
971.455363,-1406.391290,3677.258390,10510.924376
971.455693,-518.144159,1072.533697,8586.388927
971.456022,1258.350101,-919.314598,6883.915261
971.456352,2072.576638,-995.924147,6439.791695
971.456681,1998.556043,-383.047749,7402.059420
971.457011,962.267725,842.705048,8734.430116
971.457341,-814.226536,1685.410096,9178.553681
971.457670,-2886.803174,3830.477490,9400.615463
971.458000,-3330.926739,4903.011187,10732.986159
971.458329,-3034.844362,4673.182538,11251.130318
971.458659,-2516.700203,4060.306139,10362.883188
971.458988,-1554.432478,1072.533697,8290.306550
971.459318,0.000000,-383.047749,6439.791695
971.459648,1554.432478,0.000000,6957.935855
971.459977,2294.638420,612.876398,7994.224174
971.460307,2072.576638,1532.190996,9178.553681
971.460636,222.061783,2451.505594,9548.656652
971.460966,-1628.453072,4443.353888,9400.615463
971.461295,-2664.741391,4673.182538,10584.944971
971.461625,-2516.700203,3753.867940,11399.171507
971.461955,-2146.597232,2757.943793,11103.089130
971.462284,-1480.411884,153.219100,9918.759623
971.462614,-888.247130,-1302.362347,7698.141797
971.462943,-222.061783,-1378.971896,6735.874072
971.463273,1110.308913,-1838.629195,8216.285956
971.463602,2072.576638,-1225.752797,9770.718434
971.463932,740.205942,76.609550,10288.862594
971.464262,-1702.473667,1915.238745,9992.780217
971.464591,-3627.009116,2911.162892,10436.903782
971.464921,-3404.947333,2374.896044,11769.274478
971.465250,-2368.659014,1302.362347,11991.336260
971.465580,-2072.576638,-229.828649,10658.965565
971.465909,-1628.453072,-2298.286494,8660.409521
971.466239,-444.123565,-2374.896044,7179.997637
971.466569,370.102971,-2221.676944,7254.018232
971.466898,1036.288319,-1532.190996,8586.388927
971.467228,296.082377,-995.924147,9992.780217
971.467557,-2220.617826,1302.362347,11029.068536
971.467887,-4071.132681,3600.648841,11991.336260
971.468217,-4811.338623,2834.553343,11917.315666
971.468546,-4071.132681,689.485948,11769.274478
971.468876,-3478.967927,-1378.971896,10436.903782
971.469205,-2368.659014,-2604.724693,8586.388927
971.469535,-444.123565,-2987.772442,7179.997637
971.469864,1036.288319,-3140.991542,6809.894666
971.470194,1184.329507,-2451.505594,8290.306550
971.470524,-222.061783,-995.924147,9844.739029
971.470853,-2368.659014,1685.410096,10362.883188
971.471183,-3627.009116,3753.867940,10807.006753
971.471512,-3256.906145,4060.306139,11621.233289
971.471842,-2738.761985,2834.553343,11103.089130
971.472171,-1628.453072,612.876398,9696.697840
971.472501,-814.226536,-1225.752797,7698.141797
971.472831,296.082377,-1685.410096,7031.956449
971.473160,370.102971,-383.047749,7476.080014
971.473490,296.082377,0.000000,9178.553681
971.473819,-666.185348,-229.828649,11029.068536
971.474149,-2368.659014,2298.286494,11917.315666
971.474478,-4515.256246,5056.230287,11917.315666
971.474808,-4589.276840,4749.792088,11103.089130
971.475138,-3256.906145,2834.553343,10510.924376
971.475467,-1776.494261,536.266849,9326.594869
971.475797,-444.123565,-459.657299,7772.162391
971.476126,888.247130,229.828649,7031.956449
971.476456,2072.576638,689.485948,7254.018232
971.476785,2590.720797,919.314598,7698.141797
971.477115,2294.638420,1762.019645,8956.491898
971.477445,444.123565,2987.772442,10140.821405
971.477774,-1554.432478,5362.668486,10732.986159
971.478104,-2516.700203,6128.763984,10732.986159
971.478433,-2072.576638,4826.401637,10584.944971
971.478763,-592.164754,1991.848295,10362.883188
971.479092,-222.061783,536.266849,8290.306550
971.479422,222.061783,-306.438199,6291.750507
971.479752,1554.432478,0.000000,6439.791695
971.480081,1998.556043,306.438199,7846.182985
971.480411,1332.370696,1762.019645,9474.636058
971.480740,-888.247130,2298.286494,9622.677246
971.481070,-3034.844362,4213.525239,10288.862594
971.481400,-3849.070898,5056.230287,10658.965565
971.481729,-3775.050304,3447.429741,11325.150913
971.482059,-3108.864956,1149.143247,10658.965565
971.482388,-1850.514855,-1608.800546,9474.636058
971.482718,-1036.288319,-2374.896044,7772.162391
971.483047,592.164754,-1991.848295,7846.182985
971.483377,1850.514855,-919.314598,8956.491898
971.483707,1924.535449,-536.266849,9548.656652
971.484036,814.226536,383.047749,10732.986159
971.484366,-1628.453072,3217.601092,11177.109724
971.484695,-2220.617826,4366.744339,11325.150913
971.485025,-1776.494261,2681.334243,11399.171507
971.485354,-1850.514855,919.314598,10955.047942
971.485684,-518.144159,-1072.533697,9178.553681
971.486014,-518.144159,-2528.115143,7550.100608
971.486343,518.144159,-2298.286494,7698.141797
971.486673,888.247130,-1378.971896,8882.471304
971.487002,148.041188,-995.924147,9992.780217
971.487332,-1776.494261,-306.438199,10658.965565
971.487661,-4071.132681,1991.848295,10955.047942
971.487991,-4737.318029,3217.601092,11547.212695
971.488321,-4515.256246,2374.896044,12065.356855
971.488650,-3478.967927,1378.971896,11621.233289
971.488980,-2368.659014,-1838.629195,9326.594869
971.489309,-1184.329507,-3600.648841,7624.121203
971.489639,-370.102971,-2451.505594,6735.874072
971.489968,0.000000,-1225.752797,7550.100608
971.490298,-592.164754,-1149.143247,8586.388927
971.490628,-1554.432478,-536.266849,8956.491898
971.490957,-3478.967927,1532.190996,9474.636058
971.491287,-3404.947333,2068.457845,11029.068536
971.491616,-2960.823768,2068.457845,11621.233289
971.491946,-2220.617826,1532.190996,10881.027347
971.492275,-1184.329507,-612.876398,8956.491898
971.492605,740.205942,-1685.410096,7698.141797
971.492935,2738.761985,0.000000,7550.100608
971.493264,3923.091493,1455.581446,8290.306550
971.493594,3330.926739,1608.800546,9178.553681
971.493923,1258.350101,2145.067394,10066.800811
971.494253,-1628.453072,3140.991542,10658.965565
971.494582,-3330.926739,4443.353888,11695.253884
971.494912,-4737.318029,4213.525239,11991.336260
971.495241,-4885.359217,2451.505594,11547.212695
971.495571,-3701.029710,-229.828649,9548.656652
971.495901,-2368.659014,-3064.381992,7105.977043
971.496230,-370.102971,-2221.676944,6291.750507
971.496560,370.102971,-383.047749,7550.100608
971.496889,888.247130,612.876398,9178.553681
971.497219,0.000000,2528.115143,9844.739029
971.497548,-1554.432478,4290.134789,10288.862594
971.497878,-2368.659014,4979.620737,10658.965565
971.498207,-1924.535449,4903.011187,11251.130318
971.498537,-1406.391290,3983.696590,10955.047942
971.498867,-740.205942,1915.238745,9474.636058
971.499196,296.082377,-536.266849,7920.203579
971.499526,1776.494261,-536.266849,6661.853478
971.499855,2590.720797,306.438199,7105.977043
971.500185,3182.885551,689.485948,8438.347739
971.500514,2146.597232,2221.676944,9548.656652
971.500844,-518.144159,4213.525239,10288.862594
971.501173,-2886.803174,5209.449386,9844.739029
971.501503,-3701.029710,4979.620737,10658.965565
971.501833,-3182.885551,2834.553343,11251.130318
971.502162,-2664.741391,76.609550,10214.842000
971.502492,-2812.782580,-1915.238745,8216.285956
971.502821,-1924.535449,-2374.896044,6661.853478
971.503151,-148.041188,-1915.238745,6809.894666
971.503480,1036.288319,-1455.581446,8808.450710
971.503810,592.164754,0.000000,10140.821405
971.504139,-1332.370696,1762.019645,10732.986159
971.504469,-2886.803174,3447.429741,10658.965565
971.504799,-3182.885551,4826.401637,10658.965565
971.505128,-1776.494261,2834.553343,11103.089130
971.505458,-962.267725,689.485948,10214.842000
971.505787,-222.061783,-1838.629195,8956.491898
971.506117,148.041188,-2145.067394,7624.121203
971.506446,1332.370696,-1378.971896,7254.018232
971.506776,1702.473667,-153.219100,8438.347739
971.507105,1702.473667,-612.876398,9770.718434
971.507435,0.000000,842.705048,10807.006753
971.507765,-2294.638420,3217.601092,11399.171507
971.508094,-3330.926739,3677.258390,12139.377449
971.508424,-3627.009116,3294.210641,11843.295072
971.508753,-3849.070898,1225.752797,10658.965565
971.509083,-2738.761985,-2145.067394,9474.636058
971.509412,-1554.432478,-3064.381992,8290.306550
971.509742,-592.164754,-2987.772442,7402.059420
971.510071,222.061783,-2604.724693,7994.224174
971.510401,0.000000,-1762.019645,8956.491898
971.510731,-1332.370696,-153.219100,9844.739029
971.511060,-3108.864956,2221.676944,10584.944971
971.511390,-3256.906145,3447.429741,10881.027347
971.511719,-2368.659014,3064.381992,10584.944971
971.512049,-1554.432478,2221.676944,9400.615463
971.512378,-296.082377,-766.095498,8586.388927
971.512708,592.164754,-1225.752797,7402.059420
971.513037,1110.308913,-612.876398,7254.018232
971.513367,1480.411884,-306.438199,8068.244768
971.513697,814.226536,842.705048,9474.636058
971.514026,-518.144159,689.485948,10214.842000
971.514356,-2368.659014,2528.115143,11399.171507
971.514685,-3923.091493,4290.134789,11843.295072
971.515015,-3997.112087,3830.477490,12213.398043
971.515344,-2960.823768,2757.943793,10955.047942
971.515674,-2590.720797,-766.095498,9178.553681
971.516003,-666.185348,-1838.629195,7994.224174
971.516333,814.226536,-1532.190996,7179.997637
971.516663,1628.453072,-229.828649,7698.141797
971.516992,1776.494261,0.000000,8438.347739
971.517322,592.164754,459.657299,9918.759623
971.517651,-1924.535449,3600.648841,10362.883188
971.517981,-2886.803174,4979.620737,11029.068536
971.518310,-2516.700203,4060.306139,11769.274478
971.518640,-1702.473667,3524.039291,11251.130318
971.518969,-1332.370696,1838.629195,8808.450710
971.519299,296.082377,-919.314598,7105.977043
971.519628,2368.659014,-766.095498,6439.791695
971.519958,2664.741391,766.095498,6957.935855
971.520288,2294.638420,1685.410096,8734.430116
971.520617,-148.041188,2681.334243,10510.924376
971.520947,-2590.720797,4903.011187,11325.150913
971.521276,-4737.318029,5822.325785,11325.150913
971.521606,-4663.297435,4596.572988,10807.006753
971.521935,-3182.885551,1838.629195,10362.883188
971.522265,-1850.514855,-842.705048,8586.388927
971.522594,-1184.329507,-3294.210641,6513.812290
971.522924,296.082377,-2374.896044,5995.668130
971.523254,1406.391290,-766.095498,7105.977043
971.523583,2072.576638,459.657299,8956.491898
971.523913,1406.391290,1378.971896,10436.903782
971.524242,-222.061783,3217.601092,10658.965565
971.524572,-1480.411884,4749.792088,10658.965565
971.524901,-1628.453072,4903.011187,11325.150913
971.525231,-1258.350101,3447.429741,11473.192101
971.525560,-888.247130,383.047749,10362.883188
971.525890,-592.164754,-1608.800546,8512.368333
971.526220,148.041188,-2145.067394,7476.080014
971.526549,1184.329507,-1685.410096,8216.285956
971.526879,1332.370696,-995.924147,9844.739029
971.527208,222.061783,459.657299,10362.883188
971.527538,-1554.432478,1762.019645,10807.006753
971.527867,-2960.823768,3447.429741,11029.068536
971.528197,-3034.844362,4136.915689,11843.295072
971.528526,-3256.906145,2681.334243,11399.171507
971.528856,-3627.009116,0.000000,10066.800811
971.529186,-3627.009116,-2757.943793,8068.244768
971.529515,-2516.700203,-3524.039291,7402.059420
971.529845,-814.226536,-3983.696590,8438.347739
971.530174,296.082377,-3140.991542,9844.739029
971.530504,0.000000,-1685.410096,9918.759623
971.530833,-1184.329507,-153.219100,9548.656652
971.531163,-1406.391290,2221.676944,10066.800811
971.531492,-592.164754,3983.696590,11917.315666
971.531822,-296.082377,4519.963438,11917.315666
971.532152,-222.061783,2987.772442,10510.924376
971.532481,0.000000,689.485948,8882.471304
971.532811,1036.288319,-766.095498,7031.956449
971.533140,2590.720797,-1608.800546,6883.915261
971.533470,1924.535449,-1991.848295,8068.244768
971.533799,0.000000,-842.705048,8956.491898
971.534129,-2590.720797,0.000000,9474.636058
971.534458,-4589.276840,1915.238745,9992.780217
971.534788,-4959.379811,3064.381992,11103.089130
971.535118,-5033.400406,2145.067394,11843.295072
971.535447,-4367.215058,1378.971896,11029.068536
971.535777,-2960.823768,-536.266849,9474.636058
971.536106,-1332.370696,-1149.143247,7920.203579
971.536436,518.144159,-842.705048,7550.100608
971.536765,1480.411884,-919.314598,8882.471304
971.537095,814.226536,0.000000,9918.759623
971.537424,0.000000,1685.410096,10807.006753
971.537754,-1998.556043,4060.306139,10732.986159
971.538084,-2146.597232,3830.477490,10584.944971
971.538413,-1332.370696,3064.381992,11177.109724
971.538743,-222.061783,2451.505594,10510.924376
971.539072,592.164754,842.705048,8586.388927
971.539402,1480.411884,0.000000,6809.894666
971.539731,2442.679609,1225.752797,7105.977043
971.540061,2442.679609,1532.190996,8142.265362
971.540390,2442.679609,1685.410096,9548.656652
971.540720,1036.288319,2681.334243,10140.821405
971.541050,-1776.494261,4596.572988,9770.718434
971.541379,-3701.029710,3983.696590,10140.821405
971.541709,-3997.112087,2911.162892,10881.027347
971.542038,-3256.906145,2068.457845,11029.068536
971.542368,-2738.761985,76.609550,9474.636058
971.542697,-1776.494261,-1072.533697,7846.182985
971.543027,0.000000,-919.314598,7031.956449
971.543356,1628.453072,-919.314598,7846.182985
971.543686,1998.556043,0.000000,8586.388927
971.544016,148.041188,1532.190996,9474.636058
971.544345,-2146.597232,4519.963438,9474.636058
971.544675,-2886.803174,4903.011187,9918.759623
971.545004,-1924.535449,3524.039291,10658.965565
971.545334,-1036.288319,2374.896044,9844.739029
971.545663,296.082377,-766.095498,8512.368333
971.545993,1036.288319,-1991.848295,7254.018232
971.546322,1406.391290,-1225.752797,7550.100608
971.546652,1554.432478,-229.828649,8586.388927
971.546981,1776.494261,229.828649,10288.862594
971.547311,444.123565,1685.410096,11473.192101
971.547641,-2368.659014,3294.210641,11843.295072
971.547970,-3775.050304,3677.258390,11917.315666
971.548300,-3701.029710,2681.334243,12213.398043
971.548629,-3256.906145,1302.362347,11621.233289
971.548959,-3034.844362,-1532.190996,10140.821405
971.549288,-2294.638420,-2681.334243,7994.224174
971.549618,-666.185348,-2987.772442,7402.059420
971.549947,1110.308913,-3294.210641,8068.244768
971.550277,1332.370696,-1838.629195,9326.594869
971.550607,0.000000,76.609550,10362.883188
971.550936,-2294.638420,2068.457845,10584.944971
971.551266,-3923.091493,3524.039291,11547.212695
971.551595,-3775.050304,3830.477490,12139.377449
971.551925,-2886.803174,2451.505594,11251.130318
971.552254,-1850.514855,-689.485948,9030.512492
971.552584,-222.061783,-2604.724693,7179.997637
971.552913,1110.308913,-2298.286494,6957.935855
971.553243,1628.453072,-1532.190996,7550.100608
971.553573,1628.453072,-306.438199,8734.430116
971.553902,-296.082377,1302.362347,9696.697840
971.554232,-2072.576638,3370.820191,10140.821405
971.554561,-3923.091493,3830.477490,10510.924376
971.554891,-3997.112087,3294.210641,10955.047942
971.555220,-3775.050304,1915.238745,10807.006753
971.555550,-3182.885551,0.000000,9474.636058
971.555879,-2368.659014,-1608.800546,7698.141797
971.556209,-1184.329507,-2681.334243,6661.853478
971.556539,222.061783,-1991.848295,7476.080014
971.556868,592.164754,-612.876398,9178.553681
971.557198,370.102971,459.657299,10584.944971
971.557527,-888.247130,1915.238745,10584.944971
971.557857,-2368.659014,4673.182538,10955.047942
971.558186,-2368.659014,4903.011187,11547.212695
971.558516,-2368.659014,3370.820191,11399.171507
971.558845,-1332.370696,1838.629195,10732.986159
971.559175,-888.247130,306.438199,9030.512492
971.559505,518.144159,-153.219100,7772.162391
971.559834,1184.329507,-383.047749,7846.182985
971.560164,1998.556043,-383.047749,9252.574275
971.560493,1998.556043,766.095498,10288.862594
971.560823,-518.144159,3064.381992,9622.677246
971.561152,-2590.720797,5209.449386,9696.697840
971.561482,-3108.864956,4596.572988,10214.842000
971.561811,-2072.576638,2451.505594,11251.130318
971.562141,-1554.432478,1378.971896,10955.047942
971.562471,-1258.350101,306.438199,8660.409521
971.562800,-592.164754,-383.047749,5995.668130
971.563130,1480.411884,-1149.143247,5551.544565
971.563459,2368.659014,-1225.752797,7031.956449
971.563789,2368.659014,0.000000,8956.491898
971.564118,148.041188,1838.629195,9992.780217
971.564448,-2294.638420,5362.668486,10436.903782
971.564777,-3552.988522,5898.935335,10658.965565
971.565107,-2738.761985,3600.648841,10807.006753
971.565437,-2146.597232,1838.629195,9696.697840
971.565766,-740.205942,-383.047749,8364.327145
971.566096,370.102971,-536.266849,7328.038826
971.566425,1480.411884,-919.314598,7328.038826
971.566755,1776.494261,-536.266849,8364.327145
971.567084,592.164754,-153.219100,9178.553681
971.567414,-1628.453072,995.924147,10288.862594
971.567743,-3552.988522,3753.867940,11029.068536
971.568073,-4663.297435,3524.039291,11917.315666
971.568403,-4663.297435,1685.410096,12361.439231
971.568732,-3775.050304,-306.438199,12065.356855
971.569062,-2294.638420,-2068.457845,10066.800811
971.569391,-296.082377,-3753.867940,8142.265362
971.569721,1776.494261,-3064.381992,7328.038826
971.570050,2812.782580,-1608.800546,8808.450710
971.570380,3330.926739,-919.314598,10362.883188
971.570709,1554.432478,919.314598,11399.171507
971.571039,-814.226536,3983.696590,11843.295072
971.571368,-2146.597232,5132.839837,11621.233289
971.571698,-1850.514855,3830.477490,11917.315666
971.572028,-1628.453072,995.924147,10140.821405
971.572357,-1332.370696,-1378.971896,8216.285956
971.572687,-1110.308913,-3217.601092,6365.771101
971.573016,-370.102971,-2834.553343,6365.771101
971.573346,74.020594,-1915.238745,8068.244768
971.573675,-814.226536,-1225.752797,9104.533087
971.574005,-2516.700203,383.047749,9622.677246
971.574334,-4515.256246,2681.334243,9918.759623
971.574664,-4737.318029,3830.477490,10807.006753
971.574994,-4515.256246,3140.991542,11177.109724
971.575323,-3552.988522,1608.800546,10881.027347
971.575653,-3182.885551,-919.314598,9474.636058
971.575982,-2072.576638,-2374.896044,7772.162391
971.576312,-740.205942,-1532.190996,7105.977043
971.576641,1480.411884,-995.924147,8586.388927
971.576971,2516.700203,-995.924147,9252.574275
971.577300,1406.391290,383.047749,9696.697840
971.577630,-518.144159,3217.601092,9918.759623
971.577960,-1480.411884,4673.182538,10732.986159
971.578289,-1850.514855,4749.792088,11769.274478
971.578619,-2368.659014,4060.306139,11695.253884
971.578948,-1554.432478,1302.362347,10658.965565
971.579278,-518.144159,-612.876398,8882.471304
971.579607,518.144159,-995.924147,7846.182985
971.579937,1258.350101,-919.314598,8068.244768
971.580266,1110.308913,-153.219100,9178.553681
971.580596,-148.041188,1225.752797,9844.739029
971.580926,-2738.761985,3830.477490,10510.924376
971.581255,-4145.153275,5362.668486,11029.068536
971.581585,-3775.050304,4366.744339,11695.253884
971.581914,-3108.864956,3370.820191,11177.109724
971.582244,-2368.659014,995.924147,10214.842000
971.582573,-1406.391290,-766.095498,7846.182985
971.582903,0.000000,-1302.362347,6513.812290
971.583232,1258.350101,-919.314598,6661.853478
971.583562,2072.576638,-229.828649,7920.203579
971.583892,1628.453072,612.876398,9252.574275
971.584221,296.082377,2987.772442,9474.636058
971.584551,-1184.329507,4596.572988,9918.759623
971.584880,-1480.411884,5056.230287,10658.965565
971.585210,-1406.391290,4443.353888,10436.903782
971.585539,-592.164754,2221.676944,8956.491898
971.585869,518.144159,-306.438199,7031.956449
971.586198,1110.308913,-1149.143247,6291.750507
971.586528,2146.597232,-689.485948,7254.018232
971.586858,1998.556043,-306.438199,9104.533087
971.587187,222.061783,76.609550,10066.800811
971.587517,-2294.638420,2451.505594,10807.006753
971.587846,-4441.235652,3600.648841,11325.150913
971.588176,-4737.318029,2911.162892,12139.377449
971.588505,-4441.235652,1991.848295,12805.562797
971.588835,-3552.988522,536.266849,11695.253884
971.589164,-1850.514855,-842.705048,9400.615463
971.589494,-888.247130,-2451.505594,6883.915261
971.589824,1258.350101,-2451.505594,7254.018232
971.590153,1998.556043,-1838.629195,8734.430116
971.590483,1332.370696,-919.314598,10066.800811
971.590812,-370.102971,1838.629195,10881.027347
971.591142,-2442.679609,3830.477490,11473.192101
971.591471,-2442.679609,3907.087040,11917.315666
971.591801,-1850.514855,2374.896044,11547.212695
971.592130,-1258.350101,459.657299,11029.068536
971.592460,-444.123565,-995.924147,9104.533087
971.592790,-370.102971,-1685.410096,7550.100608
971.593119,444.123565,-1149.143247,8216.285956
971.593449,444.123565,-842.705048,9252.574275
971.593778,-592.164754,-306.438199,9474.636058
971.594108,-1480.411884,1072.533697,9178.553681
971.594437,-3256.906145,2068.457845,9326.594869
971.594767,-3849.070898,2604.724693,9992.780217
971.595096,-4589.276840,2145.067394,10214.842000
971.595426,-4515.256246,229.828649,9992.780217
971.595755,-3997.112087,-1072.533697,9030.512492
971.596085,-2738.761985,-1302.362347,7105.977043
971.596414,-666.185348,-1762.019645,7254.018232
971.596744,1036.288319,-1915.238745,7994.224174
971.597073,962.267725,-842.705048,8882.471304
971.597403,-518.144159,1378.971896,9400.615463
971.597732,-2664.741391,3370.820191,10066.800811
971.598062,-2812.782580,4443.353888,11251.130318
971.598391,-2368.659014,4136.915689,11769.274478
971.598721,-1850.514855,2298.286494,11029.068536
971.599050,-1036.288319,0.000000,9326.594869
971.599380,74.020594,-1378.971896,7550.100608
971.599709,1332.370696,-1072.533697,8216.285956
971.600039,1628.453072,-459.657299,9030.512492
971.600368,814.226536,689.485948,10288.862594
971.600698,-962.267725,1991.848295,10510.924376
971.601027,-2886.803174,3524.039291,10955.047942
971.601356,-3552.988522,3600.648841,11991.336260
971.601686,-3627.009116,3370.820191,12213.398043
971.602015,-3182.885551,2145.067394,11177.109724
971.602345,-2442.679609,76.609550,9252.574275
971.602674,-888.247130,-612.876398,7105.977043
971.603004,1406.391290,-1685.410096,6513.812290
971.603333,2960.823768,-1608.800546,7328.038826
971.603663,2664.741391,0.000000,8586.388927
971.603992,962.267725,2298.286494,10066.800811
971.604322,-1332.370696,4596.572988,11103.089130
971.604651,-2812.782580,5439.278036,11695.253884
971.604981,-2664.741391,4903.011187,11251.130318
971.605310,-1406.391290,3140.991542,10066.800811
971.605640,-740.205942,383.047749,7476.080014
971.605969,74.020594,-1072.533697,5773.606348
971.606299,1036.288319,-612.876398,5403.503377
971.606628,888.247130,-1072.533697,6587.832884
971.606958,444.123565,0.000000,8660.409521
971.607287,-444.123565,1149.143247,10214.842000
971.607617,-2368.659014,2911.162892,10955.047942
971.607946,-3478.967927,3064.381992,11399.171507
971.608276,-3404.947333,3217.601092,11695.253884
971.608605,-1776.494261,2528.115143,11843.295072
971.608935,-592.164754,306.438199,10362.883188
971.609264,0.000000,-766.095498,8438.347739
971.609594,1406.391290,-766.095498,7476.080014
971.609923,2664.741391,-1225.752797,8068.244768
971.610253,3182.885551,-459.657299,9178.553681
971.610582,1702.473667,842.705048,9992.780217
971.610911,-592.164754,2374.896044,10362.883188
971.611241,-2368.659014,3217.601092,11251.130318
971.611570,-3108.864956,3677.258390,11843.295072
971.611900,-2886.803174,1685.410096,11029.068536
971.612229,-2664.741391,-612.876398,9770.718434
971.612559,-2442.679609,-1915.238745,8586.388927
971.612888,-1628.453072,-2221.676944,7772.162391
971.613218,-444.123565,-2451.505594,8512.368333
971.613547,-296.082377,-1072.533697,9474.636058
971.613877,-1036.288319,-459.657299,10288.862594
971.614206,-3182.885551,1532.190996,11103.089130
971.614536,-4663.297435,2911.162892,11769.274478
971.614865,-4515.256246,2987.772442,12287.418637
971.615195,-3627.009116,1915.238745,11473.192101
971.615524,-2442.679609,153.219100,8882.471304
971.615854,-888.247130,-2374.896044,6957.935855
971.616183,888.247130,-2681.334243,6217.729913
971.616513,1702.473667,-1991.848295,7031.956449
971.616842,1332.370696,-459.657299,8068.244768
971.617172,444.123565,1455.581446,9326.594869
971.617501,-1628.453072,2987.772442,10288.862594
971.617831,-2960.823768,4136.915689,10955.047942
971.618160,-3775.050304,3907.087040,11399.171507
971.618490,-3627.009116,2604.724693,10881.027347
971.618819,-3108.864956,689.485948,9474.636058
971.619149,-2590.720797,-995.924147,8216.285956
971.619478,-1406.391290,-2145.067394,7550.100608
971.619808,0.000000,-1991.848295,7772.162391
971.620137,740.205942,-766.095498,8882.471304
971.620466,296.082377,153.219100,9622.677246
971.620796,-1332.370696,2757.943793,10881.027347
971.621125,-2886.803174,4749.792088,10955.047942
971.621455,-3256.906145,4596.572988,11325.150913
971.621784,-2812.782580,2604.724693,11769.274478
971.622114,-2294.638420,1149.143247,11399.171507
971.622443,-1850.514855,536.266849,9844.739029
971.622773,-888.247130,-842.705048,7846.182985
971.623102,1332.370696,-766.095498,7994.224174
971.623432,2590.720797,-766.095498,8512.368333
971.623761,2960.823768,-536.266849,9326.594869
971.624091,1036.288319,1685.410096,9844.739029
971.624420,-1258.350101,4443.353888,10214.842000
971.624750,-2146.597232,5975.544884,10807.006753
971.625079,-1776.494261,4903.011187,10510.924376
971.625409,-888.247130,3217.601092,9252.574275
971.625738,0.000000,459.657299,7328.038826
971.626068,1406.391290,-1608.800546,6439.791695
971.626397,2294.638420,-766.095498,6809.894666
971.626727,1776.494261,0.000000,7698.141797
971.627056,666.185348,306.438199,9178.553681
971.627386,-1406.391290,2145.067394,10436.903782
971.627715,-3256.906145,3140.991542,11251.130318
971.628045,-4367.215058,4290.134789,12139.377449
971.628374,-3701.029710,3600.648841,12139.377449
971.628704,-2812.782580,2068.457845,10955.047942
971.629033,-1924.535449,-689.485948,8586.388927
971.629362,-518.144159,-2221.676944,6291.750507
971.629692,1406.391290,-1915.238745,6069.688724
971.630021,2220.617826,-995.924147,7624.121203
971.630351,2072.576638,0.000000,9252.574275
971.630680,666.185348,1608.800546,10288.862594
971.631010,-1332.370696,2987.772442,10955.047942
971.631339,-2368.659014,4290.134789,11843.295072
971.631669,-2664.741391,4366.744339,12435.459826
971.631998,-2220.617826,2298.286494,11547.212695
971.632328,-1628.453072,-459.657299,9474.636058
971.632657,-740.205942,-2374.896044,7846.182985
971.632987,0.000000,-2834.553343,7254.018232
971.633316,444.123565,-2298.286494,8586.388927
971.633646,-370.102971,-1072.533697,9992.780217
971.633975,-1850.514855,0.000000,10584.944971
971.634305,-3997.112087,1378.971896,11177.109724
971.634634,-4885.359217,2451.505594,11029.068536
971.634964,-4663.297435,2145.067394,11103.089130
971.635293,-3256.906145,766.095498,10362.883188
971.635623,-1850.514855,-1225.752797,8290.306550
971.635952,-888.247130,-2451.505594,6883.915261
971.636282,148.041188,-2834.553343,5921.647536
971.636611,1184.329507,-1608.800546,7550.100608
971.636941,962.267725,-536.266849,9030.512492
971.637270,-296.082377,995.924147,10288.862594
971.637600,-2368.659014,2451.505594,10732.986159
971.637929,-3552.988522,2681.334243,11621.233289
971.638259,-3701.029710,2681.334243,12435.459826
971.638588,-3923.091493,1455.581446,12287.418637
971.638917,-3330.926739,-229.828649,10658.965565
971.639247,-2220.617826,-1685.410096,7920.203579
971.639576,0.000000,-2374.896044,6291.750507
971.639906,2664.741391,-2451.505594,6513.812290
971.640235,3923.091493,-1915.238745,7698.141797
971.640565,2368.659014,0.000000,9178.553681
971.640894,-888.247130,3294.210641,10214.842000
971.641224,-2960.823768,5362.668486,11621.233289
971.641553,-3034.844362,4749.792088,12731.542202
971.641883,-2072.576638,2834.553343,12435.459826
971.642212,-1480.411884,689.485948,11177.109724
971.642542,0.000000,-995.924147,9030.512492
971.642871,1332.370696,-1072.533697,7402.059420
971.643201,2368.659014,-612.876398,7698.141797
971.643530,1998.556043,612.876398,8660.409521
971.643860,-296.082377,1991.848295,9030.512492
971.644189,-2368.659014,3600.648841,9770.718434
971.644519,-3478.967927,4903.011187,10584.944971
971.644848,-4145.153275,5132.839837,11251.130318
971.645178,-3849.070898,3524.039291,9918.759623
971.645507,-2220.617826,612.876398,8438.347739
971.645837,-814.226536,-2068.457845,6439.791695
971.646166,592.164754,-1838.629195,5921.647536
971.646496,2146.597232,-459.657299,7105.977043
971.646825,2886.803174,153.219100,8734.430116
971.647155,1998.556043,2298.286494,10584.944971
971.647484,222.061783,4366.744339,11843.295072
971.647814,-1628.453072,6205.373534,11621.233289
971.648143,-1776.494261,5669.106685,11769.274478
971.648472,-1332.370696,3983.696590,11103.089130
971.648802,-666.185348,2068.457845,9770.718434
971.649131,0.000000,-612.876398,7476.080014
971.649461,296.082377,-1685.410096,6143.709319
971.649790,444.123565,-1225.752797,6513.812290
971.650120,666.185348,-612.876398,7846.182985
971.650449,222.061783,383.047749,9400.615463
971.650779,-2146.597232,1532.190996,9770.718434
971.651108,-4441.235652,3524.039291,10362.883188
971.651438,-5255.462188,3983.696590,11029.068536
971.651767,-3997.112087,2681.334243,11843.295072
971.652097,-3330.926739,1072.533697,11251.130318
971.652426,-3034.844362,-766.095498,8586.388927
971.652756,-1776.494261,-2528.115143,6883.915261
971.653085,222.061783,-2987.772442,8216.285956
971.653415,1406.391290,-1991.848295,9770.718434
971.653744,888.247130,-766.095498,10584.944971
971.654074,-444.123565,383.047749,11103.089130
971.654403,-1850.514855,2604.724693,11547.212695
971.654733,-2220.617826,3830.477490,12065.356855
971.655062,-1480.411884,2681.334243,11843.295072
971.655392,-518.144159,1072.533697,10214.842000
971.655721,296.082377,-842.705048,8068.244768
971.656051,666.185348,-1762.019645,6661.853478
971.656380,1702.473667,-2298.286494,7105.977043
971.656710,1702.473667,-1838.629195,8586.388927
971.657039,222.061783,-1072.533697,10066.800811
971.657369,-2220.617826,459.657299,11029.068536
971.657698,-5033.400406,2298.286494,11029.068536
971.658027,-5551.544565,2221.676944,11473.192101
971.658357,-5329.482782,1072.533697,11621.233289
971.658686,-4737.318029,153.219100,10510.924376
971.659016,-3330.926739,-1378.971896,8364.327145
971.659345,-1110.308913,-2987.772442,6217.729913
971.659675,1036.288319,-2221.676944,6069.688724
971.660004,1850.514855,-995.924147,7402.059420
971.660334,2220.617826,-306.438199,9030.512492
971.660663,666.185348,1378.971896,10436.903782
971.660993,-1258.350101,3753.867940,11177.109724
971.661322,-2442.679609,4443.353888,11843.295072
971.661652,-2590.720797,3677.258390,12805.562797
971.661981,-1702.473667,2145.067394,11769.274478
971.662311,-518.144159,-459.657299,9696.697840
971.662640,1036.288319,-1762.019645,7402.059420
971.662970,2516.700203,-995.924147,7105.977043
971.663299,2812.782580,-1225.752797,8660.409521
971.663629,1628.453072,0.000000,9844.739029
971.663958,-370.102971,2374.896044,11029.068536
971.664288,-2442.679609,4903.011187,11103.089130
971.664617,-3330.926739,5669.106685,11029.068536
971.664947,-3404.947333,4213.525239,10510.924376
971.665276,-2442.679609,2298.286494,9252.574275
971.665606,-1554.432478,0.000000,7624.121203
971.665935,-814.226536,-995.924147,6291.750507
971.666265,-148.041188,-536.266849,6217.729913
971.666594,740.205942,383.047749,8216.285956
971.666924,1184.329507,1455.581446,9400.615463
971.667253,0.000000,2298.286494,10584.944971
971.667582,-2146.597232,3677.258390,11769.274478
971.667912,-3256.906145,5592.497135,11621.233289
971.668241,-2960.823768,5132.839837,11843.295072
971.668571,-2442.679609,2911.162892,11177.109724
971.668900,-1406.391290,1149.143247,8364.327145
971.669230,296.082377,-612.876398,6069.688724
971.669559,2072.576638,-1378.971896,5181.441594
971.669889,3552.988522,-306.438199,6809.894666
971.670218,3108.864956,383.047749,7772.162391
971.670548,1184.329507,1378.971896,9696.697840
971.670877,-2368.659014,4213.525239,10510.924376
971.671207,-4663.297435,6128.763984,10955.047942
971.671536,-4589.276840,4519.963438,11547.212695
971.671866,-3552.988522,2298.286494,11177.109724
971.672195,-2960.823768,-612.876398,9548.656652
971.672525,-2590.720797,-2757.943793,8142.265362
971.672854,-1776.494261,-2834.553343,7624.121203
971.673184,-1184.329507,-1838.629195,7772.162391
971.673513,-370.102971,-1378.971896,9400.615463
971.673843,-518.144159,-383.047749,10807.006753
971.674172,-1776.494261,1838.629195,11251.130318
971.674502,-2886.803174,3140.991542,11843.295072
971.674831,-3034.844362,2604.724693,12435.459826
971.675161,-2442.679609,2451.505594,11991.336260
971.675490,-1702.473667,153.219100,10658.965565
971.675820,-1036.288319,-2298.286494,9326.594869
971.676149,222.061783,-2221.676944,7328.038826
971.676479,1924.535449,-1991.848295,7328.038826
971.676808,2590.720797,-2221.676944,8734.430116
971.677137,1480.411884,-1762.019645,10881.027347
971.677467,-1998.556043,1302.362347,11547.212695
971.677796,-4071.132681,3753.867940,11843.295072
971.678126,-4219.173869,3677.258390,11843.295072
971.678455,-3627.009116,2681.334243,10584.944971
971.678785,-2294.638420,153.219100,8512.368333
971.679114,-666.185348,-2987.772442,5699.585753
971.679444,296.082377,-2987.772442,5033.400406
971.679773,1258.350101,-1915.238745,6365.771101
971.680103,1110.308913,-612.876398,8290.306550
971.680432,0.000000,995.924147,9918.759623
971.680762,-1998.556043,2068.457845,10584.944971
971.681091,-3182.885551,3064.381992,11399.171507
971.681421,-3108.864956,2757.943793,12435.459826
971.681750,-2368.659014,1838.629195,12731.542202
971.682080,-1258.350101,536.266849,11473.192101
971.682409,0.000000,-612.876398,9252.574275
971.682739,1184.329507,-1149.143247,7105.977043
971.683068,2960.823768,-689.485948,6365.771101
971.683398,3997.112087,0.000000,7105.977043
971.683727,3108.864956,1225.752797,8364.327145
971.684057,296.082377,2451.505594,10140.821405
971.684386,-2886.803174,5056.230287,11621.233289
971.684716,-4663.297435,6205.373534,12509.480420
971.685045,-4515.256246,4596.572988,11843.295072
971.685375,-3182.885551,689.485948,10881.027347
971.685704,-1480.411884,-1991.848295,8586.388927
971.686034,-370.102971,-2298.286494,6365.771101
971.686363,1258.350101,-1378.971896,6365.771101
971.686692,2368.659014,0.000000,7994.224174
971.687022,2072.576638,1302.362347,9844.739029
971.687351,0.000000,3677.258390,10732.986159
971.687681,-1776.494261,5362.668486,11325.150913
971.688010,-1998.556043,6128.763984,11843.295072
971.688340,-1776.494261,4979.620737,11325.150913
971.688669,-888.247130,2528.115143,10214.842000
971.688999,148.041188,0.000000,8216.285956
971.689328,740.205942,-1532.190996,6439.791695
971.689658,1406.391290,-459.657299,6143.709319
971.689987,1702.473667,306.438199,7402.059420
971.690317,1036.288319,459.657299,9104.533087
971.690646,-962.267725,1685.410096,9992.780217
971.690976,-3182.885551,4213.525239,10140.821405
971.691305,-4663.297435,5056.230287,11177.109724
971.691635,-4515.256246,4136.915689,11325.150913
971.691964,-4293.194464,1838.629195,10288.862594
971.692294,-3552.988522,-689.485948,8364.327145
971.692623,-1998.556043,-1991.848295,6883.915261
971.692953,-148.041188,-2604.724693,6291.750507
971.693282,1258.350101,-2145.067394,7550.100608
971.693612,1258.350101,-1072.533697,9252.574275
971.693941,0.000000,459.657299,10288.862594
971.694271,-1184.329507,3294.210641,11917.315666
971.694600,-2738.761985,4979.620737,12731.542202
971.694930,-2812.782580,4979.620737,13397.727550
971.695259,-1924.535449,2681.334243,11991.336260
971.695588,-444.123565,-1072.533697,10214.842000
971.695918,740.205942,-2298.286494,7698.141797
971.696247,1184.329507,-2987.772442,7105.977043
971.696577,1776.494261,-2528.115143,8438.347739
971.696906,1184.329507,-1072.533697,9622.677246
971.697236,-222.061783,306.438199,10732.986159
971.697566,-2146.597232,1302.362347,11103.089130
971.697895,-3478.967927,3217.601092,11251.130318
971.698225,-4145.153275,3524.039291,11029.068536
971.698555,-3552.988522,1532.190996,10732.986159
971.698884,-2812.782580,0.000000,9178.553681
971.699214,-2146.597232,-1608.800546,7105.977043
971.699544,-888.247130,-2374.896044,6069.688724
971.699873,444.123565,-2451.505594,6661.853478
971.700203,592.164754,-1378.971896,8660.409521
971.700532,-444.123565,-536.266849,9844.739029
971.700862,-2516.700203,1838.629195,10955.047942
971.701192,-3849.070898,4136.915689,11547.212695
971.701521,-3552.988522,3677.258390,12065.356855
971.701851,-2590.720797,2374.896044,11473.192101
971.702181,-1554.432478,306.438199,9770.718434
971.702510,0.000000,-1685.410096,7920.203579
971.702840,1554.432478,-1685.410096,7031.956449
971.703170,2442.679609,-1149.143247,7328.038826
971.703499,2738.761985,153.219100,9178.553681
971.703829,1924.535449,612.876398,10140.821405
971.704159,-666.185348,2298.286494,10214.842000
971.704488,-2442.679609,4443.353888,10658.965565
971.704818,-2812.782580,4826.401637,11103.089130
971.705147,-2294.638420,3294.210641,10955.047942
971.705477,-3108.864956,1149.143247,9770.718434
971.705807,-2072.576638,-766.095498,7994.224174
971.706136,-444.123565,-1455.581446,7105.977043
971.706466,962.267725,-1149.143247,7994.224174
971.706796,1258.350101,766.095498,9474.636058
971.707125,0.000000,536.266849,10436.903782
971.707455,-2072.576638,1762.019645,11399.171507
971.707785,-3775.050304,4290.134789,11991.336260
971.708114,-3923.091493,5056.230287,12509.480420
971.708444,-2664.741391,3907.087040,11251.130318
971.708774,-1332.370696,1685.410096,9178.553681
971.709103,0.000000,-919.314598,6809.894666
971.709433,1924.535449,-1378.971896,5477.523971
971.709762,3256.906145,-612.876398,6143.709319
971.710092,3849.070898,1072.533697,7698.141797
971.710422,2516.700203,2221.676944,9474.636058
971.710751,-370.102971,3370.820191,10214.842000
971.711081,-2812.782580,4903.011187,10658.965565
971.711411,-3701.029710,5132.839837,11325.150913
971.711740,-3404.947333,3907.087040,11251.130318
971.712070,-2368.659014,1378.971896,9548.656652
971.712400,-1776.494261,-1378.971896,7550.100608
971.712729,-1332.370696,-2374.896044,6069.688724
971.713059,-740.205942,-1762.019645,6587.832884
971.713389,148.041188,-306.438199,8290.306550
971.713718,148.041188,306.438199,9474.636058
971.714048,-1332.370696,842.705048,9696.697840
971.714377,-3404.947333,2681.334243,10955.047942
971.714707,-4367.215058,3447.429741,11843.295072
971.715037,-3997.112087,2757.943793,12509.480420
971.715366,-2812.782580,995.924147,11251.130318
971.715696,-1628.453072,-919.314598,9104.533087
971.716026,0.000000,-2451.505594,7254.018232
971.716355,2072.576638,-3064.381992,7920.203579
971.716685,2960.823768,-1762.019645,9918.759623
971.717015,2220.617826,306.438199,11251.130318
971.717344,222.061783,1532.190996,11843.295072
971.717674,-2220.617826,3140.991542,11843.295072
971.718004,-3256.906145,4673.182538,11843.295072
971.718333,-2516.700203,3447.429741,11029.068536
971.718663,-1554.432478,612.876398,8956.491898
971.718992,-444.123565,-1608.800546,6513.812290
971.719322,148.041188,-2451.505594,5921.647536
971.719652,148.041188,-3217.601092,6439.791695
971.719981,-222.061783,-1455.581446,8364.327145
971.720311,-1258.350101,0.000000,9474.636058
971.720641,-2886.803174,459.657299,10510.924376
971.720970,-4293.194464,1838.629195,11251.130318
971.721300,-4589.276840,2451.505594,13027.624579
971.721630,-4589.276840,2374.896044,13175.665768
971.721959,-3775.050304,1302.362347,11473.192101
971.722289,-2590.720797,0.000000,9030.512492
971.722619,-222.061783,-2068.457845,5773.606348
971.722948,2146.597232,-2145.067394,4737.318029
971.723278,3478.967927,-919.314598,5329.482782
971.723607,3108.864956,153.219100,7476.080014
971.723937,1036.288319,1608.800546,10214.842000
971.724267,-2590.720797,4443.353888,11843.295072
971.724596,-4737.318029,5515.887586,12657.521608
971.724926,-4515.256246,3677.258390,12879.583391
971.725256,-3108.864956,995.924147,12065.356855
971.725585,-1702.473667,-766.095498,10066.800811
971.725915,0.000000,-2757.943793,7476.080014
971.726245,1258.350101,-2068.457845,6883.915261
971.726574,2220.617826,-459.657299,8438.347739
971.726904,2294.638420,612.876398,9844.739029
971.727234,962.267725,1455.581446,10510.924376
971.727563,-1332.370696,3600.648841,10362.883188
971.727893,-2146.597232,4979.620737,10732.986159
971.728222,-2368.659014,4596.572988,11473.192101
971.728552,-1702.473667,2987.772442,11843.295072
971.728882,-1406.391290,1455.581446,10140.821405
971.729211,-1258.350101,-229.828649,7550.100608
971.729541,-222.061783,-459.657299,6439.791695
971.729871,2072.576638,-536.266849,7550.100608
971.730200,1924.535449,76.609550,9178.553681
971.730530,222.061783,1225.752797,9622.677246
971.730860,-2368.659014,3294.210641,10066.800811
971.731189,-3701.029710,5362.668486,10881.027347
971.731519,-4219.173869,4903.011187,10881.027347
971.731848,-2960.823768,3064.381992,10436.903782
971.732178,-1776.494261,306.438199,8216.285956
971.732508,-666.185348,-1302.362347,5773.606348
971.732837,1110.308913,-1149.143247,4885.359217
971.733167,2368.659014,0.000000,6735.874072
971.733497,2960.823768,0.000000,8734.430116
971.733826,1036.288319,1838.629195,9918.759623
971.734156,-1554.432478,3600.648841,11251.130318
971.734486,-3034.844362,4826.401637,12287.418637
971.734815,-3404.947333,4826.401637,12435.459826
971.735145,-3997.112087,2987.772442,12139.377449
971.735475,-2812.782580,-153.219100,10955.047942
971.735804,-1406.391290,-2221.676944,8882.471304
971.736134,0.000000,-2528.115143,7328.038826
971.736463,814.226536,-2681.334243,7550.100608
971.736793,888.247130,-842.705048,8882.471304
971.737123,148.041188,0.000000,9918.759623
971.737452,-1036.288319,1455.581446,10807.006753
971.737782,-2590.720797,3600.648841,11103.089130
971.738112,-3404.947333,4136.915689,11769.274478
971.738441,-2886.803174,2681.334243,11473.192101
971.738771,-2294.638420,0.000000,9548.656652
971.739101,-1554.432478,-1991.848295,7994.224174
971.739430,-740.205942,-2681.334243,6735.874072
971.739760,74.020594,-2681.334243,7328.038826
971.740090,814.226536,-2068.457845,8882.471304
971.740419,0.000000,-1302.362347,10436.903782
971.740749,-1998.556043,919.314598,11177.109724
971.741078,-3997.112087,3447.429741,11399.171507
971.741408,-4737.318029,3447.429741,11917.315666
971.741738,-3552.988522,2911.162892,11843.295072
971.742067,-2368.659014,536.266849,10140.821405
971.742397,-1184.329507,-2068.457845,7698.141797
971.742727,0.000000,-2374.896044,5921.647536
971.743056,1258.350101,-2145.067394,6587.832884
971.743386,2072.576638,-1378.971896,8438.347739
971.743716,1776.494261,0.000000,9474.636058
971.744045,-518.144159,1838.629195,9622.677246
971.744375,-2590.720797,3064.381992,10140.821405
971.744705,-3404.947333,4290.134789,11547.212695
971.745034,-2738.761985,4213.525239,11917.315666
971.745364,-2516.700203,2374.896044,11103.089130
971.745693,-1406.391290,-536.266849,9030.512492
971.746023,-592.164754,-1378.971896,7550.100608
971.746353,814.226536,-1455.581446,7772.162391
971.746682,1702.473667,-995.924147,8956.491898
971.747012,962.267725,383.047749,9844.739029
971.747342,-814.226536,536.266849,10658.965565
971.747671,-2664.741391,2834.553343,11177.109724
971.748001,-3404.947333,4290.134789,11991.336260
971.748331,-3108.864956,3983.696590,11991.336260
971.748660,-1998.556043,2604.724693,10658.965565
971.748990,-222.061783,612.876398,8290.306550
971.749320,1628.453072,-612.876398,6735.874072
971.749649,2886.803174,-536.266849,6587.832884
971.749979,3256.906145,306.438199,7772.162391
971.750308,2442.679609,1685.410096,9030.512492
971.750638,444.123565,2757.943793,9548.656652
971.750968,-1480.411884,4290.134789,10658.965565
971.751297,-3182.885551,4826.401637,10881.027347
971.751627,-3923.091493,4596.572988,10658.965565
971.751957,-3552.988522,2221.676944,9326.594869
971.752286,-2368.659014,-612.876398,8142.265362
971.752616,-1554.432478,-1302.362347,6661.853478
971.752946,-370.102971,-842.705048,5921.647536
971.753275,1258.350101,-689.485948,6957.935855
971.753605,1776.494261,0.000000,8068.244768
971.753935,370.102971,1225.752797,10066.800811
971.754264,-2072.576638,3370.820191,11547.212695
971.754594,-3923.091493,4979.620737,12287.418637
971.754923,-4219.173869,4596.572988,12953.603985
971.755253,-3627.009116,2604.724693,12361.439231
971.755583,-2664.741391,-536.266849,10732.986159
971.755912,-962.267725,-2604.724693,8068.244768
971.756242,1184.329507,-3370.820191,6291.750507
971.756572,2368.659014,-2604.724693,7476.080014
971.756901,2294.638420,-919.314598,9178.553681
971.757231,1036.288319,229.828649,10881.027347
971.757561,-1554.432478,3064.381992,11473.192101
971.757890,-3182.885551,4673.182538,11473.192101
971.758220,-3404.947333,4213.525239,11769.274478
971.758550,-2738.761985,2221.676944,10732.986159
971.758879,-2590.720797,-766.095498,9400.615463
971.759209,-2220.617826,-2834.553343,7994.224174
971.759538,-1406.391290,-2528.115143,7402.059420
971.759868,-370.102971,-1762.019645,8142.265362
971.760198,-518.144159,-1532.190996,9030.512492
971.760527,-1110.308913,-995.924147,9844.739029
971.760857,-2812.782580,919.314598,10436.903782
971.761187,-3404.947333,1455.581446,11547.212695
971.761516,-3775.050304,3064.381992,12805.562797
971.761846,-3478.967927,3447.429741,12361.439231
971.762176,-2442.679609,919.314598,10066.800811
971.762505,-1110.308913,-1302.362347,6957.935855
971.762835,1110.308913,-1532.190996,4737.318029
971.763164,3034.844362,-2145.067394,4589.276840
971.763494,3552.988522,-1915.238745,7105.977043
971.763824,1480.411884,153.219100,9548.656652
971.764153,-2220.617826,2757.943793,11177.109724
971.764483,-4219.173869,3600.648841,11917.315666
971.764813,-4145.153275,4366.744339,12657.521608
971.765142,-2738.761985,2757.943793,12435.459826
971.765472,-1628.453072,-229.828649,10140.821405
971.765802,0.000000,-2451.505594,8586.388927
971.766131,1184.329507,-1685.410096,7254.018232
971.766461,1850.514855,-153.219100,7772.162391
971.766791,1924.535449,76.609550,8438.347739
971.767120,1628.453072,995.924147,9400.615463
971.767450,0.000000,2298.286494,10362.883188
971.767779,-1554.432478,3907.087040,11103.089130
971.768109,-2294.638420,5439.278036,11769.274478
971.768439,-2294.638420,4136.915689,11325.150913
971.768768,-1628.453072,1378.971896,10436.903782
971.769098,-740.205942,-229.828649,8808.450710
971.769428,0.000000,-842.705048,7105.977043
971.769757,1554.432478,-766.095498,7179.997637
971.770087,1850.514855,612.876398,8808.450710
971.770417,1776.494261,842.705048,10436.903782
971.770746,-592.164754,2528.115143,11103.089130
971.771076,-3330.926739,4749.792088,11103.089130
971.771406,-4219.173869,5362.668486,11029.068536
971.771735,-3923.091493,4060.306139,9622.677246
971.772065,-2072.576638,1991.848295,8068.244768
971.772394,-370.102971,-766.095498,6217.729913
971.772724,962.267725,-2145.067394,4885.359217
971.773054,1332.370696,-1149.143247,5551.544565
971.773383,1554.432478,459.657299,7920.203579
971.773713,740.205942,1762.019645,9548.656652
971.774043,-1776.494261,3524.039291,10510.924376
971.774372,-3404.947333,4749.792088,11473.192101
971.774702,-3404.947333,4136.915689,12583.501014
971.775032,-3182.885551,2757.943793,13175.665768
971.775361,-3552.988522,1225.752797,11917.315666
971.775691,-3182.885551,-766.095498,9992.780217
971.776021,-1924.535449,-1915.238745,7698.141797
971.776350,370.102971,-2374.896044,6957.935855
971.776680,2368.659014,-1991.848295,7328.038826
971.777009,3330.926739,-1608.800546,8882.471304
971.777339,1480.411884,0.000000,9252.574275
971.777669,-1628.453072,3524.039291,10288.862594
971.777998,-3034.844362,4673.182538,11325.150913
971.778328,-2812.782580,3983.696590,11547.212695
971.778658,-2664.741391,1762.019645,10658.965565
971.778987,-1924.535449,-842.705048,8882.471304
971.779317,-1258.350101,-2451.505594,8216.285956
971.779647,-148.041188,-2528.115143,7772.162391
971.779976,740.205942,-2298.286494,8956.491898
971.780306,444.123565,-1608.800546,10288.862594
971.780636,-814.226536,-153.219100,11103.089130
971.780965,-3108.864956,2221.676944,11547.212695
971.781295,-4145.153275,3217.601092,11621.233289
971.781624,-3775.050304,2987.772442,11843.295072
971.781954,-3034.844362,1762.019645,11325.150913
971.782284,-2146.597232,0.000000,8956.491898
971.782613,0.000000,-1838.629195,6291.750507
971.782943,1554.432478,-2834.553343,5033.400406
971.783273,2738.761985,-2221.676944,5847.626942
971.783602,2886.803174,-1685.410096,8142.265362
971.783932,1036.288319,0.000000,9992.780217
971.784262,-1702.473667,2681.334243,11325.150913
971.784591,-3330.926739,5056.230287,12657.521608
971.784921,-3108.864956,4596.572988,12953.603985
971.785251,-2812.782580,2757.943793,11621.233289
971.785580,-1998.556043,76.609550,9252.574275
971.785910,-370.102971,-2145.067394,7105.977043
971.786239,666.185348,-2221.676944,6661.853478
971.786569,1332.370696,-1225.752797,7846.182985
971.786899,1110.308913,-383.047749,9548.656652
971.787228,-222.061783,459.657299,10288.862594
971.787558,-2516.700203,2757.943793,10510.924376
971.787888,-3478.967927,4519.963438,11399.171507
971.788217,-3256.906145,4290.134789,12065.356855
971.788547,-2146.597232,2987.772442,11473.192101
971.788877,-1332.370696,1149.143247,9770.718434
971.789206,74.020594,-536.266849,7328.038826
971.789536,1776.494261,-459.657299,6143.709319
971.789866,2738.761985,0.000000,7476.080014
971.790195,2812.782580,919.314598,8808.450710
971.790525,1702.473667,1378.971896,9844.739029
971.790854,-814.226536,3217.601092,10362.883188
971.791184,-2960.823768,5592.497135,11251.130318
971.791514,-4071.132681,5669.106685,11473.192101
971.791843,-3330.926739,4519.963438,10658.965565
971.792173,-1998.556043,1302.362347,8586.388927
971.792503,-518.144159,-1302.362347,6291.750507
971.792832,592.164754,-1532.190996,4811.338623
971.793162,1332.370696,-536.266849,6809.894666
971.793492,888.247130,-383.047749,8438.347739
971.793821,-518.144159,995.924147,10214.842000
971.794151,-2812.782580,2834.553343,11621.233289
971.794480,-4145.153275,4290.134789,12287.418637
971.794810,-3997.112087,3677.258390,13101.645173
971.795140,-3627.009116,2681.334243,12213.398043
971.795469,-2146.597232,229.828649,10510.924376
971.795799,-296.082377,-1532.190996,7846.182985
971.796129,1406.391290,-1991.848295,6143.709319
971.796458,2812.782580,-1762.019645,6735.874072
971.796788,3182.885551,-229.828649,7476.080014
971.797117,2442.679609,1149.143247,9030.512492
971.797447,444.123565,2298.286494,10140.821405
971.797777,-1998.556043,4443.353888,11177.109724
971.798106,-3256.906145,4749.792088,11917.315666
971.798436,-3701.029710,2604.724693,11843.295072
971.798766,-3701.029710,76.609550,10658.965565
971.799095,-2886.803174,-2451.505594,8734.430116
971.799425,-1480.411884,-3140.991542,7254.018232
971.799754,814.226536,-3677.258390,7772.162391
971.800084,1406.391290,-2528.115143,9548.656652
971.800414,814.226536,-1532.190996,10955.047942
971.800743,-1776.494261,1455.581446,11103.089130
971.801073,-3997.112087,4136.915689,10658.965565
971.801402,-3923.091493,4979.620737,10510.924376
971.801732,-2812.782580,3447.429741,10288.862594
971.802062,-1776.494261,76.609550,9326.594869
971.802391,-1332.370696,-1915.238745,8364.327145
971.802721,-740.205942,-2528.115143,7179.997637
971.803050,370.102971,-2528.115143,7254.018232
971.803380,1036.288319,-1608.800546,8882.471304
971.803710,814.226536,-1302.362347,10288.862594
971.804039,-592.164754,76.609550,11029.068536
971.804369,-2220.617826,2681.334243,11325.150913
971.804698,-3182.885551,4903.011187,11843.295072
971.805028,-3256.906145,4060.306139,11621.233289
971.805358,-1110.308913,2221.676944,10214.842000
971.805687,-444.123565,-459.657299,7254.018232
971.806017,592.164754,-2298.286494,4959.379811
971.806346,2368.659014,-2681.334243,5625.565159
971.806676,2368.659014,-1302.362347,7772.162391
971.807006,888.247130,-229.828649,9696.697840
971.807335,-1554.432478,1149.143247,11621.233289
971.807665,-3923.091493,3524.039291,12435.459826
971.807995,-4811.338623,4673.182538,13101.645173
971.808324,-4367.215058,3753.867940,13027.624579
971.808654,-2590.720797,1838.629195,11399.171507
971.808983,-888.247130,536.266849,8808.450710
971.809313,222.061783,-1149.143247,7105.977043
971.809643,2072.576638,-1149.143247,6587.832884
971.809972,2368.659014,-459.657299,8068.244768
971.810302,2368.659014,689.485948,9400.615463
971.810631,592.164754,2681.334243,9918.759623
971.810961,-1332.370696,3447.429741,9696.697840
971.811291,-2146.597232,4749.792088,10214.842000
971.811620,-2294.638420,4673.182538,10362.883188
971.811950,-1332.370696,2911.162892,9696.697840
971.812279,-370.102971,1149.143247,7994.224174
971.812609,0.000000,153.219100,6587.832884
971.812939,592.164754,-229.828649,6365.771101
971.813268,1184.329507,-306.438199,7772.162391
971.813598,962.267725,229.828649,9696.697840
971.813927,-444.123565,1302.362347,11177.109724
971.814257,-2886.803174,3217.601092,11769.274478
971.814587,-4885.359217,4366.744339,11769.274478
971.814916,-4441.235652,3600.648841,12139.377449
971.815246,-3256.906145,1838.629195,11547.212695
971.815575,-1998.556043,612.876398,9178.553681
971.815905,-222.061783,-995.924147,6143.709319
971.816235,2146.597232,-1915.238745,5477.523971
971.816564,3256.906145,-842.705048,7031.956449
971.816894,3108.864956,-153.219100,8882.471304
971.817223,1110.308913,1302.362347,10214.842000
971.817553,-2072.576638,3600.648841,10362.883188
971.817883,-3775.050304,4749.792088,11621.233289
971.818212,-3849.070898,4213.525239,12139.377449
971.818542,-2886.803174,1915.238745,11473.192101
971.818872,-1924.535449,-842.705048,9474.636058
971.819201,-592.164754,-2451.505594,7105.977043
971.819531,370.102971,-2298.286494,6587.832884
971.819860,1036.288319,-1915.238745,8216.285956
971.820190,962.267725,-1149.143247,10140.821405
971.820520,-370.102971,689.485948,11251.130318
971.820849,-2368.659014,2681.334243,11547.212695
971.821179,-3627.009116,3600.648841,11177.109724
971.821508,-3478.967927,2911.162892,11769.274478
971.821838,-2664.741391,1225.752797,11103.089130
971.822168,-2294.638420,-842.705048,9400.615463
971.822497,-1184.329507,-2451.505594,7550.100608
971.822827,0.000000,-1991.848295,6439.791695
971.823156,1406.391290,-1685.410096,7328.038826
971.823486,2146.597232,-1072.533697,9326.594869
971.823816,962.267725,76.609550,10510.924376
971.824145,-1702.473667,2681.334243,10955.047942
971.824475,-3478.967927,4136.915689,10658.965565
971.824804,-3404.947333,3830.477490,11843.295072
971.825134,-3478.967927,2681.334243,10881.027347
971.825464,-2886.803174,612.876398,9178.553681
971.825793,-1332.370696,-2374.896044,7179.997637
971.826123,148.041188,-2451.505594,6069.688724
971.826452,1036.288319,-995.924147,7254.018232
971.826782,1776.494261,-1838.629195,8660.409521
971.827112,962.267725,-766.095498,10066.800811
971.827441,-1628.453072,2298.286494,11029.068536
971.827771,-3627.009116,4136.915689,11621.233289
971.828101,-3478.967927,4443.353888,12657.521608
971.828430,-2886.803174,3907.087040,12213.398043
971.828760,-1850.514855,1378.971896,10881.027347
971.829089,-370.102971,-1149.143247,8512.368333
971.829419,666.185348,-1225.752797,6587.832884
971.829749,2294.638420,-383.047749,7031.956449
971.830078,2738.761985,-306.438199,8438.347739
971.830408,1776.494261,919.314598,9696.697840
971.830737,0.000000,3140.991542,10436.903782
971.831067,-2146.597232,4290.134789,10807.006753
971.831397,-3256.906145,4903.011187,11325.150913
971.831726,-3478.967927,4596.572988,10881.027347
971.832056,-2664.741391,1762.019645,9770.718434
971.832385,-1628.453072,-306.438199,7698.141797
971.832715,-370.102971,-1149.143247,5773.606348
971.833045,740.205942,-1378.971896,5551.544565
971.833374,1998.556043,-1532.190996,7402.059420
971.833704,1258.350101,76.609550,10066.800811
971.834033,-1184.329507,2451.505594,11843.295072
971.834363,-3701.029710,4903.011187,12435.459826
971.834693,-4885.359217,5362.668486,12879.583391
971.835022,-4367.215058,4136.915689,12583.501014
971.835352,-2368.659014,1915.238745,11325.150913
971.835681,-666.185348,-919.314598,8438.347739
971.836011,1258.350101,-1991.848295,5847.626942
971.836341,2368.659014,-1685.410096,5329.482782
971.836670,3182.885551,-536.266849,6587.832884
971.837000,2664.741391,153.219100,8586.388927
971.837329,740.205942,1838.629195,9770.718434
971.837659,-1998.556043,4673.182538,10362.883188
971.837989,-3330.926739,5056.230287,11399.171507
971.838318,-3108.864956,3447.429741,12139.377449
971.838648,-2220.617826,1915.238745,11251.130318
971.838978,-1480.411884,-919.314598,9474.636058
971.839307,-740.205942,-1838.629195,7179.997637
971.839637,222.061783,-1685.410096,6365.771101
971.839966,962.267725,-1532.190996,7105.977043
971.840296,962.267725,-612.876398,7920.203579
971.840626,-592.164754,-153.219100,9918.759623
971.840955,-2886.803174,1991.848295,11621.233289
971.841285,-4589.276840,3370.820191,13027.624579
971.841614,-4589.276840,2681.334243,13249.686362
971.841944,-3478.967927,1072.533697,12583.501014
971.842274,-2220.617826,-1225.752797,9918.759623
971.842603,0.000000,-2987.772442,7994.224174
971.842933,2368.659014,-2681.334243,7105.977043
971.843262,3701.029710,-1915.238745,7550.100608
971.843592,3478.967927,-459.657299,8808.450710
971.843922,1702.473667,306.438199,9548.656652
971.844251,-592.164754,2911.162892,10510.924376
971.844581,-2812.782580,4979.620737,10881.027347
971.844910,-3627.009116,4136.915689,11473.192101
971.845240,-3256.906145,2374.896044,10955.047942
971.845570,-2812.782580,-995.924147,8882.471304
971.845899,-2146.597232,-2451.505594,6957.935855
971.846229,-1258.350101,-2451.505594,6365.771101
971.846558,-592.164754,-2068.457845,7402.059420
971.846888,-370.102971,-1378.971896,9178.553681
971.847218,-1258.350101,-842.705048,10658.965565
971.847547,-2960.823768,2451.505594,11473.192101
971.847877,-4367.215058,4136.915689,11843.295072
971.848207,-4441.235652,3447.429741,12213.398043
971.848536,-3478.967927,2604.724693,11547.212695
971.848866,-2072.576638,689.485948,9844.739029
971.849195,0.000000,-1072.533697,7402.059420
971.849525,1628.453072,-1532.190996,6587.832884
971.849855,2812.782580,-612.876398,7105.977043
971.850184,3182.885551,536.266849,9178.553681
971.850514,2072.576638,1149.143247,9844.739029
971.850843,-740.205942,3524.039291,10436.903782
971.851173,-3108.864956,5439.278036,11103.089130
971.851503,-3552.988522,5362.668486,11621.233289
971.851832,-2812.782580,4136.915689,10658.965565
971.852162,-1924.535449,1302.362347,8808.450710
971.852491,-666.185348,-1608.800546,6735.874072
971.852821,0.000000,-1838.629195,5773.606348
971.853151,296.082377,-842.705048,7328.038826
971.853480,148.041188,0.000000,9400.615463
971.853810,-888.247130,919.314598,10955.047942
971.854139,-2664.741391,3140.991542,11695.253884
971.854469,-3849.070898,3600.648841,12139.377449
971.854799,-4071.132681,4443.353888,12213.398043
971.855128,-3182.885551,3524.039291,11325.150913
971.855458,-1554.432478,1455.581446,9326.594869
971.855787,370.102971,-842.705048,6883.915261
971.856117,1776.494261,-1072.533697,5329.482782
971.856447,3404.947333,-612.876398,6513.812290
971.856776,3627.009116,459.657299,8290.306550
971.857106,2368.659014,1838.629195,9622.677246
971.857435,-370.102971,3370.820191,10510.924376
971.857765,-2442.679609,4673.182538,11029.068536
971.858095,-3182.885551,4903.011187,11843.295072
971.858424,-3108.864956,3294.210641,11695.253884
971.858754,-2886.803174,766.095498,9992.780217
971.859084,-1998.556043,-1685.410096,8142.265362
971.859413,-1184.329507,-3064.381992,6587.832884
971.859743,370.102971,-2221.676944,7105.977043
971.860072,1110.308913,-1532.190996,8364.327145
971.860402,592.164754,-1149.143247,9474.636058
971.860732,-1258.350101,766.095498,10436.903782
971.861061,-3404.947333,2911.162892,11695.253884
971.861391,-3849.070898,2987.772442,12361.439231
971.861720,-3478.967927,2374.896044,13175.665768
971.862050,-2960.823768,1762.019645,11843.295072
971.862380,-1850.514855,-1302.362347,9474.636058
971.862709,0.000000,-2911.162892,7105.977043
971.863039,1924.535449,-2911.162892,7105.977043
971.863368,2516.700203,-1532.190996,8438.347739
971.863698,1554.432478,-536.266849,9770.718434
971.864028,-592.164754,995.924147,10362.883188
971.864357,-2812.782580,3217.601092,10584.944971
971.864687,-3923.091493,3907.087040,11251.130318
971.865016,-3849.070898,2987.772442,10955.047942
971.865346,-3627.009116,1532.190996,9770.718434
971.865676,-2368.659014,-1455.581446,7846.182985
971.866005,-1258.350101,-2757.943793,6513.812290
971.866335,-518.144159,-2451.505594,6809.894666
971.866664,74.020594,-1455.581446,7698.141797
971.866994,74.020594,-842.705048,9326.594869
971.867324,-1332.370696,459.657299,10510.924376
971.867653,-3478.967927,2911.162892,11399.171507
971.867983,-4367.215058,3830.477490,12361.439231
971.868313,-4441.235652,3140.991542,12435.459826
971.868642,-3627.009116,2221.676944,11251.130318
971.868972,-1998.556043,459.657299,9178.553681
971.869301,0.000000,-1685.410096,6883.915261
971.869631,1776.494261,-2145.067394,5921.647536
971.869961,3034.844362,-689.485948,7254.018232
971.870290,2368.659014,153.219100,8808.450710
971.870620,592.164754,1762.019645,10584.944971
971.870949,-2294.638420,4366.744339,11177.109724
971.871279,-3923.091493,5439.278036,11695.253884
971.871609,-3404.947333,4290.134789,11547.212695
971.871938,-2146.597232,2987.772442,11029.068536
971.872268,-1110.308913,306.438199,8882.471304
971.872597,-148.041188,-1378.971896,7105.977043
971.872927,740.205942,-1455.581446,6587.832884
971.873257,1332.370696,-383.047749,8142.265362
971.873586,740.205942,459.657299,9992.780217
971.873916,-814.226536,1685.410096,11029.068536
971.874245,-2590.720797,3600.648841,11547.212695
971.874575,-3330.926739,4443.353888,11843.295072
971.874905,-3034.844362,4060.306139,12139.377449
971.875234,-2664.741391,3370.820191,10510.924376
971.875564,-1406.391290,536.266849,8216.285956
971.875893,148.041188,-1302.362347,6513.812290
971.876223,1702.473667,-766.095498,5255.462188
971.876553,3182.885551,-153.219100,6439.791695
971.876882,3997.112087,0.000000,8512.368333
971.877212,2072.576638,1532.190996,9844.739029
971.877542,-592.164754,3524.039291,10732.986159
971.877871,-2664.741391,5286.058936,11399.171507
971.878201,-3552.988522,5362.668486,11251.130318
971.878530,-3256.906145,3983.696590,10066.800811
971.878860,-2516.700203,459.657299,8142.265362
971.879190,-1332.370696,-2604.724693,6809.894666
971.879519,-740.205942,-2757.943793,6735.874072
971.879849,-740.205942,-1762.019645,8586.388927
971.880178,-814.226536,-1225.752797,10066.800811
971.880508,-1184.329507,-995.924147,10807.006753
971.880838,-3034.844362,383.047749,11473.192101
971.881167,-4071.132681,2528.115143,11991.336260
971.881497,-3182.885551,2145.067394,12361.439231
971.881826,-2072.576638,2145.067394,11917.315666
971.882156,-1554.432478,1225.752797,10436.903782
971.882486,0.000000,-1072.533697,7698.141797
971.882815,2146.597232,-2221.676944,6587.832884
971.883145,3330.926739,-1685.410096,7179.997637
971.883474,3404.947333,-995.924147,8734.430116
971.883804,2146.597232,0.000000,10881.027347
971.884134,-888.247130,2145.067394,11695.253884
971.884463,-3552.988522,3600.648841,11769.274478
971.884793,-4885.359217,3677.258390,12287.418637
971.885122,-4737.318029,2604.724693,11473.192101
971.885452,-3923.091493,76.609550,9548.656652
971.885782,-2442.679609,-2298.286494,7254.018232
971.886111,-1554.432478,-2298.286494,5699.585753
971.886441,0.000000,-2451.505594,6143.709319
971.886770,740.205942,-1838.629195,7698.141797
971.887100,0.000000,0.000000,9474.636058
971.887430,-2368.659014,1915.238745,10732.986159
971.887759,-4441.235652,4060.306139,11029.068536
971.888089,-4737.318029,4290.134789,11547.212695
971.888419,-3701.029710,2987.772442,12287.418637
971.888748,-1924.535449,1072.533697,11473.192101
971.889078,-296.082377,-1149.143247,8882.471304
971.889407,1184.329507,-1532.190996,6439.791695
971.889737,2886.803174,-1532.190996,6883.915261
971.890067,3256.906145,-536.266849,8068.244768
971.890396,2960.823768,1302.362347,9622.677246
971.890726,666.185348,2451.505594,10436.903782
971.891055,-1406.391290,4596.572988,10214.842000
971.891385,-3034.844362,5132.839837,10955.047942
971.891715,-3034.844362,4290.134789,11473.192101
971.892044,-2516.700203,1991.848295,10584.944971
971.892374,-2220.617826,0.000000,8364.327145
971.892703,-962.267725,-919.314598,6735.874072
971.893033,814.226536,-1762.019645,6809.894666
971.893363,1628.453072,-1225.752797,8364.327145
971.893692,740.205942,0.000000,9992.780217
971.894022,-1258.350101,1072.533697,11103.089130
971.894351,-3404.947333,4136.915689,11843.295072
971.894681,-3923.091493,5669.106685,12065.356855
971.895011,-3404.947333,3983.696590,12361.439231
971.895340,-2072.576638,2145.067394,10807.006753
971.895670,-444.123565,153.219100,8586.388927
971.895999,1110.308913,-1149.143247,6217.729913
971.896329,2368.659014,-995.924147,5773.606348
971.896659,3478.967927,306.438199,7105.977043
971.896988,2812.782580,1072.533697,9178.553681
971.897318,888.247130,1915.238745,9992.780217
971.897648,-1850.514855,3983.696590,10066.800811
971.897977,-3330.926739,5056.230287,10881.027347
971.898307,-3108.864956,3753.867940,11843.295072
971.898636,-3108.864956,1915.238745,10510.924376
971.898966,-2590.720797,-612.876398,8586.388927
971.899296,-1184.329507,-2145.067394,6513.812290
971.899625,0.000000,-2528.115143,6217.729913
971.899955,814.226536,-1838.629195,7254.018232
971.900285,888.247130,-1378.971896,8882.471304
971.900614,-888.247130,229.828649,10807.006753
971.900944,-3108.864956,2451.505594,11695.253884
971.901274,-4293.194464,4213.525239,12509.480420
971.901603,-3775.050304,3370.820191,13101.645173
971.901933,-2812.782580,1762.019645,11621.233289
971.902262,-1850.514855,-766.095498,9918.759623
971.902592,444.123565,-2145.067394,8142.265362
971.902922,2072.576638,-2528.115143,7624.121203
971.903251,2664.741391,-1378.971896,8364.327145
971.903581,2812.782580,-536.266849,9622.677246
971.903911,962.267725,306.438199,10732.986159
971.904240,-1480.411884,2911.162892,11325.150913
971.904570,-3701.029710,4366.744339,11399.171507
971.904900,-3849.070898,3677.258390,11991.336260
971.905229,-3627.009116,2068.457845,10658.965565
971.905559,-2516.700203,-306.438199,8660.409521
971.905889,-962.267725,-2451.505594,6439.791695
971.906218,222.061783,-2451.505594,5699.585753
971.906548,1036.288319,-1532.190996,6735.874072
971.906877,888.247130,-153.219100,8512.368333
971.907207,-814.226536,383.047749,9844.739029
971.907537,-3182.885551,3064.381992,11473.192101
971.907866,-4885.359217,4060.306139,12139.377449
971.908196,-4811.338623,3830.477490,12361.439231
971.908526,-3701.029710,2834.553343,11251.130318
971.908855,-2072.576638,-689.485948,8734.430116
971.909185,-370.102971,-2298.286494,6883.915261
971.909515,1110.308913,-1608.800546,5921.647536
971.909844,2368.659014,-995.924147,7031.956449
971.910174,2812.782580,76.609550,8364.327145
971.910504,1776.494261,1762.019645,9622.677246
971.910833,-222.061783,2987.772442,10066.800811
971.911163,-2664.741391,4443.353888,10955.047942
971.911493,-3627.009116,4673.182538,11621.233289
971.911822,-3627.009116,3983.696590,11769.274478
971.912152,-2738.761985,1838.629195,11103.089130
971.912481,-1776.494261,-766.095498,8660.409521
971.912811,-518.144159,-1685.410096,7105.977043
971.913141,888.247130,-1762.019645,7179.997637
971.913470,1998.556043,-1455.581446,8512.368333
971.913800,1258.350101,383.047749,10140.821405
971.914130,-888.247130,2451.505594,10436.903782
971.914459,-3034.844362,4366.744339,11251.130318
971.914789,-3627.009116,4903.011187,11621.233289
971.915119,-2886.803174,3830.477490,11473.192101
971.915448,-1480.411884,1455.581446,10214.842000
971.915778,0.000000,-919.314598,7698.141797
971.916108,888.247130,-1915.238745,6143.709319
971.916437,2220.617826,-2298.286494,6957.935855
971.916767,3034.844362,-1149.143247,9474.636058
971.917096,1924.535449,612.876398,10881.027347
971.917426,-592.164754,2068.457845,11251.130318
971.917756,-2664.741391,4826.401637,10436.903782
971.918085,-2960.823768,5132.839837,10510.924376
971.918415,-2442.679609,3830.477490,9622.677246
971.918745,-1554.432478,1302.362347,8290.306550
971.919074,-1258.350101,-1455.581446,7031.956449
971.919404,-1110.308913,-1915.238745,6143.709319
971.919734,-148.041188,-1455.581446,7254.018232
971.920063,0.000000,-1225.752797,9030.512492
971.920393,-222.061783,-766.095498,9918.759623
971.920723,-1628.453072,383.047749,11251.130318
971.921052,-2960.823768,2374.896044,11991.336260
971.921382,-3775.050304,3217.601092,12509.480420
971.921711,-3552.988522,3447.429741,12139.377449
971.922041,-2294.638420,2451.505594,10955.047942
971.922371,-370.102971,-689.485948,8956.491898
971.922700,1406.391290,-1838.629195,6661.853478
971.923030,3108.864956,-2298.286494,6661.853478
971.923360,3478.967927,-995.924147,7550.100608
971.923689,2664.741391,153.219100,9400.615463
971.924019,296.082377,1378.971896,11103.089130
971.924349,-2590.720797,2911.162892,11547.212695
971.924678,-4441.235652,3370.820191,11843.295072
971.925008,-4071.132681,3370.820191,12065.356855
971.925338,-3034.844362,1608.800546,11029.068536
971.925667,-1998.556043,-1532.190996,9178.553681
971.925997,-518.144159,-2298.286494,7179.997637
971.926326,0.000000,-1532.190996,6439.791695
971.926656,518.144159,-1072.533697,8142.265362
971.926986,148.041188,-153.219100,9918.759623
971.927315,-1184.329507,1455.581446,11029.068536
971.927645,-2960.823768,2987.772442,11177.109724
971.927975,-3701.029710,3294.210641,10955.047942
971.928304,-3108.864956,2834.553343,10955.047942
971.928634,-2590.720797,1225.752797,10066.800811
971.928964,-1406.391290,-612.876398,8512.368333
971.929293,74.020594,-995.924147,6883.915261
971.929623,1702.473667,-459.657299,6291.750507
971.929953,3108.864956,-229.828649,7624.121203
971.930282,2960.823768,383.047749,9400.615463
971.930612,962.267725,1378.971896,10658.965565
971.930941,-2294.638420,3294.210641,11029.068536
971.931271,-4663.297435,4979.620737,11399.171507
971.931601,-4663.297435,4213.525239,11769.274478
971.931930,-3330.926739,2298.286494,10732.986159
971.932260,-2220.617826,-919.314598,8438.347739
971.932590,-666.185348,-2681.334243,6291.750507
971.932919,666.185348,-2528.115143,6143.709319
971.933249,1332.370696,-1378.971896,7402.059420
971.933579,1036.288319,0.000000,9548.656652
971.933908,-518.144159,1532.190996,11547.212695
971.934238,-2886.803174,3524.039291,12361.439231
971.934568,-4071.132681,4443.353888,12731.542202
971.934897,-3701.029710,3524.039291,12731.542202
971.935227,-2516.700203,2298.286494,11103.089130
971.935556,-1702.473667,-153.219100,9400.615463
971.935886,-296.082377,-1915.238745,6957.935855
971.936216,1480.411884,-1762.019645,6291.750507
971.936545,2590.720797,-995.924147,7105.977043
971.936875,3034.844362,153.219100,8808.450710
971.937205,1628.453072,1762.019645,9992.780217
971.937534,-1036.288319,3677.258390,10510.924376
971.937864,-3034.844362,5056.230287,10955.047942
971.938194,-3552.988522,4673.182538,11547.212695
971.938523,-3330.926739,3830.477490,11251.130318
971.938853,-2738.761985,612.876398,9474.636058
971.939183,-1924.535449,-1762.019645,7031.956449
971.939512,0.000000,-2145.067394,5921.647536
971.939842,1924.535449,-2451.505594,6513.812290
971.940171,2516.700203,-689.485948,7920.203579
971.940501,1628.453072,0.000000,8882.471304
971.940831,-962.267725,2911.162892,10436.903782
971.941160,-2738.761985,5056.230287,11621.233289
971.941490,-3034.844362,5209.449386,12805.562797
971.941820,-3108.864956,4060.306139,12583.501014
971.942149,-2368.659014,1378.971896,10955.047942
971.942479,-1184.329507,-1685.410096,8438.347739
971.942809,518.144159,-2451.505594,6883.915261
971.943138,1924.535449,-2528.115143,7105.977043
971.943468,2294.638420,-1455.581446,8438.347739
971.943798,1554.432478,459.657299,9400.615463
971.944127,0.000000,2374.896044,10140.821405
971.944457,-2294.638420,3524.039291,10658.965565
971.944787,-3108.864956,4366.744339,11177.109724
971.945116,-2960.823768,3753.867940,11325.150913
971.945446,-2146.597232,1225.752797,10510.924376
971.945775,-1776.494261,-1378.971896,8290.306550
971.946105,-814.226536,-1915.238745,6883.915261
971.946435,370.102971,-2221.676944,7550.100608
971.946764,1332.370696,-2068.457845,9548.656652
971.947094,666.185348,-306.438199,10732.986159
971.947424,-1258.350101,1762.019645,11177.109724
971.947753,-3182.885551,3140.991542,11399.171507
971.948083,-4663.297435,3753.867940,12065.356855
971.948413,-4441.235652,2911.162892,12065.356855
971.948742,-3256.906145,1302.362347,10584.944971
971.949072,-1554.432478,-689.485948,7920.203579
971.949402,888.247130,-2221.676944,5773.606348
971.949731,1924.535449,-2681.334243,5847.626942
971.950061,2516.700203,-2221.676944,7254.018232
971.950390,1554.432478,-459.657299,9326.594869
971.950720,-962.267725,1532.190996,10955.047942
971.951050,-3997.112087,4213.525239,11843.295072
971.951379,-4737.318029,4979.620737,12361.439231
971.951709,-4071.132681,4060.306139,11843.295072
971.952039,-2442.679609,1378.971896,10066.800811
971.952368,-1258.350101,-1149.143247,7994.224174
971.952698,-222.061783,-2374.896044,6439.791695
971.953028,1332.370696,-2145.067394,6291.750507
971.953357,1702.473667,-766.095498,7254.018232
971.953687,1554.432478,0.000000,9178.553681
971.954017,-148.041188,1455.581446,10658.965565
971.954346,-2516.700203,3753.867940,11769.274478
971.954676,-3923.091493,4749.792088,11843.295072
971.955005,-4071.132681,3983.696590,12509.480420
971.955335,-2812.782580,2068.457845,11769.274478
971.955665,-1406.391290,-842.705048,10214.842000
971.955994,-444.123565,-1608.800546,7698.141797
971.956324,1258.350101,-1532.190996,6661.853478
971.956654,2516.700203,-1149.143247,7698.141797
971.956983,2960.823768,-459.657299,9622.677246
971.957313,1184.329507,1455.581446,10510.924376
971.957643,-1258.350101,3753.867940,10881.027347
971.957972,-3182.885551,5669.106685,10955.047942
971.958302,-3404.947333,5592.497135,10288.862594
971.958632,-2220.617826,3447.429741,9030.512492
971.958961,-814.226536,383.047749,7846.182985
971.959291,-518.144159,-1532.190996,6439.791695
971.959620,0.000000,-1378.971896,6735.874072
971.959950,370.102971,-766.095498,8290.306550
971.960280,222.061783,0.000000,9770.718434
971.960609,-814.226536,0.000000,11251.130318
971.960939,-2812.782580,2145.067394,11695.253884
971.961269,-3775.050304,3753.867940,11843.295072
971.961598,-2960.823768,3447.429741,12139.377449
971.961928,-2368.659014,2987.772442,11103.089130
971.962258,-1184.329507,1225.752797,9252.574275
971.962587,444.123565,-1225.752797,6513.812290
971.962917,2368.659014,-1838.629195,4811.338623
971.963247,3775.050304,-1838.629195,5921.647536
971.963576,3552.988522,0.000000,7846.182985
971.963906,1924.535449,1302.362347,9622.677246
971.964235,-1258.350101,2757.943793,10658.965565
971.964565,-3627.009116,4749.792088,11695.253884
971.964895,-4219.173869,4903.011187,12287.418637
971.965224,-4515.256246,2451.505594,12139.377449
971.965554,-3849.070898,-229.828649,10881.027347
971.965884,-3108.864956,-2298.286494,8512.368333
971.966213,-1850.514855,-2451.505594,6883.915261
971.966543,0.000000,-2834.553343,7402.059420
971.966873,148.041188,-2145.067394,8808.450710
971.967202,-1036.288319,-383.047749,10066.800811
971.967532,-3034.844362,1532.190996,10288.862594
971.967862,-4293.194464,3370.820191,10658.965565
971.968191,-4293.194464,3294.210641,11547.212695
971.968521,-3627.009116,2374.896044,11473.192101
971.968850,-2738.761985,766.095498,10584.944971
971.969180,-1480.411884,-1608.800546,8660.409521
971.969510,-592.164754,-2068.457845,7105.977043
971.969839,222.061783,-1378.971896,7698.141797
971.970169,592.164754,-766.095498,9104.533087
971.970499,518.144159,-383.047749,10066.800811
971.970828,-1332.370696,1532.190996,10510.924376
971.971158,-4145.153275,3600.648841,10658.965565
971.971488,-5403.503377,3830.477490,11473.192101
971.971817,-5847.626942,3524.039291,11547.212695
971.972147,-5181.441594,1532.190996,9696.697840
971.972477,-3849.070898,-1685.410096,7920.203579
971.972806,-2294.638420,-2911.162892,6439.791695
971.973136,-1110.308913,-2834.553343,6217.729913
971.973465,0.000000,-1762.019645,7105.977043
971.973795,74.020594,-459.657299,8586.388927
971.974125,-444.123565,2145.067394,9918.759623
971.974454,-2812.782580,4519.963438,10658.965565
971.974784,-4663.297435,4903.011187,12435.459826
971.975114,-5033.400406,4366.744339,13397.727550
971.975443,-5403.503377,3370.820191,12657.521608
971.975773,-4737.318029,842.705048,10807.006753
971.976103,-3182.885551,-1608.800546,8808.450710
971.976432,-1332.370696,-1991.848295,6957.935855
971.976762,518.144159,-1915.238745,6217.729913
971.977092,1184.329507,-1149.143247,6735.874072
971.977421,1850.514855,1532.190996,7624.121203
971.977751,-444.123565,4213.525239,8956.491898
971.978081,-3330.926739,5286.058936,10732.986159
971.978410,-6291.750507,5669.106685,11917.315666
971.978740,-8216.285956,5132.839837,12213.398043
971.979069,-8734.430116,3677.258390,10807.006753
971.979399,-7624.121203,0.000000,8882.471304
971.979729,-5181.441594,-2681.334243,7179.997637
971.980058,-3182.885551,-4213.525239,6439.791695
971.980388,-1924.535449,-3370.820191,6439.791695
971.980718,-962.267725,-229.828649,6365.771101
971.981047,0.000000,2451.505594,8364.327145
971.981377,0.000000,4749.792088,10362.883188
971.981707,-1776.494261,6818.249932,12287.418637
971.982036,-4959.379811,6588.421283,12805.562797
971.982366,-7772.162391,4903.011187,12583.501014
971.982696,-9548.656652,2451.505594,12805.562797
971.983025,-10288.862594,-229.828649,12509.480420
971.983355,-9622.677246,-3064.381992,10436.903782
971.983684,-7698.141797,-4826.401637,7550.100608
971.984014,-4145.153275,-5439.278036,5107.421000
971.984344,0.000000,-4903.011187,3552.988522
971.984673,3330.926739,-536.266849,4737.318029
971.985003,4589.276840,3064.381992,6957.935855
971.985333,3034.844362,6741.640382,8808.450710
971.985662,222.061783,9116.536426,10658.965565
971.985992,-2664.741391,8273.831378,12879.583391
971.986322,-5699.585753,5132.839837,14359.995275
971.986651,-9104.533087,1685.410096,14434.015869
971.986981,-11325.150913,-1991.848295,13397.727550
971.987311,-11843.295072,-5745.716235,11769.274478
971.987640,-11473.192101,-7048.078582,9622.677246
971.987970,-9548.656652,-6665.030833,7031.956449
971.988299,-5995.668130,-5286.058936,5551.544565
971.988629,-1702.473667,-1838.629195,5699.585753
971.988959,1184.329507,1915.238745,6143.709319
971.989288,2442.679609,4749.792088,6883.915261
971.989618,2146.597232,7124.688131,8068.244768
971.989948,370.102971,7890.783629,10214.842000
971.990277,-2516.700203,6665.030833,12361.439231
971.990607,-5329.482782,3064.381992,13027.624579
971.990937,-8068.244768,0.000000,11991.336260
971.991266,-9400.615463,-3140.991542,11325.150913
971.991596,-7994.224174,-6052.154434,10881.027347
971.991926,-5847.626942,-5515.887586,9844.739029
971.992255,-3627.009116,-3677.258390,8068.244768
971.992585,-1554.432478,-1378.971896,6809.894666
971.992914,370.102971,919.314598,7402.059420
971.993244,1406.391290,4366.744339,9548.656652
971.993574,666.185348,7354.516781,10807.006753
971.993903,-1110.308913,7354.516781,11177.109724
971.994233,-3330.926739,5209.449386,11325.150913
971.994563,-5329.482782,2451.505594,12139.377449
971.994892,-7031.956449,0.000000,11621.233289
971.995222,-7698.141797,-1915.238745,9400.615463
971.995552,-7402.059420,-4213.525239,6957.935855
971.995881,-5625.565159,-4596.572988,6069.688724
971.996211,-3627.009116,-2221.676944,6809.894666
971.996541,-1776.494261,-383.047749,7105.977043
971.996870,-1036.288319,2757.943793,7328.038826
971.997201,-1332.370696,5669.106685,8734.430116
971.997531,-1776.494261,8273.831378,10584.944971
971.997860,-2590.720797,7737.564530,11843.295072
971.998190,-4293.194464,4366.744339,11843.295072
971.998519,-5033.400406,2451.505594,11843.295072
971.998849,-5699.585753,689.485948,11695.253884
971.999179,-6143.709319,-306.438199,11103.089130
971.999508,-6069.688724,-1608.800546,9474.636058
971.999838,-4811.338623,-1915.238745,7846.182985
972.000167,-2886.803174,0.000000,7179.997637
972.000497,-1036.288319,1762.019645,7476.080014
972.000826,-370.102971,3370.820191,7920.203579
972.001156,-1110.308913,5286.058936,8364.327145
972.001486,-1998.556043,5745.716235,9104.533087
972.001815,-2886.803174,5286.058936,9918.759623
972.002145,-3404.947333,3370.820191,10955.047942
972.002474,-4145.153275,2145.067394,10732.986159
972.002804,-4293.194464,689.485948,9696.697840
972.003133,-3849.070898,-766.095498,9030.512492
972.003463,-2886.803174,-1225.752797,8882.471304
972.003793,-1554.432478,689.485948,9548.656652
972.004122,-1628.453072,2987.772442,9474.636058
972.004452,-2146.597232,4749.792088,9844.739029
972.004781,-2146.597232,4903.011187,10510.924376
972.005111,-1924.535449,5056.230287,10658.965565
972.005440,-2072.576638,5056.230287,11177.109724
972.005770,-2294.638420,4213.525239,10436.903782
972.006100,-1998.556043,2374.896044,10140.821405
972.006429,-1258.350101,1378.971896,9474.636058
972.006759,-1110.308913,1225.752797,8808.450710
972.007088,-888.247130,1302.362347,8364.327145
972.007418,-518.144159,2987.772442,8956.491898
972.007748,0.000000,4596.572988,9844.739029
972.008077,-222.061783,6281.983084,10658.965565
972.008407,-1258.350101,7660.954980,10955.047942
972.008736,-2146.597232,7431.126331,10288.862594
972.009066,-2590.720797,6971.469032,9474.636058
972.009395,-2960.823768,5515.887586,8438.347739
972.009725,-2590.720797,3217.601092,7105.977043
972.010055,-1628.453072,1685.410096,5921.647536
972.010384,-666.185348,76.609550,5625.565159
972.010714,-444.123565,153.219100,6439.791695
972.011043,-962.267725,2528.115143,7550.100608
972.011373,-1776.494261,4519.963438,8956.491898
972.011702,-2368.659014,6358.592633,9992.780217
972.012032,-2516.700203,6818.249932,11029.068536
972.012362,-2072.576638,6588.421283,10881.027347
972.012691,-1332.370696,6358.592633,11029.068536
972.013021,-888.247130,4979.620737,10214.842000
972.013350,-592.164754,3600.648841,10140.821405
972.013680,-888.247130,3140.991542,9696.697840
972.014009,-1110.308913,2528.115143,8882.471304
972.014339,-962.267725,2911.162892,8586.388927
972.014669,0.000000,3294.210641,8808.450710
972.014998,518.144159,3140.991542,9178.553681
972.015328,518.144159,3140.991542,9696.697840
972.015657,-666.185348,4213.525239,10732.986159
972.015987,-1554.432478,5822.325785,11251.130318
972.016316,-2146.597232,5745.716235,11399.171507
972.016646,-2146.597232,4826.401637,11621.233289
972.016976,-1850.514855,3677.258390,11029.068536
972.017305,-1480.411884,3140.991542,10066.800811
972.017635,-1480.411884,4060.306139,9622.677246
972.017964,-740.205942,4979.620737,9326.594869
972.018294,0.000000,5056.230287,8808.450710
972.018624,296.082377,4826.401637,7550.100608
972.018953,740.205942,4060.306139,6291.750507
972.019283,1110.308913,2757.943793,5773.606348
972.019612,444.123565,1608.800546,6365.771101
972.019942,-666.185348,1991.848295,7994.224174
972.020271,-2738.761985,2528.115143,9696.697840
972.020601,-3997.112087,3370.820191,10955.047942
972.020931,-3849.070898,3600.648841,11769.274478
972.021260,-2812.782580,3753.867940,12287.418637
972.021590,-2220.617826,5286.058936,11103.089130
972.021919,-1332.370696,4979.620737,9918.759623
972.022249,0.000000,5056.230287,9252.574275
972.022578,666.185348,5362.668486,9104.533087
972.022908,296.082377,5898.935335,8438.347739
972.023238,0.000000,5209.449386,7105.977043
972.023567,-444.123565,3370.820191,6439.791695
972.023897,-962.267725,1915.238745,6661.853478
972.024226,-1184.329507,1072.533697,7328.038826
972.024556,-1406.391290,766.095498,8364.327145
972.024885,-2146.597232,612.876398,9474.636058
972.025215,-2368.659014,1072.533697,11029.068536
972.025545,-2072.576638,2987.772442,12287.418637
972.025874,-1332.370696,4443.353888,12953.603985
972.026204,-666.185348,5745.716235,13323.706956
972.026533,-222.061783,7124.688131,13027.624579
972.026863,0.000000,6894.859482,11399.171507
972.027192,222.061783,5286.058936,10140.821405
972.027522,518.144159,4366.744339,9696.697840
972.027852,-148.041188,3753.867940,8956.491898
972.028181,-1480.411884,4060.306139,7772.162391
972.028511,-2664.741391,2451.505594,6661.853478
972.028840,-2220.617826,1225.752797,6661.853478
972.029170,-1406.391290,536.266849,7476.080014
972.029500,-888.247130,1532.190996,8216.285956
972.029829,-666.185348,1455.581446,7772.162391
972.030159,0.000000,2145.067394,8660.409521
972.030488,-666.185348,3294.210641,9992.780217
972.030818,-1480.411884,5822.325785,11843.295072
972.031147,-1776.494261,7277.907231,12879.583391
972.031477,-1702.473667,6971.469032,11917.315666
972.031807,-1628.453072,5975.544884,10288.862594
972.032136,-2072.576638,4213.525239,8512.368333
972.032466,-1628.453072,2911.162892,6735.874072
972.032795,-592.164754,2298.286494,4959.379811
972.033125,518.144159,995.924147,4293.194464
972.033454,2146.597232,153.219100,4663.297435
972.033784,1924.535449,-306.438199,6217.729913
972.034114,518.144159,536.266849,8364.327145
972.034443,-1850.514855,2298.286494,10807.006753
972.034773,-4071.132681,3907.087040,13175.665768
972.035102,-4441.235652,3830.477490,14878.139434
972.035432,-4441.235652,3370.820191,15692.365970
972.035761,-4737.318029,3140.991542,15174.221811
972.036091,-4515.256246,2451.505594,12879.583391
972.036421,-2812.782580,1685.410096,9030.512492
972.036750,74.020594,0.000000,5699.585753
972.037080,3330.926739,-2068.457845,4145.153275
972.037409,5477.523971,-1455.581446,4515.256246
972.037739,5329.482782,0.000000,5773.606348
972.038068,2960.823768,1608.800546,7476.080014
972.038398,-444.123565,3064.381992,10807.006753
972.038728,-3627.009116,5209.449386,14359.995275
972.039057,-5625.565159,5056.230287,17024.736666
972.039387,-6513.812290,3294.210641,17024.736666
972.039716,-6661.853478,1838.629195,13397.727550
972.040046,-4737.318029,-842.705048,8290.306550
972.040376,-888.247130,-4673.182538,5255.462188
972.040705,1702.473667,-5286.058936,3627.009116
972.041035,2738.761985,-2911.162892,4293.194464
972.041364,2442.679609,459.657299,4367.215058
972.041694,1628.453072,1685.410096,5181.441594
972.042023,296.082377,1378.971896,8586.388927
972.042353,-1776.494261,2604.724693,12731.542202
972.042683,-4367.215058,4826.401637,15100.201217
972.043012,-5107.421000,4290.134789,15248.242405
972.043342,-4441.235652,1378.971896,14137.933492
972.043671,-2516.700203,-919.314598,12657.521608
972.044001,-222.061783,-2221.676944,9548.656652
972.044330,1332.370696,-3064.381992,7105.977043
972.044660,2294.638420,-1685.410096,5847.626942
972.044990,2294.638420,689.485948,5551.544565
972.045319,1702.473667,1608.800546,6661.853478
972.045649,814.226536,1991.848295,8142.265362
972.045978,-1406.391290,2911.162892,9400.615463
972.046308,-3404.947333,2757.943793,10140.821405
972.046637,-3775.050304,153.219100,10881.027347
972.046967,-3108.864956,-1302.362347,11991.336260
972.047297,-2368.659014,-1608.800546,12435.459826
972.047626,-1258.350101,-383.047749,11325.150913
972.047956,0.000000,-459.657299,9548.656652
972.048285,740.205942,383.047749,8808.450710
972.048615,740.205942,2068.457845,9252.574275
972.048944,740.205942,3677.258390,10140.821405
972.049274,-370.102971,4979.620737,9992.780217
972.049604,-1332.370696,3753.867940,8068.244768
972.049933,-1998.556043,1762.019645,7846.182985
972.050263,-1628.453072,-459.657299,9030.512492
972.050592,-1036.288319,-1532.190996,9992.780217
972.050922,0.000000,0.000000,10288.862594
972.051252,-888.247130,1685.410096,9992.780217
972.051581,-740.205942,1915.238745,9918.759623
972.051911,-444.123565,1838.629195,10362.883188
972.052240,-666.185348,2911.162892,11177.109724
972.052570,-1036.288319,4903.011187,10288.862594
972.052899,-1776.494261,4673.182538,7846.182985
972.053229,-1702.473667,2298.286494,6809.894666
972.053559,-1036.288319,0.000000,7179.997637
972.053888,-518.144159,-612.876398,7698.141797
972.054218,-222.061783,459.657299,7920.203579
972.054547,-592.164754,919.314598,7846.182985
972.054877,-740.205942,1225.752797,9622.677246
972.055206,-1554.432478,1685.410096,11621.233289
972.055536,-2442.679609,3064.381992,12879.583391
972.055866,-3108.864956,3983.696590,12879.583391
972.056195,-2960.823768,4060.306139,10955.047942
972.056525,-1628.453072,2911.162892,9474.636058
972.056854,-592.164754,459.657299,8142.265362
972.057184,592.164754,-1685.410096,6957.935855
972.057513,1480.411884,-995.924147,6439.791695
972.057843,1554.432478,842.705048,6883.915261
972.058173,888.247130,1378.971896,8068.244768
972.058502,370.102971,1225.752797,10362.883188
972.058832,-1184.329507,2221.676944,12139.377449
972.059161,-2590.720797,3753.867940,12509.480420
972.059491,-3627.009116,3677.258390,11621.233289
972.059820,-2738.761985,1225.752797,10362.883188
972.060150,-1628.453072,-919.314598,9400.615463
972.060480,-222.061783,-2221.676944,8512.368333
972.060809,592.164754,-2451.505594,7254.018232
972.061139,444.123565,-1532.190996,6587.832884
972.061468,-148.041188,-459.657299,7031.956449
972.061798,-518.144159,76.609550,9178.553681
972.062128,-592.164754,842.705048,11917.315666
972.062457,-1776.494261,2221.676944,12509.480420
972.062787,-3256.906145,2681.334243,11547.212695
972.063116,-3478.967927,1302.362347,10510.924376
972.063446,-2368.659014,-229.828649,10362.883188
972.063775,-444.123565,-1455.581446,10807.006753
972.064105,518.144159,-1378.971896,9696.697840
972.064435,444.123565,-612.876398,7846.182985
972.064764,444.123565,-842.705048,7624.121203
972.065094,518.144159,-1532.190996,8586.388927
972.065423,222.061783,0.000000,10362.883188
972.065753,-962.267725,1838.629195,10807.006753
972.066082,-2294.638420,2528.115143,10436.903782
972.066412,-2516.700203,1378.971896,9548.656652
972.066742,-2220.617826,-1072.533697,9474.636058
972.067071,-518.144159,-1762.019645,9844.739029
972.067401,-148.041188,-1608.800546,9400.615463
972.067730,-222.061783,0.000000,8882.471304
972.068060,-296.082377,383.047749,8808.450710
972.068389,-518.144159,0.000000,9474.636058
972.068719,-592.164754,0.000000,10955.047942
972.069049,-1702.473667,2604.724693,11251.130318
972.069378,-2368.659014,3447.429741,10732.986159
972.069708,-2516.700203,2451.505594,9622.677246
972.070037,-1998.556043,842.705048,8956.491898
972.070367,-444.123565,-766.095498,8290.306550
972.070696,592.164754,-919.314598,8068.244768
972.071026,518.144159,383.047749,8660.409521
972.071356,-296.082377,2374.896044,9178.553681
972.071685,-814.226536,2374.896044,9548.656652
972.072015,-888.247130,2298.286494,10510.924376
972.072344,-1406.391290,3294.210641,11621.233289
972.072674,-2220.617826,4213.525239,11103.089130
972.073004,-2368.659014,3370.820191,9474.636058
972.073333,-1924.535449,1149.143247,7920.203579
972.073663,-592.164754,-229.828649,7179.997637
972.073992,740.205942,229.828649,7031.956449
972.074322,1258.350101,919.314598,7476.080014
972.074651,444.123565,1991.848295,7846.182985
972.074981,-296.082377,2068.457845,8956.491898
972.075311,-1184.329507,2757.943793,10807.006753
972.075640,-1924.535449,4060.306139,11399.171507
972.075970,-2590.720797,3447.429741,11103.089130
972.076299,-3034.844362,2604.724693,10436.903782
972.076629,-2960.823768,1762.019645,9474.636058
972.076958,-1628.453072,76.609550,8734.430116
972.077288,222.061783,-689.485948,7772.162391
972.077618,740.205942,-229.828649,7550.100608
972.077947,666.185348,1149.143247,8364.327145
972.078277,0.000000,2068.457845,9252.574275
972.078606,-370.102971,1838.629195,9844.739029
972.078936,-1184.329507,2145.067394,10807.006753
972.079265,-1702.473667,3294.210641,11251.130318
972.079595,-2368.659014,2681.334243,10658.965565
972.079925,-2220.617826,919.314598,9474.636058
972.080254,-1332.370696,-1532.190996,8438.347739
972.080584,0.000000,-2681.334243,7476.080014
972.080913,370.102971,-2068.457845,7402.059420
972.081243,296.082377,-612.876398,8142.265362
972.081572,0.000000,536.266849,8956.491898
972.081902,-148.041188,76.609550,9992.780217
972.082232,-1036.288319,-383.047749,11325.150913
972.082561,-1850.514855,1225.752797,12805.562797
972.082891,-3404.947333,1378.971896,12065.356855
972.083220,-3701.029710,689.485948,10658.965565
972.083550,-2368.659014,-1685.410096,9844.739029
972.083880,0.000000,-3677.258390,9622.677246
972.084209,1184.329507,-3294.210641,9474.636058
972.084539,740.205942,-1225.752797,8882.471304
972.084868,296.082377,0.000000,9104.533087
972.085198,-222.061783,689.485948,9844.739029
972.085527,-814.226536,919.314598,11547.212695
972.085857,-1406.391290,842.705048,11695.253884
972.086187,-2072.576638,383.047749,10881.027347
972.086516,-2368.659014,0.000000,9400.615463
972.086846,-1850.514855,-459.657299,8364.327145
972.087175,-296.082377,-2604.724693,7846.182985
972.087505,518.144159,-3140.991542,7772.162391
972.087834,296.082377,-383.047749,8438.347739
972.088164,-222.061783,1608.800546,8512.368333
972.088494,-296.082377,1149.143247,9104.533087
972.088823,-1258.350101,995.924147,10066.800811
972.089153,-2368.659014,1532.190996,10584.944971
972.089482,-3330.926739,2068.457845,10732.986159
972.089812,-3108.864956,2451.505594,10214.842000
972.090141,-2294.638420,689.485948,8808.450710
972.090471,-666.185348,-1455.581446,8068.244768
972.090801,740.205942,-1762.019645,8364.327145
972.091130,888.247130,306.438199,9030.512492
972.091460,666.185348,2451.505594,9326.594869
972.091789,666.185348,3600.648841,10066.800811
972.092119,-370.102971,3294.210641,11103.089130
972.092449,-1258.350101,3830.477490,11547.212695
972.092778,-2072.576638,3140.991542,10732.986159
972.093108,-2146.597232,2834.553343,9474.636058
972.093437,-1480.411884,1072.533697,8068.244768
972.093767,-444.123565,0.000000,7772.162391
972.094096,296.082377,-689.485948,7402.059420
972.094426,444.123565,153.219100,7402.059420
972.094756,370.102971,2145.067394,7994.224174
972.095085,-592.164754,2911.162892,8882.471304
972.095415,-1480.411884,3370.820191,10732.986159
972.095744,-2664.741391,3753.867940,11769.274478
972.096074,-3330.926739,3753.867940,11621.233289
972.096403,-3034.844362,3294.210641,10584.944971
972.096733,-2442.679609,2145.067394,8438.347739
972.097063,-888.247130,-536.266849,7624.121203
972.097392,222.061783,-1302.362347,7994.224174
972.097722,962.267725,536.266849,8660.409521
972.098051,148.041188,3140.991542,8660.409521
972.098381,0.000000,2681.334243,8660.409521
972.098710,-740.205942,2068.457845,9992.780217
972.099040,-1480.411884,2374.896044,11251.130318
972.099369,-2368.659014,2757.943793,10955.047942
972.099699,-2368.659014,1532.190996,9400.615463
972.100028,-2368.659014,-689.485948,8068.244768
972.100358,-1036.288319,-1915.238745,7328.038826
972.100687,0.000000,-3064.381992,7920.203579
972.101017,518.144159,-2068.457845,7994.224174
972.101346,148.041188,-306.438199,8142.265362
972.101676,148.041188,459.657299,9400.615463
972.102005,-740.205942,612.876398,10955.047942
972.102335,-1258.350101,1072.533697,12879.583391
972.102664,-2220.617826,1838.629195,12731.542202
972.102994,-2886.803174,1762.019645,11325.150913
972.103323,-2294.638420,76.609550,9992.780217
972.103653,-888.247130,-2757.943793,9178.553681
972.103982,148.041188,-3830.477490,9548.656652
972.104312,148.041188,-2298.286494,9178.553681
972.104641,-592.164754,-153.219100,8808.450710
972.104971,-814.226536,-229.828649,9474.636058
972.105300,-740.205942,-689.485948,11029.068536
972.105630,-1776.494261,229.828649,11917.315666
972.105959,-2812.782580,1455.581446,11547.212695
972.106289,-3404.947333,612.876398,10214.842000
972.106618,-2442.679609,-612.876398,9178.553681
972.106947,-962.267725,-1685.410096,8660.409521
972.107277,740.205942,-2298.286494,8068.244768
972.107606,1110.308913,-1915.238745,7698.141797
972.107936,814.226536,842.705048,7994.224174
972.108265,814.226536,2221.676944,8882.471304
972.108595,222.061783,1915.238745,10584.944971
972.108924,-1036.288319,1915.238745,11621.233289
972.109254,-2442.679609,3217.601092,11251.130318
972.109583,-3256.906145,2528.115143,9844.739029
972.109913,-3182.885551,1072.533697,8808.450710
972.110242,-1628.453072,-612.876398,8512.368333
972.110572,0.000000,-2068.457845,7698.141797
972.110901,1110.308913,-1149.143247,7402.059420
972.111231,592.164754,995.924147,8068.244768
972.111560,0.000000,3217.601092,9178.553681
972.111890,-814.226536,3983.696590,10288.862594
972.112219,-1406.391290,3677.258390,11325.150913
972.112549,-1554.432478,3677.258390,11251.130318
972.112878,-2368.659014,3447.429741,10732.986159
972.113208,-2664.741391,2987.772442,9622.677246
972.113537,-1850.514855,1072.533697,8290.306550
972.113867,0.000000,-842.705048,7994.224174
972.114196,1406.391290,-306.438199,7920.203579
972.114525,962.267725,1838.629195,8438.347739
972.114855,222.061783,3064.381992,8586.388927
972.115184,0.000000,3370.820191,9474.636058
972.115514,-888.247130,3370.820191,10881.027347
972.115843,-2220.617826,4213.525239,11473.192101
972.116173,-2812.782580,4673.182538,10955.047942
972.116502,-3478.967927,3677.258390,9622.677246
972.116832,-2664.741391,1378.971896,7994.224174
972.117161,-962.267725,-919.314598,7179.997637
972.117491,518.144159,-1532.190996,7698.141797
972.117820,370.102971,1072.533697,8216.285956
972.118150,0.000000,2604.724693,8290.306550
972.118479,-592.164754,2757.943793,8956.491898
972.118809,-1258.350101,2757.943793,10732.986159
972.119138,-1776.494261,3140.991542,11399.171507
972.119468,-2664.741391,3064.381992,10955.047942
972.119797,-2220.617826,1762.019645,9770.718434
972.120127,-1702.473667,153.219100,8660.409521
972.120456,-296.082377,-1991.848295,8216.285956
972.120786,814.226536,-2451.505594,8364.327145
972.121115,518.144159,0.000000,8438.347739
972.121445,74.020594,1838.629195,8438.347739
972.121774,-370.102971,1225.752797,9252.574275
972.122103,-888.247130,536.266849,11177.109724
972.122433,-1998.556043,1455.581446,11917.315666
972.122762,-3182.885551,1455.581446,11325.150913
972.123092,-2960.823768,383.047749,9696.697840
972.123421,-1998.556043,-1532.190996,9030.512492
972.123751,-740.205942,-3140.991542,9326.594869
972.124080,148.041188,-3217.601092,9548.656652
972.124410,0.000000,-1302.362347,9474.636058
972.124739,0.000000,995.924147,9770.718434
972.125069,0.000000,919.314598,10510.924376
972.125398,-592.164754,766.095498,11843.295072
972.125728,-1776.494261,1532.190996,12065.356855
972.126057,-2516.700203,766.095498,11029.068536
972.126387,-2664.741391,153.219100,9918.759623
972.126716,-2368.659014,-766.095498,9326.594869
972.127046,-1628.453072,-2221.676944,8734.430116
972.127375,-592.164754,-2911.162892,8142.265362
972.127705,0.000000,-1915.238745,7846.182985
972.128034,0.000000,76.609550,8216.285956
972.128364,74.020594,1225.752797,9030.512492
972.128693,0.000000,919.314598,10510.924376
972.129023,-1184.329507,1532.190996,11177.109724
972.129352,-2738.761985,2451.505594,11103.089130
972.129681,-3404.947333,2221.676944,10510.924376
972.130011,-3108.864956,1378.971896,9622.677246
972.130340,-1258.350101,76.609550,8882.471304
972.130670,370.102971,-995.924147,8364.327145
972.130999,1332.370696,-612.876398,7624.121203
972.131329,1406.391290,1302.362347,7920.203579
972.131658,1036.288319,2834.553343,8808.450710
972.131988,370.102971,3753.867940,10362.883188
972.132317,-962.267725,4903.011187,11399.171507
972.132647,-2146.597232,4749.792088,11029.068536
972.132976,-2664.741391,3217.601092,10214.842000
972.133306,-2886.803174,2145.067394,9326.594869
972.133635,-2072.576638,919.314598,8586.388927
972.133965,-888.247130,-306.438199,8142.265362
972.134294,-740.205942,229.828649,7698.141797
972.134624,-666.185348,2528.115143,7772.162391
972.134953,-740.205942,3294.210641,8438.347739
972.135283,-222.061783,3600.648841,9696.697840
972.135612,-962.267725,4366.744339,10362.883188
972.135942,-1924.535449,5209.449386,10807.006753
972.136271,-2442.679609,5209.449386,10288.862594
972.136601,-2516.700203,3524.039291,8956.491898
972.136930,-1184.329507,2374.896044,8734.430116
972.137259,518.144159,689.485948,8438.347739
972.137589,1036.288319,229.828649,8068.244768
972.137918,518.144159,1225.752797,7476.080014
972.138248,74.020594,1991.848295,8290.306550
972.138577,-296.082377,2221.676944,9918.759623
972.138907,-1036.288319,3447.429741,11473.192101
972.139236,-2812.782580,4366.744339,11917.315666
972.139566,-3701.029710,3600.648841,10214.842000
972.139895,-3182.885551,1762.019645,9104.533087
972.140225,-1480.411884,-612.876398,8438.347739
972.140554,0.000000,-1762.019645,8290.306550
972.140884,148.041188,-1072.533697,7772.162391
972.141213,-444.123565,-536.266849,7698.141797
972.141543,-666.185348,153.219100,8660.409521
972.141872,-814.226536,229.828649,10807.006753
972.142202,-1554.432478,1608.800546,12287.418637
972.142531,-1998.556043,1378.971896,12213.398043
972.142861,-2960.823768,536.266849,11325.150913
972.143190,-2590.720797,-153.219100,10658.965565
972.143520,-1776.494261,-1455.581446,9400.615463
972.143849,0.000000,-3064.381992,8808.450710
972.144178,1184.329507,-3370.820191,8882.471304
972.144508,444.123565,-995.924147,9178.553681
972.144837,0.000000,306.438199,9178.553681
972.145167,-296.082377,-459.657299,9770.718434
972.145496,-296.082377,-612.876398,11325.150913
972.145826,-1110.308913,536.266849,11695.253884
972.146155,-2886.803174,536.266849,10807.006753
972.146485,-2886.803174,-383.047749,10436.903782
972.146814,-2738.761985,-1149.143247,9844.739029
972.147144,-1924.535449,-2374.896044,9474.636058
972.147473,-1110.308913,-2298.286494,9104.533087
972.147803,-370.102971,-995.924147,8512.368333
972.148132,-370.102971,766.095498,8364.327145
972.148462,148.041188,842.705048,8808.450710
972.148791,444.123565,306.438199,9770.718434
972.149121,-296.082377,1225.752797,11029.068536
