#time,accel_x,accel_y,accel_z
1008.246040,-1184.329507,919.314598,9326.594869
1008.246370,-962.267725,1378.971896,9474.636058
1008.246700,-740.205942,842.705048,9474.636058
1008.247029,-888.247130,919.314598,9400.615463
1008.247359,-1036.288319,995.924147,9696.697840
1008.247688,-1110.308913,842.705048,9474.636058
1008.248018,-666.185348,1455.581446,9474.636058
1008.248347,-888.247130,1072.533697,9474.636058
1008.248677,-1110.308913,919.314598,9400.615463
1008.249007,-1036.288319,612.876398,9326.594869
1008.249336,-888.247130,842.705048,9548.656652
1008.249666,-1036.288319,612.876398,9400.615463
1008.249995,-888.247130,1072.533697,9696.697840
1008.250325,-1110.308913,919.314598,9474.636058
1008.250654,-1110.308913,689.485948,9474.636058
1008.250984,-1110.308913,995.924147,9622.677246
1008.251314,-1036.288319,766.095498,9696.697840
1008.251643,-962.267725,229.828649,9474.636058
1008.251973,-814.226536,842.705048,9474.636058
1008.252302,-888.247130,689.485948,9622.677246
1008.252632,-962.267725,689.485948,9770.718434
1008.252962,-962.267725,995.924147,9770.718434
1008.253291,-740.205942,1455.581446,9474.636058
1008.253621,-1184.329507,1149.143247,9400.615463
1008.253950,-1110.308913,919.314598,9770.718434
1008.254280,-888.247130,766.095498,9326.594869
1008.254609,-1110.308913,842.705048,9474.636058
1008.254939,-888.247130,766.095498,9474.636058
1008.255269,-962.267725,995.924147,9474.636058
1008.255598,-962.267725,536.266849,9548.656652
1008.255928,-1036.288319,842.705048,9548.656652
1008.256257,-1036.288319,919.314598,9474.636058
1008.256587,-1110.308913,919.314598,9400.615463
1008.256917,-1110.308913,1455.581446,9104.533087
1008.257246,-888.247130,1072.533697,9252.574275
1008.257576,-1036.288319,995.924147,9474.636058
1008.257905,-962.267725,536.266849,9474.636058
1008.258235,-962.267725,919.314598,9474.636058
1008.258564,-1184.329507,1225.752797,9326.594869
1008.258894,-888.247130,1149.143247,9178.553681
1008.259224,-1184.329507,1072.533697,9474.636058
1008.259553,-888.247130,919.314598,9696.697840
1008.259883,-1036.288319,612.876398,9400.615463
1008.260212,-962.267725,766.095498,9326.594869
1008.260542,-962.267725,1149.143247,9696.697840
1008.260871,-1184.329507,995.924147,9474.636058
1008.261201,-1184.329507,612.876398,9548.656652
1008.261531,-1184.329507,919.314598,9400.615463
1008.261860,-962.267725,842.705048,9548.656652
1008.262190,-888.247130,536.266849,9400.615463
1008.262519,-1110.308913,612.876398,9696.697840
1008.262849,-1036.288319,766.095498,9696.697840
1008.263179,-888.247130,842.705048,9548.656652
1008.263508,-1258.350101,842.705048,9548.656652
1008.263838,-740.205942,919.314598,9696.697840
1008.264167,-888.247130,919.314598,9400.615463
1008.264497,-1036.288319,919.314598,9696.697840
1008.264826,-1258.350101,766.095498,9770.718434
1008.265156,-1110.308913,612.876398,9548.656652
1008.265486,-962.267725,1225.752797,9474.636058
1008.265815,-1036.288319,766.095498,9252.574275
1008.266145,-888.247130,689.485948,9622.677246
1008.266474,-888.247130,842.705048,9548.656652
1008.266804,-1036.288319,995.924147,9474.636058
1008.267134,-1184.329507,842.705048,9474.636058
1008.267463,-666.185348,766.095498,9474.636058
1008.267793,-1036.288319,919.314598,9548.656652
1008.268122,-1036.288319,995.924147,9400.615463
1008.268452,-1036.288319,1072.533697,9326.594869
1008.268781,-962.267725,689.485948,9474.636058
1008.269111,-888.247130,766.095498,9474.636058
1008.269441,-444.123565,995.924147,9548.656652
1008.269770,-1036.288319,689.485948,9326.594869
1008.270100,-1110.308913,842.705048,9474.636058
1008.270429,-1110.308913,842.705048,9548.656652
1008.270759,-888.247130,536.266849,9252.574275
1008.271088,-1036.288319,919.314598,9474.636058
1008.271418,-1036.288319,919.314598,9696.697840
1008.271748,-962.267725,995.924147,9548.656652
1008.272077,-740.205942,919.314598,9622.677246
1008.272407,-962.267725,612.876398,9474.636058
1008.272736,-1036.288319,1225.752797,9474.636058
1008.273066,-1184.329507,766.095498,9622.677246
1008.273396,-814.226536,842.705048,9326.594869
1008.273725,-370.102971,689.485948,9030.512492
1008.274055,518.144159,536.266849,9400.615463
1008.274384,1332.370696,229.828649,9400.615463
1008.274714,1110.308913,536.266849,9622.677246
1008.275043,592.164754,689.485948,9844.739029
1008.275373,0.000000,842.705048,10362.883188
1008.275703,-592.164754,1149.143247,10362.883188
1008.276032,-666.185348,995.924147,10436.903782
1008.276362,-296.082377,229.828649,10140.821405
1008.276691,74.020594,76.609550,9622.677246
1008.277021,888.247130,153.219100,9178.553681
1008.277351,1702.473667,229.828649,9104.533087
1008.277680,2590.720797,766.095498,9104.533087
1008.278010,3256.906145,842.705048,8882.471304
1008.278339,3404.947333,1302.362347,8956.491898
1008.278669,3404.947333,1838.629195,9252.574275
1008.278998,3256.906145,1532.190996,9548.656652
1008.279328,2664.741391,995.924147,9770.718434
1008.279658,2146.597232,612.876398,9844.739029
1008.279987,1258.350101,612.876398,10140.821405
1008.280317,1258.350101,0.000000,10584.944971
1008.280646,1554.432478,-229.828649,10362.883188
1008.280976,1850.514855,0.000000,9918.759623
1008.281305,3034.844362,-153.219100,9104.533087
1008.281635,3701.029710,306.438199,9252.574275
1008.281965,4367.215058,1378.971896,9474.636058
1008.282294,3849.070898,2145.067394,9548.656652
1008.282624,3182.885551,2757.943793,9622.677246
1008.282953,1998.556043,2681.334243,10066.800811
1008.283283,518.144159,2451.505594,9844.739029
1008.283613,-1332.370696,2221.676944,9770.718434
1008.283942,-1702.473667,1072.533697,8956.491898
1008.284272,-740.205942,-383.047749,7846.182985
1008.284601,814.226536,-1225.752797,7254.018232
1008.284931,2738.761985,-1302.362347,6883.915261
1008.285260,3627.009116,0.000000,6883.915261
1008.285590,4071.132681,1072.533697,7476.080014
1008.285920,3404.947333,3140.991542,9326.594869
1008.286249,2368.659014,4366.744339,11325.150913
1008.286579,814.226536,4213.525239,11991.336260
1008.286908,74.020594,2834.553343,12657.521608
1008.287238,-1332.370696,1302.362347,12509.480420
1008.287568,-1924.535449,-612.876398,11695.253884
1008.287897,-1924.535449,-2374.896044,10807.006753
1008.288227,-962.267725,-3140.991542,9770.718434
1008.288556,296.082377,-2221.676944,8882.471304
1008.288886,2220.617826,-1685.410096,7920.203579
1008.289215,3849.070898,-766.095498,7402.059420
1008.289545,4885.359217,1149.143247,7550.100608
1008.289875,4811.338623,2757.943793,7994.224174
1008.290204,5033.400406,3907.087040,9030.512492
1008.290534,4293.194464,4366.744339,9992.780217
1008.290863,3256.906145,4136.915689,10584.944971
1008.291193,2146.597232,2757.943793,10955.047942
1008.291522,1184.329507,842.705048,11103.089130
1008.291852,0.000000,0.000000,10140.821405
1008.292182,-518.144159,-1762.019645,9844.739029
1008.292511,-518.144159,-1685.410096,10288.862594
1008.292841,-222.061783,-1378.971896,10288.862594
1008.293170,0.000000,-919.314598,9918.759623
1008.293500,148.041188,76.609550,8956.491898
1008.293830,1554.432478,459.657299,8142.265362
1008.294159,2886.803174,689.485948,7994.224174
1008.294489,4071.132681,612.876398,8216.285956
1008.294818,4737.318029,842.705048,8364.327145
1008.295148,4441.235652,689.485948,8586.388927
1008.295477,3552.988522,766.095498,9030.512492
1008.295807,2738.761985,1608.800546,9918.759623
1008.296137,1850.514855,1838.629195,10436.903782
1008.296466,1554.432478,1838.629195,10658.965565
1008.296796,1702.473667,2145.067394,10732.986159
1008.297125,1998.556043,1685.410096,10066.800811
1008.297455,2072.576638,1762.019645,8734.430116
1008.297785,2516.700203,995.924147,8216.285956
1008.298114,2886.803174,459.657299,8290.306550
1008.298444,2590.720797,842.705048,8586.388927
1008.298773,1554.432478,1072.533697,8956.491898
1008.299103,1110.308913,612.876398,9326.594869
1008.299432,0.000000,383.047749,9844.739029
1008.299762,-518.144159,153.219100,10732.986159
1008.300092,-1036.288319,0.000000,11325.150913
1008.300421,-1110.308913,0.000000,11769.274478
1008.300751,-1184.329507,0.000000,11103.089130
1008.301080,-962.267725,76.609550,10362.883188
1008.301410,370.102971,76.609550,9696.697840
1008.301739,2590.720797,612.876398,8586.388927
1008.302069,4589.276840,1685.410096,7846.182985
1008.302399,6291.750507,2298.286494,7476.080014
1008.302728,8660.409521,3217.601092,7994.224174
1008.303058,8364.327145,3370.820191,8438.347739
1008.303387,7031.956449,4673.182538,9474.636058
1008.303717,4589.276840,4903.011187,10732.986159
1008.304047,2294.638420,4060.306139,12361.439231
1008.304376,-740.205942,2068.457845,13471.748144
1008.304706,-4589.276840,153.219100,13397.727550
1008.305035,-7105.977043,-1302.362347,11917.315666
1008.305365,-7550.100608,-2298.286494,10066.800811
1008.305694,-5625.565159,-3140.991542,6957.935855
1008.306024,-962.267725,-3600.648841,3775.050304
1008.306354,4589.276840,-3983.696590,2146.597232
1008.306683,9104.533087,-2068.457845,2664.741391
1008.307013,10140.821405,2145.067394,4737.318029
1008.307342,8956.491898,6358.592633,7402.059420
1008.307672,7476.080014,8810.098227,10732.986159
1008.308001,4441.235652,9576.193725,13323.706956
1008.308331,888.247130,7814.174080,15174.221811
1008.308661,-2812.782580,3217.601092,16358.551318
1008.308990,-5477.523971,-306.438199,15692.365970
1008.309320,-6365.771101,-2987.772442,13619.789333
1008.309649,-4367.215058,-6128.763984,11547.212695
1008.309979,-1258.350101,-6511.811733,8882.471304
1008.310309,2368.659014,-6128.763984,5477.523971
1008.310638,6809.894666,-4060.306139,2516.700203
1008.310968,10807.006753,-2145.067394,3627.009116
1008.311297,11769.274478,1685.410096,6883.915261
1008.311627,8956.491898,7201.297681,10658.965565
1008.311956,3108.864956,10035.851024,12139.377449
1008.312286,-1184.329507,8886.707777,13545.768739
1008.312616,-3182.885551,5056.230287,13619.789333
1008.312945,-3478.967927,689.485948,13027.624579
1008.313275,-3552.988522,-3294.210641,10288.862594
1008.313604,-3108.864956,-6205.373534,6809.894666
1008.313934,-1036.288319,-7201.297681,5329.482782
1008.314264,222.061783,-5439.278036,6883.915261
1008.314593,592.164754,-1685.410096,8586.388927
1008.314923,-222.061783,2374.896044,9104.533087
1008.315252,-1258.350101,4826.401637,9696.697840
1008.315582,222.061783,6052.154434,11251.130318
1008.315911,1480.411884,4136.915689,12657.521608
1008.316241,1258.350101,1149.143247,12361.439231
1008.316571,0.000000,153.219100,10807.006753
1008.316900,-1036.288319,-1225.752797,9992.780217
1008.317230,-1332.370696,-2604.724693,9474.636058
1008.317559,-2220.617826,-3370.820191,7698.141797
1008.317889,-1702.473667,-3753.867940,6809.894666
1008.318218,740.205942,-2528.115143,6217.729913
1008.318548,3330.926739,-383.047749,8512.368333
1008.318878,4737.318029,3294.210641,9178.553681
1008.319207,3256.906145,5669.106685,7476.080014
1008.319537,2368.659014,4903.011187,7846.182985
1008.319866,1776.494261,4443.353888,11029.068536
1008.320196,-888.247130,4673.182538,14804.118840
1008.320525,-5181.441594,4366.744339,15322.262999
1008.320855,-8364.327145,3064.381992,13249.686362
1008.321184,-9030.512492,-842.705048,11029.068536
1008.321514,-7402.059420,-4136.915689,9104.533087
1008.321843,-5255.462188,-5592.497135,7105.977043
1008.322173,-2516.700203,-4443.353888,5255.462188
1008.322502,-962.267725,-2221.676944,5477.523971
1008.322832,-888.247130,229.828649,7698.141797
1008.323161,-444.123565,3830.477490,8882.471304
1008.323490,518.144159,4673.182538,8216.285956
1008.323820,2812.782580,4673.182538,8808.450710
1008.324149,4441.235652,4060.306139,10658.965565
1008.324479,5107.421000,3983.696590,11399.171507
1008.324808,4811.338623,2987.772442,10658.965565
1008.325138,2516.700203,1455.581446,10362.883188
1008.325467,370.102971,2911.162892,11399.171507
1008.325797,-1702.473667,3983.696590,12731.542202
1008.326126,-2516.700203,2757.943793,11547.212695
1008.326456,-2294.638420,1685.410096,9104.533087
1008.326785,-2146.597232,76.609550,7179.997637
1008.327115,-444.123565,689.485948,6883.915261
1008.327444,222.061783,0.000000,6143.709319
1008.327773,0.000000,0.000000,6439.791695
1008.328103,-1628.453072,1608.800546,7328.038826
1008.328432,-3404.947333,1991.848295,8734.430116
1008.328762,-4071.132681,1608.800546,9326.594869
1008.329091,-4293.194464,995.924147,9326.594869
1008.329421,-3775.050304,0.000000,9326.594869
1008.329750,-1924.535449,-689.485948,10066.800811
1008.330080,370.102971,-383.047749,9918.759623
1008.330409,2072.576638,383.047749,9400.615463
1008.330739,1776.494261,919.314598,9548.656652
1008.331068,1184.329507,1991.848295,11029.068536
1008.331398,518.144159,3064.381992,11843.295072
1008.331727,-222.061783,3830.477490,11843.295072
1008.332056,-296.082377,2757.943793,11991.336260
1008.332386,-222.061783,766.095498,10732.986159
1008.332715,-222.061783,-995.924147,9326.594869
1008.333045,-666.185348,-2834.553343,8512.368333
1008.333374,-1924.535449,-3370.820191,9178.553681
1008.333704,-3552.988522,-2451.505594,9992.780217
1008.334033,-4737.318029,-1455.581446,9844.739029
1008.334363,-4145.153275,-1225.752797,9548.656652
1008.334692,-2738.761985,-995.924147,9622.677246
1008.335022,-888.247130,-689.485948,8438.347739
1008.335351,1332.370696,612.876398,7846.182985
1008.335681,2590.720797,2145.067394,7994.224174
1008.336010,2516.700203,2221.676944,9252.574275
1008.336339,592.164754,2221.676944,11843.295072
1008.336669,-2664.741391,3064.381992,13101.645173
1008.336998,-5921.647536,3294.210641,12213.398043
1008.337328,-6217.729913,1378.971896,11399.171507
1008.337657,-5107.421000,-1838.629195,10658.965565
1008.337987,-2812.782580,-2681.334243,9992.780217
1008.338316,-1924.535449,-2987.772442,7772.162391
1008.338646,-740.205942,-2374.896044,6513.812290
1008.338975,-148.041188,-612.876398,6513.812290
1008.339305,-296.082377,1378.971896,7105.977043
1008.339634,0.000000,3370.820191,8216.285956
1008.339964,518.144159,3830.477490,8068.244768
1008.340293,1036.288319,4136.915689,8808.450710
1008.340622,1998.556043,3294.210641,9474.636058
1008.340952,2146.597232,2987.772442,10214.842000
1008.341281,1480.411884,1915.238745,9992.780217
1008.341611,-222.061783,1685.410096,10807.006753
1008.341940,-2072.576638,2451.505594,11399.171507
1008.342270,-3256.906145,2911.162892,11177.109724
1008.342599,-3552.988522,1762.019645,9918.759623
1008.342929,-2664.741391,1072.533697,9474.636058
1008.343258,-1110.308913,919.314598,9104.533087
1008.343588,74.020594,1762.019645,7698.141797
1008.343917,740.205942,1302.362347,6809.894666
1008.344247,1110.308913,459.657299,7328.038826
1008.344576,592.164754,1532.190996,9104.533087
1008.344905,-444.123565,2298.286494,9474.636058
1008.345235,-666.185348,2604.724693,9622.677246
1008.345564,-740.205942,2145.067394,9844.739029
1008.345894,-222.061783,1302.362347,10436.903782
1008.346223,888.247130,1225.752797,10140.821405
1008.346553,1924.535449,1072.533697,9696.697840
1008.346882,2368.659014,1532.190996,10288.862594
1008.347212,1924.535449,919.314598,11251.130318
1008.347541,74.020594,1838.629195,12065.356855
1008.347871,-1998.556043,2604.724693,11103.089130
1008.348200,-2220.617826,1532.190996,9918.759623
1008.348530,-1850.514855,842.705048,9178.553681
1008.348859,-962.267725,0.000000,8660.409521
1008.349188,-148.041188,-2145.067394,7772.162391
1008.349518,-370.102971,-2145.067394,6957.935855
1008.349847,-1998.556043,-2221.676944,6883.915261
1008.350177,-2664.741391,-919.314598,8660.409521
1008.350506,-3330.926739,-306.438199,10214.842000
1008.350836,-3775.050304,459.657299,11251.130318
1008.351165,-3552.988522,1302.362347,9918.759623
1008.351495,-2146.597232,919.314598,9104.533087
1008.351824,740.205942,-153.219100,8364.327145
1008.352154,2590.720797,0.000000,9474.636058
1008.352483,2664.741391,459.657299,10955.047942
1008.352813,0.000000,1149.143247,11917.315666
1008.353142,-3849.070898,2834.553343,12139.377449
1008.353471,-6513.812290,3294.210641,11843.295072
1008.353801,-6661.853478,229.828649,11621.233289
1008.354130,-5255.462188,-2451.505594,11843.295072
1008.354460,-3627.009116,-2451.505594,10214.842000
1008.354789,-2368.659014,-3370.820191,8364.327145
1008.355119,-1628.453072,-3753.867940,7105.977043
1008.355448,-2442.679609,-3064.381992,7031.956449
1008.355778,-1036.288319,-919.314598,8290.306550
1008.356107,222.061783,1455.581446,8808.450710
1008.356437,1406.391290,3370.820191,9474.636058
1008.356766,2812.782580,3677.258390,9844.739029
1008.357096,3478.967927,3600.648841,10066.800811
1008.357425,3627.009116,2604.724693,10066.800811
1008.357754,2960.823768,2298.286494,10881.027347
1008.358084,148.041188,3753.867940,11843.295072
1008.358413,-2368.659014,3753.867940,11917.315666
1008.358743,-4219.173869,2604.724693,10658.965565
1008.359072,-4293.194464,536.266849,8734.430116
1008.359402,-3108.864956,-766.095498,7772.162391
1008.359731,-1258.350101,-306.438199,7846.182985
1008.360061,0.000000,689.485948,7402.059420
1008.360390,0.000000,1915.238745,6069.688724
1008.360720,-740.205942,919.314598,5995.668130
1008.361049,-740.205942,2145.067394,7254.018232
1008.361378,-444.123565,2987.772442,8586.388927
1008.361708,148.041188,2757.943793,9992.780217
1008.362037,222.061783,2987.772442,10510.924376
1008.362367,444.123565,3294.210641,10214.842000
1008.362696,1258.350101,1685.410096,9400.615463
1008.363026,2442.679609,1302.362347,9992.780217
1008.363355,2664.741391,1915.238745,11251.130318
1008.363685,1628.453072,2911.162892,12287.418637
1008.364014,-666.185348,3447.429741,11769.274478
1008.364344,-2072.576638,3217.601092,10436.903782
1008.364673,-2294.638420,1685.410096,9770.718434
1008.365003,-1184.329507,536.266849,9622.677246
1008.365332,-518.144159,229.828649,9326.594869
1008.365661,-1110.308913,-766.095498,7698.141797
1008.365991,-2220.617826,-2374.896044,6587.832884
1008.366320,-3552.988522,-2374.896044,7031.956449
1008.366650,-3775.050304,-2068.457845,8956.491898
1008.366979,-3849.070898,-842.705048,10881.027347
1008.367309,-3552.988522,995.924147,11991.336260
1008.367638,-2294.638420,2298.286494,10732.986159
1008.367968,-666.185348,1532.190996,8586.388927
1008.368297,1628.453072,153.219100,7846.182985
1008.368627,2516.700203,842.705048,9400.615463
1008.368956,1480.411884,1072.533697,11547.212695
1008.369286,-1628.453072,2987.772442,11843.295072
1008.369615,-4737.318029,3064.381992,12065.356855
1008.369944,-5921.647536,1225.752797,11399.171507
1008.370274,-5107.421000,-2298.286494,10807.006753
1008.370603,-3256.906145,-3370.820191,9844.739029
1008.370933,-1776.494261,-3140.991542,9104.533087
1008.371262,-1554.432478,-3753.867940,8586.388927
1008.371592,-2368.659014,-1838.629195,7698.141797
1008.371921,-3256.906145,0.000000,7328.038826
1008.372251,-2738.761985,229.828649,7772.162391
1008.372580,-888.247130,2451.505594,8290.306550
1008.372910,888.247130,2757.943793,8660.409521
1008.373239,2664.741391,1532.190996,7994.224174
1008.373569,2812.782580,612.876398,7920.203579
1008.373898,2368.659014,919.314598,9400.615463
1008.374227,962.267725,2068.457845,11695.253884
1008.374557,-1332.370696,4443.353888,13915.871710
1008.374886,-4071.132681,4136.915689,13249.686362
1008.375216,-4293.194464,2451.505594,11473.192101
1008.375545,-2960.823768,612.876398,9474.636058
1008.375875,-1184.329507,-459.657299,8068.244768
1008.376204,814.226536,-383.047749,7624.121203
1008.376534,444.123565,0.000000,7179.997637
1008.376863,-1036.288319,1149.143247,6809.894666
1008.377193,-2294.638420,1302.362347,7772.162391
1008.377522,-2516.700203,2145.067394,8882.471304
1008.377852,-1258.350101,2451.505594,9770.718434
1008.378181,-296.082377,2451.505594,9474.636058
1008.378510,1036.288319,919.314598,9474.636058
1008.378840,2146.597232,612.876398,9252.574275
1008.379169,3256.906145,1302.362347,10066.800811
1008.379499,2590.720797,2451.505594,10955.047942
1008.379828,1110.308913,3524.039291,11843.295072
1008.380158,-888.247130,4903.011187,11473.192101
1008.380487,-1628.453072,4290.134789,10362.883188
1008.380817,-888.247130,2068.457845,10362.883188
1008.381146,-1036.288319,995.924147,9474.636058
1008.381476,-1406.391290,842.705048,7698.141797
1008.381805,-1554.432478,-612.876398,6661.853478
1008.382135,-2220.617826,-1915.238745,7402.059420
1008.382464,-3478.967927,-689.485948,8364.327145
1008.382793,-4737.318029,-612.876398,8956.491898
1008.383123,-4811.338623,-842.705048,9178.553681
1008.383452,-3182.885551,689.485948,9252.574275
1008.383782,-1258.350101,383.047749,9400.615463
1008.384111,888.247130,-306.438199,9400.615463
1008.384441,1036.288319,1225.752797,8512.368333
1008.384770,0.000000,2374.896044,9030.512492
1008.385100,-1184.329507,2145.067394,10658.965565
1008.385429,-2368.659014,1838.629195,12361.439231
1008.385759,-3701.029710,1838.629195,12657.521608
1008.386088,-4293.194464,536.266849,11473.192101
1008.386418,-3627.009116,-1532.190996,11251.130318
1008.386747,-1702.473667,-2451.505594,9918.759623
1008.387076,-296.082377,-3370.820191,8956.491898
1008.387406,0.000000,-2528.115143,7920.203579
1008.387735,-222.061783,-689.485948,9104.533087
1008.388065,-962.267725,1302.362347,10658.965565
1008.388394,-1258.350101,2757.943793,10140.821405
1008.388724,-592.164754,1915.238745,8586.388927
1008.389053,74.020594,383.047749,8216.285956
1008.389383,666.185348,306.438199,8364.327145
1008.389712,1258.350101,306.438199,8882.471304
1008.390042,1110.308913,0.000000,9622.677246
1008.390371,-666.185348,1225.752797,10140.821405
1008.390701,-2516.700203,2374.896044,11399.171507
1008.391030,-3552.988522,2528.115143,11621.233289
1008.391359,-3034.844362,2221.676944,11177.109724
1008.391689,-2294.638420,2221.676944,9844.739029
1008.392018,-1702.473667,1991.848295,8142.265362
1008.392348,-1110.308913,612.876398,7476.080014
1008.392677,-222.061783,536.266849,7328.038826
1008.393007,-296.082377,1302.362347,7624.121203
1008.393336,-1332.370696,1455.581446,8364.327145
1008.393666,-2072.576638,2145.067394,8586.388927
1008.393995,-2220.617826,2221.676944,8290.306550
1008.394325,-592.164754,1378.971896,8512.368333
1008.394654,814.226536,1149.143247,8734.430116
1008.394984,1998.556043,1608.800546,8956.491898
1008.395313,2960.823768,2068.457845,9844.739029
1008.395642,2368.659014,2757.943793,10955.047942
1008.395972,740.205942,4136.915689,12065.356855
1008.396301,-814.226536,4826.401637,11991.336260
1008.396631,-1702.473667,3830.477490,11103.089130
1008.396960,-2072.576638,1685.410096,10881.027347
1008.397290,-1776.494261,995.924147,11251.130318
1008.397619,-1184.329507,153.219100,10436.903782
1008.397949,-1998.556043,-842.705048,7846.182985
1008.398278,-2368.659014,-1685.410096,6883.915261
1008.398608,-2294.638420,-1072.533697,8142.265362
1008.398937,-2294.638420,-229.828649,9622.677246
1008.399267,-2516.700203,536.266849,9474.636058
1008.399596,-2664.741391,1072.533697,8586.388927
1008.399925,-1924.535449,689.485948,8364.327145
1008.400255,-518.144159,459.657299,9178.553681
1008.400584,296.082377,536.266849,9548.656652
1008.400914,1036.288319,1762.019645,8882.471304
1008.401243,888.247130,1762.019645,9030.512492
1008.401573,-518.144159,1685.410096,10214.842000
1008.401902,-2294.638420,1225.752797,11177.109724
1008.402232,-3330.926739,842.705048,11325.150913
1008.402561,-3552.988522,76.609550,11177.109724
1008.402891,-3775.050304,229.828649,11251.130318
1008.403220,-3256.906145,-536.266849,10584.944971
1008.403550,-2368.659014,-1838.629195,8808.450710
1008.403879,-2294.638420,-2911.162892,8216.285956
1008.404208,-2442.679609,-1608.800546,8956.491898
1008.404538,-2960.823768,153.219100,9548.656652
1008.404867,-2886.803174,842.705048,8290.306550
1008.405197,-1850.514855,-612.876398,8068.244768
1008.405526,-592.164754,-1378.971896,9252.574275
1008.405856,148.041188,536.266849,9770.718434
1008.406185,888.247130,2451.505594,9400.615463
1008.406515,1406.391290,1608.800546,9844.739029
1008.406844,296.082377,1991.848295,11473.192101
1008.407174,-1554.432478,3217.601092,11917.315666
1008.407503,-2516.700203,2757.943793,11029.068536
1008.407833,-2294.638420,2221.676944,10955.047942
1008.408162,-2072.576638,2298.286494,10214.842000
1008.408491,-1184.329507,1608.800546,9992.780217
1008.408821,-740.205942,0.000000,8956.491898
1008.409150,-1184.329507,0.000000,7698.141797
1008.409480,-1702.473667,995.924147,7328.038826
1008.409809,-2146.597232,2068.457845,8660.409521
1008.410139,-2220.617826,1838.629195,8882.471304
1008.410468,-1850.514855,1302.362347,8438.347739
1008.410798,-740.205942,1532.190996,8216.285956
1008.411127,1332.370696,1532.190996,8216.285956
1008.411457,2368.659014,1378.971896,8438.347739
1008.411786,2738.761985,2451.505594,8956.491898
1008.412116,1628.453072,3064.381992,9844.739029
1008.412445,592.164754,3600.648841,11621.233289
1008.412774,0.000000,4596.572988,11473.192101
1008.413104,-1702.473667,4213.525239,10807.006753
1008.413433,-1628.453072,1991.848295,10584.944971
1008.413763,-1406.391290,766.095498,10658.965565
1008.414092,-888.247130,842.705048,9548.656652
1008.414422,-740.205942,0.000000,8438.347739
1008.414751,-1480.411884,-459.657299,7402.059420
1008.415081,-2072.576638,0.000000,8068.244768
1008.415410,-2294.638420,0.000000,7994.224174
1008.415740,-2220.617826,229.828649,7402.059420
1008.416069,-1924.535449,153.219100,7698.141797
1008.416399,-1628.453072,0.000000,8808.450710
1008.416728,-1258.350101,536.266849,9178.553681
1008.417057,-814.226536,536.266849,9844.739029
1008.417387,-592.164754,919.314598,10436.903782
1008.417716,-888.247130,1302.362347,11251.130318
1008.418046,-1998.556043,536.266849,11621.233289
1008.418375,-2368.659014,0.000000,11473.192101
1008.418705,-2590.720797,-459.657299,11547.212695
1008.419034,-2368.659014,0.000000,11917.315666
1008.419364,-1850.514855,0.000000,11843.295072
1008.419693,-888.247130,153.219100,10140.821405
1008.420023,0.000000,-1378.971896,8586.388927
1008.420352,222.061783,-2911.162892,8142.265362
1008.420682,-1036.288319,-995.924147,8956.491898
1008.421011,-2146.597232,0.000000,9030.512492
1008.421340,-2368.659014,-306.438199,8882.471304
1008.421670,-2072.576638,0.000000,9252.574275
1008.421999,-962.267725,0.000000,9326.594869
1008.422329,740.205942,-229.828649,9326.594869
1008.422659,1036.288319,306.438199,9252.574275
1008.422988,148.041188,1378.971896,10436.903782
1008.423318,-1258.350101,2374.896044,11473.192101
1008.423648,-2886.803174,2757.943793,11103.089130
1008.423977,-3256.906145,2757.943793,10584.944971
1008.424307,-2886.803174,1991.848295,10584.944971
1008.424637,-1776.494261,1838.629195,9844.739029
1008.424966,-740.205942,612.876398,8734.430116
1008.425296,0.000000,-766.095498,7476.080014
1008.425626,-296.082377,0.000000,6883.915261
1008.425955,-962.267725,995.924147,7402.059420
1008.426285,-962.267725,1225.752797,8364.327145
1008.426615,-814.226536,2145.067394,8660.409521
1008.426944,-518.144159,2528.115143,9104.533087
1008.427274,888.247130,2528.115143,8956.491898
1008.427604,2294.638420,2068.457845,8660.409521
1008.427933,3330.926739,2451.505594,8734.430116
1008.428263,2960.823768,2911.162892,9474.636058
1008.428593,1776.494261,3217.601092,10807.006753
1008.428922,-222.061783,3370.820191,11695.253884
1008.429252,-2368.659014,3677.258390,11177.109724
1008.429582,-3256.906145,2374.896044,11621.233289
1008.429911,-3108.864956,1685.410096,11991.336260
1008.430241,-2072.576638,919.314598,11177.109724
1008.430571,-1480.411884,229.828649,9178.553681
1008.430900,-1628.453072,-766.095498,7254.018232
1008.431230,-2072.576638,-919.314598,6809.894666
1008.431560,-2220.617826,0.000000,7476.080014
1008.431889,-2368.659014,459.657299,8438.347739
1008.432219,-1850.514855,995.924147,8660.409521
1008.432549,-1036.288319,1378.971896,9030.512492
1008.432878,-370.102971,995.924147,9326.594869
1008.433208,592.164754,1685.410096,8734.430116
1008.433538,1184.329507,1762.019645,8364.327145
1008.433867,1036.288319,383.047749,9622.677246
1008.434197,-740.205942,1225.752797,11251.130318
1008.434527,-3182.885551,2145.067394,12139.377449
1008.434856,-4589.276840,1455.581446,11695.253884
1008.435186,-4441.235652,-689.485948,11695.253884
1008.435516,-3627.009116,-919.314598,11325.150913
1008.435845,-2072.576638,-1225.752797,9474.636058
1008.436175,-740.205942,-3677.258390,8438.347739
1008.436505,-444.123565,-3447.429741,8068.244768
1008.436834,-1776.494261,-1149.143247,8438.347739
1008.437164,-2516.700203,0.000000,9030.512492
1008.437494,-2072.576638,229.828649,9178.553681
1008.437823,-1110.308913,1149.143247,8734.430116
1008.438153,148.041188,0.000000,9474.636058
1008.438483,1480.411884,-459.657299,9844.739029
1008.438812,1554.432478,229.828649,9548.656652
1008.439142,814.226536,1149.143247,9326.594869
1008.439472,-518.144159,842.705048,11547.212695
1008.439801,-1924.535449,2145.067394,13027.624579
1008.440131,-3182.885551,2911.162892,12509.480420
1008.440461,-3330.926739,1072.533697,11029.068536
1008.440790,-2738.761985,766.095498,10288.862594
1008.441120,-592.164754,1225.752797,9474.636058
1008.441450,370.102971,0.000000,8734.430116
1008.441779,296.082377,-1608.800546,7105.977043
1008.442109,-740.205942,-689.485948,7402.059420
1008.442439,-1406.391290,995.924147,8512.368333
1008.442768,-1480.411884,1302.362347,9252.574275
1008.443098,-962.267725,2528.115143,8734.430116
1008.443428,518.144159,2757.943793,7698.141797
1008.443757,3034.844362,1302.362347,7698.141797
1008.444087,4589.276840,1532.190996,7920.203579
1008.444417,3923.091493,3064.381992,8290.306550
1008.444746,2442.679609,4213.525239,9474.636058
1008.445076,0.000000,4903.011187,11843.295072
1008.445406,-2146.597232,5439.278036,12065.356855
1008.445735,-2812.782580,4290.134789,11473.192101
1008.446065,-2516.700203,1762.019645,10658.965565
1008.446395,-1036.288319,-536.266849,10140.821405
1008.446724,0.000000,-689.485948,9104.533087
1008.447054,-740.205942,-612.876398,7476.080014
1008.447384,-1998.556043,-153.219100,6661.853478
1008.447713,-2886.803174,842.705048,6957.935855
1008.448043,-3256.906145,2221.676944,7698.141797
1008.448373,-2368.659014,1378.971896,8364.327145
1008.448702,-1702.473667,919.314598,9548.656652
1008.449032,-888.247130,1225.752797,9474.636058
1008.449362,-222.061783,1072.533697,9622.677246
1008.449691,0.000000,766.095498,9622.677246
1008.450021,592.164754,383.047749,10214.842000
1008.450351,-592.164754,536.266849,11399.171507
1008.450680,-1702.473667,1991.848295,12213.398043
1008.451010,-2960.823768,2374.896044,12139.377449
1008.451340,-2516.700203,1455.581446,11177.109724
1008.451669,-1554.432478,-229.828649,10214.842000
1008.451999,-1258.350101,-1225.752797,9548.656652
1008.452329,-1110.308913,-1225.752797,8882.471304
1008.452658,-1258.350101,-1915.238745,8364.327145
1008.452988,-3034.844362,-1378.971896,8734.430116
1008.453318,-4367.215058,153.219100,9030.512492
1008.453647,-4071.132681,612.876398,8808.450710
1008.453977,-2368.659014,-612.876398,8068.244768
1008.454307,-740.205942,-1608.800546,8364.327145
1008.454636,518.144159,-1072.533697,8438.347739
1008.454966,518.144159,76.609550,8808.450710
1008.455296,296.082377,0.000000,10362.883188
1008.455625,-1480.411884,1532.190996,12139.377449
1008.455955,-2738.761985,3294.210641,13471.748144
1008.456285,-3478.967927,3064.381992,12879.583391
1008.456614,-3108.864956,1225.752797,11399.171507
1008.456944,-2220.617826,-383.047749,9474.636058
1008.457274,-296.082377,-1225.752797,8290.306550
1008.457603,1258.350101,-2604.724693,7772.162391
1008.457933,1184.329507,-1915.238745,7846.182985
1008.458263,0.000000,459.657299,8586.388927
1008.458592,-1036.288319,1455.581446,9326.594869
1008.458922,-1184.329507,2068.457845,9622.677246
1008.459252,-666.185348,2528.115143,9030.512492
1008.459581,962.267725,1455.581446,8882.471304
1008.459911,2516.700203,1225.752797,9030.512492
1008.460241,3552.988522,2374.896044,8364.327145
1008.460570,3330.926739,2221.676944,7846.182985
1008.460900,2220.617826,2528.115143,9252.574275
1008.461230,296.082377,3524.039291,11251.130318
1008.461559,-1702.473667,4749.792088,11843.295072
1008.461889,-2072.576638,4136.915689,10807.006753
1008.462219,-1480.411884,2911.162892,9696.697840
1008.462548,-592.164754,1225.752797,9548.656652
1008.462878,-370.102971,0.000000,8512.368333
1008.463208,-888.247130,-229.828649,7846.182985
1008.463537,-962.267725,383.047749,7772.162391
1008.463867,-1554.432478,995.924147,9030.512492
1008.464197,-2368.659014,1838.629195,9104.533087
1008.464526,-2368.659014,2221.676944,8364.327145
1008.464856,-1332.370696,842.705048,7920.203579
1008.465186,148.041188,153.219100,8512.368333
1008.465515,1554.432478,995.924147,9474.636058
1008.465845,1258.350101,2528.115143,10066.800811
1008.466175,296.082377,1838.629195,10214.842000
1008.466505,-1332.370696,1838.629195,10584.944971
1008.466834,-2294.638420,2068.457845,11177.109724
1008.467164,-2738.761985,1608.800546,11473.192101
1008.467494,-2664.741391,1225.752797,11325.150913
1008.467823,-3034.844362,0.000000,10510.924376
1008.468153,-2664.741391,-995.924147,9474.636058
1008.468483,-1998.556043,-1685.410096,8734.430116
1008.468812,-1850.514855,-2068.457845,8512.368333
1008.469142,-2294.638420,-919.314598,9400.615463
1008.469472,-3330.926739,0.000000,9474.636058
1008.469801,-3330.926739,383.047749,9474.636058
1008.470131,-2960.823768,-306.438199,8808.450710
1008.470461,-2220.617826,-842.705048,8364.327145
1008.470790,-1480.411884,0.000000,8364.327145
1008.471120,222.061783,383.047749,8216.285956
1008.471450,1776.494261,383.047749,9326.594869
1008.471779,1406.391290,306.438199,10955.047942
1008.472109,-1036.288319,1378.971896,13101.645173
1008.472439,-3849.070898,2911.162892,13767.830521
1008.472768,-5255.462188,2757.943793,13471.748144
1008.473098,-4441.235652,2374.896044,12435.459826
1008.473428,-2664.741391,919.314598,9844.739029
1008.473757,0.000000,-3370.820191,8068.244768
1008.474087,1258.350101,-5439.278036,7624.121203
1008.474417,74.020594,-2374.896044,7846.182985
1008.474746,-1702.473667,919.314598,8512.368333
1008.475076,-1850.514855,2374.896044,8216.285956
1008.475406,-518.144159,3064.381992,7624.121203
1008.475735,1184.329507,2068.457845,7254.018232
1008.476065,3849.070898,842.705048,7402.059420
1008.476395,4589.276840,2221.676944,8216.285956
1008.476724,4145.153275,4673.182538,9178.553681
1008.477054,1998.556043,4596.572988,10436.903782
1008.477384,-370.102971,4673.182538,11843.295072
1008.477713,-1702.473667,4136.915689,11843.295072
1008.478043,-1924.535449,3447.429741,10732.986159
1008.478373,-1924.535449,1762.019645,10140.821405
1008.478702,-1924.535449,995.924147,9844.739029
1008.479032,-1628.453072,612.876398,8586.388927
1008.479362,-1702.473667,0.000000,7254.018232
1008.479691,-1406.391290,0.000000,6513.812290
1008.480021,-1628.453072,995.924147,7476.080014
1008.480351,-1628.453072,1608.800546,8438.347739
1008.480680,-1258.350101,1608.800546,8586.388927
1008.481010,-370.102971,1532.190996,8290.306550
1008.481340,1184.329507,919.314598,9104.533087
1008.481669,2072.576638,842.705048,9992.780217
1008.481999,1628.453072,2681.334243,10510.924376
1008.482329,1702.473667,3447.429741,11621.233289
1008.482658,1480.411884,2528.115143,12583.501014
1008.482988,-370.102971,2987.772442,12213.398043
1008.483318,-2072.576638,2834.553343,10955.047942
1008.483647,-2368.659014,229.828649,10658.965565
1008.483977,-2368.659014,-842.705048,11029.068536
1008.484307,-2664.741391,-383.047749,10362.883188
1008.484636,-3256.906145,-995.924147,8734.430116
1008.484966,-2960.823768,-2451.505594,7031.956449
1008.485296,-2886.803174,-2221.676944,7772.162391
1008.485625,-3034.844362,-1532.190996,8364.327145
1008.485955,-3330.926739,-689.485948,8290.306550
1008.486285,-2960.823768,-995.924147,8216.285956
1008.486614,-2294.638420,-612.876398,9030.512492
1008.486944,-2220.617826,842.705048,9844.739029
1008.487274,-962.267725,153.219100,10658.965565
1008.487603,74.020594,459.657299,10140.821405
1008.487933,296.082377,1915.238745,10214.842000
1008.488263,-148.041188,1838.629195,10881.027347
1008.488592,0.000000,612.876398,10732.986159
1008.488922,-1480.411884,306.438199,10510.924376
1008.489252,-2590.720797,229.828649,10955.047942
1008.489581,-3034.844362,536.266849,11473.192101
1008.489911,-2738.761985,536.266849,10881.027347
1008.490241,-888.247130,0.000000,9252.574275
1008.490570,-370.102971,-2068.457845,7402.059420
1008.490900,0.000000,-1762.019645,6957.935855
1008.491230,-888.247130,-689.485948,7105.977043
1008.491559,-1184.329507,-842.705048,8290.306550
1008.491889,-1628.453072,1149.143247,9992.780217
1008.492219,-2368.659014,2451.505594,10955.047942
1008.492548,-962.267725,1608.800546,11029.068536
1008.492878,370.102971,1762.019645,10140.821405
1008.493208,1406.391290,2145.067394,9474.636058
1008.493537,2146.597232,1608.800546,10066.800811
1008.493867,1628.453072,1838.629195,11251.130318
1008.494197,-296.082377,4213.525239,10658.965565
1008.494526,-1258.350101,4213.525239,9696.697840
1008.494856,-592.164754,2757.943793,9326.594869
1008.495186,518.144159,2757.943793,8808.450710
1008.495515,1480.411884,1685.410096,7476.080014
1008.495845,2146.597232,306.438199,6513.812290
1008.496175,1480.411884,1378.971896,7105.977043
1008.496504,-444.123565,2451.505594,8512.368333
1008.496834,-1998.556043,2834.553343,8586.388927
1008.497164,-2368.659014,2298.286494,8068.244768
1008.497493,-1554.432478,1378.971896,8734.430116
1008.497823,0.000000,1455.581446,10140.821405
1008.498153,592.164754,1532.190996,9622.677246
1008.498482,1110.308913,1991.848295,8956.491898
1008.498812,962.267725,1149.143247,9400.615463
1008.499142,592.164754,1608.800546,11251.130318
1008.499471,-1406.391290,3217.601092,12361.439231
1008.499801,-3182.885551,3294.210641,11843.295072
1008.500131,-3997.112087,2068.457845,10436.903782
1008.500460,-3404.947333,919.314598,9992.780217
1008.500790,-1554.432478,-459.657299,8956.491898
1008.501120,-370.102971,-2145.067394,8068.244768
1008.501449,-1184.329507,-2451.505594,7624.121203
1008.501779,-3034.844362,-995.924147,7994.224174
1008.502109,-3701.029710,0.000000,8808.450710
1008.502438,-3627.009116,-306.438199,9918.759623
1008.502768,-2886.803174,0.000000,10362.883188
1008.503098,-2146.597232,76.609550,10955.047942
1008.503427,-814.226536,306.438199,10140.821405
1008.503757,296.082377,0.000000,9104.533087
1008.504087,222.061783,229.828649,8734.430116
1008.504416,-518.144159,383.047749,10214.842000
1008.504746,-1998.556043,306.438199,12361.439231
1008.505076,-3552.988522,1838.629195,12953.603985
1008.505405,-4515.256246,1532.190996,12287.418637
1008.505735,-4441.235652,-536.266849,11029.068536
1008.506065,-3256.906145,-1762.019645,9474.636058
1008.506394,-2146.597232,-1915.238745,8068.244768
1008.506724,-740.205942,-3140.991542,7624.121203
1008.507054,-814.226536,-1915.238745,7994.224174
1008.507383,-1850.514855,229.828649,7994.224174
1008.507713,-2442.679609,766.095498,8216.285956
1008.508043,-2590.720797,766.095498,8216.285956
1008.508372,-888.247130,842.705048,9474.636058
1008.508702,1110.308913,459.657299,10436.903782
1008.509032,2516.700203,919.314598,10362.883188
1008.509361,2886.803174,2145.067394,9770.718434
1008.509691,2294.638420,1608.800546,9770.718434
1008.510021,296.082377,2987.772442,10140.821405
1008.510350,-1110.308913,4136.915689,10140.821405
1008.510680,-2146.597232,3677.258390,9918.759623
1008.511010,-1998.556043,2451.505594,9992.780217
1008.511339,-1332.370696,1608.800546,9474.636058
1008.511669,-296.082377,0.000000,8216.285956
1008.511999,148.041188,-459.657299,7179.997637
1008.512328,148.041188,-383.047749,7179.997637
1008.512658,-222.061783,459.657299,8068.244768
1008.512988,-296.082377,2145.067394,8734.430116
1008.513317,-666.185348,3677.258390,8882.471304
1008.513647,-148.041188,3830.477490,9326.594869
1008.513977,888.247130,3524.039291,9770.718434
1008.514306,2146.597232,2604.724693,9844.739029
1008.514636,2812.782580,2987.772442,9474.636058
1008.514966,2294.638420,2528.115143,8882.471304
1008.515295,518.144159,2451.505594,10362.883188
1008.515625,-1998.556043,2451.505594,11399.171507
1008.515955,-3552.988522,3140.991542,11473.192101
1008.516284,-3701.029710,2451.505594,10658.965565
1008.516614,-2960.823768,1149.143247,9696.697840
1008.516944,-2072.576638,-766.095498,8808.450710
1008.517273,-1850.514855,-1608.800546,7772.162391
1008.517603,-2220.617826,-1762.019645,7476.080014
1008.517933,-3034.844362,-536.266849,8438.347739
1008.518262,-3552.988522,153.219100,9474.636058
1008.518592,-3923.091493,1225.752797,9326.594869
1008.518922,-3404.947333,459.657299,8734.430116
1008.519251,-2294.638420,-1302.362347,8882.471304
1008.519581,-592.164754,-1225.752797,9696.697840
1008.519911,592.164754,536.266849,10214.842000
1008.520240,1628.453072,689.485948,9918.759623
1008.520570,592.164754,459.657299,11029.068536
1008.520900,-1036.288319,1915.238745,11251.130318
1008.521229,-2072.576638,1915.238745,11325.150913
1008.521559,-2146.597232,229.828649,11473.192101
1008.521889,-2294.638420,689.485948,11325.150913
1008.522218,-2516.700203,-306.438199,10658.965565
1008.522548,-1924.535449,-2451.505594,9474.636058
1008.522878,-1924.535449,-3294.210641,7698.141797
1008.523207,-2368.659014,-3370.820191,7624.121203
1008.523537,-2368.659014,-3294.210641,9474.636058
1008.523867,-2960.823768,-612.876398,10658.965565
1008.524196,-3330.926739,1225.752797,9918.759623
1008.524526,-2442.679609,689.485948,8956.491898
1008.524855,-592.164754,-229.828649,8438.347739
1008.525185,1998.556043,306.438199,8734.430116
1008.525514,2960.823768,689.485948,9400.615463
1008.525844,2590.720797,1532.190996,9918.759623
1008.526174,222.061783,3217.601092,10881.027347
1008.526503,-1998.556043,3524.039291,11473.192101
1008.526833,-2442.679609,3294.210641,11621.233289
1008.527162,-2294.638420,2374.896044,10881.027347
1008.527492,-1036.288319,1225.752797,9622.677246
1008.527821,518.144159,536.266849,8808.450710
1008.528151,1110.308913,-229.828649,7402.059420
1008.528480,666.185348,153.219100,6883.915261
1008.528810,0.000000,842.705048,7179.997637
1008.529139,-740.205942,2911.162892,8438.347739
1008.529469,-1258.350101,4136.915689,8586.388927
1008.529798,-1184.329507,4213.525239,8364.327145
1008.530128,0.000000,2987.772442,7920.203579
1008.530457,1258.350101,2298.286494,7846.182985
1008.530787,2146.597232,2068.457845,8512.368333
1008.531117,1036.288319,2374.896044,9326.594869
1008.531446,-518.144159,2681.334243,10807.006753
1008.531776,-2146.597232,3907.087040,11991.336260
1008.532105,-3404.947333,4366.744339,11917.315666
1008.532435,-3330.926739,3064.381992,10955.047942
1008.532764,-3108.864956,1838.629195,10066.800811
1008.533094,-2072.576638,306.438199,9918.759623
1008.533423,-1480.411884,0.000000,9252.574275
1008.533753,-1554.432478,0.000000,7994.224174
1008.534082,-1702.473667,153.219100,7179.997637
1008.534412,-2590.720797,153.219100,7772.162391
1008.534741,-2590.720797,0.000000,8808.450710
1008.535071,-2368.659014,459.657299,8734.430116
1008.535400,-1776.494261,383.047749,9252.574275
1008.535730,-296.082377,229.828649,9548.656652
1008.536060,0.000000,229.828649,9326.594869
1008.536389,370.102971,76.609550,9696.697840
1008.536719,0.000000,153.219100,10362.883188
1008.537048,-1332.370696,1302.362347,12213.398043
1008.537378,-3108.864956,2451.505594,13249.686362
1008.537707,-4145.153275,2528.115143,12065.356855
1008.538037,-4071.132681,-153.219100,10436.903782
1008.538366,-3182.885551,-2451.505594,9326.594869
1008.538696,-1702.473667,-3524.039291,9474.636058
1008.539025,-888.247130,-3524.039291,8734.430116
1008.539355,-814.226536,-2298.286494,7994.224174
1008.539684,-1480.411884,-1455.581446,8142.265362
1008.540014,-2220.617826,-612.876398,9178.553681
1008.540343,-1406.391290,0.000000,9400.615463
1008.540673,370.102971,-229.828649,10140.821405
1008.541003,1480.411884,995.924147,10066.800811
1008.541332,888.247130,1762.019645,9030.512492
1008.541662,592.164754,1608.800546,8142.265362
1008.541991,518.144159,689.485948,8956.491898
1008.542321,-592.164754,306.438199,10658.965565
1008.542650,-2590.720797,1838.629195,12139.377449
1008.542980,-4367.215058,2528.115143,12213.398043
1008.543309,-4737.318029,1302.362347,11251.130318
1008.543639,-3701.029710,-919.314598,10362.883188
1008.543968,-2146.597232,-1685.410096,9400.615463
1008.544298,148.041188,-689.485948,8290.306550
1008.544627,1480.411884,0.000000,7179.997637
1008.544957,1998.556043,1149.143247,7698.141797
1008.545286,1332.370696,3294.210641,8290.306550
1008.545616,222.061783,3907.087040,7994.224174
1008.545945,666.185348,3447.429741,7254.018232
1008.546275,1554.432478,2987.772442,8142.265362
1008.546605,2146.597232,3064.381992,9400.615463
1008.546934,2368.659014,2681.334243,9844.739029
1008.547264,1110.308913,2145.067394,9474.636058
1008.547593,-444.123565,2911.162892,10066.800811
1008.547923,-1924.535449,2911.162892,11547.212695
1008.548252,-3256.906145,3830.477490,12139.377449
1008.548582,-4145.153275,3983.696590,11473.192101
1008.548911,-4885.359217,1915.238745,9918.759623
1008.549241,-3923.091493,995.924147,9474.636058
1008.549570,-2442.679609,995.924147,8882.471304
1008.549900,-1998.556043,689.485948,7624.121203
1008.550229,-2220.617826,459.657299,6957.935855
1008.550559,-3256.906145,1378.971896,7105.977043
1008.550888,-2738.761985,1991.848295,7550.100608
1008.551218,-2220.617826,766.095498,7698.141797
1008.551548,-1554.432478,1302.362347,8364.327145
1008.551877,-1036.288319,1838.629195,9474.636058
1008.552207,-814.226536,1225.752797,10436.903782
1008.552536,222.061783,2145.067394,10288.862594
1008.552866,888.247130,2298.286494,10288.862594
1008.553195,740.205942,1302.362347,10658.965565
1008.553525,-444.123565,766.095498,11103.089130
1008.553854,-1998.556043,1378.971896,10955.047942
1008.554184,-2590.720797,229.828649,11177.109724
1008.554513,-2590.720797,-1455.581446,12139.377449
1008.554843,-3182.885551,-1302.362347,11473.192101
1008.555172,-2664.741391,-1455.581446,9696.697840
1008.555502,-1110.308913,-3370.820191,8438.347739
1008.555831,-444.123565,-2987.772442,7772.162391
1008.556161,-1258.350101,-1455.581446,8068.244768
1008.556491,-1924.535449,-459.657299,8068.244768
1008.556820,-1332.370696,76.609550,8142.265362
1008.557150,-370.102971,383.047749,9178.553681
1008.557479,592.164754,-229.828649,10436.903782
1008.557809,666.185348,153.219100,10066.800811
1008.558138,666.185348,919.314598,9622.677246
1008.558468,1036.288319,383.047749,10658.965565
1008.558797,296.082377,-153.219100,12139.377449
1008.559127,-1480.411884,1532.190996,13101.645173
1008.559456,-2812.782580,1302.362347,11843.295072
1008.559786,-2590.720797,0.000000,10362.883188
1008.560115,-1332.370696,-383.047749,10066.800811
1008.560445,962.267725,-766.095498,9178.553681
1008.560774,2072.576638,-919.314598,7624.121203
1008.561104,1998.556043,-766.095498,6587.832884
1008.561434,1258.350101,1072.533697,7476.080014
1008.561763,666.185348,2604.724693,8586.388927
1008.562093,-74.020594,3447.429741,8512.368333
1008.562422,-518.144159,3064.381992,8216.285956
1008.562752,-444.123565,2298.286494,8808.450710
1008.563081,740.205942,1915.238745,9252.574275
1008.563411,1036.288319,1302.362347,9548.656652
1008.563740,296.082377,2068.457845,10066.800811
1008.564070,-1110.308913,2681.334243,11103.089130
1008.564399,-2886.803174,3753.867940,11917.315666
1008.564729,-3478.967927,4596.572988,10658.965565
1008.565058,-3034.844362,3370.820191,9770.718434
1008.565388,-2220.617826,1838.629195,9992.780217
1008.565717,-1776.494261,1838.629195,9548.656652
1008.566047,-1480.411884,1838.629195,7994.224174
1008.566376,-1036.288319,1455.581446,6587.832884
1008.566706,-740.205942,766.095498,6661.853478
1008.567036,-1184.329507,1225.752797,8068.244768
1008.567365,-2072.576638,1455.581446,8290.306550
1008.567695,-2368.659014,2451.505594,8808.450710
1008.568024,-1702.473667,3294.210641,9178.553681
1008.568354,-1184.329507,2987.772442,9696.697840
1008.568683,0.000000,1915.238745,9622.677246
1008.569013,74.020594,766.095498,9844.739029
1008.569342,-444.123565,1072.533697,11325.150913
1008.569672,-2294.638420,1685.410096,12361.439231
1008.570001,-4219.173869,2145.067394,11843.295072
1008.570331,-4737.318029,1149.143247,10288.862594
1008.570660,-3849.070898,-1378.971896,9548.656652
1008.570990,-2368.659014,-2068.457845,9030.512492
1008.571319,-518.144159,-1455.581446,8438.347739
1008.571649,-148.041188,-1302.362347,7254.018232
1008.571979,-740.205942,-1608.800546,7105.977043
1008.572308,-962.267725,-766.095498,8808.450710
1008.572638,-1110.308913,995.924147,10362.883188
1008.572967,-740.205942,459.657299,10214.842000
1008.573297,-666.185348,306.438199,10510.924376
1008.573626,-296.082377,383.047749,10140.821405
1008.573956,74.020594,76.609550,9400.615463
1008.574285,1036.288319,-612.876398,8586.388927
1008.574615,814.226536,-2451.505594,8956.491898
1008.574944,0.000000,-995.924147,11917.315666
1008.575274,-2368.659014,1072.533697,12879.583391
1008.575603,-3775.050304,1378.971896,11991.336260
1008.575933,-3404.947333,-612.876398,10881.027347
1008.576262,-1776.494261,-1838.629195,10362.883188
1008.576592,148.041188,-766.095498,9548.656652
1008.576922,1702.473667,-1455.581446,8438.347739
1008.577251,2072.576638,-612.876398,7698.141797
1008.577581,1258.350101,612.876398,7920.203579
1008.577910,222.061783,842.705048,8216.285956
1008.578240,-814.226536,2145.067394,8216.285956
1008.578569,-148.041188,2757.943793,8734.430116
1008.578899,814.226536,1991.848295,9548.656652
1008.579228,1258.350101,1455.581446,9770.718434
1008.579558,1406.391290,2221.676944,8808.450710
1008.579887,888.247130,1915.238745,8290.306550
1008.580217,148.041188,1532.190996,9992.780217
1008.580546,-740.205942,3064.381992,12065.356855
1008.580876,-2590.720797,4596.572988,12213.398043
1008.581205,-3330.926739,3294.210641,10584.944971
1008.581535,-3182.885551,2528.115143,9844.739029
1008.581864,-2072.576638,1915.238745,9400.615463
1008.582194,-1406.391290,1149.143247,8290.306550
1008.582524,-888.247130,229.828649,6883.915261
1008.582853,-1110.308913,919.314598,6809.894666
1008.583183,-1776.494261,2681.334243,7624.121203
1008.583512,-2368.659014,2987.772442,7698.141797
1008.583842,-2220.617826,2451.505594,7476.080014
1008.584171,-1702.473667,2451.505594,7846.182985
1008.584501,-370.102971,2451.505594,9696.697840
1008.584830,1406.391290,2374.896044,10362.883188
1008.585160,518.144159,3064.381992,9474.636058
1008.585489,-148.041188,2451.505594,9178.553681
1008.585819,-1406.391290,1685.410096,10658.965565
1008.586148,-2368.659014,1838.629195,12731.542202
1008.586478,-3775.050304,2298.286494,12731.542202
1008.586807,-4515.256246,383.047749,11251.130318
1008.587137,-4737.318029,-919.314598,9918.759623
1008.587467,-3256.906145,-1302.362347,8438.347739
1008.587796,-1554.432478,-2757.943793,7624.121203
1008.588126,-222.061783,-2911.162892,7105.977043
1008.588455,-296.082377,-919.314598,7624.121203
1008.588785,-1480.411884,1455.581446,8068.244768
1008.589114,-1702.473667,1149.143247,8512.368333
1008.589444,-1110.308913,689.485948,9252.574275
1008.589773,-370.102971,306.438199,10436.903782
1008.590103,1036.288319,1072.533697,11473.192101
1008.590432,888.247130,766.095498,10510.924376
1008.590762,1406.391290,0.000000,9696.697840
1008.591091,1184.329507,-1378.971896,11325.150913
1008.591421,-666.185348,-536.266849,12509.480420
1008.591750,-2516.700203,1072.533697,12953.603985
1008.592080,-2960.823768,919.314598,11621.233289
1008.592410,-2516.700203,0.000000,11177.109724
1008.592739,-1702.473667,-1302.362347,9844.739029
1008.593069,0.000000,-2298.286494,8438.347739
1008.593398,1110.308913,-2451.505594,7328.038826
1008.593728,1258.350101,-1072.533697,7402.059420
1008.594057,592.164754,459.657299,7994.224174
1008.594387,-444.123565,1685.410096,8586.388927
1008.594716,-518.144159,2068.457845,8660.409521
1008.595046,-222.061783,1838.629195,8660.409521
1008.595375,1184.329507,2451.505594,9252.574275
1008.595705,2664.741391,2145.067394,9918.759623
1008.596034,2960.823768,1762.019645,10140.821405
1008.596364,1480.411884,2068.457845,10288.862594
1008.596693,-592.164754,2604.724693,10881.027347
1008.597023,-1924.535449,3217.601092,11843.295072
1008.597353,-1850.514855,2987.772442,11695.253884
1008.597682,-3182.885551,2374.896044,10362.883188
1008.598012,-3034.844362,1378.971896,9622.677246
1008.598341,-1850.514855,459.657299,7994.224174
1008.598671,-444.123565,0.000000,6587.832884
1008.599000,296.082377,-229.828649,5847.626942
1008.599330,-888.247130,842.705048,7698.141797
1008.599659,-2368.659014,2757.943793,8290.306550
1008.599989,-2960.823768,3524.039291,8364.327145
1008.600318,-2590.720797,2987.772442,8438.347739
1008.600648,-1702.473667,2298.286494,9918.759623
1008.600977,-296.082377,3064.381992,11103.089130
1008.601307,74.020594,2145.067394,10362.883188
1008.601636,148.041188,1455.581446,9696.697840
1008.601966,0.000000,1455.581446,10732.986159
1008.602295,-1702.473667,2451.505594,12361.439231
1008.602625,-3034.844362,2911.162892,11843.295072
1008.602955,-3404.947333,2451.505594,9844.739029
1008.603284,-1628.453072,1072.533697,9104.533087
1008.603614,-518.144159,153.219100,8660.409521
1008.603943,-296.082377,-842.705048,7624.121203
1008.604273,-814.226536,-1838.629195,7105.977043
1008.604602,-1406.391290,-842.705048,8068.244768
1008.604932,-2812.782580,0.000000,9844.739029
1008.605261,-3182.885551,919.314598,10658.965565
1008.605591,-2812.782580,153.219100,9844.739029
1008.605920,-1776.494261,-919.314598,8956.491898
1008.606250,-296.082377,-689.485948,8956.491898
1008.606579,666.185348,383.047749,9252.574275
1008.606909,1332.370696,459.657299,9104.533087
1008.607238,222.061783,0.000000,10288.862594
1008.607568,-1702.473667,1072.533697,12213.398043
1008.607898,-2886.803174,2757.943793,12287.418637
1008.608227,-3034.844362,689.485948,11769.274478
1008.608557,-2368.659014,-1302.362347,11177.109724
1008.608886,-1480.411884,-1915.238745,10436.903782
1008.609216,74.020594,-2221.676944,9178.553681
1008.609545,1332.370696,-2528.115143,7550.100608
1008.609875,1184.329507,-1149.143247,7328.038826
1008.610204,888.247130,306.438199,8216.285956
1008.610534,666.185348,612.876398,9326.594869
1008.610863,0.000000,2068.457845,9474.636058
1008.611193,74.020594,2911.162892,9326.594869
1008.611522,814.226536,1991.848295,8956.491898
1008.611852,1258.350101,689.485948,9844.739029
1008.612181,1036.288319,1225.752797,9622.677246
1008.612511,518.144159,612.876398,9474.636058
1008.612841,0.000000,612.876398,10658.965565
1008.613170,-1554.432478,2374.896044,11695.253884
1008.613500,-3108.864956,2451.505594,11473.192101
1008.613829,-3923.091493,1838.629195,10140.821405
1008.614159,-2738.761985,1455.581446,9400.615463
1008.614488,-740.205942,1685.410096,9474.636058
1008.614818,444.123565,1991.848295,8068.244768
1008.615147,518.144159,1225.752797,6883.915261
1008.615477,-814.226536,919.314598,6883.915261
1008.615806,-1924.535449,1608.800546,8068.244768
1008.616136,-2368.659014,2834.553343,9178.553681
1008.616465,-1924.535449,3064.381992,9030.512492
1008.616795,-1776.494261,2221.676944,9030.512492
1008.617124,-1110.308913,1455.581446,8808.450710
1008.617454,-222.061783,1149.143247,8586.388927
1008.617783,666.185348,1608.800546,9252.574275
1008.618113,444.123565,2068.457845,11029.068536
1008.618443,-962.267725,2681.334243,12435.459826
1008.618772,-3478.967927,3677.258390,12287.418637
1008.619102,-4219.173869,2298.286494,9918.759623
1008.619431,-3552.988522,229.828649,9178.553681
1008.619761,-2368.659014,-153.219100,9770.718434
1008.620090,-888.247130,76.609550,9400.615463
1008.620420,-296.082377,-459.657299,7624.121203
1008.620749,-666.185348,-1455.581446,6513.812290
1008.621079,-1776.494261,-383.047749,7550.100608
1008.621408,-2442.679609,842.705048,9030.512492
1008.621738,-2294.638420,842.705048,9992.780217
1008.622067,-1628.453072,1838.629195,10288.862594
1008.622397,-962.267725,1378.971896,10214.842000
1008.622726,0.000000,0.000000,9844.739029
1008.623056,592.164754,-383.047749,9400.615463
1008.623386,888.247130,-383.047749,9918.759623
1008.623715,296.082377,0.000000,11473.192101
1008.624045,-888.247130,842.705048,12213.398043
1008.624374,-2220.617826,1378.971896,11843.295072
1008.624704,-2738.761985,0.000000,10658.965565
1008.625033,-1776.494261,-995.924147,10584.944971
1008.625363,-222.061783,-536.266849,9918.759623
1008.625692,1036.288319,-536.266849,8586.388927
1008.626022,1480.411884,-1608.800546,7402.059420
1008.626351,888.247130,-536.266849,7698.141797
1008.626681,0.000000,459.657299,8586.388927
1008.627011,-888.247130,612.876398,8882.471304
1008.627340,-1184.329507,1915.238745,9178.553681
1008.627670,-1036.288319,2145.067394,9622.677246
1008.627999,0.000000,919.314598,10066.800811
1008.628329,444.123565,612.876398,9770.718434
1008.628658,666.185348,766.095498,9030.512492
1008.628988,222.061783,459.657299,9030.512492
1008.629317,-814.226536,1378.971896,10881.027347
1008.629647,-2146.597232,2987.772442,11769.274478
1008.629976,-3108.864956,2911.162892,10510.924376
1008.630306,-2886.803174,1608.800546,9400.615463
1008.630635,-1332.370696,1072.533697,8586.388927
1008.630965,74.020594,919.314598,8512.368333
1008.631295,962.267725,383.047749,7105.977043
1008.631624,592.164754,0.000000,7254.018232
1008.631954,-592.164754,995.924147,8808.450710
1008.632283,-2368.659014,2834.553343,9992.780217
1008.632613,-2960.823768,3830.477490,10140.821405
1008.632942,-2146.597232,2834.553343,10214.842000
1008.633272,-888.247130,1378.971896,9622.677246
1008.633601,296.082377,766.095498,9326.594869
1008.633931,814.226536,612.876398,8734.430116
1008.634260,740.205942,1532.190996,9178.553681
1008.634590,-740.205942,2298.286494,10066.800811
1008.634920,-2220.617826,3447.429741,10955.047942
1008.635249,-3330.926739,2987.772442,10436.903782
1008.635579,-3182.885551,1455.581446,9844.739029
1008.635908,-2590.720797,459.657299,10436.903782
1008.636238,-2368.659014,459.657299,10214.842000
1008.636567,-2220.617826,0.000000,9252.574275
1008.636897,-1776.494261,-1532.190996,8364.327145
1008.637226,-1480.411884,-995.924147,8216.285956
1008.637556,-2146.597232,306.438199,8068.244768
1008.637885,-2368.659014,612.876398,6809.894666
1008.638215,-1480.411884,383.047749,6957.935855
1008.638544,-518.144159,-306.438199,8882.471304
1008.638874,-444.123565,995.924147,10510.924376
1008.639204,-888.247130,2145.067394,9992.780217
1008.639533,0.000000,1608.800546,9400.615463
1008.639863,148.041188,0.000000,10955.047942
1008.640192,0.000000,0.000000,12509.480420
1008.640522,-1184.329507,229.828649,12287.418637
1008.640851,-2368.659014,-689.485948,11621.233289
1008.641181,-2960.823768,153.219100,11399.171507
1008.641510,-2294.638420,689.485948,11473.192101
1008.641840,-222.061783,-995.924147,10732.986159
1008.642169,814.226536,-1532.190996,8068.244768
1008.642499,1036.288319,-1149.143247,6883.915261
1008.642829,1110.308913,76.609550,7105.977043
1008.643158,740.205942,1149.143247,8364.327145
1008.643488,-814.226536,1608.800546,8882.471304
1008.643817,-1480.411884,1915.238745,9252.574275
1008.644147,-592.164754,1685.410096,9992.780217
1008.644476,666.185348,1685.410096,10288.862594
1008.644806,962.267725,919.314598,9918.759623
1008.645135,592.164754,383.047749,9622.677246
1008.645465,-740.205942,1072.533697,11325.150913
1008.645794,-2442.679609,2374.896044,12435.459826
1008.646124,-3256.906145,3600.648841,11547.212695
1008.646453,-2960.823768,3294.210641,9844.739029
1008.646783,-2072.576638,995.924147,9030.512492
1008.647113,-592.164754,229.828649,7550.100608
1008.647442,888.247130,0.000000,6365.771101
1008.647772,1406.391290,153.219100,6217.729913
1008.648101,592.164754,689.485948,7624.121203
1008.648431,-1036.288319,2145.067394,8734.430116
1008.648760,-2368.659014,3370.820191,8956.491898
1008.649090,-2368.659014,2757.943793,8734.430116
1008.649419,-1332.370696,2451.505594,9474.636058
1008.649749,296.082377,1991.848295,10510.924376
1008.650078,1184.329507,1378.971896,10362.883188
1008.650408,518.144159,1608.800546,9918.759623
1008.650737,-370.102971,1225.752797,9992.780217
1008.651067,-2146.597232,2451.505594,11177.109724
1008.651397,-3552.988522,3753.867940,11621.233289
1008.651726,-3997.112087,3064.381992,10658.965565
1008.652056,-3034.844362,1685.410096,9992.780217
1008.652385,-2146.597232,76.609550,9400.615463
1008.652715,-1628.453072,-229.828649,7698.141797
1008.653044,-1554.432478,-1378.971896,6513.812290
1008.653374,-1850.514855,-1455.581446,7105.977043
1008.653703,-2516.700203,-919.314598,8734.430116
1008.654033,-3034.844362,459.657299,9548.656652
1008.654362,-3182.885551,919.314598,9178.553681
1008.654692,-2368.659014,229.828649,9474.636058
1008.655022,-1184.329507,229.828649,10214.842000
1008.655351,518.144159,536.266849,9992.780217
1008.655681,1406.391290,0.000000,9474.636058
1008.656010,1258.350101,0.000000,9844.739029
1008.656340,-296.082377,459.657299,11695.253884
1008.656669,-2368.659014,1532.190996,12287.418637
1008.656999,-3330.926739,1302.362347,11251.130318
1008.657328,-2812.782580,-306.438199,10807.006753
1008.657658,-1776.494261,-766.095498,10362.883188
1008.657987,-296.082377,-1149.143247,9326.594869
1008.658317,370.102971,-2451.505594,7920.203579
1008.658646,370.102971,-2145.067394,7402.059420
1008.658976,222.061783,153.219100,8660.409521
1008.659306,-1110.308913,1685.410096,9696.697840
1008.659635,-1998.556043,1455.581446,9918.759623
1008.659965,-2072.576638,1532.190996,9622.677246
1008.660294,-1406.391290,1149.143247,9178.553681
1008.660624,296.082377,306.438199,9400.615463
1008.660953,1628.453072,0.000000,9400.615463
1008.661283,1184.329507,612.876398,8956.491898
1008.661612,296.082377,459.657299,9992.780217
1008.661942,-518.144159,1685.410096,11695.253884
1008.662271,-2146.597232,4060.306139,11399.171507
1008.662601,-2516.700203,3600.648841,10362.883188
1008.662931,-1480.411884,1455.581446,9696.697840
1008.663260,-370.102971,1455.581446,9252.574275
1008.663590,962.267725,1225.752797,7920.203579
1008.663919,1480.411884,-229.828649,6661.853478
1008.664249,518.144159,995.924147,7698.141797
1008.664578,-1258.350101,2298.286494,9104.533087
1008.664908,-2368.659014,2451.505594,9696.697840
1008.665237,-2442.679609,2834.553343,9030.512492
1008.665567,-1702.473667,2911.162892,8364.327145
1008.665896,222.061783,2068.457845,8068.244768
1008.666226,1554.432478,842.705048,8734.430116
1008.666555,1776.494261,1685.410096,9104.533087
1008.666885,444.123565,2451.505594,9844.739029
1008.667215,-1850.514855,3217.601092,11843.295072
1008.667544,-3775.050304,3753.867940,12139.377449
1008.667874,-4071.132681,2834.553343,11473.192101
1008.668203,-2590.720797,536.266849,11251.130318
1008.668533,-1850.514855,153.219100,9992.780217
1008.668862,-1406.391290,995.924147,7772.162391
1008.669192,-814.226536,153.219100,5551.544565
1008.669521,-962.267725,-919.314598,5255.462188
1008.669851,-1332.370696,-383.047749,7846.182985
1008.670180,-3108.864956,1608.800546,9992.780217
1008.670510,-4071.132681,1838.629195,9622.677246
1008.670840,-3627.009116,1149.143247,9326.594869
1008.671169,-2368.659014,-689.485948,9622.677246
1008.671499,0.000000,-1225.752797,10584.944971
1008.671828,666.185348,-689.485948,9918.759623
1008.672158,518.144159,0.000000,10288.862594
1008.672487,-518.144159,1225.752797,11769.274478
1008.672817,-1998.556043,2145.067394,12287.418637
1008.673146,-2368.659014,1149.143247,11029.068536
1008.673476,-2294.638420,-229.828649,9770.718434
1008.673805,-1628.453072,-995.924147,9770.718434
1008.674135,-222.061783,-766.095498,9918.759623
1008.674464,370.102971,-1072.533697,9548.656652
1008.674794,-518.144159,-1149.143247,7624.121203
1008.675124,-1480.411884,-689.485948,8068.244768
1008.675453,-1702.473667,-536.266849,9992.780217
1008.675783,-1850.514855,919.314598,11177.109724
1008.676112,-2294.638420,1225.752797,10732.986159
1008.676442,-1924.535449,995.924147,9622.677246
1008.676771,-962.267725,76.609550,9622.677246
1008.677101,592.164754,229.828649,10140.821405
1008.677430,1406.391290,459.657299,9844.739029
1008.677760,666.185348,689.485948,10288.862594
1008.678089,-666.185348,2068.457845,10436.903782
1008.678419,-1480.411884,2987.772442,10436.903782
1008.678749,-814.226536,2221.676944,9696.697840
1008.679078,-222.061783,1072.533697,9030.512492
1008.679408,0.000000,1149.143247,9326.594869
1008.679737,296.082377,1455.581446,8290.306550
1008.680067,74.020594,1762.019645,7698.141797
1008.680396,814.226536,1378.971896,7772.162391
1008.680726,0.000000,1762.019645,8808.450710
1008.681055,-1184.329507,1838.629195,9474.636058
1008.681385,-1998.556043,2528.115143,8586.388927
1008.681714,-1110.308913,2068.457845,7846.182985
1008.682044,296.082377,1072.533697,8734.430116
1008.682373,962.267725,1838.629195,9474.636058
1008.682703,888.247130,2451.505594,9326.594869
1008.683033,814.226536,2451.505594,9030.512492
1008.683362,592.164754,2834.553343,9696.697840
1008.683692,-444.123565,3907.087040,10807.006753
1008.684021,-1480.411884,3524.039291,10658.965565
1008.684351,-2146.597232,2068.457845,10732.986159
1008.684680,-2960.823768,995.924147,10288.862594
1008.685010,-2590.720797,1302.362347,10140.821405
1008.685339,-1924.535449,0.000000,9252.574275
1008.685669,-1850.514855,-459.657299,8438.347739
1008.685998,-2368.659014,-536.266849,8364.327145
1008.686328,-2590.720797,0.000000,8956.491898
1008.686658,-3404.947333,-229.828649,8142.265362
1008.686987,-3330.926739,0.000000,8364.327145
1008.687317,-2368.659014,536.266849,9548.656652
1008.687646,-1036.288319,612.876398,10881.027347
1008.687976,0.000000,995.924147,9696.697840
1008.688305,148.041188,306.438199,8956.491898
1008.688635,-148.041188,-612.876398,9400.615463
1008.688964,-1184.329507,689.485948,12139.377449
1008.689294,-2294.638420,1762.019645,12287.418637
1008.689623,-2960.823768,459.657299,11325.150913
1008.689953,-3182.885551,-842.705048,10732.986159
1008.690282,-2590.720797,-1225.752797,10140.821405
1008.690612,-1628.453072,-1838.629195,9622.677246
1008.690942,-222.061783,-2068.457845,8512.368333
1008.691271,444.123565,-689.485948,7846.182985
1008.691601,-148.041188,-229.828649,8512.368333
1008.691930,-1184.329507,-536.266849,8586.388927
1008.692260,-2220.617826,0.000000,8586.388927
1008.692589,-2294.638420,842.705048,9326.594869
1008.692919,-740.205942,766.095498,10436.903782
1008.693248,222.061783,766.095498,10807.006753
1008.693578,740.205942,383.047749,9696.697840
1008.693907,666.185348,-689.485948,8956.491898
1008.694237,370.102971,-612.876398,10658.965565
1008.694567,-1258.350101,1915.238745,11843.295072
1008.694896,-2368.659014,3064.381992,11325.150913
1008.695226,-1628.453072,1838.629195,10510.924376
1008.695555,-1110.308913,995.924147,9992.780217
1008.695885,0.000000,1378.971896,8734.430116
1008.696214,962.267725,919.314598,7920.203579
1008.696544,1332.370696,383.047749,7031.956449
1008.696873,888.247130,1302.362347,7846.182985
1008.697203,-370.102971,2604.724693,8660.409521
1008.697532,-1554.432478,2451.505594,8512.368333
1008.697862,-1924.535449,2374.896044,8142.265362
1008.698191,-1258.350101,1608.800546,9030.512492
1008.698521,-444.123565,2068.457845,10658.965565
1008.698851,444.123565,2221.676944,10436.903782
1008.699180,1110.308913,1991.848295,9326.594869
1008.699510,888.247130,2528.115143,9770.718434
1008.699839,0.000000,3294.210641,10510.924376
1008.700169,-1924.535449,4213.525239,9696.697840
1008.700498,-2664.741391,3907.087040,8438.347739
1008.700828,-2368.659014,2987.772442,8364.327145
1008.701157,-1480.411884,1455.581446,9104.533087
1008.701487,-1554.432478,1072.533697,8808.450710
1008.701816,-2368.659014,0.000000,7772.162391
1008.702146,-2738.761985,-459.657299,8142.265362
1008.702476,-3034.844362,0.000000,9400.615463
1008.702805,-2516.700203,766.095498,9844.739029
1008.703135,-2220.617826,306.438199,9474.636058
1008.703464,-2368.659014,76.609550,9030.512492
1008.703794,-1554.432478,1225.752797,10066.800811
1008.704123,-370.102971,2374.896044,10140.821405
1008.704453,1258.350101,1302.362347,8882.471304
1008.704782,1110.308913,612.876398,8364.327145
1008.705112,666.185348,689.485948,9844.739029
1008.705441,-740.205942,1378.971896,10807.006753
1008.705771,-2442.679609,459.657299,10288.862594
1008.706100,-3034.844362,-383.047749,10584.944971
1008.706430,-3849.070898,0.000000,10881.027347
1008.706760,-2738.761985,-842.705048,11029.068536
1008.707089,-1998.556043,-1532.190996,9770.718434
1008.707419,-1332.370696,-2145.067394,8438.347739
1008.707748,-1702.473667,-1302.362347,8438.347739
1008.708078,-2368.659014,-689.485948,9104.533087
1008.708407,-2442.679609,229.828649,9918.759623
1008.708737,-2368.659014,306.438199,9844.739029
1008.709066,-1850.514855,76.609550,10140.821405
1008.709396,-1332.370696,536.266849,10658.965565
1008.709725,0.000000,0.000000,9474.636058
1008.710055,1702.473667,-306.438199,9030.512492
1008.710385,1924.535449,0.000000,9548.656652
1008.710714,666.185348,1608.800546,11177.109724
1008.711044,-1406.391290,2145.067394,10732.986159
1008.711373,-1628.453072,1838.629195,10584.944971
1008.711703,-1258.350101,1302.362347,10362.883188
1008.712032,-666.185348,1532.190996,10881.027347
1008.712362,444.123565,459.657299,9474.636058
1008.712691,888.247130,-689.485948,7624.121203
1008.713021,888.247130,-842.705048,6957.935855
1008.713350,-148.041188,229.828649,7846.182985
1008.713680,-1036.288319,1915.238745,8364.327145
1008.714009,-1258.350101,2528.115143,8660.409521
1008.714339,-666.185348,2911.162892,8956.491898
1008.714669,222.061783,2604.724693,9030.512492
1008.714998,1628.453072,2145.067394,8882.471304
1008.715328,1924.535449,1838.629195,7994.224174
1008.715657,1480.411884,2528.115143,9178.553681
1008.715987,-148.041188,3447.429741,11399.171507
1008.716316,-2516.700203,3370.820191,12213.398043
1008.716646,-3997.112087,3830.477490,10658.965565
1008.716975,-3849.070898,2604.724693,9326.594869
1008.717305,-2072.576638,612.876398,9918.759623
1008.717634,0.000000,229.828649,9252.574275
1008.717964,592.164754,-383.047749,7920.203579
1008.718293,222.061783,-459.657299,7105.977043
1008.718623,-666.185348,1149.143247,8068.244768
1008.718953,-1776.494261,2834.553343,9844.739029
1008.719282,-2368.659014,3064.381992,9992.780217
1008.719612,-2072.576638,2374.896044,9770.718434
1008.719941,-1036.288319,1532.190996,9474.636058
1008.720271,0.000000,0.000000,8956.491898
1008.720600,222.061783,-459.657299,8586.388927
1008.720930,0.000000,76.609550,9252.574275
1008.721259,-592.164754,919.314598,11177.109724
1008.721589,-2368.659014,1532.190996,11991.336260
1008.721918,-4071.132681,2451.505594,11473.192101
1008.722248,-4663.297435,995.924147,10510.924376
1008.722577,-3923.091493,-536.266849,10436.903782
1008.722907,-2664.741391,-536.266849,10214.842000
1008.723236,-1554.432478,-536.266849,9178.553681
1008.723566,-1036.288319,-1685.410096,7105.977043
1008.723896,-888.247130,-2451.505594,6883.915261
1008.724225,-1924.535449,-1149.143247,8438.347739
1008.724555,-2368.659014,0.000000,9992.780217
1008.724884,-1850.514855,919.314598,10288.862594
1008.725214,-1332.370696,689.485948,10066.800811
1008.725543,222.061783,229.828649,10362.883188
1008.725873,1184.329507,-459.657299,9252.574275
1008.726202,2294.638420,-919.314598,9252.574275
1008.726532,1850.514855,-229.828649,10214.842000
1008.726861,148.041188,1455.581446,11917.315666
1008.727191,-1776.494261,2911.162892,12139.377449
1008.727520,-2368.659014,995.924147,10510.924376
1008.727850,-2220.617826,-459.657299,9992.780217
1008.728179,-1406.391290,-383.047749,10140.821405
1008.728509,-370.102971,383.047749,9770.718434
1008.728838,0.000000,0.000000,8216.285956
1008.729168,0.000000,-612.876398,6735.874072
1008.729497,-296.082377,229.828649,7772.162391
1008.729827,-740.205942,842.705048,8586.388927
1008.730156,-1332.370696,1608.800546,9104.533087
1008.730486,-962.267725,2221.676944,9104.533087
1008.730815,0.000000,2681.334243,9400.615463
1008.731145,1184.329507,1685.410096,9622.677246
1008.731474,2220.617826,1762.019645,9548.656652
1008.731804,2516.700203,1455.581446,9326.594869
1008.732133,1480.411884,2528.115143,10140.821405
1008.732463,-370.102971,4366.744339,10510.924376
1008.732792,-1850.514855,4596.572988,9918.759623
1008.733122,-2220.617826,2604.724693,9400.615463
1008.733451,-1850.514855,1149.143247,9992.780217
1008.733781,-1480.411884,1378.971896,9844.739029
1008.734110,-962.267725,153.219100,8882.471304
1008.734440,-962.267725,-153.219100,7624.121203
1008.734769,-1036.288319,0.000000,8142.265362
1008.735099,-1554.432478,306.438199,9178.553681
1008.735428,-2516.700203,1762.019645,9400.615463
1008.735758,-3108.864956,3064.381992,8808.450710
1008.736087,-2368.659014,2068.457845,9104.533087
1008.736417,-518.144159,1762.019645,9844.739029
1008.736746,296.082377,1991.848295,8734.430116
1008.737076,740.205942,1532.190996,8068.244768
1008.737405,444.123565,229.828649,8956.491898
1008.737735,-888.247130,1685.410096,10955.047942
1008.738064,-3108.864956,3217.601092,12213.398043
1008.738394,-4515.256246,1685.410096,10658.965565
1008.738723,-4145.153275,76.609550,10140.821405
1008.739053,-2812.782580,-536.266849,10510.924376
1008.739382,-1628.453072,-1302.362347,9474.636058
1008.739712,-888.247130,-1685.410096,7846.182985
1008.740041,-740.205942,-1608.800546,7179.997637
1008.740371,-1184.329507,-766.095498,8734.430116
1008.740700,-2072.576638,536.266849,10066.800811
1008.741030,-3034.844362,1455.581446,9844.739029
1008.741359,-2516.700203,766.095498,8956.491898
1008.741689,-1258.350101,-306.438199,9030.512492
1008.742019,444.123565,-459.657299,9548.656652
1008.742348,1998.556043,-383.047749,9474.636058
1008.742678,1776.494261,-306.438199,9474.636058
1008.743007,148.041188,842.705048,10066.800811
1008.743337,-1554.432478,1685.410096,11769.274478
1008.743666,-2590.720797,2451.505594,11991.336260
1008.743996,-2220.617826,1149.143247,11621.233289
1008.744325,-1406.391290,0.000000,11251.130318
1008.744655,-888.247130,383.047749,10362.883188
1008.744984,0.000000,-995.924147,8364.327145
1008.745314,0.000000,-1915.238745,8068.244768
1008.745643,-296.082377,-766.095498,8216.285956
1008.745973,-962.267725,536.266849,9252.574275
1008.746302,-1184.329507,1608.800546,8512.368333
1008.746632,-962.267725,2068.457845,7846.182985
1008.746961,518.144159,1302.362347,7994.224174
1008.747291,1628.453072,1072.533697,8512.368333
1008.747620,2442.679609,2451.505594,9474.636058
1008.747950,1998.556043,3140.991542,9696.697840
1008.748279,1406.391290,3524.039291,9918.759623
1008.748609,-148.041188,2834.553343,11177.109724
1008.748938,-1406.391290,2681.334243,11769.274478
1008.749268,-2590.720797,2451.505594,10732.986159
1008.749597,-2516.700203,1685.410096,10362.883188
1008.749927,-1702.473667,1532.190996,9918.759623
1008.750256,-1184.329507,612.876398,8586.388927
1008.750586,-740.205942,612.876398,6735.874072
1008.750915,0.000000,76.609550,6217.729913
1008.751245,370.102971,306.438199,7328.038826
1008.751574,-148.041188,1991.848295,8142.265362
1008.751904,-1036.288319,2298.286494,8216.285956
1008.752233,-1554.432478,1532.190996,8660.409521
1008.752563,-1332.370696,1685.410096,10288.862594
1008.752892,-740.205942,2451.505594,11103.089130
1008.753222,0.000000,2068.457845,10955.047942
1008.753551,222.061783,842.705048,10362.883188
1008.753881,-592.164754,536.266849,10955.047942
1008.754210,-2294.638420,995.924147,11399.171507
1008.754540,-3330.926739,1378.971896,10658.965565
1008.754869,-3034.844362,919.314598,10510.924376
1008.755199,-2664.741391,766.095498,10140.821405
1008.755528,-1924.535449,919.314598,9104.533087
1008.755858,-1184.329507,-689.485948,7105.977043
1008.756187,-148.041188,-1532.190996,6291.750507
1008.756517,-370.102971,-1072.533697,7328.038826
1008.756846,-1554.432478,0.000000,8586.388927
1008.757176,-2812.782580,0.000000,8956.491898
1008.757505,-3701.029710,0.000000,8956.491898
1008.757835,-2738.761985,76.609550,10140.821405
1008.758164,-1184.329507,612.876398,10955.047942
1008.758494,592.164754,383.047749,10436.903782
1008.758823,1776.494261,0.000000,9770.718434
1008.759153,814.226536,0.000000,10140.821405
1008.759483,-814.226536,1072.533697,11769.274478
1008.759812,-2516.700203,2068.457845,12139.377449
1008.760142,-3923.091493,1915.238745,11621.233289
1008.760471,-3701.029710,612.876398,11547.212695
1008.760801,-2294.638420,306.438199,10955.047942
1008.761130,-592.164754,-1225.752797,9326.594869
1008.761460,0.000000,-2604.724693,7105.977043
1008.761789,0.000000,-1991.848295,6661.853478
1008.762119,-592.164754,76.609550,7772.162391
1008.762448,-444.123565,1685.410096,8364.327145
1008.762778,-962.267725,2451.505594,8512.368333
1008.763107,-444.123565,2374.896044,8808.450710
1008.763437,296.082377,1915.238745,10066.800811
1008.763766,888.247130,2068.457845,10584.944971
1008.764096,1406.391290,2145.067394,9770.718434
1008.764425,1110.308913,1378.971896,9992.780217
1008.764755,1110.308913,1149.143247,11547.212695
1008.765084,-518.144159,2451.505594,11843.295072
1008.765414,-1850.514855,2911.162892,9992.780217
1008.765743,-1406.391290,2221.676944,8512.368333
1008.766073,-740.205942,2604.724693,7994.224174
1008.766402,0.000000,2374.896044,7328.038826
1008.766732,518.144159,229.828649,7031.956449
1008.767061,0.000000,306.438199,7476.080014
1008.767391,-1850.514855,1915.238745,8068.244768
1008.767720,-2516.700203,1302.362347,9178.553681
1008.768050,-2812.782580,842.705048,9474.636058
1008.768379,-2516.700203,919.314598,9622.677246
1008.768709,-1332.370696,76.609550,10140.821405
1008.769038,-296.082377,536.266849,10214.842000
1008.769368,740.205942,2451.505594,9400.615463
1008.769697,1184.329507,1915.238745,9178.553681
1008.770027,1332.370696,842.705048,10510.924376
1008.770356,-148.041188,3370.820191,11917.315666
1008.770686,-1998.556043,4596.572988,11177.109724
1008.771015,-2590.720797,2451.505594,9696.697840
1008.771345,-2294.638420,1378.971896,10214.842000
1008.771674,-2368.659014,536.266849,10807.006753
1008.772004,-1776.494261,-536.266849,9548.656652
1008.772333,-1406.391290,-2068.457845,7772.162391
1008.772663,-1332.370696,-2451.505594,7698.141797
1008.772992,-2442.679609,-1225.752797,8734.430116
1008.773322,-4071.132681,0.000000,9326.594869
1008.773651,-3627.009116,229.828649,9474.636058
1008.773981,-2590.720797,612.876398,10066.800811
1008.774310,-1480.411884,1149.143247,10584.944971
1008.774640,-962.267725,1762.019645,9548.656652
1008.774969,-296.082377,0.000000,8290.306550
1008.775299,740.205942,0.000000,8808.450710
1008.775628,962.267725,919.314598,10807.006753
1008.775958,-740.205942,1225.752797,11769.274478
1008.776287,-2886.803174,1455.581446,10807.006753
1008.776617,-3997.112087,919.314598,10584.944971
1008.776946,-3256.906145,0.000000,11029.068536
1008.777276,-1554.432478,-76.609550,11251.130318
1008.777606,-296.082377,-536.266849,9178.553681
1008.777935,222.061783,-1762.019645,7105.977043
1008.778265,222.061783,-2068.457845,7031.956449
1008.778594,-370.102971,-229.828649,8364.327145
1008.778924,-1110.308913,1532.190996,8512.368333
1008.779253,-1184.329507,1838.629195,8586.388927
1008.779583,-148.041188,2068.457845,9696.697840
1008.779912,888.247130,2528.115143,10436.903782
1008.780242,1258.350101,2145.067394,9474.636058
1008.780571,1258.350101,612.876398,8734.430116
1008.780901,222.061783,1302.362347,10732.986159
1008.781230,-2294.638420,3524.039291,12731.542202
1008.781560,-4663.297435,3677.258390,12139.377449
1008.781889,-5773.606348,2681.334243,10658.965565
1008.782219,-4811.338623,1915.238745,9400.615463
1008.782548,-3404.947333,842.705048,8290.306550
1008.782878,-1406.391290,0.000000,7031.956449
1008.783207,-518.144159,-536.266849,5625.565159
1008.783537,0.000000,0.000000,6143.709319
1008.783866,-1776.494261,1455.581446,7846.182985
1008.784196,-3478.967927,2604.724693,9548.656652
1008.784525,-4737.318029,3370.820191,10288.862594
1008.784855,-4885.359217,2604.724693,10510.924376
1008.785184,-4293.194464,2068.457845,10732.986159
1008.785514,-2442.679609,1685.410096,10214.842000
1008.785843,-1480.411884,76.609550,8882.471304
1008.786173,-1036.288319,229.828649,8142.265362
1008.786502,-1036.288319,1455.581446,9992.780217
1008.786832,-1998.556043,2451.505594,11621.233289
1008.787161,-4219.173869,2757.943793,11399.171507
1008.787491,-6957.935855,3064.381992,10436.903782
1008.787820,-7179.997637,2298.286494,10436.903782
1008.788150,-6365.771101,689.485948,10807.006753
1008.788479,-5699.585753,-459.657299,8808.450710
1008.788809,-5403.503377,-1302.362347,6661.853478
1008.789138,-4515.256246,-3524.039291,6365.771101
1008.789468,-3627.009116,-1838.629195,7624.121203
1008.789797,-3256.906145,0.000000,9030.512492
1008.790127,-4367.215058,-306.438199,9400.615463
1008.790456,-5329.482782,1608.800546,9770.718434
1008.790786,-5625.565159,2604.724693,11251.130318
1008.791115,-4885.359217,2834.553343,12139.377449
1008.791445,-3627.009116,2068.457845,11029.068536
1008.791774,-2960.823768,842.705048,8512.368333
1008.792104,-1998.556043,-612.876398,7624.121203
1008.792433,-370.102971,-1685.410096,9474.636058
1008.792763,-592.164754,-612.876398,11843.295072
1008.793092,-3034.844362,536.266849,12213.398043
1008.793422,-7179.997637,2145.067394,10732.986159
1008.793751,-9252.574275,2221.676944,9992.780217
1008.794081,-7254.018232,306.438199,10510.924376
1008.794410,-4811.338623,-1991.848295,11325.150913
1008.794740,-4367.215058,-1991.848295,9400.615463
1008.795069,-3849.070898,-1225.752797,6809.894666
1008.795399,-2368.659014,-1685.410096,5033.400406
1008.795729,740.205942,-1608.800546,5477.523971
1008.796058,2072.576638,-153.219100,7624.121203
1008.796388,1110.308913,1915.238745,9326.594869
1008.796717,-1110.308913,3677.258390,10955.047942
1008.797047,-4367.215058,5362.668486,12583.501014
1008.797376,-7031.956449,5362.668486,13767.830521
1008.797706,-8660.409521,4060.306139,13471.748144
1008.798035,-8438.347739,1991.848295,11769.274478
1008.798365,-6365.771101,-153.219100,8512.368333
1008.798694,-3034.844362,-2221.676944,6661.853478
1008.799024,-1332.370696,-2757.943793,5403.503377
1008.799353,-814.226536,-689.485948,5181.441594
1008.799683,-666.185348,1302.362347,5995.668130
1008.800012,-592.164754,4213.525239,8438.347739
1008.800342,-1184.329507,5975.544884,10510.924376
1008.800671,-3404.947333,4903.011187,11399.171507
1008.801001,-6143.709319,2757.943793,12213.398043
1008.801330,-9178.553681,2451.505594,12731.542202
1008.801660,-10510.924376,1991.848295,12731.542202
1008.801989,-9770.718434,0.000000,11029.068536
1008.802319,-8068.244768,-2451.505594,8216.285956
1008.802648,-4811.338623,-3294.210641,6291.750507
1008.802978,-370.102971,-3294.210641,6069.688724
1008.803307,3108.864956,-459.657299,6217.729913
1008.803637,4589.276840,3753.867940,6883.915261
1008.803966,4071.132681,6281.983084,8216.285956
1008.804296,2072.576638,8273.831378,11177.109724
1008.804625,-444.123565,8503.660028,12731.542202
1008.804955,-3997.112087,7201.297681,12731.542202
1008.805284,-7328.038826,2451.505594,13027.624579
1008.805614,-10140.821405,-1455.581446,13693.809927
1008.805943,-12805.562797,-4136.915689,13323.706956
1008.806273,-12953.603985,-5362.668486,10214.842000
1008.806602,-10658.965565,-6588.421283,5995.668130
1008.806932,-6587.832884,-6052.154434,3849.070898
1008.807261,-1628.453072,-4443.353888,3256.906145
1008.807591,1332.370696,-1455.581446,4959.379811
1008.807920,2368.659014,2834.553343,7031.956449
1008.808250,1776.494261,7890.783629,9548.656652
1008.808579,-222.061783,9882.631924,11103.089130
1008.808909,-2664.741391,8580.269578,12435.459826
1008.809238,-4959.379811,3983.696590,13027.624579
1008.809568,-7031.956449,-229.828649,12361.439231
1008.809897,-9326.594869,-2834.553343,11695.253884
1008.810227,-10436.903782,-5362.668486,11547.212695
1008.810556,-10140.821405,-6665.030833,11251.130318
1008.810886,-8438.347739,-5822.325785,9696.697840
1008.811215,-4959.379811,-4136.915689,7550.100608
1008.811545,-962.267725,-1762.019645,5773.606348
1008.811874,2368.659014,1072.533697,6661.853478
1008.812204,3627.009116,4443.353888,8734.430116
1008.812533,1998.556043,6358.592633,9844.739029
1008.812863,-370.102971,6435.202183,11695.253884
1008.813192,-2886.803174,5286.058936,13323.706956
1008.813522,-6217.729913,2528.115143,14137.933492
1008.813852,-9030.512492,536.266849,12657.521608
1008.814181,-9400.615463,-2757.943793,9844.739029
1008.814511,-7254.018232,-5975.544884,7772.162391
1008.814840,-4441.235652,-5286.058936,7105.977043
1008.815170,-2664.741391,-2068.457845,6365.771101
1008.815499,-1184.329507,0.000000,6291.750507
1008.815829,-592.164754,3677.258390,7105.977043
1008.816158,-740.205942,7431.126331,8882.471304
1008.816488,-740.205942,8810.098227,10584.944971
1008.816817,-1850.514855,8503.660028,11325.150913
1008.817147,-3849.070898,5822.325785,11769.274478
1008.817476,-5181.441594,2681.334243,11917.315666
1008.817806,-6587.832884,459.657299,11769.274478
1008.818135,-8290.306550,-995.924147,10066.800811
1008.818465,-8512.368333,-2451.505594,8142.265362
1008.818794,-6143.709319,-2298.286494,7550.100608
1008.819124,-2516.700203,0.000000,6809.894666
1008.819453,222.061783,1072.533697,6291.750507
1008.819783,1628.453072,2987.772442,6661.853478
1008.820112,1406.391290,6358.592633,7254.018232
1008.820442,0.000000,7584.345430,9252.574275
1008.820771,-1036.288319,7660.954980,11029.068536
1008.821101,-2590.720797,6435.202183,11917.315666
1008.821430,-3701.029710,4443.353888,11251.130318
1008.821760,-3552.988522,1608.800546,10140.821405
1008.822089,-3256.906145,-536.266849,9400.615463
1008.822419,-3182.885551,-1608.800546,8586.388927
1008.822748,-3256.906145,-536.266849,8364.327145
1008.823078,-3108.864956,1685.410096,8882.471304
1008.823407,-3108.864956,3064.381992,9770.718434
1008.823737,-2738.761985,4519.963438,9992.780217
1008.824066,-2294.638420,5898.935335,10436.903782
1008.824396,-1998.556043,5286.058936,10288.862594
1008.824725,-1776.494261,4826.401637,10214.842000
1008.825055,-1850.514855,3907.087040,10658.965565
1008.825384,-1406.391290,3064.381992,10288.862594
1008.825714,-1480.411884,2221.676944,9400.615463
1008.826044,-1480.411884,1455.581446,9104.533087
1008.826373,-1184.329507,2221.676944,9548.656652
1008.826703,-740.205942,3140.991542,10584.944971
1008.827032,-1184.329507,5132.839837,10658.965565
1008.827362,-2294.638420,6741.640382,10288.862594
1008.827691,-2664.741391,6358.592633,9992.780217
1008.828021,-2664.741391,5898.935335,9104.533087
1008.828350,-2294.638420,5132.839837,8364.327145
1008.828680,-1554.432478,3370.820191,6809.894666
1008.829009,-962.267725,1532.190996,5699.585753
1008.829339,-370.102971,612.876398,5477.523971
1008.829669,-962.267725,1072.533697,7031.956449
1008.829998,-1998.556043,2221.676944,8512.368333
1008.830328,-2516.700203,3600.648841,9178.553681
1008.830657,-2960.823768,5132.839837,10140.821405
1008.830987,-2812.782580,5592.497135,11251.130318
1008.831316,-1998.556043,5975.544884,11251.130318
1008.831646,-814.226536,5745.716235,10807.006753
1008.831975,0.000000,4979.620737,10362.883188
1008.832305,-296.082377,4673.182538,9770.718434
1008.832634,-222.061783,4213.525239,9474.636058
1008.832964,-444.123565,3447.429741,8956.491898
1008.833294,-148.041188,2681.334243,8734.430116
1008.833623,666.185348,2834.553343,8808.450710
1008.833953,592.164754,2451.505594,9252.574275
1008.834282,222.061783,2681.334243,9918.759623
1008.834612,-1628.453072,3677.258390,10584.944971
1008.834941,-2738.761985,4903.011187,11177.109724
1008.835271,-2368.659014,5362.668486,11695.253884
1008.835600,-1406.391290,4903.011187,11547.212695
1008.835930,-814.226536,5286.058936,10510.924376
1008.836259,-370.102971,4903.011187,9770.718434
1008.836589,-296.082377,5132.839837,9474.636058
1008.836918,370.102971,5898.935335,9474.636058
1008.837248,592.164754,5745.716235,8882.471304
1008.837578,444.123565,4979.620737,7698.141797
1008.837907,0.000000,4060.306139,6439.791695
1008.838237,-296.082377,2298.286494,6439.791695
1008.838566,-962.267725,1378.971896,7476.080014
1008.838896,-2294.638420,1378.971896,8660.409521
1008.839225,-3849.070898,2757.943793,9548.656652
1008.839555,-4293.194464,3983.696590,10140.821405
1008.839884,-3330.926739,3830.477490,10658.965565
1008.840214,-2294.638420,4826.401637,10955.047942
1008.840543,-1480.411884,5822.325785,10362.883188
1008.840873,-296.082377,6511.811733,9696.697840
1008.841203,518.144159,6588.421283,9178.553681
1008.841532,1110.308913,5975.544884,9030.512492
1008.841862,0.000000,5592.497135,8290.306550
1008.842191,-888.247130,4519.963438,7402.059420
1008.842521,-1406.391290,2451.505594,6587.832884
1008.842850,-1184.329507,459.657299,6735.874072
1008.843180,-962.267725,-229.828649,7105.977043
1008.843509,-1702.473667,-689.485948,7920.203579
1008.843839,-1776.494261,-459.657299,9474.636058
1008.844168,-1702.473667,1455.581446,11473.192101
1008.844498,-1406.391290,4136.915689,12953.603985
1008.844828,-1036.288319,5822.325785,13249.686362
1008.845157,-370.102971,6128.763984,13323.706956
1008.845487,0.000000,6588.421283,13101.645173
1008.845816,222.061783,6358.592633,12139.377449
1008.846146,-222.061783,5209.449386,10584.944971
1008.846475,-444.123565,3983.696590,9252.574275
1008.846805,-1036.288319,2068.457845,8216.285956
1008.847134,-2146.597232,1838.629195,7698.141797
1008.847464,-2368.659014,1455.581446,7550.100608
1008.847793,-1850.514855,1072.533697,7328.038826
1008.848123,-666.185348,919.314598,6883.915261
1008.848452,-148.041188,1455.581446,8364.327145
1008.848782,222.061783,2681.334243,9844.739029
1008.849112,0.000000,4443.353888,10881.027347
1008.849441,-888.247130,6052.154434,11251.130318
1008.849771,-1184.329507,7507.735880,11695.253884
1008.850100,-962.267725,7584.345430,12287.418637
1008.850430,-888.247130,6971.469032,12287.418637
1008.850759,-2146.597232,6741.640382,10732.986159
1008.851089,-2886.803174,6052.154434,7846.182985
1008.851418,-2072.576638,4596.572988,5033.400406
1008.851748,740.205942,3447.429741,3552.988522
1008.852077,3182.885551,1915.238745,3775.050304
1008.852407,3108.864956,2068.457845,4293.194464
1008.852737,1332.370696,2451.505594,5551.544565
1008.853066,-1480.411884,4366.744339,8142.265362
1008.853396,-3997.112087,6435.202183,11473.192101
1008.853725,-5551.544565,7277.907231,14063.912898
1008.854055,-5921.647536,6281.983084,15322.262999
1008.854384,-5551.544565,4826.401637,14211.954086
1008.854714,-5107.421000,4290.134789,12361.439231
1008.855043,-3775.050304,3064.381992,9844.739029
1008.855373,-1406.391290,2221.676944,8068.244768
1008.855702,2072.576638,1302.362347,5477.523971
1008.856032,4885.359217,2221.676944,4367.215058
1008.856362,6365.771101,2604.724693,4441.235652
1008.856691,5699.585753,4060.306139,6587.832884
1008.857021,2664.741391,4673.182538,8438.347739
1008.857350,-1406.391290,6205.373534,12065.356855
1008.857680,-4293.194464,7201.297681,14582.057057
1008.858009,-5181.441594,5286.058936,15322.262999
1008.858339,-5107.421000,1762.019645,13767.830521
1008.858668,-3627.009116,-2145.067394,10732.986159
1008.858998,-2072.576638,-2987.772442,7476.080014
1008.859327,-1036.288319,-2528.115143,6439.791695
1008.859657,-148.041188,0.000000,7550.100608
1008.859986,0.000000,2757.943793,9178.553681
1008.860316,0.000000,3830.477490,8956.491898
1008.860646,0.000000,4519.963438,7698.141797
1008.860975,-222.061783,3064.381992,8290.306550
1008.861305,0.000000,1378.971896,10066.800811
1008.861634,-1036.288319,1685.410096,12213.398043
1008.861964,-2368.659014,1685.410096,12805.562797
1008.862293,-3256.906145,995.924147,12435.459826
1008.862623,-2960.823768,0.000000,11695.253884
1008.862952,-2812.782580,-153.219100,9992.780217
1008.863282,-1628.453072,-1225.752797,7254.018232
1008.863611,370.102971,-2757.943793,5773.606348
1008.863941,2220.617826,-2528.115143,5551.544565
1008.864271,2516.700203,-536.266849,5921.647536
1008.864600,2072.576638,229.828649,7846.182985
1008.864930,814.226536,1838.629195,10066.800811
1008.865259,-888.247130,3140.991542,12953.603985
1008.865589,-2146.597232,4749.792088,14952.160028
1008.865918,-3775.050304,5439.278036,14508.036463
1008.866248,-3775.050304,3064.381992,12435.459826
1008.866577,-2664.741391,-459.657299,9696.697840
1008.866907,-962.267725,-2604.724693,7994.224174
1008.867236,0.000000,-2451.505594,6883.915261
1008.867566,222.061783,-383.047749,6661.853478
1008.867896,222.061783,1225.752797,7402.059420
1008.868225,-370.102971,2604.724693,9030.512492
1008.868555,-1332.370696,3830.477490,9696.697840
1008.868884,-1776.494261,4443.353888,9622.677246
1008.869214,-1258.350101,2911.162892,9252.574275
1008.869543,-74.020594,1532.190996,10140.821405
1008.869873,0.000000,766.095498,11251.130318
1008.870202,-666.185348,919.314598,11843.295072
1008.870532,-1480.411884,2451.505594,11695.253884
1008.870861,-2220.617826,3983.696590,11029.068536
1008.871191,-1554.432478,4443.353888,10140.821405
1008.871520,-1258.350101,3294.210641,7772.162391
1008.871850,-370.102971,2374.896044,5773.606348
1008.872180,888.247130,1378.971896,5255.462188
1008.872509,814.226536,1915.238745,6217.729913
1008.872839,0.000000,2757.943793,6809.894666
1008.873168,-1702.473667,2757.943793,7772.162391
1008.873498,-1776.494261,2451.505594,9770.718434
1008.873827,-2368.659014,3753.867940,11029.068536
1008.874157,-2590.720797,3830.477490,10584.944971
1008.874486,-2146.597232,1378.971896,8512.368333
1008.874816,-1628.453072,-919.314598,7254.018232
1008.875145,-740.205942,-2221.676944,8364.327145
1008.875475,-518.144159,-1072.533697,9474.636058
1008.875805,-888.247130,306.438199,9696.697840
1008.876134,-1184.329507,1378.971896,9918.759623
1008.876464,-1332.370696,1532.190996,10807.006753
1008.876793,-814.226536,2528.115143,12509.480420
1008.877123,-666.185348,2834.553343,11843.295072
1008.877452,0.000000,1149.143247,10140.821405
1008.877782,296.082377,-383.047749,9696.697840
1008.878111,518.144159,-995.924147,10510.924376
1008.878441,-296.082377,-842.705048,10881.027347
1008.878770,-1110.308913,-459.657299,10436.903782
1008.879100,-1702.473667,-766.095498,10214.842000
1008.879430,-2220.617826,-612.876398,10140.821405
1008.879759,-2664.741391,-1072.533697,9178.553681
1008.880089,-1998.556043,-2987.772442,7550.100608
1008.880418,-296.082377,-3753.867940,7772.162391
1008.880748,222.061783,-2681.334243,8512.368333
1008.881077,444.123565,-919.314598,10066.800811
1008.881407,296.082377,536.266849,11177.109724
1008.881736,-962.267725,2145.067394,12435.459826
1008.882066,-1628.453072,2911.162892,12731.542202
1008.882395,-2072.576638,3447.429741,11843.295072
1008.882725,-1554.432478,1225.752797,9548.656652
1008.883054,-370.102971,-1762.019645,8216.285956
1008.883384,-148.041188,-2451.505594,7624.121203
1008.883714,0.000000,-2528.115143,7846.182985
1008.884043,-1184.329507,-919.314598,8142.265362
1008.884373,-1776.494261,536.266849,8808.450710
1008.884702,-1850.514855,1685.410096,9474.636058
1008.885032,-1702.473667,2068.457845,9104.533087
1008.885361,-592.164754,1072.533697,7846.182985
1008.885691,814.226536,0.000000,8068.244768
1008.886020,1480.411884,0.000000,9326.594869
1008.886350,222.061783,1149.143247,10436.903782
1008.886679,-962.267725,2298.286494,11029.068536
1008.887009,-1406.391290,2374.896044,11177.109724
1008.887339,-1924.535449,3907.087040,11695.253884
1008.887668,-2368.659014,4290.134789,11399.171507
1008.887998,-1924.535449,3064.381992,9548.656652
1008.888327,-888.247130,1378.971896,7698.141797
1008.888657,0.000000,153.219100,7846.182985
1008.888986,-148.041188,1915.238745,8882.471304
1008.889316,-1554.432478,3294.210641,8956.491898
1008.889645,-2368.659014,3753.867940,8956.491898
1008.889975,-2590.720797,3294.210641,9696.697840
1008.890304,-2960.823768,3370.820191,10066.800811
1008.890634,-1850.514855,2604.724693,8586.388927
1008.890964,-1480.411884,612.876398,6513.812290
1008.891293,-740.205942,-1225.752797,6143.709319
1008.891623,0.000000,-919.314598,7550.100608
1008.891952,0.000000,1149.143247,9178.553681
1008.892282,-296.082377,3677.258390,10214.842000
1008.892611,-296.082377,4903.011187,10955.047942
1008.892941,-296.082377,4979.620737,10807.006753
1008.893270,0.000000,4060.306139,9844.739029
1008.893600,888.247130,2528.115143,8808.450710
1008.893929,1036.288319,919.314598,8586.388927
1008.894259,740.205942,919.314598,9030.512492
1008.894588,-962.267725,1072.533697,9252.574275
1008.894918,-2146.597232,-306.438199,9104.533087
1008.895248,-2812.782580,-842.705048,9400.615463
1008.895577,-2960.823768,0.000000,10362.883188
1008.895907,-3108.864956,0.000000,9178.553681
1008.896236,-2294.638420,-2604.724693,7846.182985
1008.896566,-962.267725,-4060.306139,7698.141797
1008.896895,-370.102971,-3447.429741,9252.574275
1008.897225,-592.164754,-1608.800546,10362.883188
1008.897554,-370.102971,383.047749,11769.274478
1008.897884,-370.102971,1532.190996,12065.356855
1008.898213,-518.144159,919.314598,13101.645173
1008.898543,-888.247130,995.924147,13175.665768
1008.898873,-1036.288319,-153.219100,11769.274478
1008.899202,-370.102971,-1685.410096,9770.718434
1008.899532,518.144159,-2987.772442,9474.636058
1008.899861,444.123565,-3217.601092,10362.883188
1008.900191,-296.082377,-2451.505594,10362.883188
1008.900520,-1406.391290,-1149.143247,10288.862594
1008.900850,-1628.453072,229.828649,9918.759623
1008.901179,-1480.411884,1532.190996,9992.780217
1008.901509,-592.164754,229.828649,8364.327145
1008.901838,74.020594,-1608.800546,6661.853478
1008.902168,370.102971,-2451.505594,6587.832884
1008.902498,0.000000,-1608.800546,8512.368333
1008.902827,-1110.308913,612.876398,9992.780217
1008.903157,-2664.741391,1378.971896,10881.027347
1008.903486,-3108.864956,1991.848295,11399.171507
1008.903816,-3034.844362,2987.772442,10955.047942
1008.904145,-2220.617826,1915.238745,9548.656652
1008.904475,-666.185348,536.266849,7772.162391
1008.904804,592.164754,0.000000,7550.100608
1008.905134,666.185348,689.485948,8068.244768
1008.905463,0.000000,2451.505594,8364.327145
1008.905793,-518.144159,3217.601092,8956.491898
1008.906122,-1036.288319,4136.915689,9622.677246
1008.906452,-1406.391290,3600.648841,9474.636058
1008.906782,-1554.432478,3140.991542,8808.450710
1008.907111,-814.226536,1072.533697,7550.100608
1008.907441,370.102971,-1455.581446,7031.956449
1008.907770,666.185348,-1838.629195,8216.285956
1008.908100,-518.144159,536.266849,9918.759623
1008.908429,-1702.473667,2681.334243,10807.006753
1008.908759,-1924.535449,3524.039291,11473.192101
1008.909088,-1998.556043,4903.011187,12435.459826
1008.909418,-1628.453072,4749.792088,11473.192101
1008.909747,-962.267725,3370.820191,9326.594869
1008.910077,370.102971,995.924147,8364.327145
1008.910407,888.247130,-153.219100,8956.491898
1008.910736,-444.123565,612.876398,9474.636058
1008.911066,-2368.659014,1991.848295,9844.739029
1008.911395,-2960.823768,1608.800546,10066.800811
1008.911725,-2960.823768,1455.581446,9992.780217
1008.912054,-2960.823768,1608.800546,9992.780217
1008.912384,-1924.535449,76.609550,8216.285956
1008.912713,-814.226536,-2451.505594,6883.915261
1008.913043,0.000000,-2834.553343,7179.997637
1008.913372,444.123565,-1302.362347,8956.491898
1008.913702,74.020594,229.828649,10214.842000
1008.914032,-370.102971,1915.238745,10658.965565
1008.914361,-370.102971,2604.724693,11547.212695
1008.914691,-814.226536,2221.676944,12065.356855
1008.915020,-222.061783,995.924147,10658.965565
1008.915350,-740.205942,-383.047749,8956.491898
1008.915679,0.000000,-2298.286494,8364.327145
1008.916009,296.082377,-3064.381992,9326.594869
1008.916338,-296.082377,-1762.019645,10140.821405
1008.916668,-1776.494261,-766.095498,9474.636058
1008.916997,-1554.432478,-383.047749,9178.553681
1008.917327,-1850.514855,229.828649,9918.759623
1008.917656,-1480.411884,1302.362347,9918.759623
1008.917986,-370.102971,229.828649,8512.368333
1008.918316,666.185348,-2451.505594,6957.935855
1008.918645,1036.288319,-2987.772442,7105.977043
1008.918975,0.000000,-1991.848295,9992.780217
1008.919304,-1332.370696,76.609550,12065.356855
1008.919634,-2960.823768,1991.848295,12953.603985
1008.919963,-3775.050304,3217.601092,13175.665768
1008.920293,-3552.988522,2834.553343,11843.295072
1008.920622,-1776.494261,536.266849,9992.780217
1008.920952,-148.041188,-1378.971896,8660.409521
1008.921281,888.247130,-1685.410096,8438.347739
1008.921611,0.000000,153.219100,8512.368333
1008.921941,-1110.308913,2451.505594,9252.574275
1008.922270,-1332.370696,2145.067394,10288.862594
1008.922600,-1850.514855,3830.477490,10881.027347
1008.922929,-1628.453072,4290.134789,10140.821405
1008.923259,-962.267725,2451.505594,7846.182985
1008.923588,148.041188,-306.438199,6365.771101
1008.923918,518.144159,-2068.457845,7254.018232
1008.924247,0.000000,0.000000,8734.430116
1008.924577,-1480.411884,2145.067394,9400.615463
1008.924906,-2368.659014,2757.943793,9622.677246
1008.925236,-2368.659014,4213.525239,11251.130318
1008.925566,-2146.597232,5745.716235,11251.130318
1008.925895,-1924.535449,4290.134789,8586.388927
1008.926225,-370.102971,995.924147,6365.771101
1008.926554,962.267725,-766.095498,6587.832884
1008.926884,370.102971,76.609550,8068.244768
1008.927214,-1258.350101,1608.800546,9252.574275
1008.927543,-2516.700203,2834.553343,9474.636058
1008.927873,-2738.761985,2834.553343,9992.780217
1008.928202,-2738.761985,3294.210641,10658.965565
1008.928532,-1850.514855,1378.971896,9770.718434
1008.928862,-888.247130,-1149.143247,7624.121203
1008.929191,0.000000,-3294.210641,6883.915261
1008.929521,0.000000,-1838.629195,7920.203579
1008.929851,-148.041188,0.000000,10066.800811
1008.930180,-592.164754,842.705048,11177.109724
1008.930510,-1110.308913,1915.238745,12139.377449
1008.930839,-1036.288319,2911.162892,12879.583391
1008.931169,-1184.329507,2068.457845,12065.356855
1008.931499,-962.267725,306.438199,10214.842000
1008.931828,-296.082377,-1762.019645,9178.553681
1008.932158,0.000000,-2911.162892,9548.656652
1008.932488,-222.061783,-1072.533697,11029.068536
1008.932817,-1036.288319,383.047749,11473.192101
1008.933147,-1776.494261,689.485948,11029.068536
1008.933477,-2072.576638,842.705048,10436.903782
1008.933806,-1628.453072,995.924147,9622.677246
1008.934136,0.000000,153.219100,8438.347739
1008.934465,740.205942,-2298.286494,7254.018232
1008.934795,888.247130,-2221.676944,7698.141797
1008.935125,0.000000,-689.485948,9474.636058
1008.935454,-1480.411884,612.876398,10881.027347
1008.935784,-2738.761985,2374.896044,11621.233289
1008.936114,-2812.782580,3600.648841,11843.295072
1008.936443,-3330.926739,2528.115143,10881.027347
1008.936773,-2442.679609,1225.752797,9104.533087
1008.937103,-1258.350101,-306.438199,7105.977043
1008.937432,0.000000,-1685.410096,6883.915261
1008.937762,0.000000,0.000000,7772.162391
1008.938091,-1036.288319,2528.115143,8734.430116
1008.938421,-1406.391290,4443.353888,9400.615463
1008.938751,-1110.308913,4290.134789,9178.553681
1008.939080,-1184.329507,3600.648841,8216.285956
1008.939410,-518.144159,2451.505594,7328.038826
1008.939740,370.102971,536.266849,6587.832884
1008.940069,666.185348,-383.047749,7179.997637
1008.940399,74.020594,766.095498,9030.512492
1008.940729,-888.247130,2068.457845,10140.821405
1008.941058,-1850.514855,3217.601092,10807.006753
1008.941388,-2220.617826,4213.525239,11917.315666
1008.941717,-2516.700203,3753.867940,11917.315666
1008.942047,-2294.638420,3600.648841,10732.986159
1008.942377,-1628.453072,2145.067394,8882.471304
1008.942706,-518.144159,766.095498,8586.388927
1008.943036,-296.082377,612.876398,8956.491898
1008.943366,-962.267725,1532.190996,9622.677246
1008.943695,-1998.556043,2451.505594,10140.821405
1008.944025,-2368.659014,2451.505594,10436.903782
1008.944355,-2368.659014,2604.724693,10955.047942
1008.944684,-1850.514855,1762.019645,10140.821405
1008.945014,-1036.288319,0.000000,8956.491898
1008.945343,-814.226536,-995.924147,8068.244768
1008.945673,-370.102971,-1455.581446,8808.450710
1008.946003,-296.082377,0.000000,9770.718434
1008.946332,-518.144159,1225.752797,10510.924376
1008.946662,-888.247130,1762.019645,10584.944971
1008.946992,-518.144159,2451.505594,10881.027347
1008.947321,-814.226536,2145.067394,10658.965565
1008.947651,-962.267725,919.314598,8882.471304
1008.947981,-592.164754,-612.876398,7920.203579
1008.948310,0.000000,-1608.800546,8734.430116
1008.948640,-444.123565,-1225.752797,9252.574275
1008.948969,-1702.473667,0.000000,9548.656652
1008.949299,-2146.597232,0.000000,9400.615463
1008.949629,-1924.535449,153.219100,9770.718434
1008.949958,-1702.473667,1149.143247,9844.739029
1008.950288,-1036.288319,689.485948,9030.512492
1008.950618,74.020594,-1532.190996,7402.059420
1008.950947,592.164754,-2451.505594,7698.141797
1008.951277,296.082377,-919.314598,9252.574275
1008.951607,0.000000,229.828649,10955.047942
1008.951936,-1258.350101,1838.629195,11769.274478
1008.952266,-1998.556043,2681.334243,11843.295072
1008.952595,-2738.761985,2451.505594,11843.295072
1008.952925,-2442.679609,1378.971896,11325.150913
1008.953255,-1258.350101,536.266849,9844.739029
1008.953584,0.000000,-153.219100,9252.574275
1008.953914,0.000000,-995.924147,8660.409521
1008.954244,-1184.329507,1149.143247,9252.574275
1008.954573,-1258.350101,2681.334243,9474.636058
1008.954903,-1554.432478,3447.429741,9770.718434
1008.955233,-1628.453072,3753.867940,9992.780217
1008.955562,-888.247130,3217.601092,9548.656652
1008.955892,-370.102971,1608.800546,8290.306550
1008.956221,0.000000,0.000000,7254.018232
1008.956551,0.000000,-612.876398,8290.306550
1008.956881,-666.185348,919.314598,10214.842000
1008.957210,-1554.432478,3983.696590,10955.047942
1008.957540,-2738.761985,4596.572988,11029.068536
1008.957870,-2516.700203,4673.182538,10881.027347
1008.958199,-2146.597232,4673.182538,9992.780217
1008.958529,-1258.350101,3217.601092,7994.224174
1008.958859,0.000000,1378.971896,6217.729913
1008.959188,518.144159,76.609550,6883.915261
1008.959518,-814.226536,1762.019645,7772.162391
1008.959847,-2368.659014,2528.115143,8068.244768
1008.960177,-2664.741391,2068.457845,8882.471304
1008.960507,-2442.679609,1762.019645,9992.780217
1008.960836,-2368.659014,3140.991542,9918.759623
1008.961166,-2146.597232,1838.629195,8364.327145
1008.961496,-592.164754,-1302.362347,7105.977043
1008.961825,666.185348,-2451.505594,7550.100608
1008.962155,888.247130,-1149.143247,9326.594869
1008.962485,-148.041188,2145.067394,10584.944971
1008.962814,-444.123565,3294.210641,10955.047942
1008.963144,-666.185348,3370.820191,11103.089130
1008.963473,-666.185348,1915.238745,11547.212695
1008.963803,-444.123565,383.047749,11547.212695
1008.964133,-444.123565,153.219100,9918.759623
1008.964462,-222.061783,-1915.238745,9030.512492
1008.964792,-814.226536,-2451.505594,9326.594869
1008.965122,-1406.391290,-1762.019645,10436.903782
1008.965451,-2368.659014,-919.314598,11399.171507
1008.965781,-3330.926739,766.095498,11547.212695
1008.966111,-2886.803174,1532.190996,10955.047942
1008.966440,-1924.535449,766.095498,9622.677246
1008.966770,-296.082377,-1532.190996,8142.265362
1008.967099,888.247130,-3524.039291,7624.121203
1008.967429,1036.288319,-2987.772442,8808.450710
1008.967759,-444.123565,-766.095498,10436.903782
1008.968088,-1850.514855,1608.800546,11843.295072
1008.968418,-2368.659014,2757.943793,12731.542202
1008.968748,-2516.700203,3064.381992,12731.542202
1008.969077,-1850.514855,2374.896044,11103.089130
1008.969407,-296.082377,1455.581446,8512.368333
1008.969737,666.185348,-689.485948,7328.038826
1008.970066,592.164754,-1378.971896,7328.038826
1008.970396,-962.267725,0.000000,8068.244768
1008.970725,-1998.556043,2221.676944,8956.491898
1008.971055,-1924.535449,3064.381992,9326.594869
1008.971385,-2368.659014,3677.258390,9400.615463
1008.971714,-2590.720797,2757.943793,8808.450710
1008.972044,-1554.432478,995.924147,6883.915261
1008.972374,0.000000,-1225.752797,6365.771101
1008.972703,888.247130,-1149.143247,7328.038826
1008.973033,-296.082377,1225.752797,8660.409521
1008.973363,-1184.329507,3217.601092,10510.924376
1008.973692,-1924.535449,4443.353888,11621.233289
1008.974022,-1998.556043,5439.278036,11843.295072
1008.974351,-1480.411884,5362.668486,11843.295072
1008.974681,-740.205942,4826.401637,9844.739029
1008.975011,444.123565,1762.019645,7476.080014
1008.975340,1036.288319,-383.047749,7254.018232
1008.975670,518.144159,-306.438199,7994.224174
1008.976000,-1110.308913,1455.581446,9252.574275
1008.976329,-2220.617826,2911.162892,10214.842000
1008.976659,-3182.885551,3370.820191,10510.924376
1008.976989,-3034.844362,3140.991542,10881.027347
1008.977318,-2146.597232,1762.019645,9104.533087
1008.977648,-666.185348,-612.876398,7179.997637
1008.977977,444.123565,-1991.848295,6809.894666
1008.978307,814.226536,-2068.457845,9104.533087
1008.978637,-148.041188,689.485948,10881.027347
1008.978966,-1628.453072,2987.772442,11695.253884
1008.979296,-2368.659014,3447.429741,11843.295072
1008.979626,-1924.535449,3064.381992,12287.418637
1008.979955,-1258.350101,2757.943793,11547.212695
1008.980285,-444.123565,536.266849,8734.430116
1008.980615,296.082377,-2145.067394,7402.059420
1008.980944,444.123565,-2757.943793,8068.244768
1008.981274,-740.205942,-1378.971896,10214.842000
1008.981603,-2368.659014,383.047749,10510.924376
1008.981933,-3256.906145,1378.971896,10066.800811
1008.982263,-3108.864956,842.705048,10066.800811
1008.982592,-2368.659014,-306.438199,9474.636058
1008.982922,-1110.308913,-612.876398,8512.368333
1008.983252,0.000000,-2451.505594,6957.935855
1008.983581,592.164754,-3524.039291,6809.894666
1008.983911,0.000000,-2834.553343,8142.265362
1008.984241,-666.185348,-612.876398,10732.986159
1008.984570,-1480.411884,1532.190996,12361.439231
1008.984900,-1850.514855,2987.772442,12731.542202
1008.985229,-2072.576638,3447.429741,11547.212695
1008.985559,-740.205942,1149.143247,9992.780217
1008.985889,740.205942,-1455.581446,8808.450710
1008.986218,1554.432478,-2298.286494,8882.471304
1008.986548,222.061783,-995.924147,9400.615463
1008.986878,-1110.308913,1838.629195,10436.903782
1008.987207,-1924.535449,2374.896044,11029.068536
1008.987537,-2368.659014,2068.457845,10955.047942
1008.987867,-2664.741391,2298.286494,10140.821405
1008.988196,-2146.597232,1149.143247,8364.327145
1008.988526,-370.102971,-612.876398,6735.874072
1008.988855,740.205942,-1915.238745,5921.647536
1008.989185,0.000000,-1608.800546,8068.244768
1008.989515,-1332.370696,1378.971896,10510.924376
1008.989844,-2442.679609,3600.648841,11695.253884
1008.990174,-2812.782580,5745.716235,11695.253884
1008.990504,-2294.638420,5669.106685,11177.109724
1008.990833,-1184.329507,3294.210641,9622.677246
1008.991163,74.020594,2451.505594,7624.121203
1008.991493,1036.288319,1378.971896,6809.894666
1008.991822,1184.329507,1302.362347,6957.935855
1008.992152,0.000000,2068.457845,7994.224174
1008.992481,-1406.391290,3140.991542,8734.430116
1008.992811,-2590.720797,2834.553343,9178.553681
1008.993141,-2442.679609,2757.943793,9696.697840
1008.993470,-2368.659014,2451.505594,9252.574275
1008.993800,-1924.535449,995.924147,7920.203579
1008.994130,-1184.329507,-1302.362347,6883.915261
1008.994459,-222.061783,-1915.238745,8660.409521
1008.994789,-518.144159,229.828649,10362.883188
1008.995119,-1702.473667,2221.676944,10732.986159
1008.995448,-2220.617826,2528.115143,11251.130318
1008.995778,-1628.453072,2451.505594,11991.336260
1008.996107,-1110.308913,1838.629195,11695.253884
1008.996437,-518.144159,842.705048,10658.965565
1008.996767,518.144159,-459.657299,9104.533087
1008.997096,666.185348,-1685.410096,8660.409521
1008.997426,444.123565,-2068.457845,9770.718434
1008.997756,-296.082377,-842.705048,11177.109724
1008.998085,-1776.494261,459.657299,11399.171507
1008.998415,-2146.597232,1149.143247,10807.006753
1008.998745,-2368.659014,383.047749,9844.739029
1008.999074,-1184.329507,-1302.362347,8956.491898
1008.999404,148.041188,-3370.820191,7031.956449
1008.999733,666.185348,-4903.011187,7179.997637
1009.000063,0.000000,-3677.258390,7994.224174
1009.000393,-1554.432478,-1608.800546,9474.636058
1009.000722,-2220.617826,-842.705048,11547.212695
1009.001052,-2738.761985,1302.362347,11991.336260
1009.001382,-2812.782580,2374.896044,12287.418637
1009.001711,-2294.638420,1991.848295,11251.130318
1009.002041,-666.185348,76.609550,9178.553681
1009.002371,444.123565,-1608.800546,8290.306550
1009.002700,962.267725,-1225.752797,9030.512492
1009.003030,370.102971,0.000000,9622.677246
1009.003359,-1258.350101,1532.190996,9474.636058
1009.003689,-2072.576638,1608.800546,9770.718434
1009.004019,-2368.659014,1915.238745,10510.924376
1009.004348,-2072.576638,1378.971896,9548.656652
1009.004678,-1184.329507,306.438199,7550.100608
1009.005008,0.000000,-1378.971896,6809.894666
1009.005337,296.082377,-1915.238745,7550.100608
1009.005667,-592.164754,153.219100,9696.697840
1009.005997,-1480.411884,2834.553343,10955.047942
1009.006326,-2220.617826,4443.353888,10807.006753
1009.006656,-1628.453072,4903.011187,11695.253884
1009.006985,-1776.494261,4443.353888,11103.089130
1009.007315,-592.164754,2911.162892,9844.739029
1009.007645,888.247130,1378.971896,8586.388927
1009.007974,1110.308913,919.314598,7846.182985
1009.008304,296.082377,1608.800546,7920.203579
1009.008634,-888.247130,2911.162892,9622.677246
1009.008963,-1924.535449,3753.867940,10658.965565
1009.009293,-2368.659014,4519.963438,10510.924376
1009.009623,-2294.638420,3907.087040,9400.615463
1009.009952,-1184.329507,2145.067394,8142.265362
1009.010282,-222.061783,76.609550,6217.729913
1009.010611,592.164754,-1608.800546,6513.812290
1009.010941,592.164754,-689.485948,8142.265362
1009.011271,-962.267725,1762.019645,9252.574275
1009.011600,-2146.597232,2681.334243,9400.615463
1009.011930,-1850.514855,2834.553343,11473.192101
1009.012260,-1998.556043,2987.772442,12509.480420
1009.012589,-1702.473667,3600.648841,11251.130318
1009.012919,-1110.308913,1685.410096,8586.388927
1009.013249,-74.020594,-1225.752797,7402.059420
1009.013578,740.205942,-2068.457845,8438.347739
1009.013908,-370.102971,0.000000,9992.780217
1009.014237,-2146.597232,1762.019645,10362.883188
1009.014567,-2516.700203,1685.410096,9770.718434
1009.014897,-2368.659014,766.095498,9622.677246
1009.015226,-1406.391290,-153.219100,9030.512492
1009.015556,-814.226536,-2451.505594,7846.182985
1009.015886,74.020594,-3983.696590,7179.997637
1009.016215,296.082377,-3294.210641,8216.285956
1009.016545,-370.102971,-1685.410096,10066.800811
1009.016875,-888.247130,0.000000,11695.253884
1009.017204,-1184.329507,919.314598,12731.542202
1009.017534,-1554.432478,1762.019645,13323.706956
1009.017863,-1332.370696,1608.800546,12435.459826
1009.018193,-888.247130,383.047749,10510.924376
1009.018523,444.123565,-1685.410096,9252.574275
1009.018852,1184.329507,-3140.991542,9178.553681
1009.019182,444.123565,-1915.238745,10140.821405
1009.019512,-814.226536,459.657299,11029.068536
1009.019841,-2146.597232,1302.362347,10955.047942
1009.020171,-2590.720797,1685.410096,11177.109724
1009.020501,-2146.597232,1532.190996,10436.903782
1009.020830,-962.267725,383.047749,8512.368333
1009.021160,370.102971,-1149.143247,7105.977043
1009.021489,740.205942,-1991.848295,6883.915261
1009.021819,0.000000,-612.876398,8142.265362
1009.022149,-1110.308913,1302.362347,9030.512492
1009.022478,-1924.535449,2757.943793,10140.821405
1009.022808,-2220.617826,3753.867940,10732.986159
1009.023138,-2146.597232,4060.306139,10881.027347
1009.023467,-1850.514855,2987.772442,9400.615463
1009.023797,-592.164754,1149.143247,7328.038826
1009.024127,370.102971,-536.266849,6439.791695
1009.024456,518.144159,1225.752797,8290.306550
1009.024786,-740.205942,3140.991542,9474.636058
1009.025115,-1702.473667,4060.306139,9844.739029
1009.025445,-1776.494261,4443.353888,9548.656652
1009.025775,-1776.494261,4136.915689,9252.574275
1009.026104,-1036.288319,2987.772442,8808.450710
1009.026434,-222.061783,1762.019645,7550.100608
1009.026764,740.205942,-383.047749,7105.977043
1009.027093,518.144159,-1149.143247,8216.285956
1009.027423,-1036.288319,1072.533697,9992.780217
1009.027753,-2146.597232,2987.772442,11103.089130
1009.028082,-3108.864956,3447.429741,11473.192101
1009.028412,-2368.659014,3447.429741,12065.356855
1009.028741,-1406.391290,3140.991542,11695.253884
1009.029071,-1036.288319,1838.629195,9474.636058
1009.029401,444.123565,0.000000,7550.100608
1009.029730,814.226536,-2068.457845,7994.224174
1009.030060,222.061783,-306.438199,9770.718434
1009.030390,-1110.308913,2374.896044,11029.068536
1009.030719,-2072.576638,2604.724693,10955.047942
1009.031049,-1776.494261,1762.019645,10584.944971
1009.031379,-1406.391290,766.095498,10140.821405
1009.031708,-370.102971,-459.657299,9178.553681
1009.032038,370.102971,-2068.457845,7476.080014
1009.032367,592.164754,-3217.601092,7402.059420
1009.032697,0.000000,-1608.800546,8808.450710
1009.033027,-1184.329507,-229.828649,10510.924376
1009.033356,-2072.576638,1225.752797,11843.295072
1009.033686,-1924.535449,2451.505594,11843.295072
1009.034016,-1776.494261,2068.457845,10955.047942
1009.034345,-962.267725,536.266849,9104.533087
1009.034675,74.020594,-1072.533697,8290.306550
1009.035005,370.102971,-2145.067394,8290.306550
1009.035334,-740.205942,-919.314598,9030.512492
1009.035664,-2368.659014,536.266849,9918.759623
1009.035993,-2516.700203,1225.752797,10510.924376
1009.036323,-2664.741391,1532.190996,10732.986159
1009.036653,-2294.638420,1455.581446,10288.862594
1009.036982,-1628.453072,919.314598,8882.471304
1009.037312,0.000000,-766.095498,7402.059420
1009.037642,666.185348,-1455.581446,7550.100608
1009.037971,814.226536,-612.876398,8586.388927
1009.038301,-518.144159,1072.533697,10584.944971
1009.038631,-1628.453072,2987.772442,11325.150913
1009.038960,-2146.597232,4136.915689,11399.171507
1009.039290,-1406.391290,4136.915689,11547.212695
1009.039619,-666.185348,2757.943793,10807.006753
1009.039949,222.061783,1608.800546,8586.388927
1009.040279,592.164754,612.876398,7179.997637
1009.040608,888.247130,459.657299,7846.182985
1009.040938,-444.123565,2145.067394,8290.306550
1009.041268,-1554.432478,2834.553343,9104.533087
1009.041597,-1776.494261,3294.210641,9770.718434
1009.041927,-1924.535449,3830.477490,10584.944971
1009.042257,-2220.617826,4136.915689,9548.656652
1009.042586,-1776.494261,1915.238745,7328.038826
1009.042916,-222.061783,-919.314598,6735.874072
1009.043245,370.102971,-995.924147,8142.265362
1009.043575,-222.061783,919.314598,10288.862594
1009.043905,-1702.473667,3064.381992,10881.027347
1009.044234,-2516.700203,3907.087040,10732.986159
1009.044564,-2442.679609,3907.087040,11103.089130
1009.044894,-1480.411884,3294.210641,11399.171507
1009.045223,-518.144159,2604.724693,9770.718434
1009.045553,74.020594,1072.533697,7698.141797
1009.045883,518.144159,-536.266849,7254.018232
1009.046212,0.000000,-766.095498,8290.306550
1009.046542,-888.247130,1225.752797,9844.739029
1009.046871,-1554.432478,2451.505594,10658.965565
1009.047201,-2146.597232,2911.162892,10436.903782
1009.047531,-1924.535449,2068.457845,10140.821405
1009.047860,-1184.329507,0.000000,9030.512492
1009.048190,148.041188,-1838.629195,7698.141797
1009.048520,518.144159,-3370.820191,7105.977043
1009.048849,148.041188,-2068.457845,8438.347739
1009.049179,-888.247130,459.657299,10140.821405
1009.049509,-1776.494261,995.924147,11399.171507
1009.049838,-2294.638420,1608.800546,11991.336260
1009.050168,-2442.679609,2987.772442,11917.315666
1009.050497,-1998.556043,1838.629195,10362.883188
1009.050827,-740.205942,-919.314598,8734.430116
1009.051157,444.123565,-2528.115143,8290.306550
1009.051486,518.144159,-2221.676944,9030.512492
1009.051816,-222.061783,-995.924147,9992.780217
1009.052146,-1480.411884,689.485948,9918.759623
1009.052475,-1776.494261,1302.362347,11103.089130
1009.052805,-1628.453072,1532.190996,11325.150913
1009.053135,-1332.370696,1072.533697,10140.821405
1009.053464,-222.061783,-383.047749,7994.224174
1009.053794,1184.329507,-2604.724693,7031.956449
1009.054123,1110.308913,-2604.724693,8586.388927
1009.054453,-370.102971,76.609550,10732.986159
1009.054783,-2072.576638,2374.896044,11473.192101
1009.055112,-2442.679609,2604.724693,11473.192101
1009.055442,-2294.638420,3370.820191,11843.295072
1009.055772,-1628.453072,2834.553343,11621.233289
1009.056101,-1184.329507,2681.334243,9770.718434
1009.056431,-444.123565,1149.143247,7920.203579
1009.056761,0.000000,-153.219100,7254.018232
1009.057090,-444.123565,459.657299,8216.285956
1009.057420,-1776.494261,2221.676944,9400.615463
1009.057749,-2590.720797,3600.648841,9844.739029
1009.058079,-2664.741391,3524.039291,8956.491898
1009.058409,-2294.638420,2987.772442,8512.368333
1009.058738,-1036.288319,1991.848295,7994.224174
1009.059068,222.061783,536.266849,6883.915261
1009.059398,740.205942,0.000000,6809.894666
1009.059727,444.123565,383.047749,7920.203579
1009.060057,-370.102971,1838.629195,10066.800811
1009.060387,-1332.370696,3907.087040,11325.150913
1009.060716,-2368.659014,5362.668486,11547.212695
1009.061046,-1924.535449,4979.620737,11695.253884
1009.061375,-1332.370696,4366.744339,10510.924376
1009.061705,-296.082377,2451.505594,8586.388927
1009.062035,518.144159,153.219100,7476.080014
1009.062364,592.164754,-612.876398,7624.121203
1009.062694,-444.123565,1225.752797,8882.471304
1009.063024,-2294.638420,2911.162892,9400.615463
1009.063353,-2664.741391,3140.991542,9252.574275
