#time,accel_x,accel_y,accel_z
855.748787,-1184.329507,689.485948,9400.615463
855.749117,-1258.350101,919.314598,9178.553681
855.749447,-1036.288319,1149.143247,9696.697840
855.749776,-1110.308913,995.924147,9548.656652
855.750106,-1184.329507,995.924147,9474.636058
855.750435,-1110.308913,536.266849,9400.615463
855.750765,-740.205942,766.095498,9326.594869
855.751095,-962.267725,612.876398,9548.656652
855.751424,-962.267725,842.705048,9844.739029
855.751754,-1036.288319,995.924147,9548.656652
855.752084,-1184.329507,842.705048,9622.677246
855.752413,-1258.350101,1455.581446,9474.636058
855.752743,-1036.288319,842.705048,9474.636058
855.753072,-1110.308913,536.266849,9474.636058
855.753402,-888.247130,842.705048,9622.677246
855.753732,-1036.288319,919.314598,9548.656652
855.754061,-1110.308913,1072.533697,9178.553681
855.754391,-888.247130,766.095498,9474.636058
855.754721,-962.267725,842.705048,9474.636058
855.755050,-1110.308913,1072.533697,9548.656652
855.755380,-962.267725,842.705048,9474.636058
855.755709,-1702.473667,919.314598,9400.615463
855.756039,-888.247130,1149.143247,9326.594869
855.756369,-888.247130,842.705048,9474.636058
855.756698,-962.267725,842.705048,9474.636058
855.757028,-1036.288319,1072.533697,9548.656652
855.757357,-1110.308913,1072.533697,9474.636058
855.757687,-1258.350101,842.705048,9696.697840
855.758017,-1036.288319,995.924147,9474.636058
855.758346,-1036.288319,842.705048,9548.656652
855.758676,-1036.288319,995.924147,9548.656652
855.759006,-1036.288319,842.705048,9548.656652
855.759335,-740.205942,842.705048,9326.594869
855.759665,-888.247130,1072.533697,9770.718434
855.759994,-1036.288319,842.705048,9474.636058
855.760324,-1036.288319,1149.143247,9622.677246
855.760654,-1110.308913,995.924147,9548.656652
855.760983,-1110.308913,919.314598,9400.615463
855.761313,-1110.308913,1149.143247,9326.594869
855.761643,-1110.308913,995.924147,9770.718434
855.761972,-1110.308913,919.314598,9400.615463
855.762302,-1184.329507,919.314598,9696.697840
855.762631,-1110.308913,842.705048,9548.656652
855.762961,-888.247130,919.314598,9326.594869
855.763291,-1036.288319,919.314598,9622.677246
855.763620,-1036.288319,919.314598,9770.718434
855.763950,-962.267725,1072.533697,9622.677246
855.764280,-1184.329507,842.705048,9400.615463
855.764609,-1184.329507,1149.143247,9622.677246
855.764939,-888.247130,536.266849,9178.553681
855.765268,-1110.308913,1149.143247,9474.636058
855.765598,-888.247130,842.705048,9474.636058
855.765928,-1184.329507,842.705048,9474.636058
855.766257,-814.226536,842.705048,9400.615463
855.766587,-888.247130,919.314598,9326.594869
855.766917,-1110.308913,766.095498,9548.656652
855.767246,-1110.308913,995.924147,9548.656652
855.767576,-1406.391290,1072.533697,9474.636058
855.767905,-1110.308913,919.314598,9474.636058
855.768235,-1110.308913,689.485948,9474.636058
855.768565,-888.247130,919.314598,9474.636058
855.768894,-962.267725,919.314598,9474.636058
855.769224,-1110.308913,842.705048,9474.636058
855.769553,-962.267725,995.924147,9400.615463
855.769883,-666.185348,1225.752797,8956.491898
855.770213,592.164754,689.485948,8808.450710
855.770542,740.205942,536.266849,9178.553681
855.770872,888.247130,612.876398,9326.594869
855.771202,592.164754,612.876398,9252.574275
855.771531,74.020594,1072.533697,10066.800811
855.771861,-296.082377,1149.143247,10140.821405
855.772190,-962.267725,919.314598,10584.944971
855.772520,-814.226536,612.876398,10436.903782
855.772850,-296.082377,76.609550,9918.759623
855.773179,518.144159,-153.219100,9474.636058
855.773509,2146.597232,76.609550,8882.471304
855.773839,2442.679609,229.828649,8660.409521
855.774168,3034.844362,995.924147,8808.450710
855.774498,3701.029710,1532.190996,9104.533087
855.774827,3775.050304,1991.848295,9548.656652
855.775157,3404.947333,2068.457845,9548.656652
855.775487,3108.864956,1149.143247,9918.759623
855.775816,2072.576638,842.705048,10362.883188
855.776146,1184.329507,919.314598,10436.903782
855.776476,1036.288319,229.828649,10881.027347
855.776805,1258.350101,0.000000,10362.883188
855.777135,1850.514855,0.000000,9918.759623
855.777464,2368.659014,-383.047749,9252.574275
855.777794,3182.885551,-153.219100,9178.553681
855.778124,4219.173869,1072.533697,9178.553681
855.778453,4219.173869,2221.676944,9326.594869
855.778783,3404.947333,2528.115143,9474.636058
855.779112,2664.741391,3370.820191,10510.924376
855.779442,666.185348,3294.210641,10510.924376
855.779772,-1258.350101,2451.505594,9918.759623
855.780101,-1924.535449,1378.971896,8882.471304
855.780431,-962.267725,0.000000,8142.265362
855.780761,518.144159,-1149.143247,7328.038826
855.781090,1998.556043,-1225.752797,6809.894666
855.781420,3108.864956,-459.657299,6735.874072
855.781749,3701.029710,612.876398,7550.100608
855.782079,3256.906145,2528.115143,9474.636058
855.782409,2368.659014,4213.525239,11103.089130
855.782738,1184.329507,4366.744339,12657.521608
855.783068,0.000000,3830.477490,12879.583391
855.783398,-1332.370696,2145.067394,12139.377449
855.783727,-1628.453072,-306.438199,11399.171507
855.784057,-1702.473667,-1762.019645,10214.842000
855.784386,-962.267725,-2451.505594,9326.594869
855.784716,-148.041188,-2374.896044,8290.306550
855.785046,962.267725,-1455.581446,7846.182985
855.785375,2294.638420,-383.047749,7476.080014
855.785705,3182.885551,689.485948,7476.080014
855.786035,2960.823768,2681.334243,8364.327145
855.786364,2368.659014,3907.087040,9252.574275
855.786694,1554.432478,3907.087040,10362.883188
855.787023,222.061783,3370.820191,10955.047942
855.787353,-666.185348,2298.286494,10658.965565
855.787683,-1554.432478,76.609550,11029.068536
855.788012,-1702.473667,-1225.752797,10955.047942
855.788342,-2294.638420,-1991.848295,10732.986159
855.788672,-3108.864956,-1378.971896,10732.986159
855.789001,-3256.906145,-1072.533697,10436.903782
855.789331,-2442.679609,-536.266849,9918.759623
855.789660,-1110.308913,612.876398,10066.800811
855.789990,-592.164754,1302.362347,8956.491898
855.790320,592.164754,919.314598,7994.224174
855.790649,1628.453072,229.828649,7624.121203
855.790979,2220.617826,842.705048,7772.162391
855.791308,2812.782580,1302.362347,7994.224174
855.791638,3034.844362,842.705048,8808.450710
855.791968,2368.659014,995.924147,9770.718434
855.792297,1258.350101,1762.019645,10658.965565
855.792627,0.000000,2834.553343,11695.253884
855.792957,-1332.370696,2911.162892,12287.418637
855.793286,-2664.741391,2604.724693,11917.315666
855.793616,-3849.070898,2221.676944,10955.047942
855.793945,-4219.173869,842.705048,9770.718434
855.794275,-3182.885551,-995.924147,7846.182985
855.794605,-1998.556043,-1072.533697,6365.771101
855.794934,-666.185348,-1608.800546,6069.688724
855.795264,148.041188,-766.095498,5921.647536
855.795594,518.144159,0.000000,6365.771101
855.795923,222.061783,1378.971896,7846.182985
855.796253,-518.144159,2987.772442,9622.677246
855.796582,-1480.411884,3753.867940,11843.295072
855.796912,-2516.700203,4213.525239,13471.748144
855.797242,-3627.009116,3907.087040,13175.665768
855.797571,-3923.091493,2374.896044,11843.295072
855.797901,-2664.741391,-1149.143247,10584.944971
855.798231,-1184.329507,-1991.848295,9844.739029
855.798560,0.000000,-1225.752797,8808.450710
855.798890,1110.308913,-1455.581446,8216.285956
855.799219,1776.494261,0.000000,8216.285956
855.799549,2294.638420,2145.067394,8216.285956
855.799879,1924.535449,2681.334243,9548.656652
855.800208,740.205942,3677.258390,10436.903782
855.800538,-888.247130,4826.401637,10955.047942
855.800868,-2664.741391,3983.696590,10584.944971
855.801197,-3849.070898,1685.410096,10066.800811
855.801527,-3627.009116,-689.485948,9104.533087
855.801856,-2738.761985,-2681.334243,8364.327145
855.802186,-1628.453072,-2604.724693,7624.121203
855.802516,-1036.288319,-1685.410096,7254.018232
855.802845,0.000000,-612.876398,7624.121203
855.803175,0.000000,1991.848295,8364.327145
855.803504,296.082377,3447.429741,10140.821405
855.803834,-148.041188,4749.792088,11547.212695
855.804164,-1184.329507,4826.401637,11621.233289
855.804493,-2146.597232,4060.306139,11547.212695
855.804823,-2516.700203,1915.238745,10436.903782
855.805153,-2072.576638,-1072.533697,8882.471304
855.805482,-888.247130,-2068.457845,8290.306550
855.805812,0.000000,-3140.991542,7846.182985
855.806141,296.082377,-3064.381992,7772.162391
855.806471,370.102971,-1378.971896,8290.306550
855.806801,444.123565,153.219100,9252.574275
855.807130,296.082377,2221.676944,10140.821405
855.807460,-592.164754,3830.477490,11399.171507
855.807790,-1480.411884,4596.572988,11621.233289
855.808119,-2072.576638,3217.601092,11251.130318
855.808449,-2516.700203,1072.533697,10510.924376
855.808778,-2368.659014,306.438199,9474.636058
855.809108,-1850.514855,-1378.971896,8808.450710
855.809438,-1554.432478,-1991.848295,7772.162391
855.809767,-1998.556043,-1838.629195,7624.121203
855.810097,-1850.514855,-995.924147,8586.388927
855.810427,-1184.329507,919.314598,9844.739029
855.810756,-1998.556043,2145.067394,10881.027347
855.811086,-2516.700203,3140.991542,11325.150913
855.811415,-2664.741391,3294.210641,11251.130318
855.811745,-2146.597232,2068.457845,10807.006753
855.812075,-1332.370696,1378.971896,9548.656652
855.812404,-296.082377,-229.828649,8882.471304
855.812734,592.164754,-1455.581446,8364.327145
855.813063,1110.308913,-1378.971896,7920.203579
855.813393,962.267725,-1149.143247,8290.306550
855.813723,1628.453072,76.609550,9252.574275
855.814052,1406.391290,2145.067394,10658.965565
855.814382,518.144159,3830.477490,11251.130318
855.814712,-370.102971,4519.963438,10881.027347
855.815041,-666.185348,3524.039291,9992.780217
855.815371,-296.082377,2757.943793,9326.594869
855.815700,0.000000,842.705048,8290.306550
855.816030,-148.041188,-383.047749,7476.080014
855.816360,0.000000,-919.314598,7328.038826
855.816689,-740.205942,-689.485948,7624.121203
855.817019,-1406.391290,689.485948,8068.244768
855.817349,-1110.308913,1149.143247,8808.450710
855.817678,-888.247130,1991.848295,9474.636058
855.818008,-1406.391290,2911.162892,10140.821405
855.818337,-2368.659014,2834.553343,10214.842000
855.818667,-2368.659014,2145.067394,10436.903782
855.818997,-2294.638420,1378.971896,9992.780217
855.819326,-1480.411884,842.705048,9548.656652
855.819656,-1036.288319,-459.657299,9400.615463
855.819985,74.020594,-1915.238745,8956.491898
855.820315,296.082377,-1915.238745,9178.553681
855.820645,148.041188,-229.828649,9474.636058
855.820974,-148.041188,1378.971896,10584.944971
855.821304,-296.082377,2681.334243,11547.212695
855.821633,-1036.288319,3447.429741,11325.150913
855.821963,-1332.370696,2451.505594,10807.006753
855.822293,-1258.350101,1608.800546,10066.800811
855.822622,-1036.288319,689.485948,9474.636058
855.822952,-814.226536,-536.266849,8216.285956
855.823281,-1036.288319,-1225.752797,7550.100608
855.823611,-1628.453072,-1302.362347,7550.100608
855.823941,-2220.617826,-842.705048,8290.306550
855.824270,-2738.761985,0.000000,9326.594869
855.824600,-2812.782580,919.314598,10510.924376
855.824929,-3330.926739,1838.629195,11325.150913
855.825259,-4145.153275,2221.676944,11177.109724
855.825589,-4293.194464,1685.410096,10807.006753
855.825918,-3478.967927,536.266849,9844.739029
855.826248,-2146.597232,-459.657299,9326.594869
855.826577,-666.185348,-995.924147,8660.409521
855.826907,74.020594,-1532.190996,7994.224174
855.827237,1036.288319,-842.705048,7698.141797
855.827566,1850.514855,-306.438199,8512.368333
855.827896,2294.638420,536.266849,9548.656652
855.828225,1110.308913,2528.115143,10584.944971
855.828555,0.000000,3600.648841,10955.047942
855.828885,-814.226536,3064.381992,11029.068536
855.829214,-740.205942,2451.505594,10732.986159
855.829544,0.000000,689.485948,9918.759623
855.829874,592.164754,-766.095498,8882.471304
855.830203,222.061783,-1149.143247,9030.512492
855.830533,-592.164754,-536.266849,8512.368333
855.830862,-888.247130,766.095498,8808.450710
855.831192,-296.082377,995.924147,8882.471304
855.831522,-296.082377,1532.190996,9770.718434
855.831851,-1184.329507,2681.334243,10362.883188
855.832181,-2072.576638,3064.381992,10140.821405
855.832510,-2368.659014,2298.286494,9918.759623
855.832840,-2590.720797,1455.581446,9474.636058
855.833170,-2146.597232,383.047749,9178.553681
855.833499,-1332.370696,-536.266849,8364.327145
855.833829,-370.102971,-1378.971896,8438.347739
855.834158,74.020594,-1302.362347,8290.306550
855.834488,222.061783,0.000000,8956.491898
855.834818,222.061783,1762.019645,9548.656652
855.835147,0.000000,2451.505594,10881.027347
855.835477,-1110.308913,3830.477490,10955.047942
855.835806,-1480.411884,3600.648841,10658.965565
855.836136,-1332.370696,2834.553343,10140.821405
855.836466,-888.247130,1532.190996,9252.574275
855.836795,-296.082377,689.485948,8142.265362
855.837125,-814.226536,-383.047749,7402.059420
855.837454,-1332.370696,-536.266849,7476.080014
855.837784,-2368.659014,153.219100,7846.182985
855.838114,-2738.761985,306.438199,8808.450710
855.838443,-3034.844362,1302.362347,9696.697840
855.838773,-3478.967927,2221.676944,11103.089130
855.839102,-3923.091493,2451.505594,11325.150913
855.839432,-4219.173869,1455.581446,10510.924376
855.839762,-3478.967927,0.000000,10066.800811
855.840091,-2368.659014,306.438199,9622.677246
855.840421,-1110.308913,-612.876398,9252.574275
855.840750,-222.061783,-1149.143247,8956.491898
855.841080,444.123565,-995.924147,8808.450710
855.841410,1110.308913,-459.657299,9400.615463
855.841739,1332.370696,842.705048,10066.800811
855.842069,814.226536,2145.067394,10732.986159
855.842398,0.000000,3370.820191,11029.068536
855.842728,-666.185348,3140.991542,10955.047942
855.843058,-518.144159,2221.676944,10140.821405
855.843387,74.020594,689.485948,9104.533087
855.843717,1184.329507,-766.095498,8068.244768
855.844046,1036.288319,-1378.971896,7550.100608
855.844376,296.082377,-536.266849,7698.141797
855.844706,-518.144159,0.000000,7920.203579
855.845035,-888.247130,612.876398,8808.450710
855.845365,-962.267725,1685.410096,9918.759623
855.845694,-1628.453072,2374.896044,10510.924376
855.846024,-2368.659014,2757.943793,10732.986159
855.846354,-2664.741391,1838.629195,10584.944971
855.846683,-2664.741391,919.314598,9696.697840
855.847013,-2368.659014,766.095498,8956.491898
855.847342,-888.247130,-153.219100,8364.327145
855.847672,0.000000,-995.924147,8512.368333
855.848002,148.041188,-1072.533697,8438.347739
855.848331,592.164754,0.000000,8734.430116
855.848661,518.144159,1302.362347,9622.677246
855.848990,-296.082377,2604.724693,10214.842000
855.849320,-740.205942,3447.429741,10881.027347
855.849650,-888.247130,3140.991542,10955.047942
855.849979,-1332.370696,2451.505594,10362.883188
855.850309,-1184.329507,1149.143247,9844.739029
855.850638,-740.205942,76.609550,8734.430116
855.850968,-592.164754,0.000000,8364.327145
855.851298,-888.247130,-306.438199,7994.224174
855.851627,-1480.411884,383.047749,8438.347739
855.851957,-1776.494261,1149.143247,9252.574275
855.852286,-2664.741391,1762.019645,9844.739029
855.852616,-2738.761985,3064.381992,11177.109724
855.852946,-3849.070898,3064.381992,11399.171507
855.853275,-4515.256246,2145.067394,11029.068536
855.853605,-4367.215058,842.705048,10288.862594
855.853934,-3478.967927,-76.609550,9326.594869
855.854264,-1702.473667,-383.047749,8512.368333
855.854594,-888.247130,-1608.800546,8068.244768
855.854923,148.041188,-1378.971896,8290.306550
855.855253,592.164754,306.438199,8512.368333
855.855582,814.226536,1302.362347,9474.636058
855.855912,1406.391290,2987.772442,10732.986159
855.856242,222.061783,4290.134789,10732.986159
855.856571,74.020594,4290.134789,10658.965565
855.856901,0.000000,2987.772442,9918.759623
855.857230,370.102971,1762.019645,8956.491898
855.857560,1036.288319,0.000000,8068.244768
855.857890,1036.288319,-689.485948,7772.162391
855.858219,148.041188,-995.924147,7846.182985
855.858549,-814.226536,-229.828649,8068.244768
855.858878,-1036.288319,459.657299,8512.368333
855.859208,-666.185348,1378.971896,9696.697840
855.859538,-1258.350101,1149.143247,10140.821405
855.859867,-2294.638420,2374.896044,10732.986159
855.860197,-3108.864956,1838.629195,10732.986159
855.860526,-3256.906145,1302.362347,10140.821405
855.860856,-2738.761985,229.828649,9474.636058
855.861186,-1850.514855,-1608.800546,9252.574275
855.861515,-518.144159,-2145.067394,8956.491898
855.861845,0.000000,-1685.410096,8956.491898
855.862174,296.082377,-383.047749,9326.594869
855.862504,518.144159,536.266849,9918.759623
855.862834,0.000000,1915.238745,11029.068536
855.863163,-518.144159,2681.334243,11399.171507
855.863493,-1184.329507,3370.820191,11473.192101
855.863822,-1184.329507,2528.115143,11103.089130
855.864152,-962.267725,1149.143247,10066.800811
855.864482,-296.082377,0.000000,9030.512492
855.864811,-518.144159,-1149.143247,8364.327145
855.865141,-444.123565,-1302.362347,8586.388927
855.865470,-1332.370696,-229.828649,8512.368333
855.865800,-2146.597232,995.924147,8216.285956
855.866130,-1924.535449,1302.362347,8808.450710
855.866459,-1554.432478,1225.752797,9918.759623
855.866789,-2294.638420,2374.896044,10362.883188
855.867118,-3108.864956,2298.286494,10066.800811
855.867448,-3552.988522,1302.362347,9696.697840
855.867778,-3256.906145,919.314598,9770.718434
855.868107,-2590.720797,0.000000,9622.677246
855.868437,-1480.411884,-919.314598,8734.430116
855.868767,-518.144159,-1302.362347,8290.306550
855.869096,0.000000,-383.047749,8438.347739
855.869426,518.144159,459.657299,9326.594869
855.869755,296.082377,1685.410096,9696.697840
855.870085,-222.061783,3140.991542,10066.800811
855.870415,-444.123565,3830.477490,10288.862594
855.870744,-518.144159,3217.601092,10066.800811
855.871074,-370.102971,1685.410096,9622.677246
855.871403,0.000000,383.047749,8956.491898
855.871733,0.000000,-919.314598,8068.244768
855.872063,-296.082377,-995.924147,8290.306550
855.872392,-962.267725,0.000000,8660.409521
855.872722,-1406.391290,306.438199,9178.553681
855.873051,-1554.432478,1072.533697,10140.821405
855.873381,-1258.350101,1838.629195,10658.965565
855.873711,-1776.494261,2451.505594,10732.986159
855.874040,-2294.638420,2451.505594,10510.924376
855.874370,-2294.638420,1762.019645,10140.821405
855.874699,-2368.659014,919.314598,9622.677246
855.875029,-1850.514855,153.219100,9252.574275
855.875359,-1184.329507,-153.219100,8586.388927
855.875688,-444.123565,-1225.752797,8216.285956
855.876018,-296.082377,-919.314598,8512.368333
855.876347,-370.102971,0.000000,9326.594869
855.876677,-444.123565,1072.533697,10214.842000
855.877007,-814.226536,2451.505594,10584.944971
855.877336,-2146.597232,3140.991542,10658.965565
855.877666,-1776.494261,2604.724693,10658.965565
855.877995,-1406.391290,1685.410096,9918.759623
855.878325,-592.164754,689.485948,9178.553681
855.878655,370.102971,-459.657299,8586.388927
855.878984,0.000000,153.219100,7994.224174
855.879314,-740.205942,842.705048,8068.244768
855.879643,-1184.329507,1455.581446,8512.368333
855.879973,-1406.391290,1302.362347,9548.656652
855.880303,-2072.576638,2374.896044,10732.986159
855.880632,-3182.885551,2604.724693,10658.965565
855.880962,-4145.153275,2451.505594,10955.047942
855.881291,-4589.276840,1149.143247,10288.862594
855.881621,-4145.153275,-612.876398,9474.636058
855.881951,-3034.844362,-1302.362347,9030.512492
855.882280,-1554.432478,-1608.800546,7994.224174
855.882610,-592.164754,-1608.800546,7624.121203
855.882939,0.000000,-1149.143247,8290.306550
855.883269,814.226536,536.266849,9178.553681
855.883599,1036.288319,1532.190996,10436.903782
855.883928,1110.308913,2757.943793,11325.150913
855.884258,814.226536,4366.744339,11991.336260
855.884587,0.000000,3677.258390,11251.130318
855.884917,0.000000,1991.848295,10436.903782
855.885247,888.247130,612.876398,9622.677246
855.885576,1702.473667,-612.876398,9030.512492
855.885906,1332.370696,-842.705048,7994.224174
855.886235,666.185348,-306.438199,8142.265362
855.886565,74.020594,612.876398,8364.327145
855.886895,-148.041188,1149.143247,8734.430116
855.887224,-444.123565,1991.848295,9622.677246
855.887554,-1036.288319,2604.724693,9992.780217
855.887883,-2294.638420,2681.334243,9844.739029
855.888213,-2812.782580,2068.457845,9696.697840
855.888543,-3404.947333,919.314598,9696.697840
855.888872,-3256.906145,229.828649,9696.697840
855.889202,-2664.741391,-766.095498,9400.615463
855.889531,-2220.617826,-919.314598,9400.615463
855.889861,-1628.453072,-383.047749,8956.491898
855.890191,-888.247130,76.609550,9178.553681
855.890520,-444.123565,1072.533697,9770.718434
855.890850,-296.082377,2987.772442,10584.944971
855.891179,-1184.329507,4213.525239,10214.842000
855.891509,-1258.350101,3370.820191,10066.800811
855.891839,-962.267725,2374.896044,9622.677246
855.892168,-444.123565,1378.971896,8956.491898
855.892498,0.000000,0.000000,8512.368333
855.892827,0.000000,-536.266849,8364.327145
855.893157,-666.185348,306.438199,7846.182985
855.893487,-1258.350101,919.314598,8290.306550
855.893816,-1258.350101,919.314598,9548.656652
855.894146,-1406.391290,1762.019645,10955.047942
855.894475,-1850.514855,3064.381992,11843.295072
855.894805,-3404.947333,2911.162892,11103.089130
855.895135,-4293.194464,2298.286494,10807.006753
855.895464,-3849.070898,459.657299,10140.821405
855.895794,-2960.823768,-689.485948,9622.677246
855.896123,-1850.514855,-919.314598,9030.512492
855.896453,-666.185348,-1225.752797,7920.203579
855.896783,-148.041188,-995.924147,7698.141797
855.897112,518.144159,-536.266849,8290.306550
855.897442,962.267725,766.095498,9400.615463
855.897771,666.185348,2145.067394,10140.821405
855.898101,222.061783,4290.134789,10288.862594
855.898431,0.000000,3677.258390,10362.883188
855.898760,0.000000,2068.457845,9770.718434
855.899090,296.082377,612.876398,9326.594869
855.899419,740.205942,-459.657299,8882.471304
855.899749,888.247130,-459.657299,8364.327145
855.900079,888.247130,-459.657299,8216.285956
855.900408,222.061783,76.609550,7994.224174
855.900738,222.061783,536.266849,8882.471304
855.901067,74.020594,1149.143247,10066.800811
855.901397,-296.082377,2451.505594,10807.006753
855.901727,-1554.432478,3140.991542,10955.047942
855.902056,-2960.823768,1915.238745,10732.986159
855.902386,-3404.947333,612.876398,10140.821405
855.902715,-2812.782580,-689.485948,9844.739029
855.903045,-2294.638420,-1532.190996,9400.615463
855.903375,-2146.597232,-1915.238745,8586.388927
855.903704,-1332.370696,-1762.019645,8808.450710
855.904034,-962.267725,-766.095498,9252.574275
855.904363,-296.082377,76.609550,9992.780217
855.904693,-222.061783,1991.848295,10732.986159
855.905023,-296.082377,2911.162892,10732.986159
855.905352,-814.226536,3524.039291,10436.903782
855.905682,-962.267725,2834.553343,10288.862594
855.906011,-296.082377,1608.800546,9696.697840
855.906341,-148.041188,306.438199,9104.533087
855.906671,-148.041188,-229.828649,7846.182985
855.907000,-814.226536,-153.219100,7920.203579
855.907330,-1480.411884,-459.657299,8142.265362
855.907660,-1924.535449,459.657299,9030.512492
855.907989,-2220.617826,1072.533697,10066.800811
855.908319,-2442.679609,2374.896044,10881.027347
855.908648,-3552.988522,3140.991542,10807.006753
855.908978,-3701.029710,2068.457845,10658.965565
855.909308,-3701.029710,766.095498,10066.800811
855.909637,-3108.864956,153.219100,9030.512492
855.909967,-1998.556043,-459.657299,8512.368333
855.910296,-222.061783,-1072.533697,8142.265362
855.910626,0.000000,-1532.190996,7402.059420
855.910956,592.164754,-612.876398,8290.306550
855.911285,962.267725,306.438199,9252.574275
855.911615,1184.329507,2145.067394,10510.924376
855.911944,666.185348,3524.039291,10955.047942
855.912274,-222.061783,3983.696590,11029.068536
855.912604,-444.123565,2987.772442,10732.986159
855.912933,-370.102971,1838.629195,10066.800811
855.913263,74.020594,459.657299,9474.636058
855.913592,222.061783,0.000000,8734.430116
855.913922,-148.041188,-536.266849,7994.224174
855.914252,-666.185348,-383.047749,8068.244768
855.914581,-666.185348,153.219100,8364.327145
855.914911,-518.144159,612.876398,9548.656652
855.915240,-740.205942,1685.410096,10436.903782
855.915570,-2072.576638,2681.334243,10140.821405
855.915900,-2664.741391,2145.067394,10140.821405
855.916229,-2812.782580,1378.971896,9992.780217
855.916559,-2442.679609,612.876398,9770.718434
855.916888,-1850.514855,-536.266849,9622.677246
855.917218,-1036.288319,-1378.971896,8882.471304
855.917548,-296.082377,-1225.752797,8586.388927
855.917877,0.000000,-766.095498,8882.471304
855.918207,296.082377,229.828649,9770.718434
855.918536,74.020594,1685.410096,10436.903782
855.918866,-370.102971,2987.772442,10658.965565
855.919196,-666.185348,3370.820191,10214.842000
855.919525,-962.267725,2221.676944,10214.842000
855.919855,-1332.370696,1455.581446,9474.636058
855.920184,-1332.370696,536.266849,8956.491898
855.920514,-1332.370696,-383.047749,8216.285956
855.920844,-1554.432478,-919.314598,7994.224174
855.921173,-2220.617826,-459.657299,7846.182985
855.921502,-2516.700203,0.000000,8808.450710
855.921832,-2368.659014,766.095498,9622.677246
855.922161,-2368.659014,1685.410096,10807.006753
855.922491,-2664.741391,2451.505594,10881.027347
855.922820,-3330.926739,2298.286494,10658.965565
855.923150,-3182.885551,1149.143247,10584.944971
855.923479,-2442.679609,689.485948,10214.842000
855.923808,-1332.370696,76.609550,9474.636058
855.924138,-444.123565,-689.485948,9030.512492
855.924467,222.061783,-536.266849,8290.306550
855.924797,444.123565,-229.828649,8808.450710
855.925126,1110.308913,612.876398,9474.636058
855.925456,1480.411884,2068.457845,10362.883188
855.925785,666.185348,3370.820191,10658.965565
855.926114,0.000000,4136.915689,10658.965565
855.926444,-814.226536,3294.210641,9622.677246
855.926773,-666.185348,1762.019645,9252.574275
855.927103,0.000000,306.438199,8512.368333
855.927432,0.000000,-1225.752797,8142.265362
855.927762,-296.082377,-919.314598,8068.244768
855.928091,-740.205942,306.438199,8142.265362
855.928420,-1184.329507,919.314598,8364.327145
855.928750,-740.205942,1608.800546,9030.512492
855.929079,-666.185348,1915.238745,9918.759623
855.929409,-1110.308913,2374.896044,10362.883188
855.929738,-1924.535449,2604.724693,10066.800811
855.930068,-2812.782580,2374.896044,9918.759623
855.930397,-2368.659014,1225.752797,9844.739029
855.930726,-1850.514855,0.000000,9326.594869
855.931056,-444.123565,-1225.752797,8734.430116
855.931385,370.102971,-1532.190996,7920.203579
855.931715,740.205942,-1149.143247,8586.388927
855.932044,740.205942,-76.609550,9030.512492
855.932374,444.123565,1455.581446,10140.821405
855.932703,-518.144159,2681.334243,10955.047942
855.933032,-1184.329507,3677.258390,11473.192101
855.933362,-1702.473667,2451.505594,10881.027347
855.933691,-1554.432478,1991.848295,10362.883188
855.934021,-1258.350101,153.219100,9474.636058
855.934350,-1036.288319,-842.705048,8956.491898
855.934679,-1184.329507,-766.095498,8290.306550
855.935009,-1776.494261,0.000000,7920.203579
855.935338,-2220.617826,229.828649,8364.327145
855.935668,-2072.576638,536.266849,9252.574275
855.935997,-1924.535449,1378.971896,10362.883188
855.936327,-2590.720797,2374.896044,11177.109724
855.936656,-3404.947333,2451.505594,10881.027347
855.936985,-3627.009116,1302.362347,10436.903782
855.937315,-3627.009116,229.828649,10288.862594
855.937644,-2738.761985,-919.314598,9770.718434
855.937974,-1480.411884,-1378.971896,9252.574275
855.938303,-518.144159,-1838.629195,8512.368333
855.938633,370.102971,-229.828649,8216.285956
855.938962,1110.308913,612.876398,8956.491898
855.939291,1702.473667,1455.581446,9770.718434
855.939621,1554.432478,3140.991542,10362.883188
855.939950,888.247130,4596.572988,10362.883188
855.940280,222.061783,3983.696590,9622.677246
855.940609,222.061783,2451.505594,9474.636058
855.940939,222.061783,1072.533697,8734.430116
855.941268,222.061783,-306.438199,7846.182985
855.941597,0.000000,-1149.143247,7994.224174
855.941927,-592.164754,-766.095498,7846.182985
855.942256,-1702.473667,0.000000,8068.244768
855.942586,-1554.432478,536.266849,9030.512492
855.942915,-1184.329507,1532.190996,10214.842000
855.943245,-1110.308913,2681.334243,10436.903782
855.943574,-1850.514855,3524.039291,10807.006753
855.943903,-2368.659014,2528.115143,10214.842000
855.944233,-2368.659014,1608.800546,9548.656652
855.944562,-1776.494261,0.000000,9326.594869
855.944892,-1184.329507,-689.485948,9252.574275
855.945221,-666.185348,-1302.362347,9104.533087
855.945551,-592.164754,-1302.362347,8956.491898
855.945880,74.020594,-459.657299,9104.533087
855.946209,74.020594,306.438199,10214.842000
855.946539,0.000000,1455.581446,10881.027347
855.946868,-370.102971,2604.724693,11251.130318
855.947198,-740.205942,3370.820191,10881.027347
855.947527,-370.102971,2221.676944,9844.739029
855.947857,0.000000,1378.971896,9548.656652
855.948186,296.082377,0.000000,8882.471304
855.948515,74.020594,-842.705048,8512.368333
855.948845,-518.144159,-612.876398,8956.491898
855.949174,-1702.473667,459.657299,8734.430116
855.949504,-2146.597232,766.095498,9326.594869
855.949833,-2220.617826,1225.752797,9770.718434
855.950163,-2294.638420,1762.019645,9992.780217
855.950492,-2812.782580,2145.067394,9622.677246
855.950821,-2960.823768,1685.410096,8956.491898
855.951151,-3034.844362,536.266849,9178.553681
855.951480,-2960.823768,383.047749,9326.594869
855.951810,-2294.638420,-229.828649,9400.615463
855.952139,-1628.453072,-1302.362347,9104.533087
855.952469,-592.164754,-229.828649,9252.574275
855.952798,296.082377,-689.485948,9474.636058
855.953127,592.164754,766.095498,10140.821405
855.953457,518.144159,1915.238745,10436.903782
855.953786,444.123565,2911.162892,10436.903782
855.954116,148.041188,2528.115143,10362.883188
855.954445,148.041188,2068.457845,9400.615463
855.954774,296.082377,842.705048,9326.594869
855.955104,592.164754,0.000000,8808.450710
855.955433,740.205942,-766.095498,8290.306550
855.955763,370.102971,-153.219100,8512.368333
855.956092,0.000000,459.657299,8956.491898
855.956422,-592.164754,766.095498,9252.574275
855.956751,-1184.329507,1532.190996,10288.862594
855.957080,-1702.473667,2528.115143,10807.006753
855.957410,-2442.679609,2681.334243,10658.965565
855.957739,-3330.926739,1685.410096,9844.739029
855.958069,-3330.926739,766.095498,9696.697840
855.958398,-2812.782580,-153.219100,9770.718434
855.958728,-2146.597232,-536.266849,9326.594869
855.959057,-1628.453072,-766.095498,8734.430116
855.959386,-1110.308913,-766.095498,8290.306550
855.959716,-444.123565,-459.657299,8512.368333
855.960045,-148.041188,689.485948,9548.656652
855.960375,148.041188,1838.629195,10362.883188
855.960704,74.020594,3370.820191,10658.965565
855.961034,-444.123565,3140.991542,10584.944971
855.961363,-296.082377,2451.505594,10288.862594
855.961692,-370.102971,1991.848295,9622.677246
855.962022,-222.061783,689.485948,8956.491898
855.962351,-222.061783,-306.438199,8734.430116
855.962681,-888.247130,0.000000,8734.430116
855.963010,-1924.535449,229.828649,9030.512492
855.963340,-2590.720797,919.314598,8956.491898
855.963669,-2812.782580,1072.533697,9992.780217
855.963998,-3330.926739,1685.410096,10362.883188
855.964328,-3552.988522,1838.629195,10140.821405
855.964657,-3701.029710,919.314598,9474.636058
855.964987,-3478.967927,612.876398,9178.553681
855.965316,-2960.823768,0.000000,9178.553681
855.965646,-1480.411884,-536.266849,9326.594869
855.965975,0.000000,-536.266849,8882.471304
855.966304,962.267725,0.000000,8660.409521
855.966634,1924.535449,1072.533697,9104.533087
855.966963,2368.659014,1455.581446,9844.739029
855.967293,1850.514855,2604.724693,10732.986159
855.967622,1036.288319,3907.087040,10807.006753
855.967952,0.000000,3600.648841,10362.883188
855.968281,-370.102971,2681.334243,9548.656652
855.968610,0.000000,383.047749,9918.759623
855.968940,0.000000,-536.266849,8882.471304
855.969269,-296.082377,-1225.752797,8290.306550
855.969599,-592.164754,-1149.143247,7994.224174
855.969928,-962.267725,-536.266849,8438.347739
855.970258,-1184.329507,76.609550,8586.388927
855.970587,-1184.329507,1225.752797,9844.739029
855.970916,-1110.308913,2298.286494,10214.842000
855.971246,-1924.535449,3140.991542,10436.903782
855.971575,-2516.700203,2528.115143,10362.883188
855.971905,-2738.761985,1685.410096,10066.800811
855.972234,-3182.885551,842.705048,10066.800811
855.972564,-2368.659014,0.000000,9992.780217
855.972893,-1628.453072,-919.314598,9474.636058
855.973222,-1036.288319,-1225.752797,8882.471304
855.973552,-222.061783,-995.924147,8734.430116
855.973881,444.123565,-153.219100,9178.553681
855.974211,666.185348,1991.848295,10066.800811
855.974540,148.041188,2911.162892,10436.903782
855.974870,-444.123565,3524.039291,10510.924376
855.975199,-814.226536,3140.991542,9992.780217
855.975528,-518.144159,1608.800546,9696.697840
855.975858,-592.164754,459.657299,9474.636058
855.976187,-666.185348,-229.828649,8882.471304
855.976517,-1110.308913,-919.314598,9030.512492
855.976846,-1998.556043,-383.047749,8956.491898
855.977175,-2590.720797,1225.752797,8734.430116
855.977505,-2294.638420,1072.533697,9400.615463
855.977834,-1702.473667,1762.019645,10066.800811
855.978164,-1924.535449,2451.505594,10214.842000
855.978493,-2442.679609,2374.896044,9770.718434
855.978823,-2886.803174,1225.752797,9992.780217
855.979152,-2960.823768,1378.971896,9474.636058
855.979481,-2442.679609,689.485948,9474.636058
855.979811,-1554.432478,-459.657299,9252.574275
855.980140,-888.247130,-919.314598,8660.409521
855.980470,0.000000,-689.485948,8586.388927
855.980799,814.226536,-306.438199,9696.697840
855.981129,740.205942,1378.971896,10510.924376
855.981458,370.102971,3370.820191,10658.965565
855.981787,0.000000,3370.820191,10436.903782
855.982117,0.000000,2834.553343,10362.883188
855.982446,518.144159,2221.676944,9622.677246
855.982776,814.226536,842.705048,8660.409521
855.983105,1406.391290,-536.266849,8438.347739
855.983435,1184.329507,-689.485948,8290.306550
855.983764,296.082377,-306.438199,8512.368333
855.984093,-370.102971,766.095498,8586.388927
855.984423,-518.144159,1072.533697,9474.636058
855.984752,-1184.329507,1915.238745,10732.986159
855.985082,-1702.473667,2681.334243,10807.006753
855.985411,-2368.659014,2298.286494,10658.965565
855.985741,-2960.823768,1455.581446,9844.739029
855.986070,-3404.947333,459.657299,9918.759623
855.986399,-2960.823768,-153.219100,9548.656652
855.986729,-2294.638420,-995.924147,9326.594869
855.987058,-1332.370696,-1685.410096,8808.450710
855.987388,-740.205942,-1225.752797,8364.327145
855.987717,0.000000,-689.485948,8660.409521
855.988047,222.061783,536.266849,9770.718434
855.988376,-296.082377,1991.848295,10288.862594
855.988705,-888.247130,2911.162892,10732.986159
855.989035,-1184.329507,2757.943793,10584.944971
855.989364,-814.226536,2221.676944,10362.883188
855.989694,-370.102971,689.485948,9622.677246
855.990023,0.000000,-229.828649,9030.512492
855.990353,0.000000,-919.314598,8956.491898
855.990682,-962.267725,-306.438199,8808.450710
855.991011,-1702.473667,1455.581446,8586.388927
855.991341,-1776.494261,1532.190996,9104.533087
855.991670,-1628.453072,1455.581446,9548.656652
855.992000,-1998.556043,2298.286494,9992.780217
855.992329,-2590.720797,1762.019645,10214.842000
855.992659,-3404.947333,1302.362347,10214.842000
855.992988,-4293.194464,842.705048,9400.615463
855.993317,-3478.967927,459.657299,9548.656652
855.993647,-2072.576638,-1302.362347,9178.553681
855.993976,-888.247130,-1532.190996,8882.471304
855.994306,-370.102971,-919.314598,8734.430116
855.994635,0.000000,229.828649,9400.615463
855.994965,814.226536,1838.629195,9844.739029
855.995294,148.041188,3294.210641,10881.027347
855.995623,0.000000,4060.306139,10658.965565
855.995953,-370.102971,3447.429741,10140.821405
855.996282,-148.041188,2681.334243,9178.553681
855.996612,518.144159,1149.143247,8808.450710
855.996941,888.247130,0.000000,7994.224174
855.997271,814.226536,-766.095498,8068.244768
855.997600,222.061783,-459.657299,7994.224174
855.997929,-518.144159,0.000000,8438.347739
855.998259,-518.144159,1378.971896,8956.491898
855.998588,-666.185348,1532.190996,10288.862594
855.998918,-1554.432478,2145.067394,10436.903782
855.999247,-2368.659014,2604.724693,10510.924376
855.999576,-2886.803174,2068.457845,10066.800811
855.999906,-2812.782580,689.485948,9696.697840
856.000235,-2368.659014,0.000000,9844.739029
856.000565,-2220.617826,-766.095498,9474.636058
856.000894,-1998.556043,-1225.752797,8808.450710
856.001224,-1554.432478,-1225.752797,8882.471304
856.001553,-888.247130,-612.876398,9474.636058
856.001882,-814.226536,306.438199,9992.780217
856.002212,-1184.329507,1532.190996,10584.944971
856.002541,-1554.432478,2757.943793,11103.089130
856.002871,-1628.453072,2911.162892,10881.027347
856.003200,-1184.329507,2221.676944,10140.821405
856.003530,-444.123565,1072.533697,9178.553681
856.003859,0.000000,153.219100,8660.409521
856.004188,370.102971,-383.047749,8512.368333
856.004518,-444.123565,153.219100,8512.368333
856.004847,-962.267725,919.314598,9030.512492
856.005177,-1406.391290,842.705048,9622.677246
856.005506,-1998.556043,1149.143247,10807.006753
856.005836,-2738.761985,2145.067394,11325.150913
856.006165,-3552.988522,1762.019645,10881.027347
856.006494,-3552.988522,919.314598,10288.862594
856.006824,-3404.947333,-459.657299,9548.656652
856.007153,-2368.659014,-306.438199,9104.533087
856.007483,-1406.391290,-766.095498,8586.388927
856.007812,-444.123565,-536.266849,7994.224174
856.008142,148.041188,-306.438199,8068.244768
856.008471,814.226536,383.047749,8586.388927
856.008800,1332.370696,1072.533697,9992.780217
856.009130,666.185348,2834.553343,10362.883188
856.009459,0.000000,3983.696590,10658.965565
856.009789,-518.144159,3600.648841,10214.842000
856.010118,-666.185348,2298.286494,9622.677246
856.010448,0.000000,842.705048,8956.491898
856.010777,148.041188,0.000000,8438.347739
856.011106,666.185348,-383.047749,8364.327145
856.011436,148.041188,-153.219100,8142.265362
856.011765,-370.102971,995.924147,8142.265362
856.012095,-444.123565,1838.629195,8734.430116
856.012424,-296.082377,1302.362347,9474.636058
856.012754,-740.205942,2604.724693,10510.924376
856.013083,-1776.494261,3064.381992,10436.903782
856.013412,-2146.597232,2068.457845,10214.842000
856.013742,-2294.638420,1072.533697,10066.800811
856.014071,-2368.659014,459.657299,9696.697840
856.014401,-1924.535449,-383.047749,9770.718434
856.014730,-1332.370696,-995.924147,9326.594869
856.015060,-962.267725,-689.485948,9252.574275
856.015389,-888.247130,0.000000,9548.656652
856.015718,-518.144159,536.266849,9918.759623
856.016048,-814.226536,1838.629195,10658.965565
856.016377,-962.267725,2681.334243,10584.944971
856.016707,-1406.391290,3140.991542,10436.903782
856.017036,-1480.411884,1915.238745,9918.759623
856.017366,-1406.391290,1532.190996,9178.553681
856.017695,-814.226536,919.314598,8512.368333
856.018024,-222.061783,0.000000,7846.182985
856.018354,-666.185348,0.000000,7698.141797
856.018683,-1406.391290,76.609550,8290.306550
856.019013,-2072.576638,919.314598,9252.574275
856.019342,-2664.741391,919.314598,10436.903782
856.019671,-3034.844362,1991.848295,11547.212695
856.020001,-3701.029710,2068.457845,11473.192101
856.020330,-3923.091493,995.924147,10436.903782
856.020660,-3478.967927,0.000000,9474.636058
856.020989,-2072.576638,-919.314598,8882.471304
856.021318,-592.164754,-1072.533697,8586.388927
856.021648,-222.061783,-1149.143247,8364.327145
856.021977,296.082377,-536.266849,8660.409521
856.022306,814.226536,459.657299,8734.430116
856.022636,1258.350101,842.705048,9474.636058
856.022965,1628.453072,3370.820191,10732.986159
856.023295,592.164754,3600.648841,10732.986159
856.023624,-370.102971,3294.210641,10362.883188
856.023953,-518.144159,2145.067394,9992.780217
856.024283,-518.144159,612.876398,9474.636058
856.024612,0.000000,0.000000,8882.471304
856.024941,0.000000,-995.924147,8512.368333
856.025271,-444.123565,-689.485948,8660.409521
856.025600,-518.144159,306.438199,8660.409521
856.025929,-296.082377,766.095498,9030.512492
856.026259,0.000000,1685.410096,9992.780217
856.026588,-814.226536,2681.334243,10288.862594
856.026918,-2146.597232,3294.210641,10584.944971
856.027247,-2664.741391,2604.724693,10140.821405
856.027576,-2960.823768,1302.362347,9622.677246
856.027906,-2738.761985,0.000000,9326.594869
856.028235,-1850.514855,-459.657299,9474.636058
856.028564,-1110.308913,-1378.971896,9178.553681
856.028894,-962.267725,-1072.533697,8956.491898
856.029223,-518.144159,0.000000,9104.533087
856.029553,222.061783,612.876398,9548.656652
856.029882,814.226536,1608.800546,10584.944971
856.030211,296.082377,3447.429741,10732.986159
856.030541,-296.082377,4213.525239,10214.842000
856.030870,-222.061783,2681.334243,9548.656652
856.031199,-222.061783,1532.190996,9178.553681
856.031529,0.000000,459.657299,8142.265362
856.031858,74.020594,-383.047749,8438.347739
856.032187,-814.226536,-306.438199,8586.388927
856.032517,-2146.597232,383.047749,8512.368333
856.032846,-2442.679609,919.314598,8734.430116
856.033176,-2664.741391,766.095498,9770.718434
856.033505,-2294.638420,1455.581446,10584.944971
856.033834,-3108.864956,2221.676944,10955.047942
856.034164,-4219.173869,1608.800546,10510.924376
856.034493,-4219.173869,459.657299,10658.965565
856.034822,-3701.029710,0.000000,10140.821405
856.035152,-2368.659014,-1149.143247,9548.656652
856.035481,-1480.411884,-1762.019645,8734.430116
856.035811,222.061783,-1532.190996,8586.388927
856.036140,1036.288319,-536.266849,8808.450710
856.036469,1702.473667,766.095498,9696.697840
856.036799,1628.453072,1915.238745,10510.924376
856.037128,1258.350101,3983.696590,10436.903782
856.037457,74.020594,3753.867940,10732.986159
856.037787,-222.061783,2757.943793,10436.903782
856.038116,0.000000,1608.800546,9770.718434
856.038445,370.102971,0.000000,8808.450710
856.038775,592.164754,-1072.533697,7772.162391
856.039104,74.020594,-1072.533697,8290.306550
856.039434,-888.247130,-383.047749,8512.368333
856.039763,-1628.453072,306.438199,8808.450710
856.040092,-1850.514855,1302.362347,9474.636058
856.040422,-1628.453072,2298.286494,9992.780217
856.040751,-2294.638420,2681.334243,9918.759623
856.041080,-2368.659014,2604.724693,9622.677246
856.041410,-2368.659014,1838.629195,9474.636058
856.041739,-2442.679609,536.266849,9326.594869
856.042069,-1998.556043,0.000000,9178.553681
856.042398,-1998.556043,-766.095498,8660.409521
856.042727,-1628.453072,-1149.143247,8660.409521
856.043057,-1110.308913,-612.876398,8808.450710
856.043386,-740.205942,0.000000,9252.574275
856.043715,-444.123565,1378.971896,9474.636058
856.044045,-666.185348,2145.067394,9992.780217
856.044374,-1332.370696,2911.162892,10584.944971
856.044703,-1776.494261,2681.334243,10436.903782
856.045033,-1406.391290,1532.190996,10288.862594
856.045362,-888.247130,459.657299,9918.759623
856.045692,-222.061783,-1149.143247,9326.594869
856.046021,0.000000,-689.485948,9178.553681
856.046350,-888.247130,0.000000,9030.512492
856.046680,-1036.288319,306.438199,9400.615463
856.047009,-962.267725,995.924147,9696.697840
856.047338,-1110.308913,1915.238745,10362.883188
856.047668,-1036.288319,1915.238745,10658.965565
856.047997,-2072.576638,2068.457845,10140.821405
856.048327,-2442.679609,1378.971896,9992.780217
856.048656,-2590.720797,459.657299,9844.739029
856.048985,-2368.659014,0.000000,9770.718434
856.049315,-1776.494261,-995.924147,8882.471304
856.049644,-1184.329507,-1072.533697,9030.512492
856.049973,-814.226536,-689.485948,8956.491898
856.050303,-148.041188,612.876398,9178.553681
856.050632,148.041188,995.924147,9622.677246
856.050961,74.020594,2604.724693,9992.780217
856.051291,-370.102971,3524.039291,10584.944971
856.051620,-888.247130,3140.991542,9844.739029
856.051950,-592.164754,2145.067394,9252.574275
856.052279,0.000000,1072.533697,8290.306550
856.052608,814.226536,76.609550,7772.162391
856.052938,1258.350101,-766.095498,7846.182985
856.053267,444.123565,153.219100,8290.306550
856.053596,-148.041188,1149.143247,8586.388927
856.053926,-296.082377,1225.752797,9326.594869
856.054255,-518.144159,2451.505594,10214.842000
856.054585,-666.185348,3064.381992,10436.903782
856.054914,-1776.494261,2834.553343,10214.842000
856.055243,-2072.576638,2068.457845,10288.862594
856.055573,-2146.597232,1302.362347,10214.842000
856.055902,-2072.576638,536.266849,9992.780217
856.056231,-1702.473667,0.000000,9474.636058
856.056561,-1554.432478,-995.924147,9252.574275
856.056890,-962.267725,-842.705048,9178.553681
856.057219,-666.185348,-306.438199,9252.574275
856.057549,-518.144159,459.657299,9770.718434
856.057878,-740.205942,1455.581446,9844.739029
856.058208,-1554.432478,2834.553343,10066.800811
856.058537,-1480.411884,2834.553343,10510.924376
856.058866,-1184.329507,1991.848295,9844.739029
856.059196,-740.205942,995.924147,9326.594869
856.059525,-296.082377,-229.828649,9030.512492
856.059854,0.000000,-306.438199,9178.553681
856.060184,-814.226536,229.828649,9104.533087
856.060513,-1480.411884,1378.971896,8882.471304
856.060843,-1776.494261,1762.019645,9030.512492
856.061172,-1628.453072,1762.019645,9844.739029
856.061501,-1702.473667,1838.629195,9770.718434
856.061831,-2442.679609,2068.457845,9548.656652
856.062160,-2812.782580,1302.362347,9770.718434
856.062489,-3034.844362,689.485948,9474.636058
856.062819,-3034.844362,76.609550,9400.615463
856.063148,-1480.411884,-229.828649,8808.450710
856.063477,-1184.329507,-1225.752797,8660.409521
856.063807,-518.144159,-689.485948,9030.512492
856.064136,296.082377,153.219100,9622.677246
856.064466,444.123565,1378.971896,9770.718434
856.064795,370.102971,2068.457845,10066.800811
856.065124,-222.061783,3140.991542,10066.800811
856.065454,-444.123565,2911.162892,10140.821405
856.065783,-296.082377,1991.848295,9622.677246
856.066112,0.000000,1072.533697,9030.512492
856.066442,814.226536,-229.828649,8660.409521
856.066771,888.247130,-536.266849,8068.244768
856.067101,592.164754,-612.876398,8438.347739
856.067430,-370.102971,689.485948,8586.388927
856.067759,-592.164754,1149.143247,9474.636058
856.068089,-740.205942,1915.238745,10288.862594
856.068418,-962.267725,2911.162892,10881.027347
856.068747,-1998.556043,2374.896044,10510.924376
856.069077,-2516.700203,1685.410096,10288.862594
856.069406,-2664.741391,995.924147,9622.677246
856.069736,-2368.659014,0.000000,9548.656652
856.070065,-1702.473667,-153.219100,9696.697840
856.070394,-814.226536,-1149.143247,8660.409521
856.070724,-1036.288319,-459.657299,8364.327145
856.071053,-370.102971,-459.657299,8808.450710
856.071382,0.000000,459.657299,9622.677246
856.071712,-148.041188,1838.629195,10510.924376
856.072041,-888.247130,3370.820191,10732.986159
856.072370,-1628.453072,3447.429741,10658.965565
856.072700,-1480.411884,2451.505594,10510.924376
856.073029,-1110.308913,919.314598,9770.718434
856.073359,-592.164754,0.000000,9252.574275
856.073688,-592.164754,-766.095498,8512.368333
856.074017,-888.247130,0.000000,8216.285956
856.074347,-1480.411884,612.876398,8808.450710
856.074676,-1628.453072,1225.752797,8956.491898
856.075005,-1702.473667,1915.238745,9474.636058
856.075335,-1554.432478,2528.115143,9548.656652
856.075664,-1628.453072,2911.162892,9548.656652
856.075994,-2516.700203,1685.410096,9770.718434
856.076323,-2960.823768,919.314598,9844.739029
856.076652,-3182.885551,459.657299,10066.800811
856.076982,-2590.720797,-229.828649,9696.697840
856.077311,-1480.411884,-612.876398,9178.553681
856.077640,-814.226536,-1378.971896,8734.430116
856.077970,222.061783,-536.266849,8882.471304
856.078299,740.205942,459.657299,9326.594869
856.078628,1184.329507,1685.410096,10214.842000
856.078958,222.061783,3217.601092,10510.924376
856.079287,296.082377,3447.429741,10510.924376
856.079617,-148.041188,2451.505594,10214.842000
856.079946,222.061783,1149.143247,9400.615463
856.080275,814.226536,-229.828649,8808.450710
856.080605,1184.329507,-1302.362347,8290.306550
856.080934,814.226536,-689.485948,8586.388927
856.081263,-222.061783,-229.828649,8660.409521
856.081593,-888.247130,612.876398,9326.594869
856.081922,-962.267725,1302.362347,10214.842000
856.082252,-1184.329507,2451.505594,10658.965565
856.082581,-1332.370696,3140.991542,10881.027347
856.082910,-2146.597232,2298.286494,10214.842000
856.083240,-2294.638420,1378.971896,9770.718434
856.083569,-2368.659014,612.876398,9474.636058
856.083898,-1998.556043,0.000000,9326.594869
856.084228,-1480.411884,-689.485948,8438.347739
856.084557,-1184.329507,-1378.971896,8586.388927
856.084886,-1036.288319,-689.485948,8808.450710
856.085216,-962.267725,-229.828649,9400.615463
856.085545,-962.267725,689.485948,10288.862594
856.085875,-1480.411884,2451.505594,10732.986159
856.086204,-1924.535449,3064.381992,10732.986159
856.086533,-1628.453072,2604.724693,10288.862594
856.086863,-1258.350101,1762.019645,9844.739029
856.087192,-518.144159,459.657299,9252.574275
856.087521,0.000000,-383.047749,9252.574275
856.087851,-444.123565,-306.438199,8734.430116
856.088180,-1258.350101,612.876398,8512.368333
856.088510,-1702.473667,1149.143247,8216.285956
856.088839,-1258.350101,612.876398,9474.636058
856.089168,-1554.432478,1302.362347,10288.862594
856.089498,-2590.720797,2451.505594,10955.047942
856.089827,-3256.906145,2145.067394,10362.883188
856.090156,-3775.050304,1149.143247,10288.862594
856.090486,-3404.947333,612.876398,10214.842000
856.090815,-2516.700203,-153.219100,9992.780217
856.091144,-1332.370696,-842.705048,9178.553681
856.091474,-222.061783,-306.438199,8512.368333
856.091803,666.185348,-153.219100,8586.388927
856.092133,1110.308913,689.485948,9326.594869
856.092462,962.267725,1762.019645,10214.842000
856.092791,370.102971,3064.381992,10214.842000
856.093121,-518.144159,3753.867940,9400.615463
856.093450,-592.164754,2451.505594,9474.636058
856.093779,0.000000,1072.533697,9474.636058
856.094109,444.123565,76.609550,8956.491898
856.094438,814.226536,-459.657299,8512.368333
856.094768,296.082377,-536.266849,8290.306550
856.095097,74.020594,153.219100,8290.306550
856.095426,-222.061783,842.705048,8956.491898
856.095756,-370.102971,1378.971896,9770.718434
856.096085,-370.102971,2451.505594,10288.862594
856.096414,-740.205942,2911.162892,10140.821405
856.096744,-1480.411884,2451.505594,10584.944971
856.097073,-2294.638420,1455.581446,10066.800811
856.097402,-2368.659014,766.095498,9770.718434
856.097732,-2220.617826,-229.828649,9474.636058
856.098061,-1332.370696,-842.705048,9104.533087
856.098391,-1184.329507,-1378.971896,8068.244768
856.098720,-666.185348,-1225.752797,8808.450710
856.099049,-518.144159,-689.485948,9474.636058
856.099379,-370.102971,1072.533697,10362.883188
856.099708,-814.226536,2681.334243,10510.924376
856.100037,-1406.391290,4213.525239,10658.965565
856.100367,-1036.288319,2911.162892,9992.780217
856.100696,-592.164754,1608.800546,9918.759623
856.101026,-296.082377,306.438199,9622.677246
856.101355,-444.123565,0.000000,9104.533087
856.101684,-1110.308913,-153.219100,8882.471304
856.102014,-1776.494261,842.705048,8364.327145
856.102343,-2442.679609,689.485948,8586.388927
856.102672,-1998.556043,306.438199,9326.594869
856.103002,-1924.535449,1685.410096,10140.821405
856.103331,-2368.659014,2298.286494,10288.862594
856.103660,-2664.741391,2451.505594,10510.924376
856.103990,-3552.988522,1455.581446,10288.862594
856.104319,-3478.967927,919.314598,10288.862594
856.104649,-2664.741391,0.000000,9474.636058
856.104978,-1332.370696,-612.876398,9030.512492
856.105307,-222.061783,-536.266849,8438.347739
856.105637,666.185348,-919.314598,8438.347739
856.105966,888.247130,0.000000,9030.512492
856.106295,518.144159,1608.800546,9770.718434
856.106625,148.041188,2911.162892,10658.965565
856.106954,-148.041188,3753.867940,10807.006753
856.107284,-740.205942,3447.429741,10288.862594
856.107613,-666.185348,1915.238745,9548.656652
856.107942,-296.082377,383.047749,8808.450710
856.108272,370.102971,-459.657299,8438.347739
856.108601,518.144159,-919.314598,8364.327145
856.108930,0.000000,-306.438199,8956.491898
856.109260,-814.226536,459.657299,8734.430116
856.109589,-666.185348,1378.971896,9400.615463
856.109918,-518.144159,1762.019645,10066.800811
856.110248,-740.205942,2528.115143,10214.842000
856.110577,-1258.350101,2604.724693,10140.821405
856.110907,-1850.514855,1455.581446,9918.759623
856.111236,-1998.556043,1072.533697,9696.697840
856.111565,-1924.535449,76.609550,9400.615463
856.111895,-1036.288319,-842.705048,9104.533087
856.112224,-296.082377,-1608.800546,8734.430116
856.112553,370.102971,-919.314598,8660.409521
856.112883,296.082377,-306.438199,9178.553681
856.113212,370.102971,1455.581446,9918.759623
856.113542,0.000000,2604.724693,10658.965565
856.113871,-814.226536,3600.648841,10881.027347
856.114200,-1036.288319,3217.601092,10288.862594
856.114530,-1258.350101,1915.238745,9696.697840
856.114859,-1184.329507,536.266849,9104.533087
856.115188,-1184.329507,-689.485948,8882.471304
856.115518,-1480.411884,-1378.971896,8956.491898
856.115847,-2220.617826,-1149.143247,8882.471304
856.116177,-2812.782580,536.266849,8660.409521
856.116506,-2886.803174,766.095498,9474.636058
856.116835,-2294.638420,1225.752797,10288.862594
856.117165,-1850.514855,1532.190996,10436.903782
856.117494,-2072.576638,2068.457845,10584.944971
856.117823,-2442.679609,1455.581446,10214.842000
856.118153,-2220.617826,1225.752797,9770.718434
856.118482,-1850.514855,766.095498,9770.718434
856.118811,-962.267725,0.000000,9400.615463
856.119141,-222.061783,-536.266849,8956.491898
856.119470,518.144159,-459.657299,8586.388927
856.119800,1036.288319,153.219100,8734.430116
856.120129,962.267725,766.095498,9622.677246
856.120458,444.123565,2221.676944,10214.842000
856.120788,-592.164754,2911.162892,10214.842000
856.121117,-888.247130,2757.943793,10288.862594
856.121446,-1110.308913,1991.848295,9992.780217
856.121776,-888.247130,995.924147,9178.553681
856.122105,-296.082377,-383.047749,8438.347739
856.122435,0.000000,-919.314598,7994.224174
856.122764,222.061783,-459.657299,8068.244768
856.123093,-296.082377,383.047749,8216.285956
856.123423,-370.102971,1455.581446,8882.471304
856.123752,-518.144159,2221.676944,9844.739029
856.124081,-962.267725,3370.820191,10362.883188
856.124411,-1776.494261,2987.772442,10066.800811
856.124740,-2220.617826,2298.286494,9622.677246
856.125069,-2812.782580,1149.143247,9696.697840
856.125399,-3034.844362,153.219100,9622.677246
856.125728,-2960.823768,-766.095498,9622.677246
856.126058,-2220.617826,-1685.410096,9326.594869
856.126387,-1406.391290,-1838.629195,9178.553681
856.126716,-962.267725,-995.924147,9548.656652
856.127046,0.000000,0.000000,9918.759623
856.127375,296.082377,1302.362347,10658.965565
856.127704,370.102971,2987.772442,10732.986159
856.128034,0.000000,3447.429741,10658.965565
856.128363,74.020594,2681.334243,9992.780217
856.128693,74.020594,1685.410096,9474.636058
856.129022,370.102971,689.485948,9030.512492
856.129351,0.000000,-459.657299,8734.430116
856.129681,-1036.288319,-536.266849,8956.491898
856.130010,-2368.659014,0.000000,9030.512492
856.130339,-3182.885551,383.047749,9474.636058
856.130669,-2960.823768,842.705048,9844.739029
856.130998,-2960.823768,1302.362347,9992.780217
856.131328,-3108.864956,1455.581446,9770.718434
856.131657,-3627.009116,1072.533697,9104.533087
856.131986,-3404.947333,612.876398,9770.718434
856.132316,-3108.864956,689.485948,9622.677246
856.132645,-2664.741391,229.828649,9326.594869
856.132974,-1924.535449,-536.266849,8956.491898
856.133304,-740.205942,-995.924147,8586.388927
856.133633,0.000000,-459.657299,9178.553681
856.133963,740.205942,306.438199,9696.697840
856.134292,888.247130,1532.190996,10436.903782
856.134621,222.061783,2987.772442,10288.862594
856.134951,0.000000,3294.210641,10436.903782
856.135280,0.000000,2298.286494,9622.677246
856.135609,592.164754,1378.971896,9400.615463
856.135939,1036.288319,689.485948,8734.430116
856.136268,1258.350101,-459.657299,8290.306550
856.136597,962.267725,-459.657299,8216.285956
856.136927,0.000000,229.828649,8438.347739
856.137256,0.000000,612.876398,9104.533087
856.137586,-888.247130,1455.581446,9992.780217
856.137915,-1332.370696,2451.505594,10658.965565
856.138244,-2368.659014,2987.772442,10584.944971
856.138574,-2442.679609,1532.190996,9992.780217
856.138903,-3182.885551,1378.971896,9548.656652
856.139232,-3034.844362,842.705048,9696.697840
856.139562,-2368.659014,0.000000,9400.615463
856.139891,-1702.473667,-995.924147,8882.471304
856.140221,-1110.308913,-1072.533697,8438.347739
856.140550,-444.123565,-536.266849,8438.347739
856.140879,0.000000,0.000000,9104.533087
856.141209,0.000000,1072.533697,9844.739029
856.141538,-296.082377,2757.943793,10362.883188
856.141867,-962.267725,3370.820191,10436.903782
856.142197,-962.267725,2604.724693,9992.780217
856.142526,-222.061783,1149.143247,9770.718434
856.142856,-222.061783,919.314598,9474.636058
856.143185,74.020594,0.000000,9104.533087
856.143514,-148.041188,-229.828649,8586.388927
856.143844,-1184.329507,306.438199,8586.388927
856.144173,-962.267725,383.047749,8808.450710
856.144502,-1480.411884,1149.143247,9696.697840
856.144832,-1850.514855,1991.848295,10436.903782
856.145161,-2590.720797,2451.505594,10436.903782
856.145491,-3478.967927,1915.238745,9844.739029
856.145820,-3330.926739,842.705048,9770.718434
856.146149,-3404.947333,306.438199,9992.780217
856.146479,-3108.864956,-229.828649,9844.739029
856.146808,-2368.659014,-689.485948,9474.636058
856.147137,-1480.411884,-1149.143247,9400.615463
856.147467,-370.102971,-306.438199,8808.450710
856.147796,444.123565,612.876398,9770.718434
856.148126,740.205942,1225.752797,10140.821405
856.148455,444.123565,2681.334243,10214.842000
856.148784,0.000000,3600.648841,9844.739029
856.149114,0.000000,2451.505594,9474.636058
856.149443,0.000000,1838.629195,9178.553681
856.149772,814.226536,689.485948,8956.491898
856.150102,888.247130,-536.266849,8438.347739
856.150431,444.123565,-1072.533697,8142.265362
856.150760,-222.061783,0.000000,8438.347739
856.151090,-370.102971,766.095498,8808.450710
856.151419,-888.247130,1225.752797,9548.656652
856.151749,-962.267725,1991.848295,10288.862594
856.152078,-1776.494261,2681.334243,10288.862594
856.152407,-2368.659014,2451.505594,9918.759623
856.152737,-2368.659014,1762.019645,9548.656652
856.153066,-2664.741391,766.095498,9474.636058
856.153395,-2664.741391,153.219100,9548.656652
856.153725,-2294.638420,-689.485948,9030.512492
856.154054,-1924.535449,-1149.143247,8586.388927
856.154384,-1036.288319,-995.924147,9030.512492
856.154713,-888.247130,-153.219100,9252.574275
856.155042,0.000000,766.095498,10066.800811
856.155372,-222.061783,2221.676944,10584.944971
856.155701,-888.247130,3064.381992,10510.924376
856.156030,-740.205942,2911.162892,10288.862594
856.156360,-370.102971,2145.067394,9992.780217
856.156689,370.102971,1302.362347,9548.656652
856.157019,74.020594,306.438199,9252.574275
856.157348,0.000000,-153.219100,9030.512492
856.157677,-814.226536,153.219100,9326.594869
856.158007,-1850.514855,612.876398,9252.574275
856.158336,-1924.535449,842.705048,9696.697840
856.158665,-2072.576638,1455.581446,10362.883188
856.158995,-2516.700203,2068.457845,10214.842000
856.159324,-3330.926739,2068.457845,9844.739029
856.159654,-3404.947333,1378.971896,9770.718434
856.159983,-2886.803174,459.657299,9474.636058
856.160312,-2368.659014,0.000000,9326.594869
856.160642,-1924.535449,-459.657299,9178.553681
856.160971,-1184.329507,-459.657299,8438.347739
856.161300,-296.082377,-153.219100,8512.368333
856.161630,518.144159,689.485948,8882.471304
856.161959,962.267725,1378.971896,9622.677246
856.162288,1036.288319,2451.505594,10658.965565
856.162618,-148.041188,3294.210641,10288.862594
856.162947,-592.164754,2528.115143,10140.821405
856.163277,-666.185348,2221.676944,9696.697840
856.163606,0.000000,995.924147,9326.594869
856.163935,444.123565,-153.219100,8512.368333
856.164265,592.164754,-842.705048,8216.285956
856.164594,0.000000,-459.657299,8142.265362
856.164923,-222.061783,459.657299,8068.244768
856.165253,222.061783,995.924147,8882.471304
856.165582,-222.061783,1532.190996,10140.821405
856.165912,-1036.288319,2604.724693,10214.842000
856.166241,-2146.597232,2451.505594,10362.883188
856.166570,-2590.720797,1608.800546,10214.842000
856.166900,-2738.761985,1072.533697,10584.944971
856.167229,-2886.803174,0.000000,10362.883188
856.167558,-2368.659014,-842.705048,10288.862594
856.167888,-1998.556043,-1302.362347,9696.697840
856.168217,-1258.350101,-995.924147,9326.594869
856.168547,-592.164754,-306.438199,8956.491898
856.168876,0.000000,0.000000,9844.739029
856.169205,0.000000,1838.629195,10288.862594
856.169535,-592.164754,3294.210641,10140.821405
856.169864,-666.185348,3064.381992,9918.759623
856.170193,-148.041188,1915.238745,9474.636058
856.170523,-518.144159,1072.533697,8882.471304
856.170852,-296.082377,0.000000,8734.430116
856.171182,-518.144159,-689.485948,8808.450710
856.171511,-1480.411884,-383.047749,8882.471304
856.171840,-2442.679609,153.219100,9178.553681
856.172170,-2442.679609,459.657299,9992.780217
856.172499,-2664.741391,995.924147,10436.903782
856.172828,-2886.803174,1838.629195,10436.903782
856.173158,-3182.885551,2068.457845,9918.759623
856.173487,-3256.906145,995.924147,9844.739029
856.173816,-2812.782580,1072.533697,9548.656652
856.174146,-2220.617826,1072.533697,9326.594869
856.174475,-1628.453072,0.000000,9030.512492
856.174805,-740.205942,0.000000,8512.368333
856.175134,0.000000,76.609550,8586.388927
856.175463,592.164754,536.266849,9400.615463
856.175793,888.247130,1302.362347,9622.677246
856.176122,370.102971,2298.286494,10436.903782
856.176451,-222.061783,3064.381992,10510.924376
856.176781,-888.247130,2757.943793,10362.883188
856.177110,-888.247130,1838.629195,10288.862594
856.177440,-148.041188,612.876398,9474.636058
856.177769,-222.061783,76.609550,9252.574275
856.178098,0.000000,-306.438199,8882.471304
856.178428,-148.041188,-229.828649,8586.388927
856.178757,-222.061783,689.485948,8512.368333
856.179086,-222.061783,1072.533697,8956.491898
856.179416,0.000000,1991.848295,9326.594869
856.179745,-888.247130,2757.943793,9992.780217
856.180075,-1628.453072,2911.162892,9992.780217
856.180404,-1924.535449,1685.410096,9548.656652
856.180733,-2368.659014,459.657299,9400.615463
856.181063,-2442.679609,536.266849,10214.842000
856.181392,-1998.556043,-229.828649,9400.615463
856.181721,-1480.411884,-842.705048,9104.533087
856.182051,-1110.308913,-995.924147,8882.471304
856.182380,-592.164754,0.000000,9252.574275
856.182710,74.020594,919.314598,9844.739029
856.183039,0.000000,1532.190996,10288.862594
856.183368,-370.102971,2911.162892,10436.903782
856.183698,-888.247130,3217.601092,9992.780217
856.184027,-962.267725,2221.676944,9622.677246
856.184356,-518.144159,1378.971896,9030.512492
856.184686,-444.123565,76.609550,8586.388927
856.185015,-518.144159,-536.266849,8808.450710
856.185344,-962.267725,-689.485948,8956.491898
856.185674,-1998.556043,0.000000,8882.471304
856.186003,-2368.659014,76.609550,9326.594869
856.186333,-2664.741391,995.924147,9992.780217
856.186662,-2442.679609,1991.848295,10584.944971
856.186991,-2664.741391,2604.724693,10214.842000
856.187321,-2516.700203,1838.629195,10140.821405
856.187650,-2368.659014,919.314598,10066.800811
856.187979,-2072.576638,919.314598,9770.718434
856.188309,-1628.453072,153.219100,9918.759623
856.188638,-1258.350101,0.000000,9252.574275
856.188968,-148.041188,-229.828649,8956.491898
856.189297,148.041188,383.047749,9252.574275
856.189626,518.144159,919.314598,9548.656652
856.189956,444.123565,1455.581446,9696.697840
856.190285,-222.061783,2987.772442,10066.800811
856.190614,-666.185348,2987.772442,9844.739029
856.190944,-518.144159,1991.848295,9548.656652
856.191273,-296.082377,1302.362347,8882.471304
856.191603,0.000000,229.828649,7994.224174
856.191932,370.102971,-612.876398,7920.203579
856.192261,148.041188,-459.657299,7698.141797
856.192591,0.000000,459.657299,8068.244768
856.192920,-370.102971,919.314598,8512.368333
856.193249,-296.082377,1149.143247,9622.677246
856.193579,-888.247130,2451.505594,10140.821405
856.193908,-1850.514855,2681.334243,10288.862594
856.194238,-2368.659014,1838.629195,10288.862594
856.194567,-2294.638420,995.924147,10288.862594
856.194896,-1924.535449,0.000000,9992.780217
856.195226,-1406.391290,-383.047749,9622.677246
856.195555,-1258.350101,-459.657299,8808.450710
856.195884,-518.144159,-842.705048,8364.327145
856.196214,0.000000,-766.095498,8882.471304
856.196543,296.082377,153.219100,9622.677246
856.196872,0.000000,2221.676944,10510.924376
856.197202,-1036.288319,3064.381992,10955.047942
856.197531,-1554.432478,3140.991542,10881.027347
856.197861,-1554.432478,2145.067394,10436.903782
856.198190,-1036.288319,1225.752797,9992.780217
856.198519,-814.226536,76.609550,9474.636058
856.198849,-888.247130,-1072.533697,9252.574275
856.199178,-1406.391290,-1072.533697,9474.636058
856.199507,-2146.597232,0.000000,9400.615463
856.199837,-2220.617826,383.047749,9548.656652
856.200166,-1480.411884,1838.629195,10658.965565
856.200496,-1776.494261,1838.629195,10362.883188
856.200825,-2072.576638,2068.457845,9918.759623
856.201154,-1998.556043,1838.629195,9400.615463
856.201484,-2368.659014,1225.752797,9030.512492
856.201813,-1628.453072,995.924147,9326.594869
856.202142,-1628.453072,-383.047749,8882.471304
856.202472,-1184.329507,-229.828649,8660.409521
856.202801,-444.123565,-306.438199,8586.388927
856.203131,0.000000,0.000000,8586.388927
856.203460,888.247130,766.095498,9326.594869
856.203789,1332.370696,1378.971896,9918.759623
856.204119,444.123565,2681.334243,10584.944971
856.204448,-592.164754,3294.210641,10584.944971
856.204777,-1110.308913,2834.553343,10214.842000
856.205107,-962.267725,1838.629195,9178.553681
856.205436,222.061783,919.314598,8290.306550
856.205766,444.123565,-612.876398,7402.059420
856.206095,296.082377,-1072.533697,7402.059420
856.206424,-518.144159,-306.438199,7624.121203
856.206754,-1332.370696,612.876398,8660.409521
856.207083,-1776.494261,1149.143247,10140.821405
856.207412,-1776.494261,2298.286494,11251.130318
856.207742,-2072.576638,2451.505594,11251.130318
856.208071,-2368.659014,1685.410096,10881.027347
856.208401,-1998.556043,612.876398,10955.047942
856.208730,-1554.432478,229.828649,10732.986159
856.209059,-592.164754,-383.047749,10510.924376
856.209389,-444.123565,-842.705048,9548.656652
856.209718,444.123565,-1455.581446,9104.533087
856.210047,1406.391290,-766.095498,8586.388927
856.210377,1850.514855,76.609550,9252.574275
856.210706,1850.514855,1302.362347,9548.656652
856.211035,740.205942,2987.772442,10510.924376
856.211365,-666.185348,3677.258390,10436.903782
856.211694,-1184.329507,2451.505594,10066.800811
856.212024,-1776.494261,1685.410096,9474.636058
856.212353,-1924.535449,536.266849,9030.512492
856.212682,-1998.556043,-1149.143247,8512.368333
856.213012,-2368.659014,-1302.362347,8882.471304
856.213341,-3256.906145,-536.266849,8808.450710
856.213670,-3849.070898,383.047749,9030.512492
856.214000,-3775.050304,536.266849,9474.636058
856.214329,-3256.906145,1762.019645,9992.780217
856.214659,-2812.782580,1838.629195,9844.739029
856.214988,-2886.803174,1762.019645,9474.636058
856.215317,-2590.720797,842.705048,9178.553681
856.215647,-2072.576638,612.876398,9326.594869
856.215976,-1184.329507,766.095498,9770.718434
856.216305,-592.164754,0.000000,9326.594869
856.216635,0.000000,0.000000,8956.491898
856.216964,666.185348,306.438199,9178.553681
856.217294,1480.411884,842.705048,9548.656652
856.217623,1998.556043,1455.581446,10214.842000
856.217952,1184.329507,2068.457845,10436.903782
856.218282,74.020594,2911.162892,10955.047942
856.218611,-1184.329507,2451.505594,10807.006753
856.218940,-1406.391290,1455.581446,10288.862594
856.219270,-1480.411884,689.485948,9030.512492
856.219599,-740.205942,-612.876398,8734.430116
856.219929,-148.041188,-1455.581446,8216.285956
856.220258,-592.164754,-612.876398,8216.285956
856.220587,-1258.350101,306.438199,8660.409521
856.220917,-1480.411884,1302.362347,9474.636058
856.221246,-1332.370696,2604.724693,10066.800811
856.221575,-1776.494261,3600.648841,10214.842000
856.221905,-1998.556043,2374.896044,9844.739029
856.222234,-1924.535449,1302.362347,9622.677246
856.222564,-1628.453072,383.047749,9474.636058
856.222893,-1258.350101,76.609550,9696.697840
856.223222,-592.164754,-689.485948,9326.594869
856.223552,-740.205942,-995.924147,9030.512492
856.223881,-148.041188,-536.266849,8956.491898
856.224211,592.164754,383.047749,9548.656652
856.224540,1184.329507,1302.362347,9696.697840
856.224869,814.226536,2451.505594,9992.780217
856.225199,0.000000,3370.820191,9918.759623
856.225528,-666.185348,3217.601092,9548.656652
856.225858,-962.267725,2068.457845,9400.615463
856.226187,-888.247130,1072.533697,9178.553681
856.226516,-592.164754,229.828649,8660.409521
856.226846,-1184.329507,-919.314598,8660.409521
856.227175,-2146.597232,-306.438199,9178.553681
856.227504,-2812.782580,76.609550,9474.636058
856.227834,-2812.782580,306.438199,9992.780217
856.228163,-2368.659014,1455.581446,10881.027347
856.228493,-3108.864956,2528.115143,10584.944971
856.228822,-3330.926739,2221.676944,10510.924376
856.229151,-3108.864956,1302.362347,10140.821405
856.229481,-2368.659014,919.314598,9992.780217
856.229810,-1628.453072,689.485948,9548.656652
856.230140,-592.164754,0.000000,9178.553681
856.230469,0.000000,-612.876398,8734.430116
856.230798,814.226536,76.609550,8660.409521
856.231128,1258.350101,612.876398,9178.553681
856.231457,1406.391290,1225.752797,9844.739029
856.231787,740.205942,2451.505594,10140.821405
856.232116,-74.020594,3370.820191,10066.800811
856.232445,-666.185348,2604.724693,9696.697840
856.232775,-1110.308913,1762.019645,9696.697840
856.233104,-962.267725,766.095498,9030.512492
856.233434,-666.185348,0.000000,7846.182985
856.233763,-370.102971,-995.924147,7920.203579
856.234092,-444.123565,-459.657299,8216.285956
856.234422,-888.247130,536.266849,8068.244768
856.234751,-962.267725,1072.533697,8734.430116
856.235080,-888.247130,1762.019645,9918.759623
856.235410,-1258.350101,3140.991542,9992.780217
856.235739,-2220.617826,2911.162892,9770.718434
856.236069,-2368.659014,2068.457845,10066.800811
856.236398,-2146.597232,842.705048,9918.759623
856.236727,-1776.494261,0.000000,9992.780217
856.237057,-1332.370696,-612.876398,10140.821405
856.237386,-1110.308913,-1532.190996,9252.574275
856.237716,-518.144159,-1149.143247,9030.512492
856.238045,0.000000,-306.438199,9474.636058
856.238374,444.123565,459.657299,10140.821405
856.238704,370.102971,2374.896044,10658.965565
856.239033,-148.041188,3447.429741,10584.944971
856.239363,-814.226536,3217.601092,10140.821405
856.239692,-888.247130,2604.724693,10066.800811
856.240021,-592.164754,1532.190996,9622.677246
856.240351,-592.164754,689.485948,9474.636058
856.240680,-666.185348,-229.828649,9030.512492
856.241009,-1628.453072,-766.095498,9400.615463
856.241339,-2664.741391,76.609550,9474.636058
856.241668,-2960.823768,306.438199,9918.759623
856.241998,-2590.720797,689.485948,10436.903782
856.242327,-2368.659014,1915.238745,10658.965565
856.242656,-2368.659014,2221.676944,9622.677246
856.242986,-2590.720797,1149.143247,9178.553681
856.243315,-2368.659014,919.314598,8808.450710
856.243645,-1776.494261,689.485948,8956.491898
856.243974,-1184.329507,0.000000,8808.450710
856.244303,-296.082377,-229.828649,8734.430116
856.244633,0.000000,153.219100,8808.450710
856.244962,518.144159,383.047749,8808.450710
856.245292,1110.308913,842.705048,9400.615463
856.245621,888.247130,1149.143247,9918.759623
856.245950,-370.102971,2757.943793,10436.903782
856.246280,-1184.329507,2987.772442,10436.903782
856.246609,-1184.329507,1455.581446,9844.739029
856.246939,-666.185348,1072.533697,9474.636058
856.247268,148.041188,-153.219100,8438.347739
856.247597,962.267725,-766.095498,8290.306550
856.247927,370.102971,-536.266849,7920.203579
856.248256,148.041188,536.266849,8216.285956
856.248585,0.000000,842.705048,9104.533087
856.248915,-296.082377,1608.800546,10510.924376
856.249244,-814.226536,2834.553343,10732.986159
856.249574,-1702.473667,3524.039291,10881.027347
856.249903,-2368.659014,1838.629195,10436.903782
856.250232,-2368.659014,995.924147,10140.821405
856.250562,-2368.659014,76.609550,10140.821405
856.250891,-2072.576638,-689.485948,10066.800811
856.251221,-1480.411884,-995.924147,9252.574275
856.251550,-740.205942,-995.924147,9252.574275
856.251879,-370.102971,-459.657299,9178.553681
856.252209,74.020594,306.438199,9474.636058
856.252538,148.041188,1455.581446,9992.780217
856.252868,-444.123565,3294.210641,9918.759623
856.253197,-962.267725,3294.210641,9992.780217
856.253526,-1036.288319,2681.334243,9696.697840
856.253856,-1184.329507,1149.143247,9252.574275
856.254185,-1110.308913,153.219100,9178.553681
856.254515,-518.144159,-153.219100,8956.491898
856.254844,-1332.370696,-689.485948,8956.491898
856.255173,-2294.638420,229.828649,8956.491898
856.255503,-2590.720797,459.657299,9474.636058
856.255832,-2368.659014,1149.143247,9992.780217
856.256161,-1776.494261,1915.238745,10436.903782
856.256491,-2368.659014,1915.238745,9696.697840
856.256820,-2368.659014,1838.629195,8956.491898
856.257150,-1850.514855,842.705048,9104.533087
856.257479,-1628.453072,612.876398,8956.491898
856.257808,-1110.308913,76.609550,8882.471304
856.258138,-370.102971,-536.266849,8660.409521
856.258467,-222.061783,-536.266849,8956.491898
856.258797,0.000000,229.828649,9474.636058
856.259126,148.041188,383.047749,10362.883188
856.259455,0.000000,1378.971896,11103.089130
856.259785,-444.123565,2528.115143,11325.150913
856.260114,-1850.514855,2681.334243,10955.047942
856.260444,-1628.453072,1915.238745,10584.944971
856.260773,-888.247130,1072.533697,9622.677246
856.261102,0.000000,76.609550,8438.347739
856.261432,814.226536,-536.266849,7476.080014
856.261761,1184.329507,-306.438199,7698.141797
856.262090,370.102971,459.657299,7920.203579
856.262420,-148.041188,995.924147,8808.450710
856.262749,-740.205942,2145.067394,9844.739029
856.263079,-1480.411884,2757.943793,10658.965565
856.263408,-2220.617826,3140.991542,10214.842000
856.263737,-2516.700203,1455.581446,10214.842000
856.264067,-2886.803174,459.657299,9844.739029
856.264396,-2664.741391,0.000000,10288.862594
856.264726,-2368.659014,-612.876398,9622.677246
856.265055,-1702.473667,-612.876398,9178.553681
856.265384,-1406.391290,-1149.143247,7994.224174
856.265714,-370.102971,-383.047749,8808.450710
856.266043,296.082377,153.219100,9178.553681
856.266373,370.102971,1378.971896,9474.636058
856.266702,0.000000,2834.553343,9622.677246
856.267031,-1258.350101,3447.429741,9844.739029
856.267361,-1480.411884,2298.286494,9918.759623
856.267690,-1480.411884,1225.752797,9770.718434
856.268020,-1258.350101,153.219100,9474.636058
856.268349,-962.267725,-766.095498,9104.533087
856.268678,-1554.432478,-1149.143247,9326.594869
856.269008,-2220.617826,0.000000,9474.636058
856.269337,-2368.659014,612.876398,9770.718434
856.269666,-2294.638420,1378.971896,10510.924376
856.269996,-1998.556043,2451.505594,10732.986159
856.270325,-1850.514855,2528.115143,10214.842000
856.270655,-2072.576638,1762.019645,9474.636058
856.270984,-1702.473667,919.314598,9252.574275
856.271313,-1554.432478,383.047749,9252.574275
856.271643,-1036.288319,229.828649,9326.594869
856.271972,-888.247130,383.047749,9178.553681
856.272302,-444.123565,0.000000,8586.388927
856.272631,-370.102971,0.000000,9252.574275
856.272960,0.000000,306.438199,10214.842000
856.273290,74.020594,1302.362347,11177.109724
856.273619,-444.123565,3140.991542,11177.109724
856.273949,-962.267725,3370.820191,10584.944971
856.274278,-1110.308913,2451.505594,9400.615463
856.274607,-148.041188,1378.971896,8290.306550
856.274937,814.226536,383.047749,7328.038826
856.275266,1332.370696,0.000000,6883.915261
856.275596,1184.329507,536.266849,7328.038826
856.275925,518.144159,1072.533697,7846.182985
856.276254,-296.082377,1762.019645,8808.450710
856.276584,-740.205942,2068.457845,9992.780217
856.276913,-1258.350101,2757.943793,10955.047942
856.277242,-1850.514855,3140.991542,11029.068536
856.277572,-2368.659014,2145.067394,10732.986159
856.277901,-2590.720797,306.438199,10658.965565
856.278231,-2664.741391,-383.047749,10658.965565
856.278560,-2368.659014,-383.047749,10214.842000
856.278889,-1776.494261,-842.705048,9474.636058
856.279219,-740.205942,-1685.410096,8512.368333
856.279548,0.000000,-612.876398,8438.347739
856.279878,740.205942,0.000000,8956.491898
856.280207,814.226536,1072.533697,10066.800811
856.280536,0.000000,2834.553343,10807.006753
856.280866,-1480.411884,4443.353888,10955.047942
856.281195,-2072.576638,3370.820191,10510.924376
856.281525,-1924.535449,1838.629195,10214.842000
856.281854,-1110.308913,306.438199,9770.718434
856.282183,-962.267725,-1149.143247,9400.615463
856.282513,-1184.329507,-995.924147,9548.656652
856.282842,-1998.556043,536.266849,9474.636058
856.283171,-2368.659014,1072.533697,9474.636058
856.283501,-2368.659014,1149.143247,9474.636058
856.283830,-1554.432478,1532.190996,10140.821405
856.284160,-1776.494261,2068.457845,9918.759623
856.284489,-1850.514855,1991.848295,9178.553681
856.284818,-2072.576638,1149.143247,8808.450710
856.285148,-2442.679609,612.876398,8808.450710
856.285477,-2368.659014,0.000000,8956.491898
856.285807,-1628.453072,-536.266849,8956.491898
856.286136,-1332.370696,-1225.752797,8586.388927
856.286465,-814.226536,-229.828649,8808.450710
856.286795,74.020594,153.219100,9474.636058
856.287124,74.020594,1225.752797,10066.800811
856.287454,-518.144159,2298.286494,10362.883188
856.287783,-814.226536,3600.648841,10658.965565
856.288112,-814.226536,3140.991542,9918.759623
856.288442,-666.185348,2068.457845,9252.574275
856.288771,222.061783,689.485948,8660.409521
856.289101,1554.432478,-459.657299,7772.162391
856.289430,1924.535449,-919.314598,7698.141797
856.289759,1702.473667,-153.219100,8142.265362
856.290089,518.144159,1072.533697,8808.450710
856.290418,74.020594,1455.581446,9696.697840
856.290747,-222.061783,2145.067394,11029.068536
856.291077,-888.247130,2451.505594,11473.192101
856.291406,-1702.473667,2681.334243,11029.068536
856.291736,-1702.473667,919.314598,10807.006753
856.292065,-2072.576638,76.609550,10214.842000
856.292394,-1776.494261,-383.047749,9844.739029
856.292724,-1184.329507,-842.705048,9104.533087
856.293053,-888.247130,-689.485948,8660.409521
856.293383,-814.226536,-229.828649,8512.368333
856.293712,-592.164754,383.047749,9474.636058
856.294041,-518.144159,1455.581446,10140.821405
856.294371,-1184.329507,2834.553343,10584.944971
856.294700,-2146.597232,3983.696590,10140.821405
856.295030,-2442.679609,2528.115143,9844.739029
856.295359,-2146.597232,1685.410096,9326.594869
856.295688,-1628.453072,689.485948,8660.409521
856.296018,-1036.288319,-766.095498,8142.265362
856.296347,-888.247130,-1302.362347,8586.388927
856.296677,-1258.350101,-612.876398,8808.450710
856.297006,-2072.576638,459.657299,8882.471304
856.297335,-1702.473667,1302.362347,9252.574275
856.297665,-1332.370696,1608.800546,9770.718434
856.297994,-1036.288319,2374.896044,10288.862594
856.298323,-1184.329507,1991.848295,9918.759623
856.298653,-2294.638420,1685.410096,9326.594869
856.298982,-1702.473667,766.095498,9844.739029
856.299312,-1850.514855,153.219100,9844.739029
856.299641,-1110.308913,-536.266849,10066.800811
856.299970,-592.164754,-459.657299,9622.677246
856.300300,-444.123565,-306.438199,9030.512492
856.300629,148.041188,-306.438199,9548.656652
856.300959,370.102971,536.266849,10436.903782
856.301288,-148.041188,2068.457845,10807.006753
856.301617,-1480.411884,2834.553343,10658.965565
856.301947,-2072.576638,2528.115143,9696.697840
856.302276,-1850.514855,1532.190996,9622.677246
856.302606,-962.267725,536.266849,8808.450710
856.302935,-296.082377,-766.095498,7698.141797
856.303264,444.123565,-1378.971896,7846.182985
856.303594,222.061783,-536.266849,8438.347739
856.303923,-592.164754,919.314598,8438.347739
856.304252,-518.144159,1838.629195,9474.636058
856.304582,-814.226536,2451.505594,10140.821405
856.304911,-518.144159,2604.724693,10732.986159
856.305241,-962.267725,2068.457845,10510.924376
856.305570,-1776.494261,842.705048,10807.006753
856.305899,-2368.659014,383.047749,10066.800811
856.306229,-2368.659014,76.609550,9918.759623
856.306558,-1628.453072,-383.047749,9326.594869
856.306888,-888.247130,-1149.143247,8512.368333
856.307217,74.020594,-766.095498,8068.244768
856.307546,148.041188,-153.219100,7920.203579
856.307876,148.041188,842.705048,9252.574275
856.308205,-814.226536,2834.553343,9992.780217
856.308535,-1924.535449,4136.915689,10658.965565
856.308864,-2368.659014,3983.696590,9992.780217
856.309193,-2812.782580,2221.676944,9918.759623
856.309523,-2368.659014,766.095498,9400.615463
856.309852,-1628.453072,-842.705048,8882.471304
856.310182,-1332.370696,-1455.581446,8956.491898
856.310511,-1924.535449,-1225.752797,9104.533087
856.310840,-2516.700203,-229.828649,9400.615463
856.311170,-2368.659014,766.095498,9918.759623
856.311499,-2146.597232,1838.629195,10436.903782
856.311828,-1480.411884,2451.505594,10807.006753
856.312158,-1258.350101,2681.334243,10140.821405
856.312487,-1184.329507,2757.943793,9918.759623
856.312817,-814.226536,766.095498,9178.553681
856.313146,-592.164754,229.828649,9030.512492
856.313475,-444.123565,-306.438199,9178.553681
856.313805,-296.082377,-612.876398,9178.553681
856.314134,74.020594,-383.047749,9622.677246
856.314464,222.061783,0.000000,9474.636058
856.314793,592.164754,689.485948,10436.903782
856.315122,0.000000,1685.410096,11029.068536
856.315452,-1036.288319,3140.991542,10658.965565
856.315781,-1628.453072,3140.991542,9844.739029
856.316111,-1184.329507,2528.115143,8808.450710
856.316440,-666.185348,1378.971896,7994.224174
856.316769,592.164754,0.000000,7254.018232
856.317099,1332.370696,-919.314598,7179.997637
856.317428,814.226536,-306.438199,7624.121203
856.317757,222.061783,1225.752797,7994.224174
856.318087,-1036.288319,1762.019645,8808.450710
856.318416,-814.226536,2451.505594,10140.821405
856.318746,-1184.329507,2834.553343,10955.047942
856.319075,-1702.473667,2068.457845,11103.089130
856.319404,-2368.659014,919.314598,11103.089130
856.319734,-2664.741391,536.266849,10955.047942
856.320063,-2664.741391,153.219100,10584.944971
856.320393,-1924.535449,-459.657299,9844.739029
856.320722,-814.226536,-995.924147,8882.471304
856.321051,0.000000,-995.924147,8290.306550
856.321381,1184.329507,0.000000,8364.327145
856.321710,1332.370696,1302.362347,9400.615463
856.322040,518.144159,2834.553343,10362.883188
856.322369,-666.185348,4213.525239,10955.047942
856.322698,-2146.597232,4136.915689,10658.965565
856.323028,-2294.638420,2757.943793,10066.800811
856.323358,-1998.556043,766.095498,9770.718434
856.323687,-1628.453072,-842.705048,9474.636058
856.324017,-1628.453072,-1838.629195,9030.512492
856.324346,-2072.576638,-1685.410096,9178.553681
856.324676,-3034.844362,-306.438199,8956.491898
856.325005,-2886.803174,842.705048,9400.615463
856.325335,-2812.782580,1532.190996,10288.862594
856.325664,-2294.638420,2374.896044,10658.965565
856.325994,-2220.617826,2681.334243,9918.759623
856.326323,-1924.535449,2145.067394,9178.553681
856.326653,-1776.494261,1149.143247,9178.553681
856.326982,-888.247130,306.438199,8882.471304
856.327312,-666.185348,76.609550,9104.533087
856.327641,-222.061783,-153.219100,8882.471304
856.327971,-148.041188,-383.047749,8882.471304
856.328300,740.205942,229.828649,9252.574275
856.328630,888.247130,766.095498,10066.800811
856.328959,814.226536,2068.457845,11103.089130
856.329289,-518.144159,3140.991542,10732.986159
856.329618,-1110.308913,3447.429741,10066.800811
856.329948,-1110.308913,2757.943793,8734.430116
856.330277,-444.123565,1685.410096,8216.285956
856.330607,444.123565,0.000000,7179.997637
856.330936,1406.391290,-689.485948,7402.059420
856.331266,666.185348,-612.876398,7624.121203
856.331595,0.000000,306.438199,8068.244768
856.331925,-592.164754,1072.533697,8808.450710
856.332255,-1110.308913,2145.067394,10214.842000
856.332584,-1702.473667,2528.115143,11251.130318
856.332914,-2146.597232,2221.676944,11399.171507
856.333243,-2738.761985,1608.800546,11103.089130
856.333573,-2886.803174,229.828649,10881.027347
856.333902,-2664.741391,0.000000,10732.986159
856.334232,-1924.535449,-842.705048,9844.739029
856.334561,-592.164754,-1225.752797,8882.471304
856.334891,518.144159,-1149.143247,8068.244768
856.335220,1702.473667,76.609550,8364.327145
856.335550,2220.617826,1608.800546,9178.553681
856.335879,1406.391290,2757.943793,10140.821405
856.336209,370.102971,4366.744339,10807.006753
856.336538,-740.205942,4596.572988,10732.986159
856.336868,-1924.535449,3294.210641,10510.924376
856.337197,-2072.576638,1378.971896,9770.718434
856.337527,-1998.556043,-229.828649,9030.512492
856.337856,-2146.597232,-1302.362347,8660.409521
856.338186,-2590.720797,-1838.629195,8586.388927
856.338515,-3256.906145,-1149.143247,9178.553681
856.338845,-3627.009116,-306.438199,9400.615463
856.339174,-3330.926739,689.485948,9474.636058
856.339504,-2516.700203,1838.629195,10066.800811
856.339833,-2220.617826,2451.505594,9770.718434
856.340163,-1776.494261,2221.676944,9400.615463
856.340492,-1406.391290,995.924147,8808.450710
856.340822,-1110.308913,536.266849,9326.594869
856.341151,-740.205942,536.266849,9178.553681
856.341481,-296.082377,-383.047749,9400.615463
856.341811,0.000000,-612.876398,9844.739029
856.342140,74.020594,-229.828649,9992.780217
856.342470,592.164754,766.095498,10214.842000
856.342799,518.144159,1072.533697,10732.986159
856.343129,0.000000,2451.505594,11029.068536
856.343458,-518.144159,3600.648841,10436.903782
856.343788,-962.267725,2757.943793,9622.677246
856.344117,-444.123565,1915.238745,8438.347739
856.344447,222.061783,612.876398,7476.080014
856.344776,740.205942,-919.314598,7105.977043
856.345106,518.144159,-1149.143247,7476.080014
856.345435,-444.123565,-306.438199,8142.265362
856.345765,-1332.370696,689.485948,8660.409521
856.346094,-1554.432478,1225.752797,9696.697840
856.346424,-2146.597232,1838.629195,10955.047942
856.346753,-2368.659014,2068.457845,11621.233289
856.347083,-2664.741391,1838.629195,11473.192101
856.347412,-2738.761985,919.314598,11029.068536
856.347742,-2220.617826,153.219100,10955.047942
856.348071,-1184.329507,-842.705048,9696.697840
856.348401,-148.041188,-1072.533697,8734.430116
856.348730,740.205942,-766.095498,8290.306550
856.349060,1332.370696,306.438199,7994.224174
856.349389,1776.494261,842.705048,8512.368333
856.349719,1258.350101,2145.067394,9622.677246
856.350048,0.000000,3217.601092,10436.903782
856.350378,-1332.370696,3753.867940,10807.006753
856.350707,-2368.659014,3064.381992,10658.965565
856.351037,-2442.679609,1762.019645,10362.883188
856.351367,-2664.741391,229.828649,9622.677246
856.351696,-2368.659014,-919.314598,9178.553681
856.352026,-2442.679609,-1685.410096,9178.553681
856.352355,-2590.720797,-842.705048,8956.491898
856.352685,-2886.803174,0.000000,9030.512492
856.353014,-2442.679609,459.657299,9474.636058
856.353344,-2368.659014,1455.581446,10214.842000
856.353673,-1998.556043,2145.067394,10362.883188
856.354003,-1924.535449,2145.067394,10288.862594
856.354332,-1850.514855,1838.629195,9844.739029
856.354662,-1480.411884,1532.190996,9770.718434
856.354991,-962.267725,0.000000,9178.553681
856.355321,222.061783,-153.219100,8808.450710
856.355650,888.247130,-612.876398,8512.368333
856.355980,1480.411884,0.000000,8734.430116
856.356309,1554.432478,1302.362347,9400.615463
856.356639,1332.370696,2221.676944,10288.862594
856.356968,296.082377,3524.039291,10807.006753
856.357298,-740.205942,3753.867940,10510.924376
856.357627,-1258.350101,3217.601092,9992.780217
856.357957,-1406.391290,2145.067394,9030.512492
856.358286,-1406.391290,689.485948,7698.141797
856.358616,-222.061783,-842.705048,7254.018232
856.358945,0.000000,-1532.190996,7402.059420
856.359275,-814.226536,-459.657299,7920.203579
856.359604,-1110.308913,612.876398,8882.471304
856.359934,-1628.453072,1455.581446,9548.656652
856.360264,-1628.453072,2451.505594,10658.965565
856.360593,-1702.473667,2451.505594,11695.253884
856.360923,-1776.494261,2145.067394,11621.233289
856.361252,-1850.514855,1608.800546,10732.986159
856.361582,-1924.535449,612.876398,10288.862594
856.361911,-962.267725,-612.876398,9474.636058
856.362241,148.041188,-1072.533697,9104.533087
856.362570,1258.350101,-1072.533697,8734.430116
856.362900,1480.411884,-306.438199,8808.450710
856.363229,1554.432478,689.485948,9104.533087
856.363559,1184.329507,1991.848295,10214.842000
856.363888,222.061783,3370.820191,10955.047942
856.364218,-1850.514855,4366.744339,11177.109724
856.364547,-3034.844362,3830.477490,10436.903782
856.364877,-3552.988522,2145.067394,9548.656652
856.365206,-3182.885551,76.609550,8290.306550
856.365536,-2516.700203,-1378.971896,7772.162391
856.365865,-2738.761985,-2834.553343,7698.141797
856.366195,-3330.926739,-1915.238745,8438.347739
856.366524,-4219.173869,-383.047749,8734.430116
856.366854,-3923.091493,1149.143247,9474.636058
856.367183,-2886.803174,1532.190996,10288.862594
856.367513,-2368.659014,2374.896044,10658.965565
856.367842,-1702.473667,2068.457845,10436.903782
856.368172,-962.267725,1532.190996,10214.842000
856.368501,-370.102971,919.314598,9992.780217
856.368831,148.041188,689.485948,9252.574275
856.369160,1110.308913,-229.828649,9548.656652
856.369490,1998.556043,-229.828649,9474.636058
856.369820,2368.659014,0.000000,9326.594869
856.370149,2590.720797,766.095498,9548.656652
856.370479,2294.638420,1991.848295,10288.862594
856.370808,1258.350101,2911.162892,10658.965565
856.371138,-444.123565,3370.820191,10510.924376
856.371467,-1998.556043,2911.162892,9992.780217
856.371797,-2368.659014,2374.896044,9252.574275
856.372126,-2146.597232,383.047749,8512.368333
856.372456,-1924.535449,-842.705048,7328.038826
856.372785,-1406.391290,-1608.800546,7698.141797
856.373115,-1776.494261,-995.924147,7994.224174
856.373444,-2294.638420,459.657299,8586.388927
856.373774,-2146.597232,1608.800546,9400.615463
856.374103,-1628.453072,2221.676944,10584.944971
856.374433,-1480.411884,2681.334243,11177.109724
856.374762,-1332.370696,2834.553343,10955.047942
856.375092,-1332.370696,1991.848295,10510.924376
856.375421,-1258.350101,1378.971896,10214.842000
856.375751,-740.205942,689.485948,9474.636058
856.376080,518.144159,-689.485948,9030.512492
856.376410,1258.350101,-1455.581446,7994.224174
856.376739,1702.473667,-689.485948,7994.224174
856.377069,1850.514855,229.828649,8438.347739
856.377398,1850.514855,995.924147,9622.677246
856.377728,1332.370696,3524.039291,10807.006753
856.378057,-592.164754,4673.182538,10807.006753
856.378387,-1850.514855,4366.744339,10510.924376
856.378717,-2368.659014,2757.943793,9992.780217
856.379046,-2812.782580,919.314598,9104.533087
856.379376,-2294.638420,-383.047749,8586.388927
856.379705,-2516.700203,-2298.286494,8364.327145
856.380035,-3256.906145,-2068.457845,8882.471304
856.380364,-4293.194464,-766.095498,9252.574275
856.380694,-4367.215058,-383.047749,9326.594869
856.381023,-3552.988522,153.219100,10066.800811
856.381353,-3108.864956,1762.019645,10807.006753
856.381682,-2146.597232,2068.457845,10732.986159
856.382012,-1702.473667,1455.581446,10214.842000
856.382341,-1110.308913,229.828649,10066.800811
856.382671,-592.164754,0.000000,9918.759623
856.383000,370.102971,0.000000,10140.821405
856.383330,1258.350101,-383.047749,9770.718434
856.383659,1924.535449,-306.438199,9474.636058
856.383989,2368.659014,76.609550,9474.636058
856.384318,2516.700203,383.047749,10140.821405
856.384648,1924.535449,1608.800546,10807.006753
856.384977,0.000000,3370.820191,11177.109724
856.385307,-1332.370696,3677.258390,10658.965565
856.385636,-2072.576638,2834.553343,9474.636058
856.385966,-1850.514855,1072.533697,8438.347739
856.386295,-962.267725,-383.047749,7328.038826
856.386625,-370.102971,-1762.019645,6513.812290
856.386954,-666.185348,-1302.362347,7031.956449
856.387284,-1554.432478,-229.828649,7402.059420
856.387613,-1924.535449,1072.533697,8290.306550
856.387943,-1924.535449,1685.410096,9474.636058
856.388273,-1998.556043,2987.772442,10658.965565
856.388602,-2146.597232,3064.381992,10955.047942
856.388932,-2442.679609,2298.286494,11029.068536
856.389261,-2294.638420,1149.143247,10584.944971
856.389591,-2146.597232,612.876398,10066.800811
856.389920,-1332.370696,-306.438199,9474.636058
856.390250,-296.082377,-766.095498,8586.388927
856.390579,592.164754,-842.705048,8142.265362
856.390909,1406.391290,-229.828649,8364.327145
856.391238,1998.556043,459.657299,9030.512492
856.391568,1702.473667,2451.505594,9992.780217
856.391897,-370.102971,3830.477490,10436.903782
856.392227,-1628.453072,4596.572988,10732.986159
856.392556,-2146.597232,3140.991542,10807.006753
856.392886,-2738.761985,1608.800546,10288.862594
856.393215,-2516.700203,0.000000,9252.574275
856.393545,-2664.741391,-1225.752797,8808.450710
856.393874,-2738.761985,-2145.067394,9326.594869
856.394204,-3775.050304,-1072.533697,9474.636058
856.394533,-4293.194464,-459.657299,9548.656652
856.394863,-3478.967927,536.266849,10140.821405
856.395192,-2294.638420,1532.190996,10436.903782
856.395522,-2368.659014,2145.067394,9918.759623
856.395851,-1850.514855,1838.629195,9548.656652
856.396181,-1480.411884,1149.143247,9548.656652
856.396510,-1110.308913,689.485948,9474.636058
856.396840,-222.061783,229.828649,9770.718434
856.397169,222.061783,-689.485948,9104.533087
856.397499,888.247130,-919.314598,9252.574275
856.397829,1184.329507,-612.876398,9474.636058
856.398158,1628.453072,459.657299,9992.780217
856.398488,1406.391290,1455.581446,10658.965565
856.398817,370.102971,2681.334243,10955.047942
856.399147,-592.164754,3983.696590,10436.903782
856.399476,-888.247130,3447.429741,9326.594869
856.399806,-518.144159,1838.629195,8364.327145
856.400135,222.061783,306.438199,7105.977043
856.400465,740.205942,-919.314598,6291.750507
856.400794,296.082377,-1378.971896,7328.038826
856.401124,-592.164754,0.000000,8068.244768
856.401453,-1406.391290,995.924147,8660.409521
856.401783,-1850.514855,1532.190996,9918.759623
856.402112,-1702.473667,2298.286494,11251.130318
856.402442,-1850.514855,2451.505594,11991.336260
856.402771,-2368.659014,2221.676944,11843.295072
856.403101,-2516.700203,1302.362347,11325.150913
856.403430,-2146.597232,1072.533697,10881.027347
856.403760,-962.267725,0.000000,9844.739029
856.404089,-74.020594,-919.314598,8364.327145
856.404419,1110.308913,-919.314598,7920.203579
856.404748,1776.494261,-229.828649,7920.203579
856.405078,2072.576638,612.876398,8660.409521
856.405407,1110.308913,2068.457845,9844.739029
856.405737,-518.144159,3447.429741,10732.986159
856.406066,-2072.576638,4213.525239,11325.150913
856.406396,-3034.844362,3600.648841,10732.986159
856.406726,-3108.864956,2068.457845,10140.821405
856.407055,-2516.700203,153.219100,9252.574275
856.407385,-2072.576638,-1149.143247,8216.285956
856.407714,-1850.514855,-1762.019645,8512.368333
856.408044,-3034.844362,-995.924147,8438.347739
856.408373,-3552.988522,536.266849,9104.533087
856.408703,-3478.967927,1608.800546,9622.677246
856.409032,-2812.782580,2834.553343,10140.821405
856.409362,-2442.679609,2451.505594,9918.759623
856.409691,-2146.597232,2451.505594,9474.636058
856.410021,-2072.576638,1685.410096,8956.491898
856.410350,-1998.556043,536.266849,8882.471304
856.410680,-1184.329507,-229.828649,9178.553681
856.411009,-1036.288319,-842.705048,9030.512492
856.411339,-444.123565,-689.485948,9696.697840
856.411668,0.000000,-383.047749,10066.800811
856.411998,592.164754,459.657299,10288.862594
856.412327,1036.288319,1225.752797,10955.047942
856.412657,740.205942,2528.115143,10584.944971
856.412986,-444.123565,3217.601092,10214.842000
856.413316,-518.144159,2987.772442,9474.636058
856.413645,0.000000,1915.238745,8882.471304
856.413975,518.144159,842.705048,7920.203579
856.414304,1110.308913,-689.485948,7328.038826
856.414634,1110.308913,-842.705048,7179.997637
856.414963,0.000000,-383.047749,7920.203579
856.415293,-962.267725,689.485948,8956.491898
856.415622,-1480.411884,1302.362347,10288.862594
856.415952,-2220.617826,2145.067394,11695.253884
856.416282,-2442.679609,2068.457845,12361.439231
856.416611,-3034.844362,1685.410096,11843.295072
856.416941,-3108.864956,1072.533697,11177.109724
856.417270,-2590.720797,383.047749,10362.883188
856.417600,-1258.350101,-612.876398,9178.553681
856.417929,148.041188,-1378.971896,7994.224174
856.418259,1110.308913,-842.705048,7254.018232
856.418588,1850.514855,0.000000,7550.100608
856.418918,2146.597232,842.705048,8364.327145
856.419247,1480.411884,2298.286494,9770.718434
856.419577,370.102971,3600.648841,10658.965565
856.419906,-1184.329507,4290.134789,11103.089130
856.420236,-2590.720797,3677.258390,11029.068536
856.420565,-2812.782580,2298.286494,10436.903782
856.420895,-2516.700203,0.000000,9178.553681
856.421224,-1998.556043,-1608.800546,8438.347739
856.421554,-1776.494261,-2221.676944,7920.203579
856.421883,-2368.659014,-1302.362347,8808.450710
856.422213,-2960.823768,612.876398,9178.553681
856.422542,-2960.823768,1915.238745,9474.636058
856.422872,-2664.741391,2298.286494,9992.780217
856.423201,-2368.659014,2834.553343,10362.883188
856.423531,-1998.556043,2374.896044,10066.800811
856.423860,-2442.679609,1455.581446,9696.697840
856.424190,-2886.803174,536.266849,9770.718434
856.424519,-2294.638420,-153.219100,9918.759623
856.424849,-1332.370696,-919.314598,9548.656652
856.425178,-962.267725,-1072.533697,8882.471304
856.425508,74.020594,-995.924147,9474.636058
856.425837,1110.308913,0.000000,9770.718434
856.426167,1406.391290,1532.190996,10584.944971
856.426496,1036.288319,3830.477490,10584.944971
856.426826,74.020594,3983.696590,10584.944971
856.427155,296.082377,4213.525239,10066.800811
856.427485,-370.102971,2834.553343,9326.594869
856.427814,74.020594,1225.752797,8068.244768
856.428144,444.123565,-306.438199,7254.018232
856.428473,666.185348,-1455.581446,7328.038826
856.428803,-296.082377,-995.924147,7994.224174
856.429132,-1628.453072,153.219100,8660.409521
856.429462,-1998.556043,842.705048,9474.636058
856.429791,-1924.535449,1685.410096,10658.965565
856.430121,-2146.597232,2757.943793,11103.089130
856.430450,-2442.679609,2604.724693,11103.089130
856.430780,-2812.782580,1532.190996,10658.965565
856.431109,-2664.741391,842.705048,10140.821405
856.431439,-2146.597232,0.000000,9548.656652
856.431768,-962.267725,-383.047749,8290.306550
856.432098,74.020594,-1608.800546,7698.141797
856.432427,888.247130,-1225.752797,7846.182985
856.432757,1184.329507,0.000000,8586.388927
856.433086,1258.350101,842.705048,9622.677246
856.433416,148.041188,2604.724693,10807.006753
856.433745,-962.267725,3830.477490,11473.192101
856.434075,-2368.659014,4060.306139,11547.212695
856.434404,-2886.803174,2451.505594,10658.965565
856.434734,-2590.720797,919.314598,9844.739029
856.435063,-2146.597232,-536.266849,8808.450710
856.435393,-1628.453072,-1991.848295,8512.368333
856.435722,-2072.576638,-1915.238745,8438.347739
856.436052,-3034.844362,-612.876398,8808.450710
856.436381,-3108.864956,153.219100,8882.471304
856.436711,-2664.741391,766.095498,9696.697840
856.437040,-2220.617826,1915.238745,10510.924376
856.437370,-1998.556043,2145.067394,10732.986159
856.437699,-2368.659014,1838.629195,10066.800811
856.438029,-2220.617826,919.314598,9844.739029
856.438358,-1554.432478,459.657299,9770.718434
856.438688,-740.205942,0.000000,9326.594869
856.439017,296.082377,0.000000,9326.594869
856.439347,1036.288319,-612.876398,8586.388927
856.439676,1480.411884,153.219100,8956.491898
856.440006,1850.514855,1072.533697,9622.677246
856.440335,1258.350101,2374.896044,10658.965565
856.440665,148.041188,3370.820191,10807.006753
856.440994,-1110.308913,4213.525239,10214.842000
856.441324,-1406.391290,2528.115143,9548.656652
856.441653,-814.226536,995.924147,8512.368333
856.441983,-222.061783,-689.485948,7846.182985
856.442312,666.185348,-1608.800546,7402.059420
856.442642,74.020594,-1685.410096,7476.080014
856.442971,-518.144159,0.000000,8068.244768
856.443301,-888.247130,919.314598,9030.512492
856.443630,-814.226536,1838.629195,10288.862594
856.443960,-666.185348,2681.334243,11325.150913
856.444289,-814.226536,3140.991542,11177.109724
856.444619,-1332.370696,2451.505594,11251.130318
856.444948,-1628.453072,1378.971896,10955.047942
856.445278,-1628.453072,766.095498,10584.944971
856.445607,-740.205942,-383.047749,9844.739029
856.445937,0.000000,-842.705048,8882.471304
856.446266,444.123565,-459.657299,8216.285956
856.446596,888.247130,0.000000,8290.306550
856.446925,1036.288319,689.485948,8882.471304
856.447255,222.061783,2451.505594,9622.677246
856.447584,-1110.308913,4136.915689,10362.883188
856.447914,-2368.659014,4519.963438,10584.944971
856.448243,-3627.009116,3600.648841,9770.718434
856.448573,-3701.029710,1608.800546,9178.553681
856.448902,-3256.906145,-153.219100,8586.388927
856.449232,-2590.720797,-1915.238745,8438.347739
856.449561,-2886.803174,-1991.848295,8364.327145
856.449891,-3849.070898,-919.314598,9252.574275
856.450220,-3997.112087,0.000000,9474.636058
856.450550,-2960.823768,919.314598,10584.944971
856.450879,-1998.556043,2298.286494,10881.027347
856.451209,-1184.329507,2451.505594,10362.883188
856.451538,-740.205942,2298.286494,10066.800811
856.451868,-592.164754,1685.410096,9770.718434
856.452197,0.000000,919.314598,9326.594869
856.452527,296.082377,689.485948,9326.594869
856.452856,740.205942,459.657299,8808.450710
856.453186,962.267725,-76.609550,8364.327145
856.453515,1406.391290,0.000000,8808.450710
856.453845,1406.391290,76.609550,9326.594869
856.454174,814.226536,1302.362347,10362.883188
856.454504,-518.144159,2451.505594,10955.047942
856.454833,-2294.638420,3753.867940,10584.944971
856.455163,-2590.720797,2757.943793,10288.862594
856.455492,-2442.679609,1225.752797,9548.656652
856.455822,-1702.473667,153.219100,8290.306550
856.456151,-370.102971,-1302.362347,7624.121203
856.456481,740.205942,-1762.019645,7550.100608
856.456810,-296.082377,-306.438199,7698.141797
856.457140,-740.205942,689.485948,8512.368333
856.457469,-592.164754,1302.362347,9548.656652
856.457799,-518.144159,2298.286494,11029.068536
856.458128,-296.082377,3294.210641,11473.192101
856.458458,-814.226536,2145.067394,11029.068536
856.458787,-592.164754,1225.752797,10584.944971
856.459117,-666.185348,536.266849,10288.862594
856.459446,-370.102971,0.000000,9770.718434
856.459776,74.020594,-459.657299,8956.491898
856.460105,666.185348,-612.876398,8734.430116
856.460435,1332.370696,-153.219100,8438.347739
856.460764,1628.453072,766.095498,9030.512492
856.461094,1110.308913,1838.629195,9918.759623
856.461423,0.000000,3217.601092,10436.903782
856.461753,-1776.494261,4290.134789,10436.903782
856.462082,-3256.906145,3294.210641,9918.759623
856.462412,-3552.988522,1915.238745,9770.718434
856.462741,-3256.906145,0.000000,9030.512492
856.463071,-2812.782580,-1762.019645,8512.368333
856.463400,-2960.823768,-1915.238745,8142.265362
856.463730,-3552.988522,-1378.971896,9030.512492
856.464059,-3775.050304,0.000000,9178.553681
856.464389,-3478.967927,689.485948,9770.718434
856.464718,-2590.720797,2068.457845,10732.986159
856.465048,-2368.659014,3064.381992,10807.006753
856.465377,-1776.494261,2528.115143,10288.862594
856.465707,-1258.350101,1991.848295,10140.821405
856.466036,-962.267725,1225.752797,10066.800811
856.466366,-444.123565,995.924147,9474.636058
856.466695,148.041188,0.000000,9104.533087
856.467025,814.226536,-612.876398,8438.347739
856.467354,1110.308913,-306.438199,8734.430116
856.467684,1628.453072,153.219100,9252.574275
856.468013,1554.432478,1149.143247,9918.759623
856.468343,740.205942,2604.724693,10436.903782
856.468672,-740.205942,3907.087040,10362.883188
856.469002,-1406.391290,3140.991542,9622.677246
856.469331,-1628.453072,1991.848295,9178.553681
856.469661,-1406.391290,1225.752797,8290.306550
856.469990,-666.185348,-229.828649,7624.121203
856.470320,-296.082377,-1302.362347,7550.100608
856.470649,-666.185348,-383.047749,7994.224174
856.470979,-1480.411884,76.609550,8438.347739
856.471308,-1628.453072,995.924147,9474.636058
856.471638,-1332.370696,1762.019645,10732.986159
856.471967,-1554.432478,2374.896044,11399.171507
856.472297,-1480.411884,1762.019645,10881.027347
856.472626,-1554.432478,536.266849,10807.006753
856.472956,-1258.350101,383.047749,10436.903782
856.473285,-444.123565,0.000000,9844.739029
856.473615,444.123565,-842.705048,9178.553681
856.473944,1332.370696,-766.095498,8660.409521
856.474274,1332.370696,-153.219100,8512.368333
856.474603,1924.535449,612.876398,8956.491898
856.474933,1554.432478,1378.971896,9622.677246
856.475262,296.082377,2757.943793,10584.944971
856.475592,-1480.411884,3983.696590,10881.027347
856.475921,-2590.720797,3600.648841,10214.842000
856.476251,-3627.009116,1608.800546,9696.697840
856.476580,-3552.988522,306.438199,9104.533087
856.476910,-3108.864956,-1378.971896,8364.327145
856.477239,-3256.906145,-2451.505594,8142.265362
856.477569,-3478.967927,-1762.019645,8438.347739
856.477898,-4145.153275,-459.657299,8882.471304
856.478228,-3997.112087,612.876398,9030.512492
856.478557,-3108.864956,1378.971896,9770.718434
856.478887,-2368.659014,2221.676944,10214.842000
856.479216,-1924.535449,2298.286494,9622.677246
856.479546,-2220.617826,1378.971896,9474.636058
856.479875,-1628.453072,995.924147,9770.718434
856.480205,-1332.370696,689.485948,10140.821405
856.480534,-740.205942,0.000000,9992.780217
856.480864,-222.061783,-689.485948,9474.636058
856.481193,666.185348,-229.828649,9252.574275
856.481523,1110.308913,76.609550,9252.574275
856.481852,1924.535449,536.266849,9918.759623
856.482182,1554.432478,1762.019645,10436.903782
856.482511,296.082377,3370.820191,10510.924376
856.482841,-592.164754,3907.087040,9770.718434
856.483170,-740.205942,2451.505594,9104.533087
856.483500,-444.123565,1225.752797,8586.388927
856.483829,0.000000,-383.047749,7920.203579
856.484159,0.000000,-1225.752797,8142.265362
856.484488,-1110.308913,-1225.752797,8438.347739
856.484818,-1480.411884,0.000000,8882.471304
856.485147,-2072.576638,383.047749,9770.718434
856.485477,-1776.494261,1378.971896,11103.089130
856.485806,-1702.473667,2298.286494,11399.171507
856.486136,-1776.494261,2451.505594,11177.109724
856.486465,-1480.411884,1762.019645,10362.883188
856.486795,-1406.391290,1302.362347,9770.718434
856.487124,-370.102971,689.485948,9400.615463
856.487454,370.102971,0.000000,8364.327145
856.487783,1258.350101,-536.266849,7772.162391
856.488113,1702.473667,0.000000,7624.121203
856.488442,2072.576638,229.828649,8142.265362
856.488772,1554.432478,1072.533697,9104.533087
856.489101,888.247130,2451.505594,10436.903782
856.489431,-1036.288319,4060.306139,11177.109724
856.489760,-2294.638420,4749.792088,11103.089130
856.490090,-3108.864956,3294.210641,10288.862594
856.490419,-3182.885551,1455.581446,9474.636058
856.490749,-2294.638420,-612.876398,8734.430116
856.491078,-1998.556043,-1532.190996,8142.265362
856.491408,-2220.617826,-1302.362347,8512.368333
856.491737,-3627.009116,76.609550,7920.203579
856.492067,-3256.906145,229.828649,8586.388927
856.492396,-2960.823768,995.924147,9844.739029
856.492726,-2812.782580,2068.457845,10288.862594
856.493055,-2590.720797,2528.115143,10436.903782
856.493385,-2664.741391,1991.848295,9770.718434
856.493714,-1924.535449,842.705048,9474.636058
856.494044,-1850.514855,153.219100,10214.842000
856.494373,-1184.329507,0.000000,10362.883188
856.494703,-666.185348,-229.828649,9992.780217
856.495032,222.061783,153.219100,9918.759623
856.495362,962.267725,612.876398,10066.800811
856.495691,1628.453072,842.705048,10140.821405
856.496021,1480.411884,1838.629195,10510.924376
856.496350,592.164754,3600.648841,10214.842000
856.496680,-222.061783,3677.258390,9548.656652
856.497009,-518.144159,2374.896044,9178.553681
856.497339,-518.144159,1072.533697,8216.285956
856.497668,-592.164754,-306.438199,7624.121203
856.497998,-296.082377,-1302.362347,7624.121203
856.498327,-518.144159,-995.924147,7994.224174
856.498657,-1036.288319,229.828649,8068.244768
856.498986,-1480.411884,76.609550,8882.471304
856.499316,-1480.411884,766.095498,10510.924376
856.499645,-1776.494261,2604.724693,11769.274478
856.499975,-1850.514855,2834.553343,11325.150913
856.500304,-1702.473667,1991.848295,10807.006753
856.500634,-1258.350101,1838.629195,10288.862594
856.500963,-1184.329507,536.266849,9622.677246
856.501293,-148.041188,0.000000,8808.450710
856.501622,518.144159,-536.266849,7920.203579
856.501952,1036.288319,-536.266849,7476.080014
856.502281,1332.370696,-383.047749,7698.141797
856.502611,1702.473667,842.705048,9104.533087
856.502940,592.164754,2068.457845,10288.862594
856.503270,-740.205942,3753.867940,10732.986159
856.503599,-1924.535449,3907.087040,11103.089130
856.503929,-2442.679609,2834.553343,10732.986159
856.504258,-2368.659014,1915.238745,10214.842000
856.504588,-2072.576638,229.828649,9030.512492
856.504917,-1702.473667,-1149.143247,8438.347739
856.505247,-1850.514855,-1532.190996,8438.347739
856.505576,-2664.741391,-612.876398,8956.491898
856.505906,-2590.720797,612.876398,9326.594869
856.506235,-2590.720797,1225.752797,10066.800811
856.506565,-2442.679609,2451.505594,10584.944971
856.506894,-2516.700203,2528.115143,10362.883188
856.507224,-2590.720797,1532.190996,10140.821405
856.507553,-2738.761985,766.095498,9992.780217
856.507883,-2516.700203,229.828649,10066.800811
856.508212,-1850.514855,0.000000,9992.780217
856.508542,-1406.391290,-689.485948,9252.574275
856.508871,-518.144159,-919.314598,9104.533087
856.509201,592.164754,-459.657299,9104.533087
856.509530,1406.391290,229.828649,9548.656652
856.509860,1628.453072,1532.190996,10140.821405
856.510189,1110.308913,3217.601092,10436.903782
856.510519,444.123565,4213.525239,10288.862594
856.510848,222.061783,3064.381992,9548.656652
856.511178,0.000000,1532.190996,8808.450710
856.511507,0.000000,689.485948,8216.285956
856.511837,0.000000,-612.876398,7698.141797
856.512166,-148.041188,-1149.143247,7846.182985
856.512496,-1110.308913,-306.438199,8068.244768
856.512825,-1332.370696,919.314598,8512.368333
856.513155,-1702.473667,459.657299,9548.656652
856.513484,-1332.370696,1455.581446,10732.986159
856.513814,-2146.597232,2221.676944,10807.006753
856.514143,-2146.597232,1455.581446,10658.965565
856.514473,-1776.494261,1225.752797,10658.965565
856.514802,-2072.576638,842.705048,10362.883188
856.515132,-1332.370696,0.000000,9844.739029
856.515461,0.000000,-689.485948,9104.533087
856.515791,666.185348,-919.314598,8586.388927
856.516120,1702.473667,306.438199,8882.471304
856.516450,1332.370696,842.705048,9104.533087
856.516779,1036.288319,2145.067394,10140.821405
856.517109,0.000000,3600.648841,11029.068536
856.517438,-1184.329507,4136.915689,11029.068536
856.517768,-1776.494261,3217.601092,10584.944971
856.518097,-1850.514855,2068.457845,9622.677246
856.518427,-1776.494261,153.219100,8882.471304
856.518756,-1702.473667,-1302.362347,8290.306550
856.519086,-2146.597232,-1838.629195,8512.368333
856.519415,-2738.761985,-1302.362347,8660.409521
856.519745,-3478.967927,229.828649,8734.430116
856.520074,-3552.988522,689.485948,9622.677246
856.520404,-2738.761985,1608.800546,10362.883188
856.520733,-2516.700203,2451.505594,10436.903782
856.521063,-2664.741391,1991.848295,10140.821405
856.521392,-2812.782580,1378.971896,9326.594869
856.521722,-2368.659014,766.095498,9400.615463
856.522051,-1776.494261,459.657299,9030.512492
856.522381,-888.247130,-383.047749,8734.430116
856.522710,-222.061783,-766.095498,8586.388927
856.523040,444.123565,-383.047749,8882.471304
856.523369,814.226536,76.609550,9548.656652
856.523699,444.123565,1225.752797,10807.006753
856.524028,-370.102971,2451.505594,11473.192101
856.524358,-1332.370696,3217.601092,11029.068536
856.524687,-1480.411884,2528.115143,10510.924376
856.525017,-1110.308913,1455.581446,9548.656652
856.525346,-296.082377,229.828649,8364.327145
856.525676,518.144159,-995.924147,7624.121203
856.526005,814.226536,-1532.190996,7402.059420
856.526335,148.041188,-536.266849,7920.203579
856.526665,-222.061783,536.266849,8438.347739
856.526994,-370.102971,1072.533697,9474.636058
856.527324,-666.185348,1991.848295,10807.006753
856.527653,-1184.329507,2221.676944,11621.233289
856.527983,-1998.556043,1838.629195,11769.274478
856.528312,-2220.617826,1378.971896,11843.295072
856.528642,-2516.700203,995.924147,10955.047942
856.528971,-1184.329507,0.000000,9918.759623
856.529301,0.000000,-995.924147,8808.450710
856.529630,1110.308913,-1072.533697,7846.182985
856.529960,1628.453072,-383.047749,7624.121203
856.530289,1924.535449,1302.362347,7550.100608
856.530619,1184.329507,2374.896044,8586.388927
856.530948,148.041188,3907.087040,9844.739029
856.531278,-1406.391290,4519.963438,9992.780217
856.531608,-2442.679609,3830.477490,10066.800811
856.531937,-2886.803174,2298.286494,9770.718434
856.532267,-3404.947333,689.485948,8660.409521
856.532596,-2812.782580,-1608.800546,8956.491898
856.532926,-3256.906145,-2451.505594,9178.553681
856.533255,-3997.112087,-1302.362347,9622.677246
856.533585,-3923.091493,0.000000,9474.636058
856.533914,-2368.659014,76.609550,9770.718434
856.534244,-1554.432478,1149.143247,10066.800811
856.534573,-666.185348,2221.676944,10288.862594
856.534903,-518.144159,2604.724693,9770.718434
856.535232,-518.144159,2681.334243,9622.677246
856.535562,-518.144159,2068.457845,9030.512492
856.535891,-666.185348,1378.971896,9474.636058
856.536221,0.000000,306.438199,9326.594869
856.536550,222.061783,-306.438199,8882.471304
856.536880,518.144159,-689.485948,8882.471304
856.537210,666.185348,0.000000,9474.636058
856.537539,74.020594,842.705048,10510.924376
856.537869,-1184.329507,2298.286494,11547.212695
856.538198,-2368.659014,3600.648841,11177.109724
856.538528,-2590.720797,3140.991542,10436.903782
856.538857,-2072.576638,2068.457845,9474.636058
856.539187,-1628.453072,842.705048,8438.347739
856.539516,-370.102971,-459.657299,7328.038826
856.539846,74.020594,-1225.752797,6883.915261
856.540175,-222.061783,-766.095498,7402.059420
856.540505,-962.267725,383.047749,7846.182985
856.540834,-592.164754,919.314598,8956.491898
856.541164,-814.226536,1149.143247,9992.780217
856.541493,-888.247130,2528.115143,10955.047942
856.541823,-962.267725,2451.505594,11547.212695
856.542153,-1332.370696,1915.238745,11251.130318
856.542482,-1406.391290,919.314598,11029.068536
856.542812,-1480.411884,306.438199,9992.780217
856.543141,-296.082377,0.000000,9400.615463
856.543471,814.226536,-536.266849,8586.388927
856.543800,1258.350101,-612.876398,8068.244768
856.544130,1628.453072,229.828649,8216.285956
856.544459,1258.350101,1149.143247,8808.450710
856.544789,370.102971,2757.943793,9918.759623
856.545118,-1332.370696,3753.867940,10510.924376
856.545448,-2812.782580,3600.648841,10362.883188
856.545777,-3552.988522,2298.286494,10066.800811
856.546107,-2886.803174,459.657299,9400.615463
856.546436,-2146.597232,-1225.752797,8956.491898
856.546766,-2368.659014,-2145.067394,8734.430116
856.547096,-2886.803174,-1532.190996,8956.491898
856.547425,-3404.947333,-153.219100,9030.512492
856.547755,-2516.700203,383.047749,10066.800811
856.548084,-2220.617826,1838.629195,10436.903782
856.548414,-1554.432478,2451.505594,11103.089130
856.548743,-1850.514855,2834.553343,10658.965565
856.549073,-1480.411884,2145.067394,9992.780217
856.549402,-1110.308913,1532.190996,10214.842000
856.549732,-370.102971,1225.752797,9474.636058
856.550061,-222.061783,-229.828649,9104.533087
856.550391,296.082377,-1072.533697,8586.388927
856.550720,518.144159,-536.266849,8364.327145
856.551050,962.267725,-153.219100,8808.450710
856.551379,1036.288319,689.485948,9622.677246
856.551709,666.185348,2604.724693,10658.965565
856.552039,-888.247130,3830.477490,10584.944971
856.552368,-1554.432478,3677.258390,10140.821405
856.552698,-1554.432478,2681.334243,9622.677246
856.553027,-1332.370696,1225.752797,8512.368333
856.553357,-518.144159,76.609550,7698.141797
856.553686,-222.061783,-1378.971896,7476.080014
856.554016,-444.123565,-919.314598,8142.265362
856.554345,-1258.350101,-306.438199,8068.244768
856.554675,-1406.391290,229.828649,8734.430116
856.555004,-1480.411884,995.924147,9400.615463
856.555334,-1110.308913,1915.238745,10732.986159
856.555663,-1332.370696,1991.848295,11251.130318
856.555993,-1554.432478,1762.019645,10955.047942
856.556322,-1924.535449,1225.752797,10807.006753
856.556652,-1480.411884,995.924147,10436.903782
856.556982,-518.144159,0.000000,9770.718434
856.557311,592.164754,-383.047749,9104.533087
856.557641,1332.370696,-306.438199,8438.347739
856.557970,1702.473667,76.609550,8438.347739
856.558300,1850.514855,766.095498,9400.615463
856.558629,962.267725,1991.848295,10140.821405
856.558959,-888.247130,3600.648841,10436.903782
856.559288,-2220.617826,3907.087040,10584.944971
856.559618,-2886.803174,2298.286494,10214.842000
856.559947,-3034.844362,1072.533697,9622.677246
856.560277,-2442.679609,76.609550,9030.512492
856.560606,-2368.659014,-1608.800546,8142.265362
856.560936,-2368.659014,-1532.190996,8882.471304
856.561265,-3552.988522,-689.485948,8956.491898
856.561595,-3478.967927,229.828649,9326.594869
856.561924,-3182.885551,1762.019645,10066.800811
856.562254,-2516.700203,1838.629195,10140.821405
856.562584,-2220.617826,2068.457845,10362.883188
856.562913,-2220.617826,1149.143247,10066.800811
856.563243,-2072.576638,689.485948,9992.780217
856.563572,-1850.514855,919.314598,9770.718434
856.563902,-1036.288319,229.828649,9326.594869
856.564231,-518.144159,-383.047749,8882.471304
856.564561,518.144159,-766.095498,8734.430116
856.564890,1406.391290,76.609550,8882.471304
856.565220,1850.514855,919.314598,9252.574275
856.565549,1332.370696,1762.019645,9474.636058
856.565879,740.205942,3370.820191,10362.883188
856.566208,-370.102971,3983.696590,10362.883188
856.566538,-1184.329507,3064.381992,9770.718434
856.566867,-1480.411884,1608.800546,9252.574275
856.567197,-1184.329507,229.828649,8290.306550
856.567527,-814.226536,-919.314598,8364.327145
856.567856,-1110.308913,-1685.410096,8290.306550
856.568186,-1702.473667,-766.095498,8586.388927
856.568515,-1998.556043,0.000000,8734.430116
856.568845,-1776.494261,766.095498,9696.697840
856.569174,-888.247130,1608.800546,10807.006753
856.569504,-1406.391290,2451.505594,11177.109724
856.569833,-1480.411884,2374.896044,10658.965565
856.570163,-1258.350101,1302.362347,10140.821405
856.570492,-814.226536,612.876398,9992.780217
856.570822,148.041188,-153.219100,9474.636058
856.571151,296.082377,-689.485948,8956.491898
856.571481,962.267725,-459.657299,8512.368333
856.571810,1332.370696,0.000000,8882.471304
856.572140,1110.308913,383.047749,9474.636058
856.572470,148.041188,1685.410096,10214.842000
856.572799,-888.247130,3447.429741,10807.006753
856.573129,-1924.535449,3677.258390,10807.006753
856.573458,-2368.659014,2911.162892,10362.883188
856.573788,-2220.617826,1455.581446,9400.615463
856.574117,-2072.576638,153.219100,7994.224174
856.574447,-1850.514855,-1225.752797,7476.080014
856.574776,-1998.556043,-1302.362347,8142.265362
856.575106,-2368.659014,-689.485948,8512.368333
856.575435,-2960.823768,76.609550,8660.409521
856.575765,-2812.782580,919.314598,9770.718434
856.576094,-2886.803174,1685.410096,10510.924376
856.576424,-2886.803174,2757.943793,11103.089130
856.576753,-2664.741391,2451.505594,10807.006753
856.577083,-2516.700203,1608.800546,10362.883188
856.577413,-2368.659014,766.095498,10436.903782
856.577742,-1480.411884,76.609550,10214.842000
856.578072,-888.247130,-229.828649,9474.636058
856.578401,148.041188,-766.095498,8882.471304
856.578731,740.205942,-612.876398,8586.388927
856.579060,1628.453072,229.828649,9178.553681
856.579390,2072.576638,1225.752797,9252.574275
856.579719,1406.391290,2681.334243,9992.780217
856.580049,222.061783,3983.696590,9770.718434
856.580378,-518.144159,3600.648841,9622.677246
856.580708,-1036.288319,2145.067394,9326.594869
856.581037,-814.226536,1225.752797,8808.450710
856.581367,-444.123565,-229.828649,8142.265362
856.581696,-888.247130,-995.924147,8068.244768
856.582026,-1110.308913,-459.657299,8734.430116
856.582356,-1776.494261,383.047749,8956.491898
856.582685,-1776.494261,689.485948,9474.636058
856.583015,-1554.432478,1149.143247,10288.862594
856.583344,-1702.473667,2451.505594,10584.944971
856.583674,-1850.514855,2298.286494,10510.924376
856.584003,-1480.411884,995.924147,10436.903782
856.584333,-1480.411884,842.705048,9918.759623
856.584662,-1110.308913,0.000000,9474.636058
856.584992,222.061783,-306.438199,8882.471304
856.585321,74.020594,-766.095498,8290.306550
856.585651,666.185348,-689.485948,8808.450710
856.585980,1184.329507,306.438199,9474.636058
856.586310,1184.329507,1378.971896,10214.842000
