#time,accel_x,accel_y,accel_z
1094.716803,-1258.350101,842.705048,9474.636058
1094.717132,-1110.308913,1149.143247,9548.656652
1094.717462,-1110.308913,1072.533697,9696.697840
1094.717792,-962.267725,919.314598,9622.677246
1094.718122,-888.247130,1302.362347,9548.656652
1094.718451,-518.144159,1072.533697,9992.780217
1094.718781,-1110.308913,842.705048,9474.636058
1094.719111,-1110.308913,919.314598,9474.636058
1094.719441,-1036.288319,919.314598,9548.656652
1094.719770,-888.247130,1149.143247,9474.636058
1094.720100,-1258.350101,689.485948,9474.636058
1094.720430,-740.205942,1225.752797,9474.636058
1094.720760,-1110.308913,842.705048,9548.656652
1094.721089,-1036.288319,1072.533697,9474.636058
1094.721419,-1184.329507,1149.143247,9622.677246
1094.721749,-1110.308913,1072.533697,9474.636058
1094.722079,-1332.370696,919.314598,9400.615463
1094.722408,-962.267725,842.705048,9548.656652
1094.722738,-962.267725,1149.143247,9622.677246
1094.723068,-1036.288319,842.705048,9474.636058
1094.723398,-666.185348,842.705048,9326.594869
1094.723727,-1036.288319,383.047749,9474.636058
1094.724057,-1036.288319,842.705048,9474.636058
1094.724387,-1036.288319,842.705048,9474.636058
1094.724717,-1184.329507,1149.143247,9622.677246
1094.725046,-1036.288319,919.314598,9474.636058
1094.725376,-1332.370696,1302.362347,9474.636058
1094.725706,-1036.288319,1225.752797,9474.636058
1094.726036,-1110.308913,995.924147,9622.677246
1094.726365,-1110.308913,995.924147,9474.636058
1094.726695,-962.267725,689.485948,9474.636058
1094.727025,-888.247130,1072.533697,9622.677246
1094.727355,-1258.350101,995.924147,9326.594869
1094.727684,-1036.288319,919.314598,9622.677246
1094.728014,-1110.308913,1072.533697,9548.656652
1094.728344,-1036.288319,766.095498,9548.656652
1094.728674,-1184.329507,919.314598,9252.574275
1094.729003,-962.267725,842.705048,9622.677246
1094.729333,-1110.308913,842.705048,9474.636058
1094.729663,-1036.288319,842.705048,9622.677246
1094.729993,-1184.329507,766.095498,9622.677246
1094.730323,-1258.350101,919.314598,9474.636058
1094.730652,-962.267725,842.705048,9622.677246
1094.730982,-888.247130,919.314598,9770.718434
1094.731312,-1258.350101,1072.533697,9548.656652
1094.731642,-962.267725,995.924147,9474.636058
1094.731971,-1184.329507,919.314598,9474.636058
1094.732301,-666.185348,995.924147,9400.615463
1094.732631,-962.267725,1072.533697,9474.636058
1094.732961,-1110.308913,995.924147,9474.636058
1094.733290,-1184.329507,919.314598,9474.636058
1094.733620,-1036.288319,1149.143247,9622.677246
1094.733950,-1258.350101,612.876398,9474.636058
1094.734280,-962.267725,1532.190996,9326.594869
1094.734609,-888.247130,919.314598,9474.636058
1094.734939,-1036.288319,919.314598,9474.636058
1094.735269,-1110.308913,919.314598,9400.615463
1094.735599,-1110.308913,995.924147,9548.656652
1094.735928,-962.267725,919.314598,9400.615463
1094.736258,-1110.308913,919.314598,9474.636058
1094.736588,-1184.329507,842.705048,9400.615463
1094.736918,-1110.308913,766.095498,9696.697840
1094.737247,-1184.329507,766.095498,9474.636058
1094.737577,-888.247130,995.924147,9770.718434
1094.737907,-962.267725,1455.581446,9326.594869
1094.738237,-962.267725,842.705048,9696.697840
1094.738566,-962.267725,842.705048,9474.636058
1094.738896,-888.247130,766.095498,9548.656652
1094.739226,-1184.329507,919.314598,9326.594869
1094.739556,-888.247130,459.657299,9696.697840
1094.739885,-1184.329507,919.314598,9400.615463
1094.740215,-666.185348,1455.581446,9178.553681
1094.740545,0.000000,995.924147,9104.533087
1094.740875,1036.288319,383.047749,9326.594869
1094.741204,962.267725,766.095498,9400.615463
1094.741534,888.247130,459.657299,9474.636058
1094.741864,222.061783,842.705048,9992.780217
1094.742194,0.000000,1225.752797,10362.883188
1094.742523,-740.205942,1302.362347,10436.903782
1094.742853,-370.102971,459.657299,10066.800811
1094.743183,74.020594,153.219100,9622.677246
1094.743513,148.041188,-153.219100,9178.553681
1094.743842,1332.370696,153.219100,9474.636058
1094.744172,1998.556043,536.266849,9104.533087
1094.744502,2738.761985,459.657299,8956.491898
1094.744832,3478.967927,1608.800546,9030.512492
1094.745161,3478.967927,1685.410096,9178.553681
1094.745491,3775.050304,1991.848295,9474.636058
1094.745821,3330.926739,1225.752797,9992.780217
1094.746151,2368.659014,1225.752797,9992.780217
1094.746480,1480.411884,1378.971896,9696.697840
1094.746810,1110.308913,306.438199,10658.965565
1094.747140,1480.411884,0.000000,10658.965565
1094.747470,1850.514855,-153.219100,9844.739029
1094.747799,2368.659014,-306.438199,9400.615463
1094.748129,3108.864956,0.000000,9030.512492
1094.748459,3997.112087,536.266849,9252.574275
1094.748789,4293.194464,1915.238745,9178.553681
1094.749118,3701.029710,2374.896044,9844.739029
1094.749448,2664.741391,2757.943793,10066.800811
1094.749778,1332.370696,3294.210641,10510.924376
1094.750108,-518.144159,2221.676944,10214.842000
1094.750437,-1850.514855,1455.581446,9622.677246
1094.750767,-1628.453072,536.266849,8512.368333
1094.751097,-370.102971,-842.705048,7698.141797
1094.751427,1406.391290,-1302.362347,6883.915261
1094.751756,2960.823768,-919.314598,6439.791695
1094.752086,3923.091493,-229.828649,6957.935855
1094.752416,4219.173869,1378.971896,8216.285956
1094.752746,3256.906145,3983.696590,9992.780217
1094.753075,2072.576638,4749.792088,11399.171507
1094.753405,1110.308913,3600.648841,12509.480420
1094.753735,-592.164754,2451.505594,12805.562797
1094.754065,-1480.411884,995.924147,12731.542202
1094.754394,-1924.535449,-1072.533697,11843.295072
1094.754724,-1702.473667,-2528.115143,10584.944971
1094.755054,-666.185348,-2757.943793,9400.615463
1094.755384,888.247130,-2757.943793,7994.224174
1094.755713,2664.741391,-1685.410096,7476.080014
1094.756043,4219.173869,0.000000,7031.956449
1094.756373,4811.338623,1455.581446,7031.956449
1094.756703,4885.359217,2911.162892,7994.224174
1094.757032,4959.379811,4519.963438,9178.553681
1094.757362,3997.112087,4443.353888,10288.862594
1094.757692,3182.885551,3524.039291,11103.089130
1094.758022,1850.514855,2451.505594,11695.253884
1094.758351,518.144159,536.266849,11399.171507
1094.758681,-222.061783,-383.047749,10881.027347
1094.759011,-814.226536,-1225.752797,10732.986159
1094.759341,-666.185348,-1991.848295,10510.924376
1094.759670,-296.082377,-1455.581446,10436.903782
1094.760000,0.000000,-612.876398,9696.697840
1094.760330,962.267725,306.438199,8364.327145
1094.760660,2294.638420,766.095498,7846.182985
1094.760989,3923.091493,612.876398,8290.306550
1094.761319,4515.256246,612.876398,7994.224174
1094.761649,4737.318029,689.485948,7846.182985
1094.761979,4515.256246,1302.362347,8808.450710
1094.762308,3256.906145,1762.019645,9400.615463
1094.762638,2442.679609,1915.238745,10362.883188
1094.762968,1702.473667,2145.067394,10436.903782
1094.763298,1702.473667,1532.190996,10584.944971
1094.763627,1924.535449,1685.410096,10658.965565
1094.763957,1850.514855,1685.410096,9696.697840
1094.764287,2072.576638,995.924147,8882.471304
1094.764617,2442.679609,459.657299,8290.306550
1094.764946,2664.741391,689.485948,8142.265362
1094.765276,2368.659014,995.924147,8956.491898
1094.765606,1776.494261,689.485948,9696.697840
1094.765936,740.205942,612.876398,9770.718434
1094.766265,-666.185348,536.266849,10288.862594
1094.766595,-1332.370696,229.828649,10807.006753
1094.766925,-1332.370696,0.000000,11473.192101
1094.767255,-1480.411884,0.000000,11621.233289
1094.767584,-1554.432478,536.266849,10732.986159
1094.767914,-592.164754,306.438199,9548.656652
1094.768244,1776.494261,0.000000,8586.388927
1094.768574,3923.091493,383.047749,7624.121203
1094.768903,6513.812290,2068.457845,7476.080014
1094.769233,8068.244768,2451.505594,7254.018232
1094.769563,8882.471304,3217.601092,8290.306550
1094.769893,7994.224174,4366.744339,9400.615463
1094.770222,5921.647536,5286.058936,10658.965565
1094.770552,3330.926739,4290.134789,12213.398043
1094.770882,888.247130,2681.334243,13249.686362
1094.771212,-2368.659014,1532.190996,14137.933492
1094.771541,-5773.606348,-1455.581446,13323.706956
1094.771871,-7846.182985,-1915.238745,11621.233289
1094.772201,-7402.059420,-2451.505594,8586.388927
1094.772531,-3849.070898,-3370.820191,4737.318029
1094.772860,1776.494261,-4519.963438,2368.659014
1094.773190,7994.224174,-4136.915689,1850.514855
1094.773520,10658.965565,-689.485948,3034.844362
1094.773850,9548.656652,4366.744339,5329.482782
1094.774179,7846.182985,7814.174080,8364.327145
1094.774509,6069.688724,8503.660028,11991.336260
1094.774839,2590.720797,8733.488677,15174.221811
1094.775169,-1850.514855,6205.373534,17098.757260
1094.775498,-4811.338623,1608.800546,16728.654289
1094.775828,-5921.647536,-1762.019645,14582.057057
1094.776158,-4885.359217,-5056.230287,11769.274478
1094.776488,-1702.473667,-7124.688131,9770.718434
1094.776817,1554.432478,-6741.640382,7105.977043
1094.777147,5181.441594,-4673.182538,3478.967927
1094.777477,9474.636058,-2451.505594,2516.700203
1094.777807,12731.542202,0.000000,4737.318029
1094.778136,12139.377449,5056.230287,9178.553681
1094.778466,6365.771101,7737.564530,11325.150913
1094.778796,740.205942,9193.145976,12731.542202
1094.779126,-2220.617826,7967.393179,13989.892304
1094.779455,-2664.741391,2451.505594,14285.974681
1094.779785,-2220.617826,-1915.238745,12065.356855
1094.780115,-2738.761985,-5362.668486,8068.244768
1094.780445,-888.247130,-7201.297681,5921.647536
1094.780775,1628.453072,-6435.202183,7031.956449
1094.781104,1110.308913,-3830.477490,7846.182985
1094.781434,740.205942,612.876398,7772.162391
1094.781764,1554.432478,2451.505594,8438.347739
1094.782094,4737.318029,4826.401637,10658.965565
1094.782423,5477.523971,4136.915689,12139.377449
1094.782753,3552.988522,2528.115143,12139.377449
1094.783083,1702.473667,1762.019645,10881.027347
1094.783413,74.020594,76.609550,12065.356855
1094.783742,-1406.391290,-383.047749,12657.521608
1094.784072,-1998.556043,-153.219100,9770.718434
1094.784402,-222.061783,-3830.477490,5551.544565
1094.784732,3478.967927,-5745.716235,3923.091493
1094.785061,7031.956449,-2987.772442,5033.400406
1094.785391,8956.491898,1608.800546,6513.812290
1094.785721,8586.388927,3830.477490,7105.977043
1094.786051,6735.874072,5209.449386,9696.697840
1094.786380,3182.885551,7507.735880,12287.418637
1094.786710,296.082377,6358.592633,14434.015869
1094.787040,-740.205942,3447.429741,16432.571912
1094.787370,-1924.535449,1072.533697,16210.510130
1094.787699,-4737.318029,-1072.533697,13397.727550
1094.788029,-7105.977043,-3370.820191,9992.780217
1094.788359,-5477.523971,-5439.278036,8290.306550
1094.788688,-4515.256246,-5286.058936,6809.894666
1094.789018,-3182.885551,-2681.334243,3997.112087
1094.789348,444.123565,-1149.143247,2590.720797
1094.789678,6883.915261,-306.438199,4885.359217
1094.790007,10584.944971,2987.772442,7105.977043
1094.790337,10807.006753,5286.058936,6957.935855
1094.790667,10658.965565,7354.516781,7920.203579
1094.790996,8216.285956,8503.660028,11177.109724
1094.791326,5255.462188,11031.775171,14434.015869
1094.791656,2738.761985,6511.811733,16506.592507
1094.791985,1332.370696,536.266849,15026.180623
1094.792315,-740.205942,0.000000,12139.377449
1094.792645,-2812.782580,-1915.238745,10732.986159
1094.792975,-2294.638420,-4443.353888,11399.171507
1094.793304,-3330.926739,-3524.039291,9992.780217
1094.793634,-4071.132681,-1378.971896,7105.977043
1094.793964,-1258.350101,0.000000,3849.070898
1094.794293,4293.194464,76.609550,1998.556043
1094.794623,10584.944971,1302.362347,1702.473667
1094.794953,12583.501014,229.828649,3775.050304
1094.795282,9400.615463,3294.210641,5403.503377
1094.795612,4959.379811,7967.393179,7994.224174
1094.795942,4219.173869,6894.859482,12583.501014
1094.796272,3182.885551,5362.668486,16432.571912
1094.796601,-1184.329507,2911.162892,17616.901420
1094.796931,-4515.256246,-2068.457845,16432.571912
1094.797261,-6069.688724,-4673.182538,13471.748144
1094.797590,-7476.080014,-4979.620737,11695.253884
1094.797920,-8364.327145,-3677.258390,12361.439231
1094.798250,-5033.400406,-2987.772442,9918.759623
1094.798579,1332.370696,-2604.724693,4737.318029
1094.798909,8882.471304,-4443.353888,1776.494261
1094.799239,12879.583391,-2451.505594,3256.906145
1094.799569,12435.459826,3983.696590,5477.523971
1094.799898,8956.491898,7354.516781,8660.409521
1094.800228,5995.668130,9193.145976,12065.356855
1094.800558,3775.050304,10955.165621,16728.654289
1094.800887,-148.041188,7967.393179,18949.272115
1094.801217,-6809.894666,1532.190996,15692.365970
1094.801547,-11621.233289,-3983.696590,12435.459826
1094.801876,-12213.398043,-5898.935335,11695.253884
1094.802206,-8438.347739,-6358.592633,10362.883188
1094.802536,-4589.276840,-7737.564530,6735.874072
1094.802866,-1628.453072,-7124.688131,3552.988522
1094.803195,2146.597232,-4903.011187,1850.514855
1094.803525,7179.997637,612.876398,2368.659014
1094.803855,11399.171507,5898.935335,4811.338623
1094.804184,11547.212695,9576.193725,9030.512492
1094.804514,7179.997637,11568.042020,13767.830521
1094.804844,0.000000,12104.308868,15100.201217
1094.805173,-5847.626942,8427.050478,14952.160028
1094.805503,-9030.512492,2681.334243,15692.365970
1094.805833,-9622.677246,-766.095498,14804.118840
1094.806163,-8956.491898,-5898.935335,9918.759623
1094.806492,-5181.441594,-10112.460574,4293.194464
1094.806822,-888.247130,-9959.241474,-296.082377
1094.807152,4515.256246,-7431.126331,-2220.617826
1094.807481,8956.491898,-3600.648841,592.164754
1094.807811,11621.233289,2374.896044,5995.668130
1094.808141,9400.615463,11184.994271,11473.192101
1094.808470,5255.462188,15704.957709,14359.995275
1094.808800,222.061783,14096.157163,14434.015869
1094.809130,-3182.885551,8656.879127,17172.777854
1094.809460,-5477.523971,1302.362347,19245.354492
1094.809789,-8142.265362,-1149.143247,17468.860231
1094.810119,-11695.253884,-2911.162892,10658.965565
1094.810449,-12213.398043,-8197.221829,4219.173869
1094.810778,-6735.874072,-11951.089769,2146.597232
1094.811108,814.226536,-12027.699319,4367.215058
1094.811438,6513.812290,-6052.154434,3923.091493
1094.811767,6365.771101,3600.648841,3330.926739
1094.812097,2738.761985,8886.707777,6365.771101
1094.812427,1850.514855,11261.603821,12065.356855
1094.812757,1332.370696,10418.898773,18579.169144
1094.813086,296.082377,8963.317327,20355.663405
1094.813416,-3775.050304,8733.488677,17394.839637
1094.813746,-7846.182985,4060.306139,13175.665768
1094.814075,-6513.812290,-4903.011187,9104.533087
1094.814405,-2146.597232,-12640.575717,7105.977043
1094.814735,1554.432478,-10189.070123,5847.626942
1094.815064,1924.535449,-4749.792088,5255.462188
1094.815394,2442.679609,-1915.238745,6291.750507
1094.815724,1554.432478,3370.820191,6439.791695
1094.816054,888.247130,5592.497135,6513.812290
1094.816383,2368.659014,8350.440928,9400.615463
1094.816713,3478.967927,8733.488677,12805.562797
1094.817043,1776.494261,9039.926876,13545.768739
1094.817372,-3997.112087,4826.401637,10658.965565
1094.817702,-7846.182985,-1072.533697,7402.059420
1094.818032,-5995.668130,-4366.744339,7328.038826
1094.818361,-2220.617826,-7354.516781,8512.368333
1094.818691,-1258.350101,-6511.811733,7994.224174
1094.819021,-4145.153275,-3983.696590,6143.709319
1094.819351,-5033.400406,-2834.553343,5181.441594
1094.819680,-2664.741391,-689.485948,6661.853478
1094.820010,518.144159,2681.334243,10436.903782
1094.820340,2738.761985,7431.126331,12139.377449
1094.820669,1110.308913,7737.564530,11695.253884
1094.820999,-518.144159,2987.772442,11103.089130
1094.821329,-814.226536,1532.190996,10584.944971
1094.821658,444.123565,1378.971896,10881.027347
1094.821988,1480.411884,-995.924147,11399.171507
1094.822318,444.123565,-3217.601092,11029.068536
1094.822648,-3108.864956,-3447.429741,10140.821405
1094.822977,-4737.318029,-2145.067394,9326.594869
1094.823307,-3701.029710,-1455.581446,10362.883188
1094.823637,-1258.350101,1455.581446,11991.336260
1094.823966,-518.144159,3753.867940,12139.377449
1094.824296,-296.082377,3983.696590,10732.986159
1094.824626,-222.061783,2604.724693,8290.306550
1094.824955,592.164754,842.705048,7476.080014
1094.825285,1702.473667,3140.991542,8956.491898
1094.825615,1776.494261,3753.867940,10807.006753
1094.825945,0.000000,612.876398,12509.480420
1094.826274,-3701.029710,76.609550,11547.212695
1094.826604,-7031.956449,1915.238745,9474.636058
1094.826934,-6217.729913,612.876398,8734.430116
1094.827263,-1480.411884,306.438199,9400.615463
1094.827593,1036.288319,459.657299,9252.574275
1094.827923,1480.411884,383.047749,6513.812290
1094.828252,444.123565,0.000000,4367.215058
1094.828582,2220.617826,1762.019645,4441.235652
1094.828912,5255.462188,3447.429741,7179.997637
1094.829242,5551.544565,2681.334243,8956.491898
1094.829571,2368.659014,2757.943793,9030.512492
1094.829901,-1406.391290,1455.581446,8882.471304
1094.830231,-3108.864956,919.314598,10658.965565
1094.830560,-3849.070898,1915.238745,10955.047942
1094.830890,-4441.235652,1532.190996,10362.883188
1094.831220,-4737.318029,-1685.410096,9030.512492
1094.831549,-4145.153275,-1991.848295,8364.327145
1094.831879,-2368.659014,-1838.629195,6883.915261
1094.832209,592.164754,-2757.943793,7550.100608
1094.832539,2368.659014,-536.266849,8660.409521
1094.832868,2516.700203,4519.963438,9400.615463
1094.833198,1850.514855,2681.334243,10288.862594
1094.833528,444.123565,-229.828649,12139.377449
1094.833857,-2960.823768,2681.334243,14211.954086
1094.834187,-5847.626942,5515.887586,15840.407159
1094.834517,-5995.668130,1608.800546,16358.551318
1094.834846,-5107.421000,-1608.800546,13989.892304
1094.835176,-3923.091493,-2911.162892,9918.759623
1094.835506,-1480.411884,-4826.401637,6735.874072
1094.835836,1628.453072,-3907.087040,6513.812290
1094.836165,5033.400406,-536.266849,8660.409521
1094.836495,4737.318029,2451.505594,10140.821405
1094.836825,592.164754,4903.011187,9696.697840
1094.837154,-2368.659014,5745.716235,10288.862594
1094.837484,-1480.411884,5362.668486,11621.233289
1094.837814,-444.123565,4903.011187,12509.480420
1094.838143,-1776.494261,3677.258390,10436.903782
1094.838473,-3404.947333,-536.266849,7550.100608
1094.838803,-3552.988522,-3294.210641,5477.523971
1094.839133,-3034.844362,-2604.724693,5403.503377
1094.839462,-1258.350101,-2221.676944,6513.812290
1094.839792,0.000000,-229.828649,7031.956449
1094.840122,444.123565,2145.067394,6587.832884
1094.840451,-1628.453072,2604.724693,6513.812290
1094.840781,-2220.617826,3064.381992,7402.059420
1094.841111,-2146.597232,4213.525239,8808.450710
1094.841440,-2368.659014,5132.839837,10362.883188
1094.841770,-3627.009116,2987.772442,10732.986159
1094.842100,-4885.359217,76.609550,9252.574275
1094.842430,-3849.070898,-2221.676944,7179.997637
1094.842759,-1628.453072,-4443.353888,6587.832884
1094.843089,1036.288319,-2604.724693,7698.141797
1094.843419,2960.823768,153.219100,9474.636058
1094.843748,3108.864956,766.095498,10362.883188
1094.844078,592.164754,2221.676944,11177.109724
1094.844408,-2368.659014,4213.525239,12509.480420
1094.844737,-2812.782580,6358.592633,15100.201217
1094.845067,-2368.659014,5898.935335,16580.613101
1094.845397,-2590.720797,3140.991542,13841.851115
1094.845727,-2442.679609,-1685.410096,10436.903782
1094.846056,-2516.700203,-4060.306139,8290.306550
1094.846386,-1998.556043,-2834.553343,8956.491898
1094.846716,-444.123565,-1838.629195,10658.965565
1094.847045,444.123565,0.000000,11917.315666
1094.847375,-814.226536,2068.457845,10436.903782
1094.847705,-2368.659014,2757.943793,9548.656652
1094.848034,-1332.370696,3064.381992,10510.924376
1094.848364,148.041188,5132.839837,10955.047942
1094.848694,740.205942,4366.744339,10362.883188
1094.849024,-518.144159,2757.943793,8290.306550
1094.849353,-1184.329507,306.438199,6069.688724
1094.849683,-370.102971,-1915.238745,6069.688724
1094.850013,1554.432478,-1608.800546,6217.729913
1094.850342,2072.576638,-153.219100,6809.894666
1094.850672,3034.844362,229.828649,6587.832884
1094.851002,2368.659014,995.924147,6587.832884
1094.851331,-296.082377,2451.505594,7328.038826
1094.851661,-1776.494261,3983.696590,8808.450710
1094.851991,-3627.009116,3677.258390,10214.842000
1094.852321,-4367.215058,3830.477490,11325.150913
1094.852650,-5329.482782,2757.943793,9400.615463
1094.852980,-4663.297435,-2911.162892,6735.874072
1094.853310,-2442.679609,-5898.935335,5477.523971
1094.853639,-74.020594,-4596.572988,7031.956449
1094.853969,1258.350101,-2757.943793,9178.553681
1094.854299,1554.432478,-995.924147,9400.615463
1094.854628,296.082377,-459.657299,10807.006753
1094.854958,-2368.659014,2681.334243,11843.295072
1094.855288,-3256.906145,5439.278036,13397.727550
1094.855618,-962.267725,3983.696590,14656.077652
1094.855947,814.226536,2451.505594,14508.036463
1094.856277,-518.144159,919.314598,11399.171507
1094.856607,-2146.597232,-1149.143247,9622.677246
1094.856936,-518.144159,-3217.601092,10066.800811
1094.857266,1628.453072,-2451.505594,11547.212695
1094.857596,1850.514855,383.047749,12731.542202
1094.857925,-296.082377,536.266849,12435.459826
1094.858255,-2146.597232,1532.190996,11769.274478
1094.858585,-3256.906145,4136.915689,10436.903782
1094.858915,-2368.659014,3294.210641,10881.027347
1094.859244,-1480.411884,3064.381992,11325.150913
1094.859574,-1924.535449,2757.943793,10066.800811
1094.859904,-2886.803174,383.047749,7476.080014
1094.860233,-3182.885551,-1455.581446,5329.482782
1094.860563,-1036.288319,-1532.190996,5255.462188
1094.860893,962.267725,-459.657299,6513.812290
1094.861222,2146.597232,-229.828649,6661.853478
1094.861552,1628.453072,1991.848295,6217.729913
1094.861882,-296.082377,4290.134789,5995.668130
1094.862212,-2146.597232,3677.258390,6883.915261
1094.862541,-3182.885551,4443.353888,9030.512492
1094.862871,-3849.070898,4673.182538,11029.068536
1094.863201,-3552.988522,4136.915689,10066.800811
1094.863530,-3849.070898,766.095498,7105.977043
1094.863860,-2812.782580,-3600.648841,4737.318029
1094.864190,-962.267725,-3830.477490,5181.441594
1094.864519,1184.329507,-1608.800546,6883.915261
1094.864849,2220.617826,229.828649,7920.203579
1094.865179,1924.535449,995.924147,8586.388927
1094.865509,-1628.453072,2681.334243,9992.780217
1094.865838,-3330.926739,3983.696590,11695.253884
1094.866168,-3404.947333,3983.696590,14285.974681
1094.866498,-2146.597232,3524.039291,15322.262999
1094.866827,-2812.782580,2221.676944,14804.118840
1094.867157,-5255.462188,-1608.800546,12583.501014
1094.867487,-4589.276840,-3064.381992,11843.295072
1094.867816,-1554.432478,-2757.943793,11547.212695
1094.868146,1036.288319,-2834.553343,11843.295072
1094.868476,2220.617826,-612.876398,11473.192101
1094.868806,1036.288319,995.924147,10807.006753
1094.869135,-296.082377,2528.115143,10732.986159
1094.869465,-1702.473667,3753.867940,10214.842000
1094.869795,-592.164754,4979.620737,11917.315666
1094.870124,1036.288319,4290.134789,12361.439231
1094.870454,0.000000,1532.190996,10732.986159
1094.870784,-2146.597232,-536.266849,6809.894666
1094.871113,-1332.370696,-1762.019645,4441.235652
1094.871443,1998.556043,-2834.553343,5847.626942
1094.871773,3478.967927,-612.876398,7179.997637
1094.872103,2516.700203,1302.362347,8290.306550
1094.872432,222.061783,2298.286494,7920.203579
1094.872762,-2812.782580,3600.648841,5921.647536
1094.873092,-3849.070898,4366.744339,7179.997637
1094.873421,-3034.844362,3677.258390,9030.512492
1094.873751,-2442.679609,3600.648841,9252.574275
1094.874081,-3330.926739,-229.828649,6365.771101
1094.874410,-3330.926739,-3524.039291,4959.379811
1094.874740,-2738.761985,-3600.648841,5477.523971
1094.875070,-814.226536,-1072.533697,7402.059420
1094.875400,1480.411884,-1991.848295,8956.491898
1094.875729,1036.288319,-689.485948,9178.553681
1094.876059,-888.247130,3294.210641,9770.718434
1094.876389,-2590.720797,2834.553343,11695.253884
1094.876718,-1406.391290,2757.943793,13323.706956
1094.877048,-1628.453072,4519.963438,14211.954086
1094.877378,-1554.432478,2528.115143,13027.624579
1094.877707,-1924.535449,-1149.143247,11695.253884
1094.878037,-1480.411884,-3600.648841,10436.903782
1094.878367,-222.061783,-3140.991542,11251.130318
1094.878697,518.144159,-1455.581446,12287.418637
1094.879026,1258.350101,306.438199,12805.562797
1094.879356,1258.350101,1149.143247,12139.377449
1094.879686,-814.226536,2221.676944,12139.377449
1094.880015,-3478.967927,4596.572988,11991.336260
1094.880345,-3034.844362,5056.230287,12731.542202
1094.880675,-1480.411884,2834.553343,12509.480420
1094.881004,-1554.432478,1762.019645,10658.965565
1094.881334,-3849.070898,0.000000,7402.059420
1094.881664,-3478.967927,-2757.943793,4811.338623
1094.881994,-296.082377,-2757.943793,5995.668130
1094.882323,2368.659014,-766.095498,7402.059420
1094.882653,2812.782580,1762.019645,7105.977043
1094.882983,814.226536,2451.505594,5847.626942
1094.883312,-1628.453072,2451.505594,5995.668130
1094.883642,-1924.535449,3983.696590,7476.080014
1094.883972,-1998.556043,5132.839837,10288.862594
1094.884301,-1332.370696,4519.963438,10658.965565
1094.884631,-2812.782580,1532.190996,9548.656652
1094.884961,-4663.297435,-689.485948,5847.626942
1094.885291,-3849.070898,-2068.457845,3552.988522
1094.885620,740.205942,-4366.744339,4959.379811
1094.885950,3701.029710,-2834.553343,6883.915261
1094.886280,2368.659014,766.095498,7328.038826
1094.886609,-814.226536,2298.286494,7698.141797
1094.886939,-2812.782580,2145.067394,8882.471304
1094.887269,-2812.782580,3677.258390,11843.295072
1094.887598,-3256.906145,5132.839837,14063.912898
1094.887928,-3775.050304,3140.991542,15026.180623
1094.888258,-5033.400406,153.219100,13249.686362
1094.888588,-4293.194464,-1838.629195,11177.109724
1094.888917,-2738.761985,-3830.477490,9770.718434
1094.889247,-592.164754,-3907.087040,10807.006753
1094.889577,1998.556043,-2068.457845,12731.542202
1094.889906,2146.597232,0.000000,13027.624579
1094.890236,-518.144159,3064.381992,11917.315666
1094.890566,-2738.761985,4596.572988,11177.109724
1094.890895,-1480.411884,4136.915689,13249.686362
1094.891225,-296.082377,3753.867940,14582.057057
1094.891555,-1110.308913,2834.553343,12435.459826
1094.891885,-2220.617826,76.609550,9918.759623
1094.892214,-2368.659014,-1915.238745,6957.935855
1094.892544,-148.041188,-2221.676944,7105.977043
1094.892874,2442.679609,-1608.800546,7698.141797
1094.893204,4071.132681,76.609550,6883.915261
1094.893533,2368.659014,1608.800546,5995.668130
1094.893863,0.000000,3447.429741,5773.606348
1094.894193,-1702.473667,5056.230287,7402.059420
1094.894523,-1924.535449,5209.449386,9178.553681
1094.894852,-1332.370696,4290.134789,10066.800811
1094.895182,-2368.659014,3830.477490,8660.409521
1094.895512,-3108.864956,612.876398,5921.647536
1094.895842,-2664.741391,-3677.258390,4515.256246
1094.896171,-370.102971,-4213.525239,4737.318029
1094.896501,888.247130,-1608.800546,6143.709319
1094.896831,1850.514855,612.876398,7402.059420
1094.897161,666.185348,2145.067394,8142.265362
1094.897490,-370.102971,3294.210641,8586.388927
1094.897820,-1998.556043,2681.334243,9400.615463
1094.898150,-2072.576638,3370.820191,12139.377449
1094.898480,-2294.638420,3983.696590,14359.995275
1094.898809,-3182.885551,1455.581446,13397.727550
1094.899139,-5403.503377,-2911.162892,10288.862594
1094.899469,-4219.173869,-4136.915689,9030.512492
1094.899799,-1554.432478,-4673.182538,10066.800811
1094.900128,1480.411884,-3524.039291,11547.212695
1094.900458,2664.741391,-1149.143247,12509.480420
1094.900788,740.205942,1378.971896,11991.336260
1094.901118,-2072.576638,2987.772442,12139.377449
1094.901447,-1776.494261,3677.258390,13989.892304
1094.901777,-518.144159,5362.668486,15914.427753
1094.902107,-1184.329507,5439.278036,14359.995275
1094.902437,-3182.885551,1762.019645,11695.253884
1094.902766,-3478.967927,-2604.724693,9400.615463
1094.903096,-1332.370696,-3677.258390,8364.327145
1094.903426,222.061783,-2604.724693,8290.306550
1094.903756,1332.370696,-1685.410096,8068.244768
1094.904085,2072.576638,76.609550,7179.997637
1094.904415,1258.350101,1455.581446,6809.894666
1094.904745,-296.082377,2451.505594,7624.121203
1094.905075,-518.144159,5592.497135,8956.491898
1094.905404,0.000000,5822.325785,9622.677246
1094.905734,296.082377,4749.792088,8882.471304
1094.906064,-2442.679609,2834.553343,6439.791695
1094.906394,-2590.720797,-842.705048,4367.215058
1094.906723,-592.164754,-3370.820191,3923.091493
1094.907053,1184.329507,-2451.505594,4885.359217
1094.907383,1702.473667,0.000000,6291.750507
1094.907713,740.205942,689.485948,6957.935855
1094.908042,-1406.391290,1378.971896,7920.203579
1094.908372,-3923.091493,4366.744339,8660.409521
1094.908702,-4737.318029,4673.182538,10288.862594
1094.909032,-3256.906145,3524.039291,12805.562797
1094.909361,-2960.823768,2528.115143,13989.892304
1094.909691,-5477.523971,-229.828649,10807.006753
1094.910021,-5773.606348,-3294.210641,7179.997637
1094.910351,-2146.597232,-5132.839837,7402.059420
1094.910680,2368.659014,-3677.258390,10807.006753
1094.911010,2886.803174,-1378.971896,12139.377449
1094.911340,740.205942,153.219100,10955.047942
1094.911670,-814.226536,1838.629195,11917.315666
1094.911999,-962.267725,4290.134789,14359.995275
1094.912329,-740.205942,6205.373534,16284.530724
1094.912659,0.000000,4596.572988,15840.407159
1094.912989,0.000000,1225.752797,14359.995275
1094.913318,-962.267725,-689.485948,10881.027347
1094.913648,-2664.741391,0.000000,7698.141797
1094.913978,-1702.473667,-2757.943793,7254.018232
1094.914308,1406.391290,-3524.039291,8808.450710
1094.914637,1406.391290,0.000000,9548.656652
1094.914967,0.000000,1072.533697,7920.203579
1094.915297,-2886.803174,766.095498,7105.977043
1094.915627,-3923.091493,2911.162892,8808.450710
1094.915956,-2664.741391,5592.497135,11029.068536
1094.916286,-740.205942,2911.162892,10140.821405
1094.916616,-1480.411884,919.314598,7920.203579
1094.916946,-2368.659014,919.314598,4515.256246
1094.917275,-2072.576638,-1762.019645,4293.194464
1094.917605,666.185348,-2374.896044,4737.318029
1094.917935,2368.659014,0.000000,5255.462188
1094.918264,3404.947333,-153.219100,5625.565159
1094.918594,2516.700203,383.047749,6513.812290
1094.918924,-814.226536,2757.943793,8438.347739
1094.919254,-2664.741391,4060.306139,10436.903782
1094.919583,-3404.947333,3524.039291,12435.459826
1094.919913,-2886.803174,3524.039291,12731.542202
1094.920243,-3108.864956,2451.505594,11325.150913
1094.920573,-3182.885551,-2451.505594,8586.388927
1094.920902,-1554.432478,-4060.306139,6809.894666
1094.921232,1480.411884,-3600.648841,7105.977043
1094.921562,4145.153275,-2987.772442,9400.615463
1094.921892,3701.029710,-153.219100,11325.150913
1094.922221,0.000000,2221.676944,12287.418637
1094.922551,-2368.659014,2987.772442,14434.015869
1094.922881,-2812.782580,4290.134789,15840.407159
1094.923211,-2368.659014,4519.963438,16210.510130
1094.923540,-1110.308913,1915.238745,15100.201217
1094.923870,-1480.411884,-2528.115143,12213.398043
1094.924200,-2516.700203,-2451.505594,9918.759623
1094.924530,-2146.597232,-1455.581446,8142.265362
1094.924859,814.226536,-1991.848295,8364.327145
1094.925189,3997.112087,306.438199,9400.615463
1094.925519,2960.823768,1072.533697,9474.636058
1094.925849,0.000000,2068.457845,9474.636058
1094.926178,-2220.617826,4443.353888,9770.718434
1094.926508,-2516.700203,6435.202183,11325.150913
1094.926838,-1924.535449,5592.497135,11103.089130
1094.927168,-2960.823768,2451.505594,9400.615463
1094.927497,-2664.741391,229.828649,6883.915261
1094.927827,-2294.638420,-1838.629195,3849.070898
1094.928157,-518.144159,-2834.553343,2442.679609
1094.928487,1628.453072,-1378.971896,3923.091493
1094.928816,3034.844362,153.219100,5921.647536
1094.929146,1332.370696,3140.991542,7254.018232
1094.929476,-2442.679609,5209.449386,7031.956449
1094.929806,-4293.194464,6281.983084,8216.285956
1094.930135,-2812.782580,5898.935335,10881.027347
1094.930465,-2072.576638,4213.525239,12435.459826
1094.930795,-3997.112087,2068.457845,10436.903782
1094.931125,-5403.503377,-1685.410096,7179.997637
1094.931454,-4219.173869,-4443.353888,5625.565159
1094.931784,-1332.370696,-3217.601092,7476.080014
1094.932114,888.247130,-2145.067394,9178.553681
1094.932444,1554.432478,-1685.410096,10584.944971
1094.932773,444.123565,229.828649,11251.130318
1094.933103,-1776.494261,4290.134789,12583.501014
1094.933433,-2442.679609,4903.011187,13471.748144
1094.933763,0.000000,3064.381992,16580.613101
1094.934092,370.102971,2834.553343,17320.819043
1094.934422,-2442.679609,2451.505594,12805.562797
1094.934752,-4367.215058,-766.095498,8216.285956
1094.935082,-1184.329507,-3907.087040,8216.285956
1094.935411,1998.556043,-3753.867940,11029.068536
1094.935741,2220.617826,-1915.238745,11399.171507
1094.936071,814.226536,-1225.752797,9844.739029
1094.936401,-666.185348,1149.143247,9178.553681
1094.936730,-2294.638420,2987.772442,10362.883188
1094.937060,-2368.659014,2834.553343,12287.418637
1094.937390,-1776.494261,3983.696590,12435.459826
1094.937720,-814.226536,5515.887586,10807.006753
1094.938049,-1480.411884,2145.067394,8586.388927
1094.938379,-1776.494261,-153.219100,5699.585753
1094.938709,-1110.308913,-1455.581446,3256.906145
1094.939039,1406.391290,-2987.772442,2590.720797
1094.939368,3701.029710,-2604.724693,4441.235652
1094.939698,3256.906145,1685.410096,6217.729913
1094.940028,-1036.288319,2757.943793,7254.018232
1094.940358,-4885.359217,2451.505594,7994.224174
1094.940687,-6069.688724,4136.915689,11029.068536
1094.941017,-4145.153275,4826.401637,11991.336260
1094.941347,-2516.700203,2987.772442,11843.295072
1094.941677,-3627.009116,-153.219100,7550.100608
1094.942006,-3256.906145,-3064.381992,4589.276840
1094.942336,-444.123565,-4979.620737,4737.318029
1094.942666,2664.741391,-2681.334243,7846.182985
1094.942996,3404.947333,306.438199,10881.027347
1094.943325,518.144159,1762.019645,11843.295072
1094.943655,-3330.926739,2911.162892,12213.398043
1094.943985,-3923.091493,3677.258390,13767.830521
1094.944315,-1628.453072,3140.991542,14656.077652
1094.944644,74.020594,1991.848295,14359.995275
1094.944974,-888.247130,-383.047749,13989.892304
1094.945304,-2738.761985,-1378.971896,11695.253884
1094.945634,-2664.741391,-1378.971896,9474.636058
1094.945963,518.144159,-2145.067394,8660.409521
1094.946293,3701.029710,-1608.800546,9844.739029
1094.946623,4737.318029,689.485948,10140.821405
1094.946953,3034.844362,1455.581446,10658.965565
1094.947282,444.123565,1608.800546,10732.986159
1094.947612,-1702.473667,3753.867940,11917.315666
1094.947942,-1998.556043,5745.716235,13175.665768
1094.948271,-1036.288319,4060.306139,13101.645173
1094.948601,-1184.329507,842.705048,11103.089130
1094.948931,-1924.535449,-766.095498,6365.771101
1094.949261,-740.205942,-2068.457845,3182.885551
1094.949590,1998.556043,-2757.943793,3108.864956
1094.949920,4293.194464,-536.266849,5477.523971
1094.950250,3775.050304,2451.505594,6809.894666
1094.950580,962.267725,4519.963438,6661.853478
1094.950909,-2442.679609,4749.792088,7550.100608
1094.951239,-3849.070898,4826.401637,10510.924376
1094.951569,-4071.132681,5515.887586,11917.315666
1094.951899,-3775.050304,3217.601092,11399.171507
1094.952228,-3775.050304,-612.876398,8142.265362
1094.952558,-4219.173869,-2987.772442,4885.359217
1094.952888,-2368.659014,-3064.381992,4145.153275
1094.953218,740.205942,-3600.648841,4663.297435
1094.953547,3330.926739,-2451.505594,6365.771101
1094.953877,2368.659014,1072.533697,8660.409521
1094.954207,-518.144159,3447.429741,10881.027347
1094.954537,-2442.679609,3753.867940,12213.398043
1094.954866,-2368.659014,4290.134789,15470.304188
1094.955196,-1998.556043,4749.792088,17024.736666
1094.955526,-3923.091493,4136.915689,13175.665768
1094.955856,-4663.297435,-1149.143247,10510.924376
1094.956185,-2960.823768,-5286.058936,10140.821405
1094.956515,-1554.432478,-3524.039291,10510.924376
1094.956845,-962.267725,-3294.210641,9992.780217
1094.957175,370.102971,-2911.162892,10732.986159
1094.957504,888.247130,383.047749,11177.109724
1094.957834,-1332.370696,3217.601092,10955.047942
1094.958164,-2294.638420,1225.752797,11843.295072
1094.958494,-1924.535449,3677.258390,13841.851115
1094.958823,-2590.720797,7048.078582,13397.727550
1094.959153,-2516.700203,2451.505594,12213.398043
1094.959483,-2442.679609,-1149.143247,9622.677246
1094.959813,-2146.597232,-766.095498,5403.503377
1094.960142,148.041188,-3370.820191,4219.173869
1094.960472,4441.235652,-3447.429741,5625.565159
1094.960802,6143.709319,1532.190996,6661.853478
1094.961132,4071.132681,2451.505594,7031.956449
1094.961461,0.000000,2757.943793,7846.182985
1094.961791,-2886.803174,6205.373534,9400.615463
1094.962121,-2442.679609,6818.249932,11103.089130
1094.962451,-1332.370696,3753.867940,11325.150913
1094.962780,-2812.782580,2298.286494,8734.430116
1094.963110,-4219.173869,-995.924147,5551.544565
1094.963440,-2960.823768,-5592.497135,3997.112087
1094.963770,-518.144159,-3830.477490,5181.441594
1094.964099,1184.329507,-536.266849,7254.018232
1094.964429,1036.288319,0.000000,7328.038826
1094.964759,0.000000,919.314598,8068.244768
1094.965089,-1406.391290,2374.896044,9622.677246
1094.965418,-2368.659014,3907.087040,11769.274478
1094.965748,-2960.823768,5132.839837,13545.768739
1094.966078,-2220.617826,4519.963438,15026.180623
1094.966408,-3034.844362,1302.362347,13545.768739
1094.966737,-3108.864956,-1455.581446,10436.903782
1094.967067,-814.226536,-3524.039291,8290.306550
1094.967397,2220.617826,-4596.572988,9622.677246
1094.967727,3627.009116,-2528.115143,11621.233289
1094.968056,2812.782580,689.485948,12657.521608
1094.968386,740.205942,1915.238745,13175.665768
1094.968716,-1554.432478,3294.210641,13323.706956
1094.969046,-2886.803174,5209.449386,13989.892304
1094.969375,-2368.659014,4596.572988,15396.283594
1094.969705,-1628.453072,3140.991542,13101.645173
1094.970035,-2368.659014,536.266849,8956.491898
1094.970365,-1554.432478,-2145.067394,4885.359217
1094.970694,0.000000,-4519.963438,4219.173869
1094.971024,1924.535449,-3294.210641,4663.297435
1094.971354,3108.864956,306.438199,6735.874072
1094.971684,2368.659014,2451.505594,8512.368333
1094.972013,-592.164754,5515.887586,8882.471304
1094.972343,-3552.988522,6128.763984,9326.594869
1094.972673,-3923.091493,4749.792088,11029.068536
1094.973003,-2738.761985,4749.792088,11325.150913
1094.973332,-3034.844362,2604.724693,10362.883188
1094.973662,-3849.070898,612.876398,7550.100608
1094.973992,-3923.091493,-1991.848295,3775.050304
1094.974322,-2220.617826,-3983.696590,2220.617826
1094.974651,1850.514855,-3600.648841,3627.009116
1094.974981,3701.029710,-1302.362347,5995.668130
1094.975311,2294.638420,919.314598,7698.141797
1094.975641,-740.205942,2221.676944,10214.842000
1094.975970,-3627.009116,5515.887586,11769.274478
1094.976300,-5625.565159,8503.660028,10510.924376
1094.976630,-3182.885551,3983.696590,11769.274478
1094.976960,-1702.473667,0.000000,12583.501014
1094.977289,-2368.659014,-1225.752797,11399.171507
1094.977619,-3775.050304,-3370.820191,9104.533087
1094.977949,-2590.720797,-4213.525239,9178.553681
1094.978278,0.000000,-1378.971896,10955.047942
1094.978608,1776.494261,-459.657299,11991.336260
1094.978938,1776.494261,-766.095498,12805.562797
1094.979268,0.000000,1532.190996,12583.501014
1094.979597,-1850.514855,4749.792088,13841.851115
1094.979927,-2146.597232,4290.134789,15988.448347
1094.980257,-2220.617826,3600.648841,15692.365970
1094.980587,-2960.823768,2145.067394,12139.377449
1094.980916,-1850.514855,-2374.896044,7846.182985
1094.981246,1036.288319,-3753.867940,5773.606348
1094.981576,2812.782580,-3677.258390,6143.709319
1094.981906,3552.988522,-1838.629195,7254.018232
1094.982235,2738.761985,1072.533697,8660.409521
1094.982565,222.061783,4366.744339,9622.677246
1094.982895,-1924.535449,5669.106685,10214.842000
1094.983225,-3404.947333,5439.278036,10658.965565
1094.983554,-3108.864956,5669.106685,10510.924376
1094.983884,-2220.617826,2528.115143,8882.471304
1094.984214,-2516.700203,-1378.971896,7105.977043
1094.984544,-3108.864956,-1302.362347,4811.338623
1094.984873,-3182.885551,-2298.286494,3552.988522
1094.985203,-1480.411884,-2911.162892,3330.926739
1094.985533,1480.411884,-919.314598,5033.400406
1094.985863,2220.617826,919.314598,6291.750507
1094.986192,888.247130,2374.896044,6809.894666
1094.986522,-2294.638420,3064.381992,8438.347739
1094.986852,-3923.091493,4979.620737,11547.212695
1094.987182,-3478.967927,5592.497135,13619.789333
1094.987511,-3404.947333,2757.943793,13101.645173
1094.987841,-3997.112087,153.219100,10436.903782
1094.988171,-3627.009116,-3753.867940,8216.285956
1094.988501,-1110.308913,-4673.182538,8882.471304
1094.988830,1184.329507,-2757.943793,10510.924376
1094.989160,3404.947333,-1455.581446,11621.233289
1094.989490,2812.782580,919.314598,11177.109724
1094.989819,814.226536,2604.724693,12361.439231
1094.990149,-888.247130,2911.162892,14508.036463
1094.990478,-1184.329507,5286.058936,15396.283594
1094.990808,-2220.617826,5362.668486,14730.098246
1094.991137,-962.267725,2451.505594,13471.748144
1094.991467,-1332.370696,-1149.143247,10584.944971
1094.991796,-1554.432478,-2681.334243,7772.162391
1094.992126,-1036.288319,-4366.744339,6809.894666
1094.992455,814.226536,-2528.115143,8438.347739
1094.992785,1924.535449,1455.581446,9770.718434
1094.993114,1554.432478,2604.724693,9844.739029
1094.993444,-666.185348,1685.410096,8956.491898
1094.993773,-2294.638420,3983.696590,9104.533087
1094.994103,-2442.679609,5132.839837,10510.924376
1094.994432,-1258.350101,4673.182538,10807.006753
1094.994762,-2516.700203,3677.258390,7994.224174
1094.995091,-2516.700203,0.000000,5181.441594
1094.995421,-2146.597232,-3140.991542,3108.864956
1094.995750,-592.164754,-3294.210641,3108.864956
1094.996080,1850.514855,-2374.896044,5403.503377
1094.996409,3552.988522,229.828649,7254.018232
1094.996739,814.226536,3140.991542,7402.059420
1094.997068,-3182.885551,4903.011187,6883.915261
1094.997398,-4885.359217,3447.429741,8586.388927
1094.997727,-2812.782580,4136.915689,11473.192101
1094.998057,-2664.741391,4136.915689,13027.624579
1094.998386,-4589.276840,306.438199,11547.212695
1094.998715,-5847.626942,-2298.286494,8364.327145
1094.999045,-4367.215058,-3907.087040,6883.915261
1094.999374,-666.185348,-5286.058936,8290.306550
1094.999704,1702.473667,-3294.210641,10584.944971
1095.000033,2590.720797,383.047749,11769.274478
1095.000363,962.267725,2451.505594,12139.377449
1095.000692,-740.205942,1608.800546,14063.912898
1095.001022,-2146.597232,4673.182538,15322.262999
1095.001351,-2294.638420,4903.011187,15618.345376
1095.001681,-1554.432478,3064.381992,15174.221811
1095.002010,-1406.391290,919.314598,12435.459826
1095.002340,-1110.308913,-2298.286494,9548.656652
1095.002669,-222.061783,-4366.744339,7105.977043
1095.002999,962.267725,-3753.867940,8068.244768
1095.003328,2368.659014,-1225.752797,9548.656652
1095.003658,2590.720797,1685.410096,9844.739029
1095.003987,518.144159,2451.505594,9400.615463
1095.004317,-1184.329507,4290.134789,9918.759623
1095.004646,-2294.638420,5669.106685,10732.986159
1095.004976,-1554.432478,4903.011187,11843.295072
1095.005305,-1406.391290,4519.963438,10362.883188
1095.005635,-2886.803174,2374.896044,8068.244768
1095.005964,-3627.009116,-536.266849,4515.256246
1095.006294,-2368.659014,-2757.943793,2368.659014
1095.006623,444.123565,-3447.429741,3034.844362
1095.006953,2590.720797,-842.705048,4515.256246
1095.007282,1184.329507,1608.800546,5921.647536
1095.007612,-1776.494261,2911.162892,6439.791695
1095.007941,-4293.194464,3753.867940,8216.285956
1095.008271,-4589.276840,4903.011187,10955.047942
1095.008600,-3552.988522,5515.887586,11991.336260
1095.008930,-3849.070898,2604.724693,11177.109724
1095.009259,-4515.256246,-919.314598,9030.512492
1095.009589,-3627.009116,-2374.896044,7031.956449
1095.009918,-962.267725,-4366.744339,6809.894666
1095.010247,2294.638420,-3370.820191,9104.533087
1095.010577,2886.803174,-229.828649,10881.027347
1095.010906,1628.453072,1608.800546,11843.295072
1095.011236,-592.164754,2221.676944,12139.377449
1095.011565,-1628.453072,3140.991542,13989.892304
1095.011895,-1776.494261,4749.792088,15840.407159
1095.012224,-1554.432478,3677.258390,15914.427753
1095.012554,-1850.514855,1072.533697,13323.706956
1095.012883,-2072.576638,-1532.190996,10362.883188
1095.013213,-518.144159,-3140.991542,9696.697840
1095.013542,222.061783,-3447.429741,9696.697840
1095.013872,666.185348,-1225.752797,10658.965565
1095.014201,962.267725,-459.657299,11029.068536
1095.014531,0.000000,1455.581446,10881.027347
1095.014860,-1998.556043,3064.381992,9622.677246
1095.015190,-2738.761985,3600.648841,10140.821405
1095.015519,-1554.432478,4060.306139,10955.047942
1095.015849,-666.185348,4213.525239,10214.842000
1095.016178,-1332.370696,1838.629195,8364.327145
1095.016508,-2220.617826,-1762.019645,6439.791695
1095.016837,-1258.350101,-1532.190996,5625.565159
1095.017167,74.020594,229.828649,4663.297435
1095.017496,2072.576638,-383.047749,3330.926739
1095.017826,2442.679609,-306.438199,4293.194464
1095.018155,666.185348,2145.067394,6587.832884
1095.018485,-2368.659014,3677.258390,8438.347739
1095.018814,-4737.318029,4213.525239,10510.924376
1095.019144,-5181.441594,6128.763984,11843.295072
1095.019473,-4145.153275,4519.963438,11029.068536
1095.019803,-3034.844362,-1685.410096,7846.182985
1095.020132,-1850.514855,-4979.620737,5477.523971
1095.020462,-740.205942,-3600.648841,4441.235652
1095.020791,814.226536,-1378.971896,7031.956449
1095.021121,2960.823768,-153.219100,9844.739029
1095.021450,2738.761985,1685.410096,11251.130318
1095.021779,-518.144159,2451.505594,11917.315666
1095.022109,-2146.597232,1991.848295,13471.748144
1095.022438,-2368.659014,4443.353888,15174.221811
1095.022768,-1406.391290,4979.620737,16580.613101
1095.023097,-1110.308913,1608.800546,14952.160028
1095.023427,-1702.473667,-766.095498,12139.377449
1095.023756,-1406.391290,-2374.896044,9104.533087
1095.024086,0.000000,-2834.553343,9030.512492
1095.024415,1480.411884,-1532.190996,10288.862594
1095.024745,2072.576638,842.705048,10658.965565
1095.025074,1776.494261,229.828649,11029.068536
1095.025404,0.000000,1072.533697,11695.253884
1095.025733,-3108.864956,4290.134789,11843.295072
1095.026063,-3627.009116,4673.182538,12139.377449
1095.026392,-2590.720797,3830.477490,11917.315666
1095.026722,-1924.535449,2834.553343,10362.883188
1095.027051,-1850.514855,0.000000,6513.812290
1095.027381,-444.123565,-2298.286494,3256.906145
1095.027710,814.226536,-1838.629195,2886.803174
1095.028040,2442.679609,536.266849,4441.235652
1095.028369,2812.782580,1225.752797,5181.441594
1095.028699,1184.329507,2757.943793,5995.668130
1095.029028,-1554.432478,4366.744339,8142.265362
1095.029358,-4737.318029,4060.306139,9252.574275
1095.029687,-5625.565159,3907.087040,11029.068536
1095.030017,-4959.379811,3217.601092,11399.171507
1095.030346,-4737.318029,536.266849,9844.739029
1095.030676,-4885.359217,-2298.286494,6217.729913
1095.031005,-4441.235652,-4060.306139,3701.029710
1095.031335,-1258.350101,-3677.258390,5551.544565
1095.031664,1554.432478,-1532.190996,7772.162391
1095.031994,2368.659014,1149.143247,9178.553681
1095.032323,148.041188,2374.896044,9844.739029
1095.032653,-2220.617826,3830.477490,11251.130318
1095.032982,-3256.906145,3600.648841,13175.665768
1095.033311,-2368.659014,3294.210641,15100.201217
1095.033641,-1628.453072,2145.067394,15544.324782
1095.033970,-1332.370696,-383.047749,14137.933492
1095.034300,-1702.473667,-2987.772442,11177.109724
1095.034629,-1554.432478,-4596.572988,9474.636058
1095.034959,148.041188,-3830.477490,11399.171507
1095.035288,2368.659014,-1072.533697,12287.418637
1095.035618,3034.844362,689.485948,11843.295072
1095.035947,1628.453072,2221.676944,10288.862594
1095.036277,222.061783,2528.115143,10658.965565
1095.036606,-666.185348,3064.381992,12435.459826
1095.036936,-666.185348,3830.477490,13249.686362
1095.037265,-814.226536,3524.039291,12805.562797
1095.037595,-1628.453072,2451.505594,9326.594869
1095.037924,-2146.597232,153.219100,4293.194464
1095.038254,-814.226536,-3294.210641,2072.576638
1095.038583,2590.720797,-3600.648841,4071.132681
1095.038913,3849.070898,0.000000,6291.750507
1095.039242,1998.556043,2528.115143,6883.915261
1095.039572,-2516.700203,2604.724693,7254.018232
1095.039901,-5847.626942,4596.572988,9548.656652
1095.040231,-5477.523971,4903.011187,11325.150913
1095.040560,-2738.761985,2298.286494,11177.109724
1095.040890,-2146.597232,1302.362347,8734.430116
1095.041219,-2960.823768,995.924147,5995.668130
1095.041549,-2368.659014,-2528.115143,4071.132681
1095.041878,0.000000,-2911.162892,4811.338623
1095.042208,1998.556043,-842.705048,6217.729913
1095.042537,2960.823768,1072.533697,7920.203579
1095.042867,1776.494261,2221.676944,9474.636058
1095.043196,-1332.370696,3064.381992,9918.759623
1095.043526,-2960.823768,2145.067394,12139.377449
1095.043855,-3775.050304,2451.505594,14878.139434
1095.044184,-4367.215058,5286.058936,15248.242405
1095.044514,-3849.070898,1991.848295,14434.015869
1095.044843,-3701.029710,-2604.724693,11547.212695
1095.045173,-3404.947333,-3447.429741,9252.574275
1095.045502,-1406.391290,-4213.525239,9030.512492
1095.045832,1850.514855,-3600.648841,11769.274478
1095.046161,2738.761985,612.876398,12805.562797
1095.046491,296.082377,3753.867940,11769.274478
1095.046820,-2220.617826,2757.943793,11325.150913
1095.047150,-2442.679609,2681.334243,12731.542202
1095.047479,-1702.473667,4903.011187,13841.851115
1095.047809,-962.267725,3983.696590,12953.603985
1095.048138,-666.185348,1302.362347,9844.739029
1095.048468,-1702.473667,-689.485948,6661.853478
1095.048797,-1406.391290,-2451.505594,4959.379811
1095.049127,740.205942,-2451.505594,5107.421000
1095.049456,3108.864956,612.876398,6735.874072
1095.049786,3923.091493,2374.896044,7476.080014
1095.050115,814.226536,2298.286494,7550.100608
1095.050445,-3478.967927,2834.553343,8438.347739
1095.050774,-4589.276840,4060.306139,10288.862594
1095.051104,-3627.009116,4290.134789,10955.047942
1095.051433,-3034.844362,3447.429741,9548.656652
1095.051763,-2886.803174,689.485948,6735.874072
1095.052092,-2368.659014,-4136.915689,4145.153275
1095.052422,-222.061783,-4213.525239,3552.988522
1095.052751,1776.494261,-1532.190996,4367.215058
1095.053081,3552.988522,612.876398,5921.647536
1095.053410,3256.906145,1455.581446,8364.327145
1095.053740,74.020594,2757.943793,10584.944971
1095.054069,-2886.803174,3677.258390,11769.274478
1095.054399,-4145.153275,4290.134789,13101.645173
1095.054728,-2812.782580,3447.429741,14730.098246
1095.055058,-1702.473667,1302.362347,15174.221811
1095.055387,-2368.659014,-3217.601092,12065.356855
1095.055716,-2664.741391,-4596.572988,9474.636058
1095.056046,-592.164754,-3907.087040,9252.574275
1095.056375,2294.638420,-2145.067394,10214.842000
1095.056705,3923.091493,306.438199,11769.274478
1095.057034,3552.988522,1915.238745,11843.295072
1095.057364,962.267725,2528.115143,12139.377449
1095.057693,-1554.432478,3217.601092,12583.501014
1095.058023,-2294.638420,3983.696590,15470.304188
1095.058352,-2220.617826,4826.401637,16950.716072
1095.058682,-3404.947333,3294.210641,13249.686362
1095.059011,-4219.173869,0.000000,6513.812290
1095.059341,-2516.700203,-4213.525239,3923.091493
1095.059670,592.164754,-4826.401637,4811.338623
1095.060000,2294.638420,-1378.971896,5921.647536
1095.060329,1628.453072,995.924147,7031.956449
1095.060659,-518.144159,3983.696590,7105.977043
1095.060988,-3627.009116,5439.278036,7402.059420
1095.061318,-3849.070898,3983.696590,8734.430116
1095.061647,-2812.782580,2374.896044,9770.718434
1095.061977,-2812.782580,3907.087040,9918.759623
1095.062306,-3627.009116,3217.601092,7846.182985
1095.062636,-3182.885551,-1455.581446,5625.565159
1095.062965,-2368.659014,-3524.039291,4145.153275
1095.063295,-1554.432478,-2068.457845,4441.235652
1095.063624,814.226536,-689.485948,6291.750507
1095.063954,3182.885551,1149.143247,7254.018232
1095.064283,2220.617826,3140.991542,7846.182985
1095.064613,-1406.391290,2757.943793,8586.388927
1095.064942,-2886.803174,3370.820191,11399.171507
1095.065272,-2664.741391,4826.401637,13915.871710
1095.065601,-2442.679609,3830.477490,14359.995275
1095.065931,-3775.050304,919.314598,11991.336260
1095.066260,-4367.215058,-2757.943793,9474.636058
1095.066590,-1332.370696,-4979.620737,8734.430116
1095.066919,1776.494261,-5669.106685,11251.130318
1095.067248,2664.741391,-1762.019645,12805.562797
1095.067578,2072.576638,1762.019645,12435.459826
1095.067907,74.020594,1838.629195,12287.418637
1095.068237,-1480.411884,2604.724693,14137.933492
1095.068566,-1998.556043,4519.963438,15396.283594
1095.068896,-1332.370696,4903.011187,14063.912898
1095.069225,222.061783,2528.115143,11769.274478
1095.069555,222.061783,-1378.971896,9548.656652
1095.069884,-1258.350101,-2528.115143,7031.956449
1095.070214,-518.144159,-2834.553343,6143.709319
1095.070543,2516.700203,-1915.238745,6809.894666
1095.070873,4145.153275,1302.362347,7179.997637
1095.071202,3404.947333,2987.772442,7328.038826
1095.071532,1406.391290,1532.190996,7402.059420
1095.071861,-518.144159,1991.848295,9104.533087
1095.072191,-2738.761985,5898.935335,10658.965565
1095.072520,-3552.988522,6971.469032,11177.109724
1095.072850,-2738.761985,3064.381992,10436.903782
1095.073179,-3923.091493,-995.924147,7476.080014
1095.073509,-4737.318029,-3294.210641,3627.009116
1095.073838,-3404.947333,-4903.011187,2442.679609
1095.074168,148.041188,-2757.943793,4145.153275
1095.074497,2220.617826,459.657299,5921.647536
1095.074827,74.020594,1532.190996,7105.977043
1095.075156,-3330.926739,2681.334243,7105.977043
1095.075486,-4811.338623,4290.134789,9030.512492
1095.075815,-3627.009116,6435.202183,12583.501014
1095.076145,-3701.029710,5439.278036,14582.057057
1095.076474,-4959.379811,2221.676944,13027.624579
1095.076804,-6439.791695,-2681.334243,10732.986159
1095.077133,-6439.791695,-5592.497135,9548.656652
1095.077463,-6587.832884,-4443.353888,10732.986159
1095.077792,-5403.503377,-2604.724693,13101.645173
1095.078121,-2812.782580,-1685.410096,12805.562797
1095.078451,-1850.514855,-766.095498,11843.295072
1095.078780,-2220.617826,-153.219100,10288.862594
1095.079110,-2294.638420,1455.581446,11029.068536
1095.079439,-1184.329507,4596.572988,13693.809927
1095.079769,-814.226536,5745.716235,14137.933492
1095.080098,-1110.308913,5056.230287,11473.192101
1095.080428,-1184.329507,1608.800546,9696.697840
1095.080757,-2590.720797,-1915.238745,7846.182985
1095.081087,-4737.318029,-2221.676944,8290.306550
1095.081416,-5773.606348,-612.876398,10214.842000
1095.081746,-5403.503377,612.876398,10436.903782
1095.082075,-6291.750507,1608.800546,9474.636058
1095.082405,-7254.018232,1455.581446,8364.327145
1095.082734,-7772.162391,536.266849,7550.100608
1095.083064,-7031.956449,995.924147,7476.080014
1095.083393,-5477.523971,2528.115143,7402.059420
1095.083723,-4663.297435,4519.963438,6291.750507
1095.084052,-3775.050304,1915.238745,5255.462188
1095.084382,-2294.638420,-1378.971896,4219.173869
1095.084711,-1776.494261,-1378.971896,3849.070898
1095.085041,-1258.350101,689.485948,4885.359217
1095.085370,-592.164754,1838.629195,6217.729913
1095.085700,74.020594,2987.772442,8660.409521
1095.086029,-1036.288319,4366.744339,10807.006753
1095.086359,-2442.679609,4213.525239,11399.171507
1095.086688,-3849.070898,3677.258390,11695.253884
1095.087018,-5403.503377,2834.553343,11399.171507
1095.087347,-7920.203579,1225.752797,11547.212695
1095.087677,-9178.553681,-229.828649,12435.459826
1095.088006,-7402.059420,-1762.019645,11473.192101
1095.088336,-5329.482782,-3677.258390,8290.306550
1095.088665,-2442.679609,-5132.839837,6661.853478
1095.088995,0.000000,-4673.182538,6883.915261
1095.089324,296.082377,-2451.505594,9178.553681
1095.089653,-740.205942,2145.067394,11917.315666
1095.089983,-1332.370696,6358.592633,14211.954086
1095.090312,-592.164754,7507.735880,15100.201217
1095.090642,-962.267725,6281.983084,14804.118840
1095.090971,-2590.720797,4443.353888,14137.933492
1095.091301,-5773.606348,383.047749,13323.706956
1095.091630,-9104.533087,-1378.971896,13397.727550
1095.091959,-10955.047942,-995.924147,12139.377449
1095.092289,-10288.862594,-2987.772442,9622.677246
1095.092618,-7254.018232,-6511.811733,6957.935855
1095.092948,-3404.947333,-6588.421283,4293.194464
1095.093277,518.144159,-3064.381992,2886.803174
1095.093607,2590.720797,-536.266849,3997.112087
1095.093936,2960.823768,4443.353888,7105.977043
1095.094266,1184.329507,9346.365076,10214.842000
1095.094595,-1110.308913,11414.822920,10807.006753
1095.094925,-3627.009116,9039.926876,10658.965565
1095.095254,-4737.318029,6511.811733,9696.697840
1095.095584,-4737.318029,2528.115143,8216.285956
1095.095913,-5107.421000,-2451.505594,7402.059420
1095.096243,-6809.894666,-4979.620737,7402.059420
1095.096572,-8882.471304,-5975.544884,6809.894666
1095.096902,-9622.677246,-4673.182538,5773.606348
1095.097231,-7772.162391,-2145.067394,5699.585753
1095.097560,-4145.153275,-919.314598,7328.038826
1095.097890,-888.247130,919.314598,8808.450710
1095.098219,444.123565,4749.792088,9548.656652
1095.098549,962.267725,6971.469032,9918.759623
1095.098878,-148.041188,6435.202183,12213.398043
1095.099208,-3404.947333,6435.202183,13397.727550
1095.099537,-7179.997637,4979.620737,12953.603985
1095.099867,-8808.450710,459.657299,11843.295072
1095.100196,-8882.471304,-2068.457845,11251.130318
1095.100526,-7105.977043,-4290.134789,10510.924376
1095.100855,-5255.462188,-5592.497135,9474.636058
1095.101185,-3256.906145,-5209.449386,7550.100608
1095.101514,-1406.391290,-2298.286494,7328.038826
1095.101844,-1036.288319,1225.752797,9104.533087
1095.102173,-1850.514855,4136.915689,11695.253884
1095.102503,-3552.988522,6741.640382,13915.871710
1095.102832,-4737.318029,7277.907231,14211.954086
1095.103161,-6439.791695,5362.668486,14211.954086
1095.103491,-6661.853478,2528.115143,13249.686362
1095.103820,-6217.729913,-306.438199,10510.924376
1095.104150,-5921.647536,-4903.011187,6883.915261
1095.104479,-4663.297435,-5745.716235,4811.338623
1095.104809,-2368.659014,-4290.134789,5921.647536
1095.105138,-962.267725,-1762.019645,6587.832884
1095.105468,-1480.411884,1302.362347,6587.832884
1095.105797,-3404.947333,3600.648841,7402.059420
1095.106127,-3849.070898,5056.230287,8808.450710
1095.106456,-2886.803174,6741.640382,10881.027347
1095.106786,-2960.823768,5439.278036,11547.212695
1095.107115,-4219.173869,4136.915689,9178.553681
1095.107445,-3701.029710,-306.438199,7105.977043
1095.107774,-1924.535449,-3217.601092,6365.771101
1095.108104,-814.226536,-3524.039291,6661.853478
1095.108433,-814.226536,-2681.334243,7254.018232
1095.108762,-1554.432478,-1072.533697,8734.430116
1095.109092,-3034.844362,1378.971896,10066.800811
1095.109421,-4885.359217,3677.258390,11621.233289
1095.109751,-5403.503377,3753.867940,13101.645173
1095.110080,-5699.585753,4519.963438,13027.624579
1095.110410,-6143.709319,4596.572988,11917.315666
1095.110739,-4737.318029,1762.019645,10584.944971
1095.111069,-2738.761985,-766.095498,8142.265362
1095.111398,-1406.391290,-2298.286494,6365.771101
1095.111728,-962.267725,-2834.553343,6439.791695
1095.112057,-1258.350101,-1455.581446,7105.977043
1095.112387,-1480.411884,842.705048,8808.450710
1095.112716,-2368.659014,2374.896044,10584.944971
1095.113046,-5033.400406,3217.601092,12361.439231
1095.113375,-7402.059420,4136.915689,13471.748144
1095.113705,-8586.388927,4290.134789,14211.954086
1095.114034,-9178.553681,1532.190996,14434.015869
1095.114363,-8438.347739,0.000000,13397.727550
1095.114693,-7179.997637,-1149.143247,10288.862594
1095.115022,-4367.215058,-2834.553343,7402.059420
1095.115352,-592.164754,-3677.258390,5551.544565
1095.115681,2072.576638,-1762.019645,5551.544565
1095.116011,2812.782580,1225.752797,5921.647536
1095.116340,2294.638420,3600.648841,6957.935855
1095.116670,296.082377,5669.106685,8808.450710
1095.116999,-2516.700203,6818.249932,9696.697840
1095.117329,-4737.318029,5362.668486,10955.047942
1095.117658,-7328.038826,2374.896044,11991.336260
1095.117988,-9918.759623,76.609550,11843.295072
1095.118317,-11399.171507,-1608.800546,10955.047942
1095.118647,-10881.027347,-2451.505594,8290.306550
1095.118976,-7846.182985,-4213.525239,6661.853478
1095.119306,-4737.318029,-4903.011187,5477.523971
1095.119635,-1702.473667,-2528.115143,5107.421000
1095.119964,148.041188,612.876398,5921.647536
1095.120294,814.226536,3753.867940,7772.162391
1095.120623,-740.205942,7048.078582,9326.594869
1095.120953,-2516.700203,7890.783629,10807.006753
1095.121282,-4589.276840,5975.544884,12435.459826
1095.121612,-6957.935855,3217.601092,13397.727550
1095.121941,-8586.388927,612.876398,12879.583391
1095.122271,-9474.636058,-2145.067394,11843.295072
1095.122600,-8956.491898,-5515.887586,10955.047942
1095.122930,-7179.997637,-6205.373534,10214.842000
1095.123259,-4367.215058,-4060.306139,9104.533087
1095.123589,-1406.391290,-1762.019645,7328.038826
1095.123918,1850.514855,536.266849,7105.977043
1095.124248,3182.885551,2911.162892,8882.471304
1095.124577,2960.823768,5975.544884,10436.903782
1095.124907,1110.308913,7201.297681,11473.192101
1095.125236,-2072.576638,5209.449386,12879.583391
1095.125565,-5329.482782,2757.943793,14211.954086
1095.125895,-8364.327145,1608.800546,14211.954086
1095.126224,-10362.883188,-459.657299,11695.253884
1095.126554,-9252.574275,-3983.696590,8216.285956
1095.126883,-6439.791695,-5669.106685,5625.565159
1095.127213,-3108.864956,-4519.963438,4515.256246
1095.127542,-1184.329507,-2374.896044,4293.194464
1095.127872,0.000000,1072.533697,5255.462188
1095.128201,-370.102971,5439.278036,6365.771101
1095.128531,-1258.350101,8350.440928,8364.327145
1095.128860,-2368.659014,9116.536426,10214.842000
1095.129190,-4441.235652,6894.859482,11325.150913
1095.129519,-6069.688724,4213.525239,12139.377449
1095.129849,-7031.956449,766.095498,12065.356855
1095.130178,-7920.203579,-1608.800546,11769.274478
1095.130508,-8586.388927,-2834.553343,10510.924376
1095.130837,-6661.853478,-3524.039291,9400.615463
1095.131166,-4219.173869,-1532.190996,7476.080014
1095.131496,-518.144159,459.657299,6957.935855
1095.131825,2072.576638,1838.629195,6883.915261
1095.132155,2738.761985,4443.353888,7772.162391
1095.132484,1480.411884,6741.640382,9104.533087
1095.132814,74.020594,7277.907231,10140.821405
1095.133143,-2294.638420,6588.421283,11917.315666
1095.133473,-4367.215058,4673.182538,12805.562797
1095.133802,-5551.544565,2451.505594,11843.295072
1095.134132,-5699.585753,-383.047749,10584.944971
1095.134461,-4811.338623,-2374.896044,9326.594869
1095.134791,-4071.132681,-2221.676944,8290.306550
1095.135120,-3330.926739,-306.438199,8364.327145
1095.135450,-2960.823768,2221.676944,8734.430116
1095.135779,-2886.803174,3524.039291,9178.553681
1095.136109,-2368.659014,5822.325785,10214.842000
1095.136438,-2146.597232,7124.688131,10955.047942
1095.136767,-2072.576638,6741.640382,10881.027347
1095.137097,-1924.535449,5286.058936,10955.047942
1095.137426,-1924.535449,3217.601092,10807.006753
1095.137756,-888.247130,2757.943793,9400.615463
1095.138085,-888.247130,1838.629195,8216.285956
1095.138415,-962.267725,1302.362347,7846.182985
1095.138744,0.000000,2298.286494,8364.327145
1095.139074,592.164754,4290.134789,9252.574275
1095.139403,-296.082377,6894.859482,9770.718434
1095.139733,-1110.308913,7967.393179,9548.656652
1095.140062,-2294.638420,7354.516781,9252.574275
1095.140392,-2590.720797,6818.249932,9252.574275
1095.140721,-2960.823768,5669.106685,8586.388927
1095.141051,-2590.720797,3370.820191,7254.018232
1095.141380,-1628.453072,1072.533697,5699.585753
1095.141710,-1110.308913,153.219100,6217.729913
1095.142039,-1036.288319,536.266849,7105.977043
1095.142368,-1702.473667,1838.629195,8068.244768
1095.142698,-2664.741391,3907.087040,9326.594869
1095.143027,-3182.885551,5745.716235,10510.924376
1095.143357,-3182.885551,7584.345430,11843.295072
1095.143686,-2294.638420,7354.516781,11843.295072
1095.144016,-666.185348,6052.154434,11473.192101
1095.144345,-444.123565,4673.182538,10584.944971
1095.144675,-296.082377,3753.867940,10362.883188
1095.145004,-592.164754,3677.258390,9696.697840
1095.145334,-592.164754,2451.505594,9030.512492
1095.145663,-518.144159,2221.676944,8734.430116
1095.145993,74.020594,2145.067394,8956.491898
1095.146322,444.123565,2068.457845,9252.574275
1095.146652,0.000000,2604.724693,10066.800811
1095.146981,-1258.350101,4366.744339,10881.027347
1095.147311,-2664.741391,5822.325785,11547.212695
1095.147640,-2294.638420,5669.106685,11917.315666
1095.147969,-1702.473667,4903.011187,11769.274478
1095.148299,-962.267725,4596.572988,11029.068536
1095.148628,-518.144159,3064.381992,9326.594869
1095.148958,0.000000,3524.039291,9030.512492
1095.149287,222.061783,4443.353888,8956.491898
1095.149617,296.082377,4979.620737,8216.285956
1095.149946,74.020594,4519.963438,7105.977043
1095.150276,666.185348,3217.601092,6291.750507
1095.150605,-222.061783,2451.505594,6291.750507
1095.150935,-962.267725,2145.067394,7328.038826
1095.151264,-2294.638420,2145.067394,8438.347739
1095.151594,-3701.029710,2681.334243,9622.677246
1095.151923,-3923.091493,3600.648841,10807.006753
1095.152253,-3775.050304,4213.525239,11103.089130
1095.152582,-2146.597232,4826.401637,10955.047942
1095.152912,-1258.350101,4366.744339,9770.718434
1095.153241,0.000000,4826.401637,9252.574275
1095.153570,74.020594,6205.373534,9252.574275
1095.153900,518.144159,6358.592633,9252.574275
1095.154229,0.000000,6281.983084,8882.471304
1095.154559,-740.205942,5209.449386,8290.306550
1095.154888,-1332.370696,3524.039291,7994.224174
1095.155218,-1702.473667,1915.238745,7772.162391
1095.155547,-2368.659014,0.000000,7846.182985
1095.155877,-2886.803174,76.609550,8734.430116
1095.156206,-2738.761985,383.047749,9252.574275
1095.156536,-2146.597232,1302.362347,10288.862594
1095.156865,-1036.288319,2221.676944,11103.089130
1095.157195,-370.102971,4366.744339,12139.377449
1095.157524,-296.082377,6588.421283,12657.521608
1095.157854,0.000000,7890.783629,12583.501014
1095.158183,444.123565,7277.907231,11843.295072
1095.158513,444.123565,5592.497135,10658.965565
1095.158842,296.082377,4519.963438,9770.718434
1095.159171,-814.226536,3600.648841,9178.553681
1095.159501,-1998.556043,3907.087040,8586.388927
1095.159830,-2516.700203,3217.601092,7846.182985
1095.160160,-2072.576638,1685.410096,7550.100608
1095.160489,-666.185348,1608.800546,7105.977043
1095.160819,0.000000,2298.286494,7402.059420
1095.161148,148.041188,2757.943793,8068.244768
1095.161478,-296.082377,4290.134789,8586.388927
1095.161807,-962.267725,5822.325785,10066.800811
1095.162137,-1480.411884,6894.859482,11621.233289
1095.162466,-1628.453072,7277.907231,12879.583391
1095.162796,-2590.720797,7431.126331,12287.418637
1095.163125,-3034.844362,7201.297681,11473.192101
1095.163455,-3330.926739,5745.716235,8586.388927
1095.163784,-2072.576638,3294.210641,5329.482782
1095.164114,1036.288319,1302.362347,4515.256246
1095.164443,3404.947333,383.047749,4811.338623
1095.164772,2886.803174,2374.896044,5181.441594
1095.165102,666.185348,3524.039291,5921.647536
1095.165431,-1184.329507,4290.134789,8216.285956
1095.165761,-2664.741391,5822.325785,11621.233289
1095.166090,-4145.153275,7124.688131,14508.036463
1095.166420,-4589.276840,6971.469032,15248.242405
1095.166749,-4515.256246,4826.401637,14211.954086
1095.167079,-4737.318029,3140.991542,12361.439231
1095.167408,-4293.194464,2681.334243,10658.965565
1095.167738,-2368.659014,2145.067394,9104.533087
1095.168067,1036.288319,1455.581446,7031.956449
1095.168397,3627.009116,1838.629195,5329.482782
1095.168726,4737.318029,2068.457845,5033.400406
1095.169056,4367.215058,3140.991542,6439.791695
1095.169385,1628.453072,5056.230287,8660.409521
1095.169715,-1998.556043,7431.126331,11547.212695
1095.170044,-4367.215058,8733.488677,14137.933492
1095.170373,-4959.379811,6894.859482,14359.995275
1095.170703,-3552.988522,3370.820191,13101.645173
1095.171032,-2072.576638,229.828649,10584.944971
1095.171362,-444.123565,-229.828649,7846.182985
1095.171691,-518.144159,459.657299,6735.874072
1095.172021,-666.185348,1991.848295,7994.224174
1095.172350,-1332.370696,4903.011187,8882.471304
1095.172680,-1776.494261,5975.544884,7624.121203
1095.173009,-444.123565,4826.401637,5995.668130
1095.173339,518.144159,1685.410096,6513.812290
1095.173668,-296.082377,1685.410096,8734.430116
1095.173998,-1776.494261,3370.820191,11251.130318
1095.174327,-2664.741391,5362.668486,13027.624579
1095.174657,-2590.720797,7277.907231,13323.706956
1095.174986,-2738.761985,6128.763984,11917.315666
1095.175316,-1406.391290,4596.572988,9770.718434
1095.175645,518.144159,2451.505594,7105.977043
1095.175974,1628.453072,1072.533697,5625.565159
1095.176304,1776.494261,2374.896044,5403.503377
1095.176633,1998.556043,3524.039291,7402.059420
1095.176963,1184.329507,3600.648841,9030.512492
1095.177292,-740.205942,4366.744339,10807.006753
1095.177622,-2738.761985,5439.278036,11991.336260
1095.177951,-3701.029710,5439.278036,11621.233289
1095.178281,-2368.659014,3830.477490,11991.336260
1095.178610,-1628.453072,2528.115143,12583.501014
1095.178940,-1850.514855,2987.772442,12287.418637
1095.179269,-2442.679609,3064.381992,9992.780217
1095.179599,-1776.494261,3677.258390,8586.388927
1095.179928,-666.185348,5286.058936,8290.306550
1095.180258,740.205942,5362.668486,7624.121203
1095.180587,2294.638420,3983.696590,6735.874072
1095.180917,3108.864956,1915.238745,5329.482782
1095.181246,2072.576638,2451.505594,5625.565159
1095.181575,592.164754,3294.210641,8882.471304
1095.181905,-1332.370696,4979.620737,13323.706956
1095.182234,-3552.988522,8427.050478,15174.221811
1095.182564,-4811.338623,9422.974625,14285.974681
1095.182893,-3256.906145,6971.469032,13101.645173
1095.183223,-1406.391290,3447.429741,11695.253884
1095.183552,-1406.391290,2145.067394,9252.574275
1095.183882,-2738.761985,2757.943793,7179.997637
1095.184211,-2960.823768,4060.306139,5551.544565
1095.184541,-1998.556043,4596.572988,4663.297435
1095.184870,370.102971,3217.601092,4367.215058
1095.185200,1998.556043,2068.457845,4441.235652
1095.185529,2220.617826,4213.525239,4885.359217
1095.185859,1628.453072,5745.716235,6143.709319
1095.186188,1110.308913,6435.202183,9474.636058
1095.186517,-518.144159,7354.516781,12953.603985
1095.186847,-2664.741391,8044.002729,14285.974681
1095.187176,-3256.906145,6588.421283,14656.077652
1095.187506,-3478.967927,4826.401637,13767.830521
1095.187835,-3775.050304,4519.963438,11695.253884
1095.188165,-3552.988522,2068.457845,9104.533087
1095.188494,-3034.844362,-1838.629195,6217.729913
1095.188824,-1998.556043,-2221.676944,4367.215058
1095.189153,222.061783,-1378.971896,3923.091493
1095.189483,2442.679609,766.095498,4737.318029
1095.189812,2886.803174,2221.676944,5847.626942
1095.190142,2664.741391,3370.820191,8364.327145
1095.190471,3182.885551,4826.401637,11917.315666
1095.190801,1998.556043,5745.716235,15322.262999
1095.191130,148.041188,7584.345430,17690.922014
1095.191460,-2220.617826,7048.078582,17468.860231
1095.191789,-4071.132681,3294.210641,15470.304188
1095.192119,-4737.318029,612.876398,12287.418637
1095.192448,-3478.967927,-1838.629195,8808.450710
1095.192778,-1036.288319,-3524.039291,7105.977043
1095.193107,888.247130,-3217.601092,5477.523971
1095.193437,2072.576638,-2681.334243,3478.967927
1095.193766,2738.761985,-1302.362347,2960.823768
1095.194096,3034.844362,1762.019645,4811.338623
1095.194425,2146.597232,5898.935335,9252.574275
1095.194755,1036.288319,9269.755526,12879.583391
1095.195085,-444.123565,10035.851024,15100.201217
1095.195414,-1776.494261,6741.640382,14434.015869
1095.195744,-3923.091493,2757.943793,13323.706956
1095.196073,-6217.729913,306.438199,11177.109724
1095.196403,-7031.956449,-2145.067394,8290.306550
1095.196732,-5921.647536,-4903.011187,5329.482782
1095.197062,-3923.091493,-7048.078582,3182.885551
1095.197391,-1998.556043,-7048.078582,3330.926739
1095.197721,-296.082377,-5132.839837,3849.070898
1095.198050,666.185348,229.828649,5921.647536
1095.198380,1924.535449,3753.867940,8586.388927
1095.198709,2516.700203,5056.230287,13841.851115
1095.199039,962.267725,8197.221829,17542.880825
1095.199368,-1850.514855,11721.261119,17838.963202
1095.199698,-2812.782580,8503.660028,16136.489536
1095.200027,-1480.411884,3524.039291,13471.748144
1095.200357,518.144159,-842.705048,9696.697840
1095.200687,1036.288319,-5362.668486,6365.771101
1095.201016,-888.247130,-7354.516781,2368.659014
1095.201346,-1258.350101,-6588.421283,962.267725
1095.201675,222.061783,-4979.620737,2960.823768
1095.202005,2442.679609,-3370.820191,6587.832884
1095.202334,1258.350101,229.828649,11103.089130
1095.202664,-1924.535449,3983.696590,14137.933492
1095.202993,-3627.009116,7354.516781,15248.242405
1095.203323,-3034.844362,8427.050478,16062.468941
1095.203652,-1998.556043,7507.735880,17098.757260
1095.203982,-1332.370696,2987.772442,14656.077652
1095.204311,-962.267725,995.924147,9474.636058
1095.204641,296.082377,-1838.629195,4071.132681
1095.204970,2220.617826,-4673.182538,1480.411884
1095.205300,3108.864956,-5669.106685,3256.906145
1095.205629,2294.638420,-3447.429741,6661.853478
1095.205959,-592.164754,229.828649,9252.574275
1095.206288,-3701.029710,3600.648841,10658.965565
1095.206618,-4515.256246,5056.230287,12583.501014
1095.206948,-3034.844362,4749.792088,15544.324782
1095.207277,-1110.308913,4979.620737,16210.510130
1095.207607,-222.061783,5439.278036,14434.015869
1095.207936,-296.082377,3217.601092,9770.718434
1095.208266,814.226536,1149.143247,4737.318029
1095.208595,1480.411884,-1991.848295,2442.679609
1095.208925,2442.679609,-3064.381992,3182.885551
1095.209254,2220.617826,-2221.676944,4367.215058
1095.209584,-518.144159,-229.828649,5477.523971
1095.209913,-3256.906145,1455.581446,6439.791695
1095.210243,-6217.729913,1608.800546,8734.430116
1095.210572,-6143.709319,995.924147,11695.253884
1095.210902,-3701.029710,1378.971896,14359.995275
1095.211231,-2220.617826,2757.943793,14211.954086
1095.211561,-1998.556043,3524.039291,11399.171507
1095.211890,-740.205942,995.924147,8882.471304
1095.212220,1480.411884,-2757.943793,7698.141797
1095.212550,3256.906145,-3064.381992,8808.450710
1095.212879,2664.741391,-766.095498,10658.965565
1095.213209,-148.041188,1991.848295,10955.047942
1095.213538,-2738.761985,689.485948,9622.677246
1095.213868,-3108.864956,-1838.629195,10066.800811
1095.214197,-1480.411884,-2068.457845,12065.356855
1095.214527,0.000000,229.828649,13693.809927
1095.214856,296.082377,2528.115143,13175.665768
1095.215186,-222.061783,4366.744339,10140.821405
1095.215515,1850.514855,1302.362347,8586.388927
1095.215845,4145.153275,-612.876398,8586.388927
1095.216174,4293.194464,153.219100,9622.677246
1095.216504,1776.494261,2681.334243,10510.924376
1095.216833,-2368.659014,3907.087040,9844.739029
1095.217163,-5181.441594,1225.752797,9030.512492
1095.217492,-5181.441594,-1378.971896,9178.553681
1095.217822,-4441.235652,-2221.676944,9548.656652
1095.218151,-3404.947333,-919.314598,9548.656652
1095.218481,-3552.988522,1149.143247,8364.327145
1095.218811,-3182.885551,1378.971896,6217.729913
1095.219140,-814.226536,612.876398,5921.647536
1095.219470,1776.494261,1838.629195,7698.141797
1095.219799,3404.947333,3753.867940,10066.800811
1095.220129,1776.494261,6128.763984,10436.903782
1095.220458,-1924.535449,4979.620737,9178.553681
1095.220788,-3182.885551,1608.800546,8364.327145
1095.221117,-3034.844362,-1302.362347,9474.636058
1095.221447,-2072.576638,-1302.362347,10584.944971
1095.221776,-1628.453072,-842.705048,9474.636058
1095.222106,-1850.514855,-1302.362347,7105.977043
1095.222435,-1702.473667,-2145.067394,5773.606348
1095.222765,1258.350101,-919.314598,7254.018232
1095.223094,4219.173869,1149.143247,9770.718434
1095.223424,4737.318029,4443.353888,10807.006753
1095.223753,2442.679609,5975.544884,11177.109724
1095.224083,-962.267725,4213.525239,10510.924376
1095.224413,-2960.823768,2374.896044,11769.274478
1095.224742,-3923.091493,1302.362347,12509.480420
1095.225072,-3404.947333,76.609550,11843.295072
1095.225401,-2294.638420,-2987.772442,9844.739029
1095.225731,-2368.659014,-4979.620737,7772.162391
1095.226060,-1776.494261,-5362.668486,6883.915261
1095.226390,-444.123565,-3983.696590,7624.121203
1095.226719,1628.453072,0.000000,9770.718434
1095.227049,2220.617826,3140.991542,13101.645173
1095.227378,-370.102971,4979.620737,14878.139434
1095.227708,-2960.823768,5515.887586,13471.748144
1095.228037,-3256.906145,3447.429741,12509.480420
1095.228367,-1924.535449,2374.896044,11695.253884
1095.228696,-814.226536,459.657299,10436.903782
1095.229026,-666.185348,-2145.067394,8290.306550
1095.229355,-1554.432478,-3370.820191,6069.688724
1095.229685,-1554.432478,-3753.867940,4811.338623
1095.230014,-740.205942,-1532.190996,5033.400406
1095.230344,1184.329507,153.219100,6661.853478
1095.230674,2368.659014,1455.581446,8660.409521
1095.231003,296.082377,3753.867940,9918.759623
1095.231333,-2368.659014,4519.963438,9104.533087
1095.231662,-3182.885551,3294.210641,8512.368333
1095.231992,-2368.659014,1608.800546,9770.718434
1095.232321,-1184.329507,1149.143247,10658.965565
1095.232651,-1850.514855,383.047749,8882.471304
1095.232980,-2886.803174,-2987.772442,6069.688724
1095.233310,-2146.597232,-3983.696590,4515.256246
1095.233639,-370.102971,-2681.334243,6587.832884
1095.233969,1850.514855,-459.657299,9474.636058
1095.234298,1776.494261,1762.019645,11621.233289
1095.234628,-814.226536,3064.381992,12139.377449
1095.234957,-3108.864956,3677.258390,12139.377449
1095.235287,-3923.091493,3064.381992,13249.686362
1095.235616,-2590.720797,2681.334243,14359.995275
1095.235946,-814.226536,1685.410096,13397.727550
1095.236276,-518.144159,-766.095498,9992.780217
1095.236605,-148.041188,-2528.115143,7254.018232
1095.236935,740.205942,-3907.087040,6957.935855
1095.237264,1332.370696,-2221.676944,7920.203579
1095.237594,2442.679609,766.095498,9696.697840
1095.237923,1998.556043,2451.505594,11325.150913
1095.238253,-592.164754,3677.258390,12139.377449
1095.238582,-2516.700203,4749.792088,11843.295072
1095.238912,-2072.576638,3140.991542,11695.253884
1095.239241,-444.123565,2221.676944,11769.274478
1095.239571,222.061783,2221.676944,10732.986159
1095.239900,-1036.288319,2221.676944,7994.224174
1095.240230,-962.267725,383.047749,5625.565159
1095.240559,-148.041188,-1455.581446,4811.338623
1095.240889,592.164754,-1225.752797,6217.729913
1095.241218,0.000000,383.047749,8438.347739
1095.241548,-3108.864956,2374.896044,9178.553681
1095.241877,-6439.791695,2451.505594,9178.553681
1095.242207,-7402.059420,1149.143247,8734.430116
1095.242537,-5477.523971,-842.705048,9400.615463
1095.242866,-2516.700203,-1225.752797,10066.800811
1095.243196,-1554.432478,612.876398,9104.533087
1095.243525,-1702.473667,766.095498,6883.915261
1095.243855,-444.123565,-383.047749,5181.441594
1095.244184,2516.700203,-1455.581446,6809.894666
1095.244514,3997.112087,536.266849,9104.533087
1095.244843,3997.112087,2451.505594,10658.965565
1095.245173,1258.350101,1915.238745,10732.986159
1095.245502,-1628.453072,1608.800546,11547.212695
1095.245832,-2368.659014,842.705048,12657.521608
1095.246161,-1998.556043,0.000000,13545.768739
1095.246491,-1110.308913,-383.047749,11991.336260
1095.246820,-740.205942,-1838.629195,10140.821405
1095.247150,-370.102971,-2068.457845,8512.368333
1095.247479,444.123565,-1762.019645,7476.080014
1095.247809,1776.494261,-1225.752797,8660.409521
1095.248139,2442.679609,536.266849,10955.047942
1095.248468,814.226536,2681.334243,12805.562797
1095.248798,-2886.803174,5132.839837,12879.583391
1095.249127,-5033.400406,3140.991542,12139.377449
1095.249457,-5033.400406,383.047749,12065.356855
1095.249786,-3627.009116,-383.047749,12361.439231
1095.250116,-2368.659014,-1072.533697,11695.253884
1095.250445,-2664.741391,-229.828649,9622.677246
1095.250775,-2738.761985,153.219100,5921.647536
1095.251104,-962.267725,-689.485948,4811.338623
1095.251434,1924.535449,306.438199,6957.935855
1095.251763,3552.988522,2834.553343,9474.636058
1095.252093,1036.288319,6281.983084,9474.636058
1095.252422,-2368.659014,5515.887586,8364.327145
1095.252752,-3404.947333,3677.258390,8216.285956
1095.253081,-2664.741391,2298.286494,9326.594869
1095.253411,-1776.494261,1149.143247,9474.636058
1095.253740,-1776.494261,459.657299,8142.265362
1095.254070,-2220.617826,-229.828649,5995.668130
1095.254400,-1406.391290,-153.219100,3997.112087
1095.254729,740.205942,-1532.190996,4589.276840
1095.255059,2664.741391,-842.705048,6735.874072
1095.255388,2960.823768,2757.943793,9178.553681
1095.255718,518.144159,4443.353888,11399.171507
1095.256047,-3330.926739,4826.401637,11547.212695
1095.256377,-4737.318029,3064.381992,12213.398043
1095.256706,-4071.132681,1225.752797,13249.686362
1095.257036,-2368.659014,229.828649,13471.748144
1095.257365,-2146.597232,-766.095498,11621.233289
1095.257695,-1924.535449,-1838.629195,9178.553681
1095.258024,-666.185348,-3524.039291,7476.080014
1095.258354,1110.308913,-3064.381992,8586.388927
1095.258683,2294.638420,-153.219100,10658.965565
1095.259013,2072.576638,2681.334243,11843.295072
1095.259342,0.000000,4749.792088,13027.624579
1095.259672,-2368.659014,4903.011187,12213.398043
1095.260002,-2294.638420,2834.553343,12435.459826
1095.260331,-518.144159,1072.533697,13397.727550
1095.260661,222.061783,842.705048,12657.521608
1095.260990,-1702.473667,766.095498,10288.862594
1095.261320,-3182.885551,0.000000,7254.018232
1095.261649,-2220.617826,-1455.581446,5773.606348
1095.261979,444.123565,-919.314598,6809.894666
1095.262308,1628.453072,1532.190996,7254.018232
1095.262638,666.185348,2374.896044,7698.141797
1095.262967,-2664.741391,2681.334243,7846.182985
1095.263297,-5403.503377,2987.772442,7772.162391
1095.263626,-5329.482782,2451.505594,9104.533087
1095.263956,-4071.132681,1455.581446,10362.883188
1095.264285,-2664.741391,1302.362347,9696.697840
1095.264615,-3552.988522,383.047749,7402.059420
1095.264944,-2886.803174,-1378.971896,5995.668130
1095.265274,-1036.288319,-1532.190996,5921.647536
1095.265603,592.164754,0.000000,7179.997637
1095.265933,2146.597232,2221.676944,8068.244768
1095.266263,1924.535449,2911.162892,9770.718434
1095.266592,-370.102971,2681.334243,10510.924376
1095.266922,-2368.659014,2911.162892,10288.862594
1095.267251,-2146.597232,1762.019645,11251.130318
1095.267581,0.000000,919.314598,12213.398043
1095.267910,518.144159,383.047749,11473.192101
1095.268240,74.020594,-919.314598,9992.780217
1095.268569,222.061783,-1532.190996,8216.285956
1095.268899,1036.288319,-1149.143247,7772.162391
1095.269228,2220.617826,536.266849,9474.636058
1095.269558,2146.597232,2068.457845,11103.089130
1095.269887,0.000000,2911.162892,12805.562797
1095.270217,-3256.906145,3907.087040,12657.521608
1095.270546,-4737.318029,2298.286494,11177.109724
1095.270876,-4441.235652,0.000000,11325.150913
1095.271205,-2516.700203,-995.924147,12361.439231
1095.271535,-2664.741391,-153.219100,12509.480420
1095.271865,-4145.153275,153.219100,9622.677246
1095.272194,-3701.029710,-766.095498,6217.729913
1095.272524,-444.123565,-1915.238745,6883.915261
1095.272853,1924.535449,-153.219100,9992.780217
1095.273183,1036.288319,3830.477490,11251.130318
1095.273512,-1998.556043,5056.230287,10214.842000
1095.273842,-3701.029710,3677.258390,8808.450710
1095.274171,-3330.926739,2834.553343,9474.636058
1095.274501,-2146.597232,2374.896044,10214.842000
1095.274830,-962.267725,766.095498,8882.471304
1095.275160,-888.247130,-1072.533697,6809.894666
1095.275489,-1480.411884,0.000000,5403.503377
1095.275819,-666.185348,0.000000,4737.318029
1095.276148,1036.288319,-306.438199,5995.668130
1095.276478,2590.720797,1532.190996,7550.100608
1095.276807,1924.535449,3753.867940,8438.347739
1095.277137,-518.144159,4290.134789,9622.677246
1095.277466,-2590.720797,3677.258390,10066.800811
1095.277796,-3701.029710,1991.848295,10214.842000
1095.278126,-3552.988522,229.828649,10362.883188
1095.278455,-1998.556043,76.609550,10955.047942
1095.278785,-1332.370696,-536.266849,11177.109724
1095.279114,-2368.659014,-995.924147,8808.450710
1095.279444,-1702.473667,-1762.019645,7402.059420
1095.279773,296.082377,-1685.410096,9474.636058
1095.280103,2516.700203,1762.019645,11917.315666
1095.280432,1998.556043,4136.915689,13101.645173
1095.280762,-1184.329507,4519.963438,12287.418637
1095.281091,-2960.823768,2911.162892,11621.233289
1095.281421,-2590.720797,1225.752797,12509.480420
1095.281750,-1480.411884,1991.848295,13989.892304
1095.282080,-888.247130,1685.410096,12805.562797
1095.282409,-1332.370696,76.609550,9918.759623
1095.282739,-1702.473667,-689.485948,6661.853478
1095.283068,74.020594,-1532.190996,5995.668130
1095.283398,2220.617826,-766.095498,7624.121203
1095.283728,3182.885551,2068.457845,9252.574275
1095.284057,0.000000,4596.572988,9178.553681
1095.284387,-3256.906145,5286.058936,9400.615463
1095.284716,-3552.988522,3677.258390,9474.636058
1095.285046,-2516.700203,2757.943793,9696.697840
1095.285375,-2442.679609,766.095498,8512.368333
1095.285705,-3108.864956,-536.266849,7772.162391
1095.286034,-3478.967927,-612.876398,7624.121203
1095.286364,-2812.782580,76.609550,6661.853478
1095.286693,-1702.473667,0.000000,6069.688724
1095.287023,-444.123565,-842.705048,6069.688724
1095.287352,666.185348,0.000000,8216.285956
1095.287682,-296.082377,1608.800546,11251.130318
1095.288011,-3330.926739,3677.258390,11473.192101
1095.288341,-4737.318029,3447.429741,9770.718434
1095.288670,-3404.947333,1072.533697,10066.800811
1095.289000,-370.102971,-689.485948,11251.130318
1095.289329,0.000000,-229.828649,11251.130318
1095.289659,-370.102971,-766.095498,8438.347739
1095.289989,518.144159,-1838.629195,6513.812290
1095.290318,2442.679609,-1915.238745,8438.347739
1095.290648,3478.967927,0.000000,11103.089130
1095.290977,2368.659014,1685.410096,12583.501014
1095.291307,-296.082377,2757.943793,12509.480420
1095.291636,-2664.741391,3370.820191,11991.336260
1095.291966,-2886.803174,2834.553343,12805.562797
1095.292296,-1332.370696,1072.533697,13693.809927
1095.292625,-740.205942,-689.485948,12435.459826
1095.292955,-1776.494261,-153.219100,9992.780217
1095.293284,-2812.782580,612.876398,7698.141797
1095.293614,-1554.432478,0.000000,6809.894666
1095.293943,444.123565,-459.657299,8290.306550
1095.294273,740.205942,1378.971896,9770.718434
1095.294603,-740.205942,3294.210641,10732.986159
1095.294932,-2738.761985,4443.353888,10732.986159
1095.295262,-4293.194464,4136.915689,9696.697840
1095.295591,-3997.112087,2528.115143,9622.677246
1095.295921,-2294.638420,919.314598,9844.739029
1095.296250,-1702.473667,1762.019645,9696.697840
1095.296580,-1628.453072,2145.067394,8290.306550
1095.296910,-1776.494261,2145.067394,5403.503377
1095.297239,148.041188,689.485948,3775.050304
1095.297569,2664.741391,0.000000,4737.318029
1095.297898,2960.823768,1455.581446,6587.832884
1095.298228,1258.350101,3064.381992,8438.347739
1095.298557,-1998.556043,4060.306139,8956.491898
1095.298887,-4071.132681,3600.648841,8956.491898
1095.299217,-3701.029710,1532.190996,9326.594869
1095.299546,-2146.597232,536.266849,10140.821405
1095.299876,-740.205942,-536.266849,10140.821405
1095.300205,-1924.535449,-612.876398,8364.327145
1095.300535,-2368.659014,-1149.143247,6661.853478
1095.300864,-888.247130,-2528.115143,7031.956449
1095.301194,1036.288319,-842.705048,10066.800811
1095.301524,1924.535449,995.924147,13027.624579
1095.301853,-666.185348,3217.601092,13693.809927
1095.302183,-3256.906145,2298.286494,12805.562797
1095.302512,-3478.967927,-612.876398,13101.645173
1095.302842,-2220.617826,-995.924147,14804.118840
1095.303171,-1702.473667,306.438199,13841.851115
1095.303501,-1110.308913,0.000000,11917.315666
1095.303831,-370.102971,-1991.848295,10288.862594
1095.304160,518.144159,-919.314598,8438.347739
1095.304490,1554.432478,-536.266849,8808.450710
1095.304819,2664.741391,-766.095498,9326.594869
1095.305149,2664.741391,1455.581446,10732.986159
1095.305478,-888.247130,3753.867940,11029.068536
1095.305808,-3404.947333,3524.039291,10066.800811
1095.306138,-3923.091493,536.266849,9400.615463
1095.306467,-2960.823768,-459.657299,9622.677246
1095.306797,-3256.906145,919.314598,9474.636058
1095.307126,-3034.844362,536.266849,8068.244768
1095.307456,-3034.844362,76.609550,5625.565159
1095.307785,-1998.556043,-689.485948,3849.070898
1095.308115,592.164754,-919.314598,4219.173869
1095.308444,2220.617826,766.095498,6143.709319
1095.308774,1332.370696,1762.019645,7624.121203
1095.309104,-1850.514855,3447.429741,9622.677246
1095.309433,-4589.276840,4060.306139,11029.068536
1095.309763,-5329.482782,3677.258390,11695.253884
1095.310092,-3775.050304,2298.286494,11177.109724
1095.310422,-1184.329507,459.657299,9844.739029
1095.310751,0.000000,-1455.581446,8142.265362
1095.311081,222.061783,-2221.676944,6587.832884
1095.311411,518.144159,-1608.800546,6069.688724
1095.311740,2368.659014,-459.657299,7624.121203
1095.312070,3256.906145,1302.362347,10288.862594
1095.312399,2590.720797,3140.991542,12065.356855
1095.312729,-148.041188,2451.505594,12731.542202
1095.313058,-1924.535449,1532.190996,12361.439231
1095.313388,-2516.700203,1455.581446,13101.645173
1095.313718,-1406.391290,1455.581446,14359.995275
1095.314047,-740.205942,1532.190996,13989.892304
1095.314377,-962.267725,0.000000,11103.089130
1095.314706,-666.185348,-612.876398,8216.285956
1095.315036,222.061783,-995.924147,7402.059420
1095.315365,518.144159,0.000000,7846.182985
1095.315695,888.247130,2068.457845,9992.780217
1095.316025,-888.247130,3217.601092,11029.068536
1095.316354,-3701.029710,3370.820191,10140.821405
1095.316684,-5033.400406,1455.581446,9770.718434
1095.317013,-4145.153275,-612.876398,10066.800811
1095.317343,-3182.885551,-689.485948,11103.089130
1095.317672,-3552.988522,76.609550,9992.780217
1095.318002,-3849.070898,1225.752797,7550.100608
1095.318332,-2220.617826,612.876398,5995.668130
1095.318661,1258.350101,0.000000,5551.544565
1095.318991,2960.823768,1378.971896,5995.668130
1095.319320,3701.029710,1915.238745,6513.812290
1095.319650,1776.494261,2298.286494,8586.388927
1095.319979,-1184.329507,3524.039291,9992.780217
1095.320309,-4071.132681,4366.744339,10140.821405
1095.320639,-3256.906145,1838.629195,10214.842000
1095.320968,-2072.576638,-612.876398,9622.677246
1095.321298,-814.226536,-995.924147,8660.409521
1095.321627,-592.164754,-1762.019645,7254.018232
1095.321957,-444.123565,-2604.724693,5921.647536
1095.322286,148.041188,-1991.848295,5921.647536
1095.322616,1332.370696,229.828649,8142.265362
1095.322946,2072.576638,1455.581446,10140.821405
1095.323275,74.020594,1608.800546,11251.130318
1095.323605,-2368.659014,306.438199,11103.089130
1095.323934,-2886.803174,-229.828649,13249.686362
1095.324264,-2516.700203,689.485948,15322.262999
1095.324593,-2368.659014,919.314598,14656.077652
1095.324923,-1480.411884,-1378.971896,11991.336260
1095.325253,-888.247130,-3447.429741,9696.697840
1095.325582,666.185348,-2681.334243,9178.553681
1095.325912,1850.514855,0.000000,9992.780217
1095.326241,2664.741391,1685.410096,11103.089130
1095.326571,1998.556043,2374.896044,11695.253884
1095.326900,-592.164754,3907.087040,11917.315666
1095.327230,-2072.576638,3140.991542,11251.130318
1095.327560,-2738.761985,1378.971896,10881.027347
1095.327889,-2516.700203,-229.828649,10288.862594
1095.328219,-2590.720797,-306.438199,9696.697840
1095.328548,-3256.906145,-842.705048,9252.574275
1095.328878,-3923.091493,229.828649,7698.141797
1095.329207,-2146.597232,1149.143247,4959.379811
1095.329537,814.226536,76.609550,3701.029710
1095.329866,2812.782580,-995.924147,4737.318029
1095.330196,2294.638420,1455.581446,7476.080014
1095.330526,-1258.350101,4903.011187,9770.718434
1095.330855,-3701.029710,7048.078582,9696.697840
1095.331185,-4589.276840,4903.011187,9178.553681
1095.331514,-3404.947333,995.924147,9770.718434
1095.331844,-1332.370696,-842.705048,10436.903782
1095.332173,-1554.432478,-995.924147,9326.594869
1095.332503,-1702.473667,-153.219100,6069.688724
1095.332833,-222.061783,-1149.143247,4441.235652
1095.333162,1554.432478,-2145.067394,6957.935855
1095.333492,2368.659014,-153.219100,10658.965565
1095.333821,1036.288319,2911.162892,12361.439231
1095.334151,-1628.453072,4213.525239,11251.130318
1095.334480,-3034.844362,3294.210641,10140.821405
1095.334810,-2146.597232,383.047749,11991.336260
1095.335140,-370.102971,0.000000,13693.809927
1095.335469,370.102971,-383.047749,13027.624579
1095.335799,74.020594,76.609550,10436.903782
1095.336128,-222.061783,0.000000,7920.203579
1095.336458,1332.370696,-1072.533697,7994.224174
1095.336787,2294.638420,-919.314598,10584.944971
1095.337117,2442.679609,1225.752797,12213.398043
1095.337447,814.226536,3830.477490,12065.356855
1095.337776,-2442.679609,4060.306139,11177.109724
1095.338106,-3923.091493,1608.800546,9696.697840
1095.338435,-3552.988522,-689.485948,11029.068536
1095.338765,-2368.659014,-383.047749,12287.418637
1095.339094,-2664.741391,1608.800546,10436.903782
1095.339424,-3404.947333,1072.533697,7328.038826
1095.339754,-2072.576638,-153.219100,4737.318029
1095.340083,-296.082377,-1685.410096,4219.173869
1095.340413,2368.659014,-536.266849,6957.935855
1095.340742,2368.659014,2604.724693,8956.491898
1095.341072,-1258.350101,4903.011187,8882.471304
1095.341401,-4737.318029,4749.792088,8956.491898
1095.341731,-4367.215058,1838.629195,9548.656652
1095.342061,-2442.679609,153.219100,10584.944971
1095.342390,-1332.370696,-306.438199,9400.615463
1095.342720,-1406.391290,-919.314598,7920.203579
1095.343049,-1924.535449,-689.485948,6735.874072
1095.343379,-888.247130,-1149.143247,6291.750507
1095.343708,888.247130,-612.876398,7328.038826
1095.344038,2886.803174,612.876398,8068.244768
1095.344368,3034.844362,1685.410096,9326.594869
1095.344697,888.247130,1532.190996,10288.862594
1095.345027,-1036.288319,919.314598,11029.068536
1095.345356,-2516.700203,459.657299,11917.315666
1095.345686,-2442.679609,1149.143247,13101.645173
1095.346015,-1776.494261,842.705048,13249.686362
1095.346345,-1110.308913,-1532.190996,12657.521608
1095.346675,-740.205942,-2298.286494,10288.862594
1095.347004,-518.144159,-2681.334243,8734.430116
1095.347334,666.185348,-1762.019645,8660.409521
1095.347663,2146.597232,153.219100,10732.986159
1095.347993,1554.432478,1838.629195,12583.501014
1095.348322,-1258.350101,4290.134789,12879.583391
1095.348652,-3108.864956,3370.820191,12287.418637
1095.348981,-2960.823768,2221.676944,11473.192101
1095.349311,-1332.370696,1225.752797,11621.233289
1095.349641,-444.123565,76.609550,11325.150913
1095.349970,-1776.494261,536.266849,9104.533087
1095.350300,-2368.659014,612.876398,6069.688724
1095.350629,-592.164754,229.828649,4663.297435
1095.350959,962.267725,689.485948,5773.606348
1095.351288,1850.514855,1838.629195,8142.265362
1095.351618,0.000000,3677.258390,9252.574275
1095.351948,-2960.823768,4290.134789,7772.162391
1095.352277,-4071.132681,3140.991542,6365.771101
1095.352607,-2886.803174,1455.581446,7920.203579
1095.352936,-1406.391290,306.438199,8808.450710
1095.353266,-1258.350101,1072.533697,9104.533087
1095.353595,-2146.597232,842.705048,8216.285956
1095.353925,-2812.782580,1532.190996,6217.729913
1095.354255,-1702.473667,-153.219100,6217.729913
1095.354584,444.123565,-536.266849,7772.162391
1095.354914,2220.617826,1072.533697,8956.491898
1095.355243,1628.453072,2757.943793,10066.800811
1095.355573,-296.082377,2834.553343,9548.656652
1095.355902,-2146.597232,1685.410096,10732.986159
1095.356232,-2738.761985,1149.143247,12731.542202
1095.356562,-1554.432478,1608.800546,14211.954086
1095.356891,-592.164754,1378.971896,12731.542202
1095.357221,-888.247130,-1072.533697,9622.677246
1095.357550,-296.082377,-2757.943793,7476.080014
1095.357880,1332.370696,-3294.210641,8438.347739
1095.358209,2886.803174,-1149.143247,11251.130318
1095.358539,2886.803174,2528.115143,13101.645173
1095.358869,666.185348,4673.182538,13175.665768
1095.359198,-1998.556043,3830.477490,11991.336260
1095.359528,-2664.741391,1072.533697,11843.295072
1095.359857,-1480.411884,1072.533697,12065.356855
1095.360187,-222.061783,1685.410096,11695.253884
1095.360516,-888.247130,2068.457845,10066.800811
1095.360846,-2368.659014,995.924147,7254.018232
1095.361176,-2368.659014,-1991.848295,5699.585753
1095.361505,-518.144159,-2604.724693,6809.894666
1095.361835,74.020594,153.219100,8586.388927
1095.362164,-888.247130,2604.724693,8734.430116
1095.362494,-2960.823768,2374.896044,8438.347739
1095.362823,-3849.070898,1685.410096,8734.430116
1095.363153,-3330.926739,1762.019645,9992.780217
1095.363483,-1850.514855,2145.067394,10288.862594
1095.363812,-962.267725,2757.943793,8956.491898
1095.364142,-666.185348,1532.190996,7105.977043
1095.364471,-222.061783,229.828649,6291.750507
1095.364801,148.041188,-383.047749,5625.565159
1095.365130,1258.350101,-459.657299,5995.668130
1095.365460,1998.556043,383.047749,7698.141797
1095.365790,888.247130,1149.143247,10140.821405
1095.366119,-1850.514855,1838.629195,11251.130318
1095.366449,-3627.009116,1532.190996,11029.068536
1095.366778,-3627.009116,0.000000,10732.986159
1095.367108,-1776.494261,-842.705048,10955.047942
1095.367437,-148.041188,-536.266849,11177.109724
1095.367767,-370.102971,-766.095498,10288.862594
1095.368097,-370.102971,-1762.019645,8586.388927
1095.368426,-370.102971,-919.314598,7920.203579
1095.368756,888.247130,-383.047749,9622.677246
1095.369085,2368.659014,306.438199,12435.459826
1095.369415,1036.288319,1991.848295,13767.830521
1095.369744,-2294.638420,1838.629195,12509.480420
1095.370074,-3404.947333,1608.800546,11843.295072
1095.370403,-2738.761985,919.314598,13249.686362
1095.370733,-1110.308913,1149.143247,14137.933492
1095.371063,-1036.288319,1991.848295,12805.562797
1095.371392,-1036.288319,2068.457845,9622.677246
1095.371722,-666.185348,1455.581446,5921.647536
1095.372051,370.102971,0.000000,5403.503377
1095.372381,1998.556043,76.609550,7105.977043
1095.372710,1184.329507,2298.286494,8586.388927
1095.373040,-1628.453072,3600.648841,9474.636058
1095.373370,-4145.153275,4903.011187,9400.615463
1095.373699,-4589.276840,3677.258390,8734.430116
1095.374029,-3404.947333,1455.581446,9104.533087
1095.374358,-1480.411884,842.705048,8438.347739
1095.374688,-962.267725,1302.362347,7105.977043
1095.375017,-1480.411884,2145.067394,6439.791695
1095.375347,-1258.350101,2451.505594,4959.379811
1095.375677,-444.123565,2221.676944,5181.441594
1095.376006,1184.329507,919.314598,6883.915261
1095.376336,1406.391290,1532.190996,8364.327145
1095.376665,-370.102971,2911.162892,10288.862594
1095.376995,-2960.823768,2911.162892,10066.800811
1095.377324,-4219.173869,995.924147,10214.842000
1095.377654,-2664.741391,-153.219100,11325.150913
1095.377984,-444.123565,383.047749,12657.521608
1095.378313,0.000000,1532.190996,12287.418637
1095.378643,-592.164754,1608.800546,9326.594869
1095.378972,370.102971,-536.266849,6957.935855
1095.379302,2220.617826,-2145.067394,8068.244768
1095.379631,3256.906145,-612.876398,11177.109724
1095.379961,1998.556043,2374.896044,13175.665768
1095.380291,-1184.329507,2374.896044,12583.501014
1095.380620,-3923.091493,1991.848295,11843.295072
1095.380950,-3923.091493,153.219100,13027.624579
1095.381279,-1924.535449,-766.095498,14285.974681
1095.381609,-592.164754,383.047749,13101.645173
1095.381938,-1110.308913,842.705048,9992.780217
1095.382268,-1480.411884,689.485948,7105.977043
1095.382598,-444.123565,-306.438199,6883.915261
1095.382927,814.226536,383.047749,7846.182985
1095.383257,1258.350101,2145.067394,9030.512492
1095.383586,-888.247130,3064.381992,9326.594869
1095.383916,-3701.029710,3907.087040,9178.553681
1095.384245,-5329.482782,1532.190996,8660.409521
1095.384575,-4811.338623,-383.047749,8882.471304
1095.384905,-3108.864956,-536.266849,9474.636058
1095.385234,-1998.556043,1149.143247,8808.450710
1095.385564,-2072.576638,2757.943793,7920.203579
1095.385893,-1998.556043,1685.410096,5773.606348
1095.386223,-370.102971,0.000000,4589.276840
1095.386552,1776.494261,536.266849,5551.544565
1095.386882,2664.741391,2068.457845,7550.100608
1095.387212,888.247130,2911.162892,9178.553681
1095.387541,-1924.535449,2374.896044,9548.656652
1095.387871,-3478.967927,766.095498,9474.636058
1095.388200,-2738.761985,-536.266849,10436.903782
1095.388530,-962.267725,-689.485948,11843.295072
1095.388859,-296.082377,-383.047749,11621.233289
1095.389189,-666.185348,459.657299,10436.903782
1095.389519,-1332.370696,76.609550,7698.141797
1095.389848,814.226536,-1072.533697,7550.100608
1095.390178,3552.988522,-1302.362347,9992.780217
1095.390507,3849.070898,995.924147,12287.418637
1095.390837,222.061783,2528.115143,12805.562797
1095.391166,-3552.988522,2528.115143,12435.459826
1095.391496,-4663.297435,536.266849,12509.480420
1095.391826,-3552.988522,-306.438199,13693.809927
1095.392155,-1776.494261,0.000000,13767.830521
1095.392485,-888.247130,-612.876398,12213.398043
1095.392814,-1554.432478,-306.438199,8808.450710
1095.393144,-814.226536,-153.219100,7105.977043
1095.393474,296.082377,0.000000,7698.141797
1095.393803,1628.453072,1302.362347,9178.553681
1095.394133,1406.391290,3753.867940,9918.759623
1095.394462,-1258.350101,4213.525239,9770.718434
1095.394792,-3108.864956,3064.381992,8438.347739
1095.395122,-3552.988522,306.438199,8364.327145
1095.395451,-2738.761985,0.000000,10066.800811
1095.395781,-2368.659014,2068.457845,10066.800811
1095.396110,-3034.844362,3294.210641,8734.430116
1095.396440,-2812.782580,2068.457845,6661.853478
1095.396770,-1998.556043,153.219100,4737.318029
1095.397099,-148.041188,153.219100,4663.297435
1095.397429,1628.453072,1225.752797,6513.812290
1095.397759,1406.391290,2987.772442,8364.327145
1095.398088,-1924.535449,3907.087040,8882.471304
1095.398418,-3997.112087,3370.820191,8956.491898
1095.398747,-3849.070898,842.705048,9770.718434
1095.399077,-2368.659014,-153.219100,11029.068536
1095.399407,-1110.308913,306.438199,11547.212695
1095.399736,-666.185348,459.657299,10436.903782
1095.400066,-1406.391290,306.438199,8956.491898
1095.400395,-666.185348,919.314598,7402.059420
1095.400725,2220.617826,689.485948,7994.224174
1095.401055,4737.318029,1762.019645,9104.533087
1095.401384,3182.885551,2221.676944,9918.759623
1095.401714,0.000000,3524.039291,10362.883188
1095.402043,-3182.885551,1991.848295,10732.986159
1095.402373,-3404.947333,-842.705048,12139.377449
1095.402703,-2368.659014,-536.266849,13545.768739
1095.403032,-2220.617826,-229.828649,13619.789333
1095.403362,-2960.823768,-1302.362347,11251.130318
1095.403692,-3108.864956,-1838.629195,8586.388927
1095.404021,-962.267725,-2068.457845,9030.512492
1095.404351,814.226536,306.438199,10881.027347
1095.404680,1776.494261,2604.724693,11917.315666
1095.405010,222.061783,3600.648841,11843.295072
1095.405340,-1924.535449,3064.381992,10214.842000
1095.405669,-2886.803174,1685.410096,9252.574275
1095.405999,-2442.679609,919.314598,9548.656652
1095.406328,-1110.308913,76.609550,10584.944971
1095.406658,-1036.288319,536.266849,10658.965565
1095.406988,-2590.720797,1991.848295,8808.450710
1095.407317,-3404.947333,689.485948,5329.482782
1095.407647,-1036.288319,-2221.676944,4441.235652
1095.407976,1332.370696,-2604.724693,6069.688724
1095.408306,1110.308913,1915.238745,8956.491898
1095.408636,-2072.576638,3677.258390,9548.656652
1095.408965,-4737.318029,2681.334243,7994.224174
1095.409295,-4737.318029,766.095498,7328.038826
1095.409625,-3182.885551,-842.705048,8808.450710
1095.409954,-1184.329507,-1532.190996,9918.759623
1095.410284,-814.226536,-383.047749,9696.697840
1095.410613,-2442.679609,-383.047749,7550.100608
1095.410943,-2590.720797,-536.266849,6365.771101
1095.411273,-296.082377,-1455.581446,8216.285956
1095.411602,2664.741391,0.000000,11473.192101
1095.411932,2146.597232,2068.457845,12731.542202
1095.412261,-370.102971,1838.629195,11917.315666
1095.412591,-1924.535449,0.000000,11399.171507
1095.412921,-2368.659014,-842.705048,12139.377449
1095.413250,-1332.370696,-306.438199,13915.871710
1095.413580,444.123565,1378.971896,13915.871710
1095.413909,0.000000,229.828649,11325.150913
1095.414239,-592.164754,-153.219100,8512.368333
1095.414569,222.061783,-1455.581446,7772.162391
1095.414898,2442.679609,-766.095498,9992.780217
1095.415228,3552.988522,2911.162892,10658.965565
1095.415558,1998.556043,4136.915689,10436.903782
1095.415887,-592.164754,3447.429741,10140.821405
1095.416217,-3330.926739,2834.553343,10066.800811
1095.416546,-4367.215058,2298.286494,10658.965565
1095.416876,-3552.988522,2374.896044,11103.089130
1095.417206,-3256.906145,1149.143247,10214.842000
1095.417535,-4219.173869,1608.800546,8290.306550
1095.417865,-4145.153275,383.047749,5921.647536
1095.418194,-2664.741391,-1149.143247,4071.132681
1095.418524,-740.205942,306.438199,4145.153275
1095.418854,444.123565,1991.848295,6809.894666
1095.419183,-740.205942,4213.525239,9548.656652
1095.419513,-3775.050304,4673.182538,9770.718434
1095.419842,-4663.297435,3140.991542,8808.450710
1095.420172,-3330.926739,919.314598,8290.306550
1095.420502,-1406.391290,0.000000,9104.533087
1095.420831,-444.123565,229.828649,9474.636058
1095.421161,-1110.308913,536.266849,9030.512492
1095.421491,-1406.391290,612.876398,7328.038826
1095.421820,-592.164754,1072.533697,7105.977043
1095.422150,2294.638420,995.924147,8068.244768
1095.422479,4145.153275,612.876398,9622.677246
1095.422809,3108.864956,536.266849,10140.821405
1095.423139,444.123565,1072.533697,10881.027347
1095.423468,-2072.576638,1302.362347,11843.295072
1095.423798,-2812.782580,842.705048,13101.645173
1095.424127,-2368.659014,919.314598,14582.057057
1095.424457,-2294.638420,76.609550,13915.871710
1095.424787,-2516.700203,-1225.752797,10658.965565
1095.425116,-2146.597232,-2757.943793,7772.162391
1095.425446,-740.205942,-2987.772442,8068.244768
1095.425775,962.267725,-842.705048,10214.842000
1095.426105,1628.453072,1532.190996,12065.356855
1095.426435,-148.041188,2987.772442,12361.439231
1095.426764,-2886.803174,3217.601092,11251.130318
1095.427094,-3701.029710,1685.410096,10362.883188
1095.427424,-2368.659014,306.438199,10807.006753
1095.427753,-592.164754,536.266849,11251.130318
1095.428083,-962.267725,306.438199,10362.883188
1095.428412,-2294.638420,306.438199,8290.306550
1095.428742,-2590.720797,-689.485948,6439.791695
1095.429072,-1554.432478,-689.485948,5995.668130
1095.429401,296.082377,536.266849,7254.018232
1095.429731,1036.288319,2757.943793,8808.450710
1095.430060,-148.041188,4213.525239,7846.182985
1095.430390,-1924.535449,3830.477490,5995.668130
1095.430720,-1332.370696,459.657299,5847.626942
1095.431049,-148.041188,612.876398,7402.059420
1095.431379,-814.226536,2298.286494,9252.574275
1095.431708,-2812.782580,2451.505594,8808.450710
1095.432038,-4737.318029,0.000000,6439.791695
1095.432368,-3775.050304,-2451.505594,6069.688724
1095.432697,-962.267725,-3524.039291,8290.306550
1095.433027,814.226536,-1378.971896,10510.924376
1095.433357,222.061783,842.705048,10214.842000
1095.433686,-1332.370696,459.657299,10214.842000
1095.434016,-2220.617826,766.095498,12435.459826
1095.434345,-2146.597232,2451.505594,14434.015869
1095.434675,-1258.350101,3524.039291,14508.036463
1095.435005,592.164754,1072.533697,13175.665768
1095.435334,-148.041188,383.047749,11177.109724
1095.435664,-740.205942,0.000000,9474.636058
1095.435993,222.061783,-1762.019645,8956.491898
1095.436323,1628.453072,-1762.019645,9844.739029
1095.436653,2516.700203,995.924147,11991.336260
1095.436982,740.205942,2834.553343,13471.748144
1095.437312,-1480.411884,2451.505594,11695.253884
1095.437641,-2960.823768,1225.752797,9178.553681
1095.437971,-2072.576638,1072.533697,9548.656652
1095.438301,-592.164754,2987.772442,11251.130318
1095.438630,-444.123565,4060.306139,11325.150913
1095.438960,-2368.659014,2911.162892,8660.409521
1095.439290,-3478.967927,1225.752797,4663.297435
1095.439619,-2590.720797,-1149.143247,4219.173869
1095.439949,0.000000,-612.876398,5921.647536
1095.440278,0.000000,1838.629195,8216.285956
1095.440608,-2442.679609,2987.772442,8068.244768
1095.440938,-4515.256246,3064.381992,7328.038826
1095.441267,-4441.235652,1685.410096,7920.203579
1095.441597,-2590.720797,1532.190996,9400.615463
1095.441926,-814.226536,1915.238745,9548.656652
1095.442256,-592.164754,1685.410096,8734.430116
1095.442586,-1332.370696,612.876398,6883.915261
1095.442915,-2220.617826,-153.219100,5847.626942
1095.443245,-888.247130,0.000000,6587.832884
1095.443574,1924.535449,612.876398,8438.347739
1095.443904,2960.823768,919.314598,10510.924376
1095.444234,1776.494261,1838.629195,11251.130318
1095.444563,-518.144159,1302.362347,10807.006753
1095.444893,-1554.432478,-153.219100,10436.903782
1095.445223,-1406.391290,153.219100,11917.315666
1095.445552,148.041188,1302.362347,14063.912898
1095.445882,-444.123565,1762.019645,13767.830521
1095.446211,-1924.535449,1455.581446,10362.883188
1095.446541,-1998.556043,-536.266849,7550.100608
1095.446871,222.061783,-2834.553343,7920.203579
1095.447200,2072.576638,-995.924147,11251.130318
1095.447530,1554.432478,1225.752797,13101.645173
1095.447859,-1480.411884,1072.533697,11843.295072
1095.448189,-4441.235652,1072.533697,10436.903782
1095.448519,-4589.276840,919.314598,11843.295072
1095.448848,-1998.556043,1302.362347,13767.830521
1095.449178,-888.247130,2298.286494,13397.727550
1095.449507,-1258.350101,1762.019645,10510.924376
1095.449837,-1998.556043,0.000000,7105.977043
1095.450167,-1480.411884,-612.876398,5107.421000
1095.450496,-222.061783,76.609550,6069.688724
1095.450826,1406.391290,1685.410096,7179.997637
1095.451155,518.144159,2528.115143,7994.224174
1095.451485,-1628.453072,3524.039291,8290.306550
1095.451815,-2442.679609,3983.696590,7994.224174
1095.452144,-1702.473667,1455.581446,7550.100608
1095.452474,0.000000,689.485948,7550.100608
1095.452804,296.082377,1072.533697,7846.182985
1095.453133,-1036.288319,1685.410096,8660.409521
1095.453463,-2812.782580,1532.190996,7624.121203
1095.453792,-3478.967927,1608.800546,6365.771101
1095.454122,-1406.391290,459.657299,6439.791695
1095.454452,814.226536,76.609550,8142.265362
1095.454781,740.205942,383.047749,9622.677246
1095.455111,-592.164754,689.485948,10214.842000
1095.455440,-2738.761985,1302.362347,9400.615463
1095.455770,-3182.885551,1455.581446,10658.965565
1095.456100,-1702.473667,1685.410096,13693.809927
1095.456429,-1184.329507,2068.457845,15322.262999
1095.456759,-2368.659014,2145.067394,13545.768739
1095.457088,-2442.679609,1302.362347,9622.677246
1095.457418,0.000000,-1302.362347,7772.162391
1095.457748,2368.659014,-2528.115143,9400.615463
1095.458077,3182.885551,-459.657299,11547.212695
1095.458407,1258.350101,1685.410096,12657.521608
1095.458737,-1406.391290,3370.820191,11473.192101
1095.459066,-2516.700203,2374.896044,10658.965565
1095.459396,-1110.308913,1685.410096,11621.233289
1095.459725,1036.288319,1838.629195,12509.480420
1095.460055,814.226536,2528.115143,10214.842000
1095.460385,0.000000,2068.457845,7254.018232
1095.460714,-444.123565,306.438199,5403.503377
1095.461044,-740.205942,0.000000,5773.606348
1095.461373,0.000000,1608.800546,8068.244768
1095.461703,-444.123565,2145.067394,9252.574275
1095.462033,-2738.761985,2528.115143,7772.162391
1095.462362,-3775.050304,1302.362347,6513.812290
1095.462692,-3478.967927,-2145.067394,6735.874072
1095.463021,-2368.659014,-1532.190996,7846.182985
1095.463351,-1480.411884,-229.828649,8734.430116
1095.463681,-2072.576638,1072.533697,9844.739029
1095.464010,-3997.112087,1915.238745,8734.430116
1095.464340,-4441.235652,76.609550,7846.182985
1095.464670,-1628.453072,-1915.238745,7402.059420
1095.464999,1776.494261,-1838.629195,8068.244768
1095.465329,2590.720797,-459.657299,9252.574275
1095.465658,1258.350101,0.000000,10362.883188
1095.465988,-962.267725,-306.438199,10066.800811
1095.466318,-1776.494261,-919.314598,11251.130318
1095.466647,-814.226536,-612.876398,12583.501014
1095.466977,370.102971,-995.924147,12287.418637
1095.467306,592.164754,-2757.943793,11103.089130
1095.467636,0.000000,-4596.572988,9844.739029
1095.467966,-1258.350101,-5056.230287,8142.265362
1095.468295,-148.041188,-4060.306139,9696.697840
1095.468625,1036.288319,-2221.676944,12509.480420
1095.468954,666.185348,229.828649,14137.933492
1095.469284,-1776.494261,1149.143247,13693.809927
1095.469614,-2516.700203,0.000000,11917.315666
1095.469943,-2368.659014,-1302.362347,11103.089130
1095.470273,-1924.535449,-995.924147,10732.986159
1095.470603,-1332.370696,-1685.410096,10066.800811
1095.470932,-1258.350101,-3370.820191,8808.450710
1095.471262,-2146.597232,-4903.011187,7698.141797
1095.471591,-2960.823768,-5132.839837,6587.832884
1095.471921,-2368.659014,-3830.477490,6735.874072
1095.472251,0.000000,-3753.867940,7772.162391
1095.472580,1702.473667,-3447.429741,8734.430116
1095.472910,1036.288319,-1378.971896,10510.924376
1095.473239,-148.041188,1072.533697,11103.089130
1095.473569,-1332.370696,3294.210641,11843.295072
1095.473899,-1998.556043,4673.182538,11473.192101
1095.474228,-962.267725,3600.648841,9548.656652
1095.474558,814.226536,-995.924147,7994.224174
1095.474887,1776.494261,-3753.867940,5625.565159
1095.475217,1036.288319,-4366.744339,2664.741391
1095.475547,148.041188,-5362.668486,2812.782580
1095.475876,148.041188,-4903.011187,5477.523971
1095.476206,-962.267725,-2145.067394,8290.306550
1095.476536,-1850.514855,-919.314598,10584.944971
1095.476865,-2590.720797,-919.314598,11917.315666
1095.477195,-3108.864956,-536.266849,12731.542202
1095.477524,-3256.906145,-153.219100,13619.789333
1095.477854,-3923.091493,-766.095498,13989.892304
1095.478184,-4663.297435,-689.485948,12139.377449
1095.478513,-4219.173869,-1838.629195,9770.718434
1095.478843,-2146.597232,-4519.963438,8216.285956
1095.479172,0.000000,-5822.325785,7920.203579
1095.479502,1110.308913,-4903.011187,7698.141797
1095.479832,1702.473667,-4519.963438,7698.141797
1095.480161,1924.535449,-4673.182538,8364.327145
1095.480491,1480.411884,-2987.772442,11251.130318
1095.480820,1036.288319,-459.657299,15026.180623
1095.481150,666.185348,689.485948,16802.674883
1095.481480,0.000000,1532.190996,16580.613101
1095.481809,-1258.350101,1378.971896,14804.118840
1095.482139,-2442.679609,229.828649,12731.542202
1095.482469,-2812.782580,-2221.676944,9696.697840
1095.482798,-2294.638420,-4213.525239,6587.832884
1095.483128,0.000000,-5286.058936,3923.091493
1095.483457,1184.329507,-5286.058936,2368.659014
1095.483787,1702.473667,-6511.811733,2220.617826
1095.484117,1628.453072,-5515.887586,4145.153275
1095.484446,666.185348,-2068.457845,7772.162391
1095.484776,-370.102971,2298.286494,12583.501014
1095.485105,-2516.700203,4826.401637,14878.139434
1095.485435,-4441.235652,4519.963438,14434.015869
1095.485765,-4737.318029,2451.505594,13323.706956
1095.486094,-3478.967927,-383.047749,12287.418637
1095.486424,-2516.700203,-2528.115143,10436.903782
1095.486753,-1850.514855,-2451.505594,7179.997637
1095.487083,-1776.494261,-3294.210641,4441.235652
1095.487413,-1480.411884,-4290.134789,3997.112087
1095.487742,-518.144159,-4903.011187,4441.235652
1095.488072,74.020594,-3524.039291,3849.070898
1095.488402,2146.597232,-2528.115143,4515.256246
1095.488731,4071.132681,-2221.676944,7328.038826
1095.489061,3108.864956,-995.924147,10584.944971
1095.489390,1184.329507,766.095498,13989.892304
1095.489720,-518.144159,1608.800546,16136.489536
1095.490050,-2516.700203,2528.115143,17172.777854
1095.490379,-4071.132681,2451.505594,17024.736666
1095.490709,-4071.132681,-306.438199,14582.057057
1095.491038,-3108.864956,-4213.525239,10214.842000
1095.491368,-1628.453072,-6435.202183,5477.523971
1095.491698,148.041188,-7354.516781,3849.070898
1095.492027,1480.411884,-6971.469032,4811.338623
1095.492357,1184.329507,-4213.525239,6957.935855
1095.492686,-222.061783,-1608.800546,9104.533087
1095.493016,-1776.494261,76.609550,10510.924376
1095.493346,-1998.556043,0.000000,12805.562797
1095.493675,-1850.514855,-229.828649,14211.954086
1095.494005,-2886.803174,-383.047749,13471.748144
1095.494334,-2812.782580,-2451.505594,11325.150913
1095.494664,-2516.700203,-5132.839837,9474.636058
1095.494994,-1332.370696,-6358.592633,9104.533087
1095.495323,-1332.370696,-5822.325785,9104.533087
1095.495653,-1184.329507,-3830.477490,7624.121203
1095.495982,0.000000,-3140.991542,6735.874072
1095.496312,1258.350101,-2757.943793,6809.894666
1095.496641,1628.453072,-2451.505594,8290.306550
1095.496971,148.041188,-1149.143247,9770.718434
1095.497301,-1554.432478,842.705048,11029.068536
1095.497630,-2516.700203,1455.581446,10881.027347
1095.497960,-1924.535449,-383.047749,10807.006753
1095.498289,-592.164754,-2987.772442,9696.697840
1095.498619,444.123565,-5745.716235,7994.224174
1095.498949,962.267725,-5898.935335,7105.977043
1095.499278,666.185348,-4903.011187,7105.977043
1095.499608,222.061783,-4290.134789,7624.121203
1095.499937,-814.226536,-3217.601092,9326.594869
1095.500267,-2146.597232,-1762.019645,11473.192101
1095.500597,-2220.617826,459.657299,13249.686362
1095.500926,-1776.494261,1455.581446,13471.748144
1095.501256,-2146.597232,1455.581446,11695.253884
1095.501585,-1924.535449,-383.047749,10436.903782
1095.501915,-1258.350101,-1685.410096,10214.842000
1095.502245,-592.164754,-2528.115143,10066.800811
1095.502574,-296.082377,-2834.553343,8290.306550
1095.502904,-962.267725,-3447.429741,7031.956449
1095.503233,-1480.411884,-4519.963438,7550.100608
1095.503563,-1924.535449,-3753.867940,9474.636058
1095.503893,-2220.617826,-2451.505594,10362.883188
1095.504222,-2146.597232,-995.924147,10732.986159
1095.504552,-1184.329507,76.609550,11473.192101
1095.504881,-592.164754,0.000000,12435.459826
1095.505211,0.000000,153.219100,13101.645173
1095.505541,-444.123565,1608.800546,11473.192101
1095.505870,-370.102971,3294.210641,8882.471304
1095.506200,666.185348,1915.238745,6735.874072
1095.506529,1924.535449,-2068.457845,5329.482782
1095.506859,2442.679609,-4749.792088,4663.297435
1095.507188,1332.370696,-5745.716235,4811.338623
1095.507518,-1184.329507,-4903.011187,6809.894666
1095.507848,-3775.050304,-3140.991542,9474.636058
1095.508177,-5329.482782,-2451.505594,12065.356855
1095.508507,-5181.441594,-1455.581446,13989.892304
1095.508836,-4367.215058,-536.266849,14434.015869
1095.509166,-3182.885551,536.266849,13175.665768
1095.509496,-2146.597232,383.047749,10732.986159
1095.509825,-962.267725,-766.095498,8512.368333
1095.510155,444.123565,-1149.143247,6809.894666
1095.510484,1628.453072,-1532.190996,6957.935855
1095.510814,1480.411884,-1608.800546,6587.832884
1095.511144,518.144159,-3217.601092,5847.626942
1095.511473,-370.102971,-5822.325785,5921.647536
1095.511803,-1480.411884,-6052.154434,8216.285956
1095.512132,-1480.411884,-6052.154434,11177.109724
1095.512462,-1332.370696,-4749.792088,12953.603985
1095.512792,-1702.473667,-3140.991542,13397.727550
1095.513121,-1702.473667,-2298.286494,13767.830521
1095.513451,-1406.391290,-919.314598,13767.830521
1095.513780,-666.185348,-1149.143247,13027.624579
1095.514110,-222.061783,-842.705048,11473.192101
1095.514440,-370.102971,-612.876398,9918.759623
1095.514769,-1184.329507,-1838.629195,8808.450710
1095.515099,-1702.473667,-3677.258390,7698.141797
1095.515428,-2294.638420,-5898.935335,6957.935855
1095.515758,-2886.803174,-5132.839837,6883.915261
1095.516088,-2886.803174,-4519.963438,8068.244768
1095.516417,-2294.638420,-4290.134789,8882.471304
1095.516747,-888.247130,-5132.839837,8882.471304
1095.517076,370.102971,-5362.668486,8734.430116
1095.517406,518.144159,-3907.087040,9992.780217
1095.517736,0.000000,-1532.190996,11769.274478
1095.518065,-1184.329507,0.000000,12213.398043
1095.518395,-1850.514855,-842.705048,11991.336260
1095.518724,-1998.556043,-1608.800546,11177.109724
1095.519054,-2072.576638,-2221.676944,10584.944971
1095.519383,-1554.432478,-2298.286494,9474.636058
1095.519713,-1332.370696,-2298.286494,8290.306550
1095.520043,-666.185348,-1838.629195,7328.038826
1095.520372,-370.102971,-766.095498,7624.121203
1095.520702,0.000000,-306.438199,7624.121203
1095.521031,-296.082377,1225.752797,8438.347739
1095.521361,-740.205942,842.705048,8882.471304
1095.521691,-1110.308913,-383.047749,9474.636058
1095.522020,-2590.720797,-1378.971896,9992.780217
1095.522350,-3775.050304,-1378.971896,11991.336260
1095.522679,-5403.503377,-1072.533697,12361.439231
1095.523009,-5995.668130,-612.876398,11991.336260
1095.523339,-6217.729913,-459.657299,11103.089130
1095.523668,-5625.565159,-612.876398,9844.739029
1095.523998,-4071.132681,76.609550,8882.471304
1095.524327,-2368.659014,842.705048,7624.121203
1095.524657,-666.185348,1915.238745,7105.977043
1095.524987,0.000000,2068.457845,6809.894666
1095.525316,-370.102971,2145.067394,7105.977043
1095.525646,-1184.329507,1608.800546,8290.306550
1095.525975,-2516.700203,1302.362347,9622.677246
1095.526305,-3849.070898,766.095498,10658.965565
