#time,accel_x,accel_y,accel_z
873.698768,-1036.288319,612.876398,9474.636058
873.699098,-1110.308913,995.924147,9400.615463
873.699427,-1036.288319,995.924147,9548.656652
873.699756,-1184.329507,1149.143247,9400.615463
873.700086,-1036.288319,1072.533697,9548.656652
873.700415,-1110.308913,919.314598,9696.697840
873.700744,-962.267725,689.485948,9548.656652
873.701074,-888.247130,1072.533697,9622.677246
873.701403,-814.226536,1225.752797,9474.636058
873.701732,-1110.308913,995.924147,9548.656652
873.702062,-1036.288319,842.705048,9474.636058
873.702391,-1036.288319,612.876398,9548.656652
873.702720,-962.267725,842.705048,9622.677246
873.703050,-1036.288319,1225.752797,9474.636058
873.703379,-740.205942,383.047749,9326.594869
873.703708,-962.267725,536.266849,9696.697840
873.704038,-1184.329507,1072.533697,9474.636058
873.704367,-1110.308913,842.705048,9696.697840
873.704696,-1110.308913,1378.971896,9622.677246
873.705026,-814.226536,1225.752797,9400.615463
873.705355,-1110.308913,842.705048,9548.656652
873.705684,-962.267725,919.314598,9992.780217
873.706013,-962.267725,842.705048,9474.636058
873.706343,-1184.329507,612.876398,9326.594869
873.706672,-814.226536,1072.533697,9400.615463
873.707001,-962.267725,1072.533697,9622.677246
873.707331,-1036.288319,689.485948,9474.636058
873.707660,-888.247130,919.314598,9474.636058
873.707989,-814.226536,842.705048,9474.636058
873.708319,-1110.308913,1149.143247,9400.615463
873.708648,-1480.411884,1225.752797,9178.553681
873.708977,-1036.288319,919.314598,9696.697840
873.709307,-1110.308913,919.314598,9474.636058
873.709636,-962.267725,919.314598,9474.636058
873.709965,-962.267725,689.485948,9252.574275
873.710295,-1110.308913,1378.971896,9992.780217
873.710624,-740.205942,766.095498,9696.697840
873.710953,-962.267725,995.924147,9474.636058
873.711283,-1184.329507,842.705048,9326.594869
873.711612,-1110.308913,1072.533697,9474.636058
873.711941,-1036.288319,995.924147,9474.636058
873.712271,-1184.329507,766.095498,9326.594869
873.712600,-1110.308913,995.924147,9770.718434
873.712929,-1332.370696,1072.533697,9622.677246
873.713259,-962.267725,919.314598,9548.656652
873.713588,-740.205942,1072.533697,9696.697840
873.713917,-740.205942,689.485948,9770.718434
873.714247,-962.267725,842.705048,9474.636058
873.714576,-888.247130,1072.533697,9474.636058
873.714905,-888.247130,919.314598,9622.677246
873.715235,-1110.308913,842.705048,9326.594869
873.715564,-962.267725,612.876398,9178.553681
873.715893,-1110.308913,995.924147,9474.636058
873.716223,-962.267725,766.095498,9622.677246
873.716552,-962.267725,842.705048,9326.594869
873.716881,-1110.308913,1149.143247,9696.697840
873.717211,-888.247130,1225.752797,9548.656652
873.717540,-1036.288319,1149.143247,9400.615463
873.717869,-1036.288319,842.705048,9474.636058
873.718199,-962.267725,689.485948,9622.677246
873.718528,-1036.288319,1149.143247,9474.636058
873.718857,-1332.370696,995.924147,9104.533087
873.719187,-740.205942,919.314598,9622.677246
873.719516,-1110.308913,919.314598,9622.677246
873.719845,-1110.308913,842.705048,9474.636058
873.720175,-962.267725,919.314598,9400.615463
873.720504,-1184.329507,1302.362347,9178.553681
873.720833,-1184.329507,383.047749,8882.471304
873.721163,-1184.329507,1149.143247,9474.636058
873.721492,-962.267725,1072.533697,9548.656652
873.721821,-962.267725,766.095498,9548.656652
873.722150,-1110.308913,919.314598,9474.636058
873.722480,-1036.288319,1072.533697,9326.594869
873.722809,-1258.350101,766.095498,9474.636058
873.723138,-1036.288319,612.876398,9770.718434
873.723468,-1036.288319,1072.533697,9474.636058
873.723797,-518.144159,1072.533697,9104.533087
873.724126,222.061783,842.705048,9178.553681
873.724456,1110.308913,459.657299,9178.553681
873.724785,962.267725,536.266849,9252.574275
873.725114,666.185348,536.266849,9474.636058
873.725444,222.061783,919.314598,9992.780217
873.725773,0.000000,1455.581446,10362.883188
873.726102,-518.144159,1225.752797,10881.027347
873.726432,-814.226536,612.876398,10288.862594
873.726761,-296.082377,153.219100,9770.718434
873.727090,592.164754,0.000000,9326.594869
873.727420,1406.391290,0.000000,9104.533087
873.727749,2442.679609,612.876398,8882.471304
873.728078,3256.906145,689.485948,8586.388927
873.728408,3627.009116,1378.971896,8882.471304
873.728737,3627.009116,1838.629195,9178.553681
873.729066,3552.988522,1838.629195,9622.677246
873.729396,3108.864956,1762.019645,9918.759623
873.729725,2072.576638,689.485948,10066.800811
873.730054,1554.432478,919.314598,10807.006753
873.730384,1036.288319,229.828649,10807.006753
873.730713,1406.391290,0.000000,10510.924376
873.731042,1924.535449,229.828649,9770.718434
873.731372,2886.803174,0.000000,9030.512492
873.731701,3849.070898,-306.438199,8956.491898
873.732030,4663.297435,1072.533697,9252.574275
873.732360,4441.235652,2374.896044,9326.594869
873.732689,3923.091493,2604.724693,9992.780217
873.733018,2368.659014,3294.210641,10066.800811
873.733348,666.185348,3524.039291,10658.965565
873.733677,-1110.308913,2604.724693,10214.842000
873.734006,-2220.617826,1378.971896,9252.574275
873.734336,-1480.411884,0.000000,8216.285956
873.734665,148.041188,-995.924147,7402.059420
873.734994,1480.411884,-1378.971896,6587.832884
873.735324,2738.761985,-766.095498,6587.832884
873.735653,3849.070898,306.438199,7328.038826
873.735982,4071.132681,2068.457845,8808.450710
873.736312,2664.741391,3677.258390,10066.800811
873.736641,1850.514855,4366.744339,11917.315666
873.736970,666.185348,3370.820191,12583.501014
873.737299,-666.185348,2451.505594,12509.480420
873.737629,-1406.391290,153.219100,12213.398043
873.737958,-1702.473667,-1608.800546,11547.212695
873.738287,-1332.370696,-2145.067394,10066.800811
873.738617,-370.102971,-2451.505594,8956.491898
873.738946,962.267725,-2145.067394,8068.244768
873.739275,2812.782580,-919.314598,7550.100608
873.739605,3923.091493,689.485948,7105.977043
873.739934,4293.194464,2451.505594,7328.038826
873.740263,3552.988522,3064.381992,8068.244768
873.740593,3256.906145,4213.525239,9474.636058
873.740922,2220.617826,4060.306139,10584.944971
873.741251,1184.329507,3140.991542,10732.986159
873.741581,-148.041188,1915.238745,11029.068536
873.741910,-1110.308913,-612.876398,10807.006753
873.742239,-2442.679609,-919.314598,11103.089130
873.742569,-3775.050304,-459.657299,11029.068536
873.742898,-3849.070898,-612.876398,10510.924376
873.743227,-2664.741391,-919.314598,9918.759623
873.743557,-1036.288319,-383.047749,9030.512492
873.743886,0.000000,0.000000,7920.203579
873.744215,1776.494261,76.609550,7772.162391
873.744545,2516.700203,842.705048,7624.121203
873.744874,2812.782580,1378.971896,8290.306550
873.745203,3182.885551,1532.190996,9400.615463
873.745533,2220.617826,1838.629195,9844.739029
873.745862,1332.370696,1149.143247,10732.986159
873.746191,148.041188,1532.190996,11177.109724
873.746521,-592.164754,1762.019645,11695.253884
873.746850,-1480.411884,1608.800546,11029.068536
873.747179,-1924.535449,995.924147,10436.903782
873.747509,-1776.494261,1302.362347,9474.636058
873.747838,-962.267725,1225.752797,7994.224174
873.748167,222.061783,689.485948,6661.853478
873.748497,666.185348,306.438199,6217.729913
873.748826,296.082377,995.924147,6957.935855
873.749155,-1110.308913,1762.019645,8216.285956
873.749485,-2368.659014,2221.676944,9622.677246
873.749814,-4145.153275,2068.457845,11103.089130
873.750143,-5329.482782,1532.190996,11473.192101
873.750473,-5477.523971,766.095498,11177.109724
873.750802,-4293.194464,-919.314598,10807.006753
873.751131,-3108.864956,-919.314598,10140.821405
873.751461,-740.205942,-995.924147,9474.636058
873.751790,666.185348,-1225.752797,8956.491898
873.752119,2220.617826,-229.828649,9030.512492
873.752449,3034.844362,1915.238745,9918.759623
873.752778,2886.803174,2911.162892,10288.862594
873.753107,2072.576638,3907.087040,10881.027347
873.753436,1258.350101,4290.134789,11251.130318
873.753766,592.164754,4213.525239,10881.027347
873.754095,0.000000,2987.772442,10066.800811
873.754424,0.000000,919.314598,9030.512492
873.754754,-518.144159,0.000000,8438.347739
873.755083,-1850.514855,-766.095498,7772.162391
873.755412,-2220.617826,-689.485948,8216.285956
873.755742,-1702.473667,0.000000,8808.450710
873.756071,-1924.535449,842.705048,9104.533087
873.756400,-2516.700203,1608.800546,8734.430116
873.756730,-2812.782580,1685.410096,9030.512492
873.757059,-2886.803174,1915.238745,9178.553681
873.757388,-2960.823768,1991.848295,9918.759623
873.757718,-2886.803174,1838.629195,9992.780217
873.758047,-2590.720797,1149.143247,9844.739029
873.758376,-2294.638420,0.000000,9622.677246
873.758706,-1924.535449,-766.095498,9326.594869
873.759035,-1332.370696,-612.876398,8956.491898
873.759364,-592.164754,383.047749,8438.347739
873.759694,222.061783,842.705048,8734.430116
873.760023,1110.308913,1455.581446,8586.388927
873.760352,1998.556043,2298.286494,9030.512492
873.760682,2294.638420,2145.067394,9326.594869
873.761011,1850.514855,2681.334243,9030.512492
873.761340,222.061783,2451.505594,9622.677246
873.761670,-962.267725,1378.971896,10436.903782
873.761999,-1924.535449,612.876398,11029.068536
873.762328,-3182.885551,-306.438199,10955.047942
873.762658,-4145.153275,-1225.752797,10658.965565
873.762987,-4737.318029,-1455.581446,10362.883188
873.763316,-3849.070898,-1378.971896,10066.800811
873.763646,-3034.844362,-1225.752797,9918.759623
873.763975,-2294.638420,-536.266849,9770.718434
873.764304,-1258.350101,459.657299,9474.636058
873.764634,-592.164754,459.657299,9474.636058
873.764963,-296.082377,1302.362347,9548.656652
873.765292,-592.164754,1838.629195,9770.718434
873.765622,-666.185348,1685.410096,10214.842000
873.765951,-740.205942,1149.143247,10214.842000
873.766280,-592.164754,1072.533697,9844.739029
873.766610,222.061783,459.657299,9548.656652
873.766939,1036.288319,0.000000,9548.656652
873.767268,1184.329507,459.657299,9030.512492
873.767598,1406.391290,1608.800546,8660.409521
873.767927,2368.659014,2068.457845,9104.533087
873.768256,2368.659014,2604.724693,9030.512492
873.768585,1332.370696,2911.162892,9252.574275
873.768915,370.102971,2834.553343,8660.409521
873.769244,-592.164754,2068.457845,8290.306550
873.769573,-1184.329507,1149.143247,8586.388927
873.769903,-1554.432478,-306.438199,9178.553681
873.770232,-2294.638420,-842.705048,9400.615463
873.770561,-3182.885551,-689.485948,9252.574275
873.770891,-3627.009116,-766.095498,9326.594869
873.771220,-3330.926739,76.609550,8956.491898
873.771549,-2590.720797,153.219100,9252.574275
873.771879,-1776.494261,766.095498,9252.574275
873.772208,-888.247130,1378.971896,9252.574275
873.772537,-222.061783,1915.238745,9326.594869
873.772867,370.102971,2068.457845,9548.656652
873.773197,518.144159,2681.334243,9622.677246
873.773526,148.041188,2298.286494,9104.533087
873.773856,0.000000,1838.629195,9326.594869
873.774185,444.123565,842.705048,9844.739029
873.774515,74.020594,383.047749,10955.047942
873.774844,-1776.494261,383.047749,11399.171507
873.775174,-3034.844362,383.047749,11325.150913
873.775503,-3404.947333,229.828649,11473.192101
873.775833,-2812.782580,0.000000,11103.089130
873.776162,-1628.453072,-766.095498,10436.903782
873.776492,-740.205942,-1072.533697,9400.615463
873.776822,-296.082377,-153.219100,8956.491898
873.777151,-370.102971,0.000000,9104.533087
873.777481,-888.247130,612.876398,9622.677246
873.777810,-1628.453072,842.705048,9548.656652
873.778140,-1998.556043,1378.971896,9696.697840
873.778469,-1332.370696,1072.533697,9918.759623
873.778799,-444.123565,689.485948,9252.574275
873.779128,0.000000,383.047749,8956.491898
873.779458,-222.061783,229.828649,8364.327145
873.779788,-518.144159,1455.581446,7920.203579
873.780117,518.144159,2068.457845,8808.450710
873.780447,1184.329507,1685.410096,9326.594869
873.780776,962.267725,1685.410096,9400.615463
873.781106,-296.082377,1915.238745,9696.697840
873.781435,-1110.308913,1838.629195,9992.780217
873.781765,-1406.391290,1455.581446,10140.821405
873.782094,-1110.308913,1455.581446,9474.636058
873.782424,-1554.432478,689.485948,9326.594869
873.782754,-1332.370696,-1302.362347,8586.388927
873.783083,-1110.308913,-1302.362347,8956.491898
873.783413,-814.226536,-1225.752797,9548.656652
873.783742,-666.185348,-229.828649,9770.718434
873.784072,-1406.391290,1532.190996,9622.677246
873.784401,-1406.391290,1915.238745,9918.759623
873.784731,-592.164754,2145.067394,9696.697840
873.785060,518.144159,1991.848295,9622.677246
873.785390,296.082377,2221.676944,9474.636058
873.785720,-1110.308913,2068.457845,9030.512492
873.786049,-2146.597232,1838.629195,9844.739029
873.786379,-2442.679609,1991.848295,10140.821405
873.786708,-2590.720797,919.314598,9918.759623
873.787038,-3404.947333,153.219100,9474.636058
873.787367,-3108.864956,-689.485948,9326.594869
873.787697,-2442.679609,-459.657299,9400.615463
873.788026,-1776.494261,-229.828649,9770.718434
873.788356,-962.267725,536.266849,10288.862594
873.788686,0.000000,1149.143247,10140.821405
873.789015,592.164754,1378.971896,9474.636058
873.789345,962.267725,1685.410096,9844.739029
873.789674,740.205942,1991.848295,9622.677246
873.790004,296.082377,1991.848295,9844.739029
873.790333,-444.123565,1685.410096,10214.842000
873.790663,-962.267725,1302.362347,9696.697840
873.790992,-1332.370696,1302.362347,9400.615463
873.791322,-740.205942,306.438199,9104.533087
873.791652,-740.205942,229.828649,8216.285956
873.791981,-962.267725,919.314598,7550.100608
873.792311,-296.082377,1149.143247,7772.162391
873.792640,666.185348,1608.800546,8956.491898
873.792970,0.000000,2145.067394,9178.553681
873.793299,-1628.453072,2374.896044,9548.656652
873.793629,-2960.823768,2221.676944,10140.821405
873.793958,-3478.967927,1149.143247,10436.903782
873.794288,-3627.009116,1302.362347,10881.027347
873.794618,-3256.906145,459.657299,10881.027347
873.794947,-2738.761985,-766.095498,9696.697840
873.795277,-1924.535449,-1378.971896,8956.491898
873.795606,-888.247130,-1302.362347,8808.450710
873.795936,-296.082377,0.000000,8882.471304
873.796265,-148.041188,766.095498,9030.512492
873.796595,518.144159,1762.019645,9548.656652
873.796924,740.205942,2528.115143,9696.697840
873.797254,1332.370696,2834.553343,9844.739029
873.797584,1554.432478,2451.505594,9400.615463
873.797913,1332.370696,1915.238745,8734.430116
873.798243,0.000000,1455.581446,9104.533087
873.798572,-962.267725,1072.533697,10362.883188
873.798902,-1628.453072,612.876398,11251.130318
873.799231,-2886.803174,383.047749,11325.150913
873.799561,-4071.132681,766.095498,10362.883188
873.799890,-4071.132681,76.609550,10510.924376
873.800220,-3182.885551,0.000000,9622.677246
873.800549,-2146.597232,0.000000,9548.656652
873.800879,-1480.411884,153.219100,8882.471304
873.801209,-888.247130,459.657299,8364.327145
873.801538,-592.164754,689.485948,8290.306550
873.801868,-888.247130,689.485948,8956.491898
873.802197,-1332.370696,1072.533697,9474.636058
873.802527,-1406.391290,1149.143247,10066.800811
873.802856,-1258.350101,1532.190996,10214.842000
873.803186,-296.082377,1838.629195,10288.862594
873.803515,518.144159,1225.752797,9622.677246
873.803845,1554.432478,919.314598,9326.594869
873.804175,1850.514855,1685.410096,8660.409521
873.804504,1998.556043,2145.067394,8808.450710
873.804834,2294.638420,2221.676944,8734.430116
873.805163,1998.556043,2374.896044,9474.636058
873.805493,666.185348,1608.800546,9622.677246
873.805822,-1110.308913,1838.629195,9548.656652
873.806152,-2146.597232,1378.971896,9474.636058
873.806481,-2516.700203,842.705048,9622.677246
873.806811,-2960.823768,-306.438199,9770.718434
873.807141,-3108.864956,-689.485948,9252.574275
873.807470,-2812.782580,-1072.533697,8956.491898
873.807800,-2664.741391,-1302.362347,9252.574275
873.808129,-2442.679609,0.000000,9252.574275
873.808459,-1998.556043,383.047749,9104.533087
873.808788,-1850.514855,459.657299,9474.636058
873.809118,-888.247130,1225.752797,9696.697840
873.809447,-148.041188,1532.190996,9918.759623
873.809777,592.164754,1608.800546,10288.862594
873.810107,296.082377,842.705048,9030.512492
873.810436,148.041188,1762.019645,8512.368333
873.810766,74.020594,1532.190996,9326.594869
873.811095,666.185348,1072.533697,10362.883188
873.811425,0.000000,766.095498,10881.027347
873.811754,-1480.411884,1455.581446,10881.027347
873.812084,-2368.659014,1072.533697,11251.130318
873.812413,-2664.741391,383.047749,10584.944971
873.812743,-2294.638420,0.000000,10436.903782
873.813073,-1924.535449,0.000000,9474.636058
873.813402,-1554.432478,-689.485948,8364.327145
873.813732,-1036.288319,-1072.533697,7994.224174
873.814061,-962.267725,-1149.143247,8364.327145
873.814391,-1924.535449,0.000000,8882.471304
873.814720,-2368.659014,689.485948,9696.697840
873.815050,-2516.700203,1302.362347,10510.924376
873.815379,-1998.556043,2298.286494,10140.821405
873.815709,-888.247130,1532.190996,9770.718434
873.816039,148.041188,1225.752797,9326.594869
873.816368,592.164754,1302.362347,8216.285956
873.816698,740.205942,1762.019645,7698.141797
873.817027,1110.308913,1838.629195,8216.285956
873.817357,962.267725,1685.410096,8956.491898
873.817686,296.082377,1532.190996,9696.697840
873.818016,-1332.370696,1762.019645,9992.780217
873.818345,-2294.638420,1532.190996,10066.800811
873.818675,-2146.597232,689.485948,9918.759623
873.819005,-1776.494261,689.485948,9696.697840
873.819334,-1702.473667,76.609550,9400.615463
873.819664,-1332.370696,-459.657299,9030.512492
873.819993,-1184.329507,-383.047749,9178.553681
873.820323,-1406.391290,0.000000,9326.594869
873.820652,-1702.473667,919.314598,9326.594869
873.820982,-1554.432478,1302.362347,9992.780217
873.821311,-1554.432478,1455.581446,10066.800811
873.821641,-1110.308913,1915.238745,10066.800811
873.821970,-888.247130,1991.848295,9622.677246
873.822300,-814.226536,2298.286494,8808.450710
873.822630,-962.267725,1225.752797,8142.265362
873.822959,-1184.329507,1302.362347,8882.471304
873.823289,-888.247130,1762.019645,9622.677246
873.823618,-1184.329507,1378.971896,10214.842000
873.823948,-2072.576638,1149.143247,10362.883188
873.824277,-2368.659014,1915.238745,10732.986159
873.824607,-2960.823768,689.485948,10510.924376
873.824936,-2812.782580,153.219100,10436.903782
873.825266,-2294.638420,689.485948,10214.842000
873.825596,-1480.411884,383.047749,9400.615463
873.825925,-518.144159,-229.828649,9030.512492
873.826255,0.000000,-383.047749,8586.388927
873.826584,0.000000,459.657299,8660.409521
873.826914,0.000000,1302.362347,9030.512492
873.827243,-222.061783,1455.581446,9696.697840
873.827573,-592.164754,2987.772442,10510.924376
873.827902,-444.123565,2604.724693,9918.759623
873.828232,0.000000,2068.457845,9770.718434
873.828562,74.020594,1532.190996,8808.450710
873.828891,0.000000,1149.143247,8512.368333
873.829221,0.000000,1455.581446,8882.471304
873.829550,0.000000,1149.143247,9474.636058
873.829880,-444.123565,1072.533697,9770.718434
873.830209,-1702.473667,1149.143247,9696.697840
873.830539,-2294.638420,1225.752797,9770.718434
873.830868,-2294.638420,995.924147,9474.636058
873.831198,-1776.494261,536.266849,9252.574275
873.831528,-1332.370696,766.095498,9326.594869
873.831857,-1110.308913,-536.266849,8882.471304
873.832187,-1184.329507,-459.657299,8882.471304
873.832516,-1480.411884,-153.219100,9326.594869
873.832846,-1702.473667,383.047749,9696.697840
873.833175,-1406.391290,995.924147,9918.759623
873.833505,-1406.391290,995.924147,10140.821405
873.833834,-814.226536,1455.581446,9992.780217
873.834164,74.020594,1225.752797,9770.718434
873.834494,518.144159,2068.457845,9400.615463
873.834823,666.185348,2298.286494,8956.491898
873.835153,148.041188,1685.410096,8660.409521
873.835482,-222.061783,2068.457845,9474.636058
873.835812,-740.205942,1532.190996,9918.759623
873.836141,-1850.514855,1302.362347,10362.883188
873.836471,-3182.885551,383.047749,9918.759623
873.836800,-4219.173869,459.657299,9844.739029
873.837130,-3997.112087,-229.828649,10214.842000
873.837460,-3627.009116,-459.657299,10658.965565
873.837789,-2960.823768,229.828649,9918.759623
873.838119,-1554.432478,-306.438199,9104.533087
873.838448,-740.205942,-229.828649,8956.491898
873.838778,-518.144159,383.047749,9178.553681
873.839107,-296.082377,1378.971896,9474.636058
873.839437,-444.123565,1991.848295,10140.821405
873.839766,-592.164754,2987.772442,10362.883188
873.840096,-370.102971,2834.553343,9770.718434
873.840426,296.082377,1915.238745,9696.697840
873.840755,962.267725,689.485948,9252.574275
873.841085,814.226536,536.266849,8068.244768
873.841414,518.144159,919.314598,8216.285956
873.841744,666.185348,1302.362347,9104.533087
873.842073,1258.350101,842.705048,9326.594869
873.842403,814.226536,1608.800546,9178.553681
873.842732,-148.041188,1991.848295,8808.450710
873.843062,-592.164754,2068.457845,8956.491898
873.843392,-962.267725,1378.971896,9326.594869
873.843721,-1628.453072,1532.190996,9696.697840
873.844051,-2368.659014,919.314598,9844.739029
873.844380,-2294.638420,-229.828649,9622.677246
873.844710,-2516.700203,-842.705048,9622.677246
873.845039,-2812.782580,0.000000,9474.636058
873.845369,-2664.741391,-689.485948,9474.636058
873.845698,-1776.494261,-153.219100,9474.636058
873.846028,-962.267725,459.657299,9474.636058
873.846357,-296.082377,1072.533697,9622.677246
873.846687,148.041188,1608.800546,10066.800811
873.847017,592.164754,1378.971896,9992.780217
873.847346,-222.061783,1685.410096,9696.697840
873.847676,-592.164754,1915.238745,10066.800811
873.848005,0.000000,1685.410096,10436.903782
873.848335,0.000000,842.705048,10066.800811
873.848664,-962.267725,459.657299,9622.677246
873.848994,-1628.453072,229.828649,9548.656652
873.849323,-2220.617826,-459.657299,10214.842000
873.849653,-2294.638420,0.000000,10881.027347
873.849983,-2368.659014,766.095498,10807.006753
873.850312,-1702.473667,153.219100,9474.636058
873.850642,-888.247130,229.828649,9474.636058
873.850971,-666.185348,0.000000,9252.574275
873.851301,-1036.288319,306.438199,9178.553681
873.851630,-1702.473667,689.485948,9104.533087
873.851960,-2368.659014,536.266849,9474.636058
873.852289,-2442.679609,1302.362347,9992.780217
873.852619,-2072.576638,689.485948,9622.677246
873.852949,-1332.370696,306.438199,9252.574275
873.853278,-592.164754,229.828649,8956.491898
873.853608,-370.102971,919.314598,8364.327145
873.853937,222.061783,1302.362347,8216.285956
873.854267,1110.308913,1685.410096,8882.471304
873.854596,1406.391290,1762.019645,9104.533087
873.854926,444.123565,2451.505594,9400.615463
873.855255,-518.144159,2374.896044,9844.739029
873.855585,-1258.350101,1838.629195,9770.718434
873.855915,-1406.391290,1838.629195,10510.924376
873.856244,-1924.535449,1378.971896,10362.883188
873.856574,-2072.576638,76.609550,9770.718434
873.856903,-2368.659014,-153.219100,9474.636058
873.857233,-2664.741391,0.000000,8882.471304
873.857562,-2516.700203,306.438199,8586.388927
873.857892,-3108.864956,306.438199,8882.471304
873.858221,-2886.803174,459.657299,9104.533087
873.858551,-2590.720797,536.266849,9252.574275
873.858881,-1850.514855,919.314598,9548.656652
873.859210,-962.267725,536.266849,9918.759623
873.859540,-1702.473667,1378.971896,9252.574275
873.859869,-1554.432478,1685.410096,9548.656652
873.860199,-666.185348,1532.190996,9918.759623
873.860528,296.082377,1149.143247,10288.862594
873.860858,444.123565,766.095498,10584.944971
873.861187,0.000000,1072.533697,10584.944971
873.861517,-518.144159,1455.581446,10362.883188
873.861847,-444.123565,1302.362347,10362.883188
873.862176,-296.082377,1455.581446,10584.944971
873.862506,0.000000,1072.533697,9844.739029
873.862835,222.061783,536.266849,8734.430116
873.863165,222.061783,0.000000,8660.409521
873.863494,-148.041188,0.000000,8808.450710
873.863824,-1184.329507,689.485948,8734.430116
873.864153,-2220.617826,689.485948,9400.615463
873.864483,-2812.782580,1302.362347,9992.780217
873.864813,-2738.761985,1685.410096,9844.739029
873.865142,-1850.514855,995.924147,9844.739029
873.865472,-1184.329507,229.828649,9104.533087
873.865801,-962.267725,536.266849,8364.327145
873.866131,-370.102971,1072.533697,8586.388927
873.866460,148.041188,1915.238745,9400.615463
873.866790,444.123565,1915.238745,9622.677246
873.867119,0.000000,2451.505594,9400.615463
873.867449,-666.185348,1991.848295,9178.553681
873.867778,-444.123565,1302.362347,9548.656652
873.868108,-666.185348,1225.752797,9770.718434
873.868438,-666.185348,1455.581446,10214.842000
873.868767,-1110.308913,995.924147,9770.718434
873.869097,-888.247130,76.609550,9474.636058
873.869426,-962.267725,-459.657299,9326.594869
873.869756,-962.267725,76.609550,9400.615463
873.870085,-1332.370696,689.485948,9548.656652
873.870415,-1184.329507,612.876398,9474.636058
873.870744,-1184.329507,1225.752797,9252.574275
873.871074,-740.205942,1072.533697,9474.636058
873.871404,-296.082377,1225.752797,9844.739029
873.871733,-518.144159,2221.676944,9622.677246
873.872063,-1702.473667,2145.067394,9030.512492
873.872392,-1628.453072,1532.190996,9178.553681
873.872722,-1036.288319,995.924147,9992.780217
873.873051,-1110.308913,766.095498,10288.862594
873.873381,-2146.597232,612.876398,9918.759623
873.873710,-3034.844362,689.485948,9992.780217
873.874040,-3182.885551,612.876398,10140.821405
873.874370,-2812.782580,229.828649,10584.944971
873.874699,-1998.556043,153.219100,10214.842000
873.875026,-1184.329507,0.000000,9252.574275
873.875356,-222.061783,-229.828649,9252.574275
873.875685,-148.041188,229.828649,9104.533087
873.876015,-444.123565,995.924147,9178.553681
873.876344,-666.185348,1149.143247,9326.594869
873.876674,-370.102971,919.314598,9474.636058
873.877003,148.041188,2145.067394,9918.759623
873.877333,740.205942,1685.410096,9400.615463
873.877662,1258.350101,919.314598,9178.553681
873.877992,814.226536,919.314598,8660.409521
873.878321,148.041188,1072.533697,8364.327145
873.878651,518.144159,766.095498,8734.430116
873.878980,370.102971,1532.190996,9474.636058
873.879310,0.000000,1455.581446,9622.677246
873.879639,-1332.370696,1608.800546,9622.677246
873.879969,-2146.597232,1302.362347,9622.677246
873.880298,-2294.638420,1532.190996,9770.718434
873.880628,-2368.659014,1378.971896,9696.697840
873.880957,-2442.679609,919.314598,9918.759623
873.881287,-2146.597232,-229.828649,9326.594869
873.881616,-2146.597232,-1149.143247,8734.430116
873.881946,-1554.432478,-536.266849,8882.471304
873.882275,-1258.350101,0.000000,8734.430116
873.882605,-1332.370696,229.828649,9178.553681
873.882934,-1110.308913,536.266849,9474.636058
873.883264,-296.082377,1378.971896,9696.697840
873.883593,518.144159,1608.800546,10214.842000
873.883923,592.164754,1838.629195,10362.883188
873.884252,0.000000,2221.676944,9844.739029
873.884582,-370.102971,2298.286494,9770.718434
873.884911,222.061783,1685.410096,9844.739029
873.885241,370.102971,919.314598,10214.842000
873.885570,-444.123565,919.314598,9844.739029
873.885900,-1776.494261,306.438199,9400.615463
873.886229,-2516.700203,306.438199,9474.636058
873.886559,-2960.823768,229.828649,9696.697840
873.886888,-2738.761985,-229.828649,10140.821405
873.887218,-2368.659014,76.609550,9992.780217
873.887547,-1924.535449,-612.876398,9400.615463
873.887877,-1628.453072,-229.828649,9474.636058
873.888206,-2072.576638,536.266849,9252.574275
873.888536,-2146.597232,766.095498,9548.656652
873.888865,-1776.494261,919.314598,10214.842000
873.889195,-1628.453072,1915.238745,9992.780217
873.889524,-518.144159,1302.362347,9548.656652
873.889854,74.020594,1072.533697,8808.450710
873.890183,740.205942,459.657299,7846.182985
873.890513,518.144159,612.876398,7698.141797
873.890842,666.185348,1608.800546,8216.285956
873.891172,1184.329507,1915.238745,8734.430116
873.891501,1184.329507,1378.971896,9326.594869
873.891831,-370.102971,1532.190996,9474.636058
873.892160,-1406.391290,1455.581446,10066.800811
873.892490,-1924.535449,1302.362347,11029.068536
873.892819,-2368.659014,1685.410096,11177.109724
873.893149,-2664.741391,1149.143247,10584.944971
873.893478,-2516.700203,-153.219100,9400.615463
873.893808,-2146.597232,-1532.190996,8956.491898
873.894137,-1924.535449,-1302.362347,8882.471304
873.894467,-2368.659014,0.000000,8586.388927
873.894796,-1998.556043,-536.266849,8956.491898
873.895126,-2146.597232,0.000000,9400.615463
873.895455,-1406.391290,766.095498,9770.718434
873.895785,-666.185348,1762.019645,10066.800811
873.896114,148.041188,2757.943793,9326.594869
873.896444,296.082377,1991.848295,8660.409521
873.896773,148.041188,1838.629195,9548.656652
873.897103,0.000000,2068.457845,10584.944971
873.897432,-296.082377,1915.238745,11103.089130
873.897762,-1110.308913,995.924147,11325.150913
873.898091,-2294.638420,1302.362347,10807.006753
873.898421,-2960.823768,689.485948,10436.903782
873.898750,-2368.659014,-612.876398,9918.759623
873.899080,-1776.494261,-919.314598,9474.636058
873.899409,-1110.308913,0.000000,8882.471304
873.899739,-592.164754,-229.828649,8364.327145
873.900068,-148.041188,153.219100,8956.491898
873.900398,-222.061783,612.876398,9400.615463
873.900727,-592.164754,1838.629195,9400.615463
873.901057,-888.247130,2451.505594,9992.780217
873.901386,-444.123565,2834.553343,10436.903782
873.901716,-666.185348,1838.629195,9844.739029
873.902045,-370.102971,1378.971896,9474.636058
873.902375,0.000000,612.876398,8956.491898
873.902704,444.123565,689.485948,8364.327145
873.903034,370.102971,1302.362347,8068.244768
873.903363,518.144159,1838.629195,7920.203579
873.903693,962.267725,1302.362347,8586.388927
873.904022,888.247130,1302.362347,8882.471304
873.904352,148.041188,1838.629195,9548.656652
873.904681,-888.247130,2374.896044,9992.780217
873.905011,-1554.432478,3064.381992,10510.924376
873.905340,-2072.576638,1838.629195,10658.965565
873.905670,-2368.659014,919.314598,9992.780217
873.905999,-2146.597232,-612.876398,9474.636058
873.906329,-1628.453072,-1685.410096,9326.594869
873.906658,-1406.391290,-1149.143247,9030.512492
873.906988,-1924.535449,-153.219100,8660.409521
873.907317,-1776.494261,-383.047749,9104.533087
873.907647,-1184.329507,536.266849,9252.574275
873.907976,-444.123565,1532.190996,9696.697840
873.908306,148.041188,3217.601092,9844.739029
873.908635,370.102971,2757.943793,9474.636058
873.908965,0.000000,1915.238745,9104.533087
873.909294,-444.123565,2068.457845,10066.800811
873.909624,-962.267725,1532.190996,11029.068536
873.909953,-1776.494261,1072.533697,11473.192101
873.910283,-3108.864956,76.609550,11547.212695
873.910612,-4145.153275,153.219100,11251.130318
873.910942,-3923.091493,-536.266849,10214.842000
873.911271,-2960.823768,-689.485948,9844.739029
873.911601,-1480.411884,-306.438199,9178.553681
873.911930,-370.102971,-153.219100,8068.244768
873.912260,222.061783,0.000000,8290.306550
873.912589,0.000000,459.657299,8808.450710
873.912919,-740.205942,1915.238745,9400.615463
873.913248,-1036.288319,2834.553343,10140.821405
873.913578,-1110.308913,2451.505594,10362.883188
873.913907,-296.082377,2068.457845,9622.677246
873.914237,0.000000,1378.971896,9326.594869
873.914566,518.144159,306.438199,8956.491898
873.914896,666.185348,689.485948,8438.347739
873.915225,444.123565,842.705048,7994.224174
873.915555,296.082377,1838.629195,8216.285956
873.915884,888.247130,1915.238745,8882.471304
873.916214,1036.288319,2145.067394,9178.553681
873.916543,0.000000,2451.505594,8956.491898
873.916873,-814.226536,2068.457845,8808.450710
873.917202,-1036.288319,1991.848295,9326.594869
873.917532,-1628.453072,1225.752797,10214.842000
873.917861,-2294.638420,306.438199,10362.883188
873.918191,-2664.741391,-383.047749,9770.718434
873.918520,-2590.720797,-995.924147,9474.636058
873.918850,-2368.659014,-919.314598,9474.636058
873.919179,-1850.514855,-612.876398,9770.718434
873.919509,-1258.350101,0.000000,9844.739029
873.919838,-962.267725,612.876398,9252.574275
873.920168,-222.061783,1532.190996,9252.574275
873.920497,888.247130,1762.019645,9844.739029
873.920827,1036.288319,2374.896044,9918.759623
873.921156,-148.041188,1685.410096,9622.677246
873.921485,-518.144159,1838.629195,9844.739029
873.921815,-592.164754,1225.752797,10510.924376
873.922144,-518.144159,612.876398,10658.965565
873.922474,-962.267725,536.266849,10362.883188
873.922803,-2146.597232,153.219100,9770.718434
873.923133,-2294.638420,0.000000,9474.636058
873.923462,-1776.494261,0.000000,9622.677246
873.923792,-1554.432478,76.609550,10140.821405
873.924121,-1480.411884,536.266849,9696.697840
873.924451,-1184.329507,612.876398,9030.512492
873.924780,-1332.370696,459.657299,9178.553681
873.925110,-1776.494261,842.705048,9326.594869
873.925439,-2368.659014,1378.971896,9548.656652
873.925769,-2442.679609,919.314598,9844.739029
873.926098,-2072.576638,1302.362347,9918.759623
873.926428,-1332.370696,1608.800546,8956.491898
873.926757,-148.041188,306.438199,8808.450710
873.927087,518.144159,229.828649,8216.285956
873.927416,444.123565,766.095498,7846.182985
873.927746,1036.288319,1762.019645,8290.306550
873.928075,1110.308913,2145.067394,8734.430116
873.928405,1110.308913,2221.676944,9030.512492
873.928734,-592.164754,2298.286494,9104.533087
873.929064,-2072.576638,1685.410096,9474.636058
873.929393,-2960.823768,1149.143247,10066.800811
873.929723,-3478.967927,995.924147,10214.842000
873.930052,-3849.070898,0.000000,10288.862594
873.930382,-3404.947333,-1302.362347,9770.718434
873.930711,-3256.906145,-1762.019645,9696.697840
873.931041,-2812.782580,-1532.190996,9696.697840
873.931370,-1776.494261,153.219100,9326.594869
873.931700,-1480.411884,0.000000,9474.636058
873.932029,-814.226536,689.485948,9622.677246
873.932359,0.000000,1532.190996,9474.636058
873.932688,1258.350101,1915.238745,9696.697840
873.933018,1850.514855,2068.457845,9918.759623
873.933347,1702.473667,2221.676944,9696.697840
873.933677,370.102971,2145.067394,10066.800811
873.934006,0.000000,2145.067394,10658.965565
873.934336,0.000000,1608.800546,10732.986159
873.934665,-444.123565,919.314598,10140.821405
873.934995,-1702.473667,766.095498,9622.677246
873.935324,-2516.700203,306.438199,9696.697840
873.935654,-2516.700203,0.000000,9918.759623
873.935983,-2516.700203,306.438199,9844.739029
873.936313,-2738.761985,536.266849,9178.553681
873.936642,-2368.659014,229.828649,8808.450710
873.936972,-1776.494261,-153.219100,9178.553681
873.937301,-1924.535449,612.876398,9326.594869
873.937631,-1702.473667,1378.971896,9474.636058
873.937960,-1850.514855,1532.190996,9622.677246
873.938290,-1702.473667,2451.505594,9918.759623
873.938619,-1184.329507,2451.505594,9326.594869
873.938949,74.020594,1302.362347,9104.533087
873.939278,1332.370696,995.924147,8734.430116
873.939608,1332.370696,1149.143247,7994.224174
873.939937,1036.288319,1608.800546,7920.203579
873.940267,1554.432478,1302.362347,8512.368333
873.940596,2072.576638,1762.019645,9252.574275
873.940926,1332.370696,2068.457845,9474.636058
873.941255,0.000000,2221.676944,9622.677246
873.941585,-814.226536,2145.067394,9992.780217
873.941914,-1110.308913,1302.362347,10140.821405
873.942244,-1480.411884,1608.800546,10510.924376
873.942573,-2146.597232,766.095498,9992.780217
873.942903,-2516.700203,0.000000,9474.636058
873.943232,-2738.761985,-383.047749,9474.636058
873.943562,-3256.906145,-536.266849,9326.594869
873.943891,-3256.906145,0.000000,8882.471304
873.944221,-3034.844362,-306.438199,8882.471304
873.944550,-2664.741391,0.000000,9178.553681
873.944880,-1998.556043,766.095498,9474.636058
873.945209,-962.267725,1225.752797,9696.697840
873.945539,-592.164754,2298.286494,9252.574275
873.945868,-148.041188,1762.019645,8956.491898
873.946198,0.000000,1838.629195,9844.739029
873.946527,222.061783,1838.629195,11177.109724
873.946857,-518.144159,1762.019645,11547.212695
873.947186,-1554.432478,2068.457845,11399.171507
873.947516,-2812.782580,995.924147,10881.027347
873.947845,-2368.659014,0.000000,10658.965565
873.948175,-1702.473667,-689.485948,10214.842000
873.948504,-1110.308913,-459.657299,9474.636058
873.948834,-444.123565,-536.266849,8364.327145
873.949163,-296.082377,-842.705048,7994.224174
873.949493,-518.144159,0.000000,8882.471304
873.949822,-888.247130,1072.533697,9178.553681
873.950152,-1480.411884,1685.410096,9326.594869
873.950481,-1554.432478,2298.286494,9474.636058
873.950811,-888.247130,2298.286494,9474.636058
873.951140,-592.164754,1149.143247,9622.677246
873.951470,-222.061783,919.314598,9326.594869
873.951799,-518.144159,612.876398,8438.347739
873.952129,-666.185348,919.314598,7994.224174
873.952458,148.041188,995.924147,8586.388927
873.952788,1184.329507,766.095498,9474.636058
873.953117,1036.288319,1378.971896,9474.636058
873.953447,296.082377,2451.505594,9326.594869
873.953776,-296.082377,2528.115143,9326.594869
873.954106,-518.144159,1915.238745,9696.697840
873.954435,-1184.329507,1991.848295,9918.759623
873.954765,-1406.391290,1225.752797,10066.800811
873.955094,-1702.473667,306.438199,9548.656652
873.955424,-1998.556043,-689.485948,9252.574275
873.955753,-1924.535449,-1072.533697,8882.471304
873.956083,-1998.556043,-612.876398,9030.512492
873.956412,-2220.617826,0.000000,9844.739029
873.956742,-1776.494261,612.876398,9696.697840
873.957071,-1184.329507,1532.190996,9400.615463
873.957401,0.000000,1685.410096,9770.718434
873.957730,1036.288319,995.924147,10066.800811
873.958060,0.000000,1915.238745,9770.718434
873.958389,-370.102971,2834.553343,9992.780217
873.958719,-444.123565,2298.286494,10214.842000
873.959048,-518.144159,1378.971896,10140.821405
873.959378,-1776.494261,1072.533697,10066.800811
873.959707,-2368.659014,383.047749,9770.718434
873.960037,-2664.741391,0.000000,9474.636058
873.960366,-2442.679609,-153.219100,9548.656652
873.960696,-2072.576638,0.000000,9474.636058
873.961025,-1702.473667,153.219100,9770.718434
873.961355,-1480.411884,-459.657299,9474.636058
873.961684,-1110.308913,612.876398,9474.636058
873.962014,-962.267725,1378.971896,9326.594869
873.962343,-962.267725,1378.971896,9400.615463
873.962673,-1406.391290,842.705048,9474.636058
873.963002,-1332.370696,919.314598,9548.656652
873.963332,-1258.350101,1225.752797,9474.636058
873.963661,-518.144159,842.705048,9474.636058
873.963991,-296.082377,306.438199,8882.471304
873.964320,-296.082377,536.266849,8438.347739
873.964650,-222.061783,1532.190996,8586.388927
873.964979,1184.329507,1991.848295,8734.430116
873.965309,1332.370696,1685.410096,8882.471304
873.965638,518.144159,1915.238745,9474.636058
873.965968,-592.164754,2068.457845,9992.780217
873.966297,-1702.473667,1762.019645,10066.800811
873.966627,-2368.659014,1532.190996,10140.821405
873.966956,-2590.720797,842.705048,10066.800811
873.967286,-2368.659014,-459.657299,9770.718434
873.967615,-2368.659014,-1532.190996,9474.636058
873.967945,-2738.761985,-1302.362347,9326.594869
873.968274,-3404.947333,-459.657299,9252.574275
873.968604,-2442.679609,0.000000,9104.533087
873.968933,-2442.679609,306.438199,9622.677246
873.969263,-1628.453072,1225.752797,9474.636058
873.969592,-222.061783,1455.581446,9770.718434
873.969922,740.205942,1991.848295,9326.594869
873.970251,370.102971,2528.115143,8586.388927
873.970581,-222.061783,2451.505594,8734.430116
873.970910,-148.041188,1455.581446,9474.636058
873.971240,-148.041188,1072.533697,10436.903782
873.971569,-740.205942,1532.190996,10881.027347
873.971899,-2368.659014,153.219100,10436.903782
873.972228,-3108.864956,0.000000,10584.944971
873.972557,-2960.823768,-76.609550,10362.883188
873.972887,-2368.659014,-229.828649,10362.883188
873.973216,-1480.411884,-153.219100,9844.739029
873.973546,-888.247130,0.000000,9326.594869
873.973875,-148.041188,153.219100,8660.409521
873.974205,0.000000,689.485948,8808.450710
873.974534,-222.061783,1378.971896,9178.553681
873.974863,-962.267725,1838.629195,9622.677246
873.975193,-1480.411884,2221.676944,10140.821405
873.975522,-1332.370696,2374.896044,9770.718434
873.975851,-1184.329507,1532.190996,9474.636058
873.976181,-296.082377,229.828649,8808.450710
873.976510,0.000000,76.609550,8142.265362
873.976839,74.020594,1302.362347,8142.265362
873.977169,222.061783,2068.457845,8882.471304
873.977498,1184.329507,1915.238745,8512.368333
873.977828,1406.391290,2145.067394,9178.553681
873.978157,296.082377,2528.115143,9622.677246
873.978486,-518.144159,2451.505594,9770.718434
873.978816,-1406.391290,2374.896044,10362.883188
873.979145,-2220.617826,1685.410096,10066.800811
873.979474,-2664.741391,842.705048,9770.718434
873.979804,-2886.803174,-459.657299,9178.553681
873.980133,-2516.700203,-1915.238745,8882.471304
873.980462,-2368.659014,-1532.190996,8512.368333
873.980792,-2590.720797,-689.485948,8956.491898
873.981121,-2368.659014,0.000000,9252.574275
873.981450,-1776.494261,919.314598,9252.574275
873.981780,-740.205942,1915.238745,9844.739029
873.982109,74.020594,2451.505594,10436.903782
873.982438,0.000000,3217.601092,10214.842000
873.982768,-740.205942,3140.991542,9918.759623
873.983097,-1110.308913,2451.505594,9622.677246
873.983426,-888.247130,1608.800546,10362.883188
873.983756,-740.205942,689.485948,10807.006753
873.984085,-2072.576638,306.438199,10140.821405
873.984414,-2812.782580,0.000000,9918.759623
873.984744,-2960.823768,-229.828649,9252.574275
873.985073,-1924.535449,-306.438199,9696.697840
873.985402,-962.267725,76.609550,9474.636058
873.985732,-222.061783,-306.438199,8882.471304
873.986061,0.000000,383.047749,9104.533087
873.986391,-296.082377,1225.752797,9030.512492
873.986720,-888.247130,1608.800546,9474.636058
873.987049,-1184.329507,1762.019645,9770.718434
873.987379,-1628.453072,1608.800546,10140.821405
873.987708,-1258.350101,1991.848295,9844.739029
873.988037,-962.267725,995.924147,9474.636058
873.988367,-444.123565,383.047749,9104.533087
873.988696,74.020594,306.438199,7994.224174
873.989025,0.000000,842.705048,7994.224174
873.989355,740.205942,1378.971896,8512.368333
873.989684,888.247130,1685.410096,9030.512492
873.990013,814.226536,2374.896044,9474.636058
873.990343,-296.082377,2451.505594,9474.636058
873.990672,-740.205942,2068.457845,9400.615463
873.991001,-740.205942,1225.752797,9548.656652
873.991331,-1628.453072,536.266849,10140.821405
873.991660,-2220.617826,689.485948,10066.800811
873.991989,-2368.659014,-229.828649,9548.656652
873.992319,-2442.679609,-1378.971896,9474.636058
873.992648,-2146.597232,-1378.971896,9252.574275
873.992977,-1998.556043,-612.876398,8734.430116
873.993307,-1776.494261,-306.438199,9104.533087
873.993636,-1258.350101,536.266849,9252.574275
873.993966,-592.164754,1455.581446,9548.656652
873.994295,74.020594,1685.410096,10066.800811
873.994624,370.102971,1838.629195,10807.006753
873.994954,-296.082377,2221.676944,10288.862594
873.995283,-1258.350101,2451.505594,9918.759623
873.995612,-666.185348,1762.019645,10436.903782
873.995942,-444.123565,1532.190996,9992.780217
873.996271,-1258.350101,536.266849,9400.615463
873.996600,-1850.514855,76.609550,9474.636058
873.996930,-2442.679609,229.828649,9252.574275
873.997259,-2294.638420,153.219100,9474.636058
873.997588,-1998.556043,536.266849,9696.697840
873.997918,-1258.350101,689.485948,9770.718434
873.998247,-740.205942,459.657299,9622.677246
873.998576,-370.102971,0.000000,9770.718434
873.998906,-666.185348,689.485948,9992.780217
873.999235,-1406.391290,1685.410096,10288.862594
873.999564,-1850.514855,1838.629195,10658.965565
873.999894,-1554.432478,1532.190996,9992.780217
874.000223,-1480.411884,1608.800546,9400.615463
874.000552,-666.185348,536.266849,8660.409521
874.000882,0.000000,0.000000,8142.265362
874.001211,-222.061783,229.828649,7994.224174
874.001540,-222.061783,1225.752797,7920.203579
874.001870,0.000000,1302.362347,8660.409521
874.002199,296.082377,1149.143247,9400.615463
874.002529,-370.102971,1991.848295,9622.677246
874.002858,-740.205942,2221.676944,9770.718434
874.003187,-518.144159,1608.800546,9770.718434
874.003517,-148.041188,1608.800546,9770.718434
874.003846,-666.185348,919.314598,10066.800811
874.004175,-1036.288319,459.657299,9770.718434
874.004505,-1036.288319,229.828649,9400.615463
874.004834,-1184.329507,-689.485948,8956.491898
874.005163,-1258.350101,-383.047749,8956.491898
874.005493,-2072.576638,-459.657299,8734.430116
874.005822,-1998.556043,-306.438199,9400.615463
874.006151,-2072.576638,459.657299,9400.615463
874.006481,-1924.535449,1072.533697,9918.759623
874.006810,-1406.391290,842.705048,9992.780217
874.007139,-1258.350101,1302.362347,9770.718434
874.007469,-1776.494261,1532.190996,9474.636058
874.007798,-1406.391290,1838.629195,9474.636058
874.008127,-814.226536,1685.410096,9548.656652
874.008457,-666.185348,919.314598,9548.656652
874.008786,-1850.514855,1302.362347,9622.677246
874.009115,-2738.761985,689.485948,10066.800811
874.009445,-2960.823768,153.219100,10510.924376
874.009774,-2960.823768,0.000000,10732.986159
874.010104,-2516.700203,229.828649,10436.903782
874.010433,-1554.432478,-153.219100,9548.656652
874.010762,-518.144159,-842.705048,9548.656652
874.011092,74.020594,229.828649,9622.677246
874.011421,0.000000,1302.362347,9326.594869
874.011750,0.000000,1455.581446,9622.677246
874.012080,-148.041188,2221.676944,10214.842000
874.012409,0.000000,2528.115143,9992.780217
874.012738,74.020594,1991.848295,9696.697840
874.013068,444.123565,995.924147,9178.553681
874.013397,370.102971,612.876398,8142.265362
874.013726,0.000000,995.924147,7698.141797
874.014056,740.205942,919.314598,8438.347739
874.014385,518.144159,1532.190996,9178.553681
874.014714,0.000000,1838.629195,9252.574275
874.015044,-962.267725,2451.505594,8882.471304
874.015373,-1332.370696,2451.505594,9252.574275
874.015702,-1110.308913,1378.971896,9326.594869
874.016032,-1332.370696,1838.629195,9622.677246
874.016361,-1998.556043,1378.971896,9622.677246
874.016690,-2294.638420,383.047749,9104.533087
874.017020,-2072.576638,-689.485948,9104.533087
874.017349,-2294.638420,-842.705048,8956.491898
874.017678,-2294.638420,-306.438199,9030.512492
874.018008,-2220.617826,-229.828649,9622.677246
874.018337,-1850.514855,383.047749,9548.656652
874.018667,-1184.329507,1455.581446,9696.697840
874.018996,0.000000,1608.800546,10066.800811
874.019325,888.247130,2298.286494,10140.821405
874.019655,296.082377,2451.505594,9696.697840
874.019984,148.041188,2757.943793,9844.739029
874.020313,296.082377,2145.067394,10066.800811
874.020643,74.020594,1455.581446,10288.862594
874.020972,-1184.329507,1455.581446,9696.697840
874.021301,-2886.803174,383.047749,9622.677246
874.021631,-2960.823768,-459.657299,9918.759623
874.021960,-2960.823768,-689.485948,10066.800811
874.022289,-2590.720797,-689.485948,10658.965565
874.022619,-2220.617826,0.000000,9770.718434
874.022948,-1702.473667,76.609550,9770.718434
874.023277,-1036.288319,536.266849,9548.656652
874.023607,-1036.288319,1225.752797,9400.615463
874.023936,-1110.308913,1608.800546,9474.636058
874.024265,-1258.350101,1685.410096,9770.718434
874.024595,-1184.329507,1838.629195,9622.677246
874.024924,-592.164754,1532.190996,9474.636058
874.025253,-148.041188,766.095498,9178.553681
874.025583,0.000000,229.828649,8290.306550
874.025912,-148.041188,459.657299,7994.224174
874.026242,296.082377,1532.190996,8364.327145
874.026571,1184.329507,1838.629195,8882.471304
874.026900,1184.329507,1915.238745,9104.533087
874.027230,592.164754,2374.896044,9326.594869
874.027559,-444.123565,2604.724693,9622.677246
874.027888,-444.123565,2145.067394,9844.739029
874.028218,-592.164754,2298.286494,9918.759623
874.028547,-1554.432478,1378.971896,10140.821405
874.028876,-1924.535449,76.609550,9400.615463
874.029206,-1776.494261,-1378.971896,9178.553681
874.029535,-2220.617826,-1302.362347,9326.594869
874.029864,-2442.679609,-689.485948,8882.471304
874.030194,-2442.679609,0.000000,9474.636058
874.030523,-2368.659014,229.828649,9474.636058
874.030852,-1776.494261,919.314598,9474.636058
874.031182,-444.123565,1455.581446,9844.739029
874.031511,296.082377,1685.410096,9622.677246
874.031840,148.041188,2834.553343,9696.697840
874.032170,-370.102971,2451.505594,9770.718434
874.032499,-222.061783,2145.067394,10214.842000
874.032828,-222.061783,1532.190996,10066.800811
874.033158,-296.082377,1072.533697,9696.697840
874.033487,-1332.370696,459.657299,9474.636058
874.033816,-2072.576638,0.000000,9696.697840
874.034146,-2146.597232,-229.828649,9770.718434
874.034475,-1850.514855,-306.438199,10140.821405
874.034805,-1332.370696,229.828649,9844.739029
874.035134,-740.205942,842.705048,9696.697840
874.035463,-296.082377,76.609550,9474.636058
874.035793,-222.061783,459.657299,9548.656652
874.036122,-370.102971,1378.971896,9696.697840
874.036451,-888.247130,1302.362347,10066.800811
874.036781,-1332.370696,1378.971896,10658.965565
874.037110,-1184.329507,1532.190996,10066.800811
874.037439,-888.247130,1072.533697,9622.677246
874.037769,-666.185348,153.219100,8808.450710
874.038098,-444.123565,229.828649,8290.306550
874.038427,0.000000,612.876398,7994.224174
874.038757,666.185348,1225.752797,8586.388927
874.039086,962.267725,1225.752797,8808.450710
874.039415,518.144159,1991.848295,8660.409521
874.039745,-444.123565,2221.676944,8956.491898
874.040074,-962.267725,1991.848295,9548.656652
874.040403,-740.205942,1762.019645,9844.739029
874.040733,-1628.453072,1225.752797,10214.842000
874.041062,-2072.576638,612.876398,9844.739029
874.041391,-2368.659014,-459.657299,9474.636058
874.041721,-2294.638420,-1378.971896,9474.636058
874.042050,-2220.617826,0.000000,9326.594869
874.042380,-2368.659014,-153.219100,9400.615463
874.042709,-2294.638420,0.000000,9474.636058
874.043038,-1998.556043,612.876398,9474.636058
874.043368,-1184.329507,1378.971896,9844.739029
874.043697,-592.164754,1685.410096,9474.636058
874.044026,-592.164754,2451.505594,9178.553681
874.044356,-814.226536,2145.067394,9030.512492
874.044685,-814.226536,1608.800546,8808.450710
874.045014,-148.041188,919.314598,10066.800811
874.045344,-518.144159,612.876398,10584.944971
874.045673,-1776.494261,306.438199,10955.047942
874.046002,-3034.844362,383.047749,10658.965565
874.046332,-3034.844362,459.657299,10807.006753
874.046661,-2072.576638,-459.657299,11029.068536
874.046990,-1480.411884,-153.219100,10214.842000
874.047320,-666.185348,383.047749,9400.615463
874.047649,0.000000,0.000000,8956.491898
874.047978,370.102971,0.000000,9400.615463
874.048308,0.000000,842.705048,9474.636058
874.048637,-814.226536,1225.752797,9992.780217
874.048966,-1184.329507,2068.457845,10140.821405
874.049296,-1110.308913,1685.410096,9548.656652
874.049625,-370.102971,1378.971896,9622.677246
874.049955,296.082377,229.828649,8956.491898
874.050284,148.041188,459.657299,8216.285956
874.050613,0.000000,1378.971896,7846.182985
874.050943,444.123565,1915.238745,8734.430116
874.051272,814.226536,1762.019645,8882.471304
874.051601,518.144159,1532.190996,9104.533087
874.051931,-444.123565,1915.238745,8956.491898
874.052260,-962.267725,2298.286494,9474.636058
874.052589,-1110.308913,2068.457845,8734.430116
874.052919,-1258.350101,1532.190996,9548.656652
874.053248,-1850.514855,536.266849,9696.697840
874.053577,-2294.638420,-229.828649,9548.656652
874.053907,-2368.659014,-995.924147,9844.739029
874.054236,-2516.700203,-612.876398,9548.656652
874.054565,-2590.720797,612.876398,9696.697840
874.054895,-2294.638420,76.609550,9992.780217
874.055224,-1628.453072,306.438199,10066.800811
874.055553,-1036.288319,1608.800546,9770.718434
874.055883,-296.082377,1762.019645,9326.594869
874.056212,0.000000,2221.676944,9548.656652
874.056541,0.000000,1685.410096,9326.594869
874.056871,-518.144159,2068.457845,9400.615463
874.057200,-148.041188,1608.800546,9844.739029
874.057529,148.041188,1072.533697,9548.656652
874.057859,-370.102971,1072.533697,9252.574275
874.058188,-1628.453072,842.705048,9400.615463
874.058518,-1776.494261,306.438199,9326.594869
874.058847,-1702.473667,689.485948,9770.718434
874.059176,-1850.514855,995.924147,10288.862594
874.059506,-1628.453072,1455.581446,9770.718434
874.059835,-1406.391290,459.657299,10140.821405
874.060164,-1628.453072,459.657299,9770.718434
874.060494,-1776.494261,536.266849,9622.677246
874.060823,-1998.556043,842.705048,9474.636058
874.061152,-1850.514855,842.705048,9474.636058
874.061482,-1850.514855,536.266849,9474.636058
874.061811,-1332.370696,995.924147,9400.615463
874.062140,-370.102971,459.657299,8956.491898
874.062470,222.061783,383.047749,8364.327145
874.062799,518.144159,689.485948,8438.347739
874.063128,888.247130,689.485948,8734.430116
874.063458,1480.411884,1685.410096,9474.636058
874.063787,1628.453072,1838.629195,9696.697840
874.064116,740.205942,2451.505594,9622.677246
874.064446,74.020594,1991.848295,9844.739029
874.064775,-740.205942,1302.362347,10214.842000
874.065104,-370.102971,766.095498,10658.965565
874.065434,-1332.370696,842.705048,10436.903782
874.065763,-1628.453072,0.000000,9622.677246
874.066093,-1776.494261,-919.314598,9104.533087
874.066422,-1776.494261,-1072.533697,9178.553681
874.066751,-2590.720797,0.000000,8438.347739
874.067081,-2368.659014,153.219100,8808.450710
874.067410,-1998.556043,536.266849,8956.491898
874.067739,-1776.494261,1608.800546,8956.491898
874.068069,-1184.329507,1302.362347,9400.615463
874.068398,-740.205942,1608.800546,9474.636058
874.068727,-740.205942,2068.457845,9770.718434
874.069057,-1554.432478,2298.286494,9992.780217
874.069386,-1110.308913,2451.505594,10807.006753
874.069715,-592.164754,2068.457845,10584.944971
874.070045,-592.164754,1608.800546,9844.739029
874.070374,-888.247130,689.485948,9104.533087
874.070703,-1480.411884,0.000000,9400.615463
874.071033,-888.247130,-229.828649,10510.924376
874.071362,-1480.411884,766.095498,10881.027347
874.071691,-1924.535449,1685.410096,10584.944971
874.072021,-1110.308913,766.095498,9622.677246
874.072350,-296.082377,612.876398,9474.636058
874.072679,-444.123565,536.266849,9252.574275
874.073009,-296.082377,842.705048,9474.636058
874.073338,-1258.350101,1378.971896,9770.718434
874.073667,-1554.432478,2145.067394,9548.656652
874.073997,-2294.638420,1685.410096,9474.636058
874.074326,-1702.473667,995.924147,9326.594869
874.074656,-1036.288319,536.266849,8660.409521
874.074985,-666.185348,153.219100,7846.182985
874.075314,0.000000,766.095498,7624.121203
874.075644,740.205942,1378.971896,8660.409521
874.075973,1184.329507,1455.581446,8586.388927
874.076302,814.226536,1455.581446,9104.533087
874.076632,296.082377,2681.334243,9252.574275
874.076961,296.082377,1915.238745,8956.491898
874.077290,-222.061783,1302.362347,9918.759623
874.077620,-592.164754,1302.362347,10510.924376
874.077949,-1332.370696,536.266849,10362.883188
874.078278,-1480.411884,-766.095498,10140.821405
874.078608,-2220.617826,-1302.362347,9696.697840
874.078937,-2516.700203,0.000000,9400.615463
874.079266,-2590.720797,-383.047749,9474.636058
874.079596,-2442.679609,0.000000,9400.615463
874.079925,-1924.535449,842.705048,8808.450710
874.080255,-1184.329507,842.705048,8956.491898
874.080584,-296.082377,1915.238745,9474.636058
874.080914,-370.102971,1685.410096,9696.697840
874.081243,-1258.350101,2757.943793,9992.780217
874.081572,-1702.473667,2681.334243,10288.862594
874.081902,-1332.370696,1991.848295,10436.903782
874.082231,-1332.370696,766.095498,10510.924376
874.082561,-2294.638420,459.657299,9474.636058
874.082890,-2516.700203,-153.219100,9844.739029
874.083219,-2738.761985,-612.876398,9696.697840
874.083549,-2738.761985,-306.438199,9770.718434
874.083878,-2368.659014,0.000000,9474.636058
874.084208,-1184.329507,306.438199,9104.533087
874.084537,-74.020594,0.000000,9326.594869
874.084867,0.000000,842.705048,9326.594869
874.085196,0.000000,1532.190996,9474.636058
874.085525,-518.144159,1455.581446,9696.697840
874.085855,-1406.391290,2145.067394,9844.739029
874.086184,-1554.432478,2068.457845,10214.842000
874.086514,-1480.411884,1532.190996,9548.656652
874.086843,-962.267725,612.876398,9030.512492
874.087173,-740.205942,0.000000,8216.285956
874.087502,-592.164754,842.705048,8438.347739
874.087831,0.000000,995.924147,8438.347739
874.088161,444.123565,1608.800546,9030.512492
874.088490,444.123565,2068.457845,9178.553681
874.088820,0.000000,2221.676944,8956.491898
874.089149,-370.102971,2374.896044,9178.553681
874.089478,-592.164754,1762.019645,9474.636058
874.089808,-1110.308913,1915.238745,9918.759623
874.090137,-1850.514855,1072.533697,10066.800811
874.090467,-2220.617826,0.000000,10510.924376
874.090796,-2516.700203,-1072.533697,10066.800811
874.091126,-2812.782580,-689.485948,9696.697840
874.091455,-2886.803174,-229.828649,9844.739029
874.091784,-2146.597232,-383.047749,9844.739029
874.092114,-1258.350101,459.657299,9548.656652
874.092443,-148.041188,995.924147,9252.574275
874.092773,1184.329507,1915.238745,9104.533087
874.093102,1184.329507,1991.848295,9104.533087
874.093431,296.082377,2757.943793,9252.574275
874.093761,0.000000,2757.943793,9622.677246
874.094090,0.000000,2145.067394,10140.821405
874.094420,-296.082377,1532.190996,10362.883188
874.094749,-888.247130,612.876398,10436.903782
874.095079,-2738.761985,76.609550,9622.677246
874.095408,-3182.885551,0.000000,9474.636058
874.095737,-2590.720797,0.000000,9918.759623
874.096067,-2146.597232,306.438199,10066.800811
874.096396,-1406.391290,536.266849,9252.574275
874.096726,-444.123565,229.828649,9030.512492
874.097055,-222.061783,536.266849,9252.574275
874.097385,-444.123565,1532.190996,9252.574275
874.097714,-1184.329507,1915.238745,9548.656652
874.098043,-1258.350101,1915.238745,10214.842000
874.098373,-2368.659014,1302.362347,9844.739029
874.098702,-1998.556043,1225.752797,9770.718434
874.099032,-1258.350101,459.657299,9474.636058
874.099361,-962.267725,0.000000,8882.471304
874.099690,-518.144159,306.438199,8290.306550
874.100020,222.061783,995.924147,8660.409521
874.100349,1480.411884,1532.190996,9104.533087
874.100679,1850.514855,1685.410096,9252.574275
874.101008,1110.308913,2528.115143,8956.491898
874.101338,444.123565,2681.334243,9178.553681
874.101667,0.000000,2528.115143,9474.636058
874.101996,-962.267725,1838.629195,10140.821405
874.102326,-1924.535449,1149.143247,10436.903782
874.102655,-2442.679609,-229.828649,10066.800811
874.102985,-3330.926739,-1302.362347,9844.739029
874.103314,-3552.988522,-1149.143247,9770.718434
874.103643,-3182.885551,-383.047749,9548.656652
874.103973,-2960.823768,-383.047749,9622.677246
874.104302,-2590.720797,306.438199,9252.574275
874.104632,-1480.411884,1302.362347,8956.491898
874.104961,0.000000,1685.410096,8808.450710
874.105291,1480.411884,1915.238745,9104.533087
874.105620,518.144159,2298.286494,9252.574275
874.105949,-148.041188,2604.724693,9326.594869
874.106279,-518.144159,2145.067394,9696.697840
874.106608,-222.061783,1225.752797,10066.800811
874.106938,-1036.288319,1149.143247,10140.821405
874.107267,-2294.638420,306.438199,9696.697840
874.107597,-2886.803174,-229.828649,9770.718434
874.107926,-2294.638420,0.000000,10214.842000
874.108255,-2072.576638,383.047749,10436.903782
874.108585,-1184.329507,1072.533697,9992.780217
874.108914,-888.247130,1149.143247,9548.656652
874.109244,-444.123565,459.657299,9326.594869
874.109573,-222.061783,919.314598,9474.636058
874.109902,-740.205942,1378.971896,9696.697840
874.110232,-1332.370696,995.924147,10288.862594
874.110561,-2072.576638,1532.190996,10214.842000
874.110891,-2590.720797,1225.752797,9622.677246
874.111220,-1554.432478,536.266849,9400.615463
874.111550,-592.164754,-229.828649,8734.430116
874.111879,-148.041188,153.219100,8068.244768
874.112208,444.123565,1608.800546,8068.244768
874.112538,1258.350101,1915.238745,8882.471304
874.112867,1554.432478,2068.457845,9030.512492
874.113197,1036.288319,2451.505594,9030.512492
874.113526,74.020594,2911.162892,9326.594869
874.113855,-444.123565,1915.238745,9400.615463
874.114185,-1036.288319,1915.238745,9918.759623
874.114514,-1554.432478,1072.533697,10510.924376
874.114844,-2368.659014,-153.219100,9992.780217
874.115173,-2664.741391,-995.924147,9474.636058
874.115503,-2516.700203,-1378.971896,9326.594869
874.115832,-2146.597232,-536.266849,9400.615463
874.116161,-1628.453072,-229.828649,9178.553681
874.116491,-1554.432478,0.000000,9104.533087
874.116820,-1110.308913,1225.752797,9104.533087
874.117150,-814.226536,2298.286494,9474.636058
874.117479,0.000000,2374.896044,9474.636058
874.117809,148.041188,1762.019645,9400.615463
874.118138,-592.164754,1915.238745,9252.574275
874.118467,-1036.288319,1532.190996,9622.677246
874.118797,-740.205942,766.095498,10214.842000
874.119126,-888.247130,766.095498,10214.842000
874.119456,-1998.556043,229.828649,9548.656652
874.119785,-2738.761985,-153.219100,9474.636058
874.120114,-2368.659014,-306.438199,9918.759623
874.120444,-2072.576638,-306.438199,10362.883188
874.120773,-1702.473667,689.485948,10362.883188
874.121103,-1110.308913,536.266849,9474.636058
874.121432,-814.226536,536.266849,9622.677246
874.121762,-518.144159,383.047749,9770.718434
874.122091,-888.247130,919.314598,9770.718434
874.122420,-1776.494261,995.924147,9918.759623
874.122750,-2220.617826,919.314598,9918.759623
874.123079,-2368.659014,1149.143247,9992.780217
874.123409,-1924.535449,612.876398,9474.636058
874.123738,-1110.308913,-229.828649,8808.450710
874.124067,-592.164754,76.609550,8216.285956
874.124397,-148.041188,842.705048,8290.306550
874.124726,0.000000,1532.190996,8586.388927
874.125056,740.205942,1991.848295,9326.594869
874.125385,814.226536,1838.629195,9326.594869
874.125715,0.000000,1915.238745,9178.553681
874.126044,-444.123565,1685.410096,9252.574275
874.126373,-1184.329507,1838.629195,9844.739029
874.126703,-1628.453072,1225.752797,9992.780217
874.127032,-2294.638420,766.095498,9770.718434
874.127362,-2516.700203,76.609550,9548.656652
874.127691,-2368.659014,-1302.362347,9770.718434
874.128021,-2516.700203,-919.314598,9474.636058
874.128350,-2664.741391,-689.485948,9326.594869
874.128679,-2220.617826,153.219100,9474.636058
874.129009,-1554.432478,995.924147,8956.491898
874.129338,-370.102971,1455.581446,8512.368333
874.129668,1110.308913,1685.410096,8808.450710
874.129997,1258.350101,2528.115143,8512.368333
874.130326,888.247130,2451.505594,9030.512492
874.130656,0.000000,2451.505594,9548.656652
874.130985,-296.082377,2757.943793,10214.842000
874.131315,-592.164754,1838.629195,10288.862594
874.131644,-1258.350101,689.485948,9992.780217
874.131974,-1998.556043,612.876398,10140.821405
874.132303,-2516.700203,229.828649,9992.780217
874.132632,-2516.700203,0.000000,9844.739029
874.132962,-2368.659014,0.000000,9770.718434
874.133291,-1332.370696,0.000000,9918.759623
874.133621,-1184.329507,0.000000,9400.615463
874.133950,-296.082377,612.876398,9918.759623
874.134279,-222.061783,1149.143247,9992.780217
874.134609,-740.205942,1149.143247,10288.862594
874.134938,-1332.370696,1762.019645,10214.842000
874.135268,-1406.391290,2145.067394,9918.759623
874.135597,-888.247130,1838.629195,9696.697840
874.135927,0.000000,995.924147,9178.553681
874.136256,296.082377,689.485948,8660.409521
874.136585,296.082377,995.924147,7994.224174
874.136915,518.144159,689.485948,8216.285956
874.137244,888.247130,1532.190996,9326.594869
874.137574,888.247130,2068.457845,9548.656652
874.137903,0.000000,2298.286494,9474.636058
874.138233,-740.205942,2451.505594,9252.574275
874.138562,-1036.288319,766.095498,9178.553681
874.138891,-1258.350101,842.705048,9918.759623
874.139221,-2072.576638,306.438199,10288.862594
874.139550,-2368.659014,0.000000,9696.697840
874.139880,-2664.741391,-995.924147,9178.553681
874.140209,-2516.700203,-995.924147,8882.471304
874.140538,-2516.700203,-536.266849,8512.368333
874.140868,-1850.514855,153.219100,8808.450710
874.141197,-1480.411884,612.876398,9030.512492
874.141527,-666.185348,1991.848295,9030.512492
874.141856,74.020594,2451.505594,9474.636058
874.142186,888.247130,2145.067394,10214.842000
874.142515,296.082377,2528.115143,10362.883188
874.142844,-888.247130,2681.334243,9918.759623
874.143174,-1184.329507,2298.286494,10436.903782
874.143503,-1258.350101,1378.971896,10584.944971
874.143833,-1850.514855,842.705048,9992.780217
874.144162,-3108.864956,-229.828649,9992.780217
874.144491,-3701.029710,-689.485948,9474.636058
874.144821,-3552.988522,-689.485948,9252.574275
874.145150,-3034.844362,-995.924147,9622.677246
874.145480,-1998.556043,-919.314598,9696.697840
874.145809,-1110.308913,-536.266849,9474.636058
874.146139,-592.164754,0.000000,9770.718434
874.146468,370.102971,766.095498,10288.862594
874.146797,592.164754,1532.190996,10362.883188
874.147127,0.000000,1991.848295,10658.965565
874.147456,518.144159,2145.067394,10584.944971
874.147786,148.041188,1838.629195,10066.800811
874.148115,444.123565,1991.848295,9400.615463
874.148444,740.205942,766.095498,8438.347739
874.148774,740.205942,612.876398,7698.141797
874.149103,592.164754,1072.533697,7550.100608
874.149433,740.205942,1149.143247,8068.244768
874.149762,888.247130,1608.800546,8734.430116
874.150092,0.000000,2298.286494,9104.533087
874.150421,-1480.411884,2528.115143,9178.553681
874.150750,-1850.514855,2298.286494,9178.553681
874.151080,-2146.597232,1302.362347,9918.759623
874.151409,-2516.700203,612.876398,10436.903782
874.151739,-3108.864956,-229.828649,10066.800811
874.152068,-2812.782580,-919.314598,9622.677246
874.152398,-2294.638420,-1378.971896,8956.491898
874.152727,-1628.453072,-306.438199,8808.450710
874.153056,-1110.308913,0.000000,8660.409521
874.153386,-444.123565,689.485948,8882.471304
874.153715,74.020594,2298.286494,9474.636058
874.154045,814.226536,3140.991542,9992.780217
874.154374,1258.350101,3447.429741,10732.986159
874.154703,518.144159,2681.334243,10881.027347
874.155033,-962.267725,2681.334243,10584.944971
874.155362,-1628.453072,2374.896044,10510.924376
874.155692,-1554.432478,995.924147,10362.883188
874.156021,-1332.370696,0.000000,9548.656652
874.156351,-2146.597232,-1225.752797,9474.636058
874.156680,-3108.864956,-1072.533697,8808.450710
874.157009,-3330.926739,-995.924147,8808.450710
874.157339,-2442.679609,-459.657299,9474.636058
874.157668,-1406.391290,0.000000,9992.780217
874.157998,-1184.329507,995.924147,9696.697840
874.158327,-592.164754,1072.533697,9696.697840
874.158656,0.000000,1302.362347,9992.780217
874.158986,-444.123565,1991.848295,10140.821405
874.159315,-1110.308913,1762.019645,10288.862594
874.159645,-1702.473667,1302.362347,10510.924376
874.159974,-1776.494261,1072.533697,9992.780217
874.160304,-1924.535449,1072.533697,9252.574275
874.160633,-888.247130,0.000000,8512.368333
874.160962,-296.082377,-919.314598,7772.162391
874.161292,-444.123565,306.438199,7476.080014
874.161621,296.082377,1225.752797,8142.265362
874.161951,814.226536,1685.410096,8808.450710
874.162280,666.185348,1991.848295,8956.491898
874.162610,-444.123565,2298.286494,8956.491898
874.162939,-518.144159,2451.505594,9474.636058
874.163268,-1036.288319,612.876398,9548.656652
874.163598,-1702.473667,153.219100,10584.944971
874.163927,-2442.679609,76.609550,10955.047942
874.164257,-3182.885551,-383.047749,10584.944971
874.164586,-2812.782580,-1532.190996,10214.842000
874.164915,-2220.617826,-766.095498,9548.656652
874.165245,-962.267725,0.000000,9104.533087
874.165574,-444.123565,0.000000,8586.388927
874.165904,-148.041188,689.485948,8438.347739
874.166233,296.082377,2145.067394,9104.533087
874.166563,370.102971,2374.896044,9844.739029
874.166892,0.000000,3140.991542,10510.924376
874.167221,-1184.329507,2451.505594,10362.883188
874.167551,-1850.514855,2298.286494,9918.759623
874.167880,-1998.556043,1378.971896,10140.821405
874.168210,-1258.350101,459.657299,10214.842000
874.168539,-1406.391290,-995.924147,10066.800811
874.168868,-2738.761985,0.000000,9178.553681
874.169198,-2812.782580,0.000000,8882.471304
874.169527,-1998.556043,0.000000,9178.553681
874.169857,-814.226536,383.047749,9770.718434
874.170186,-370.102971,1072.533697,9474.636058
874.170516,74.020594,1225.752797,9252.574275
874.170845,518.144159,1225.752797,9770.718434
874.171174,296.082377,1532.190996,10362.883188
874.171504,-740.205942,2145.067394,10732.986159
874.171833,-1554.432478,2221.676944,10807.006753
874.172163,-2368.659014,1838.629195,10066.800811
874.172492,-1332.370696,1838.629195,9326.594869
874.172822,-296.082377,459.657299,8364.327145
874.173151,74.020594,0.000000,7550.100608
874.173480,222.061783,306.438199,7105.977043
874.173810,814.226536,1991.848295,7920.203579
874.174139,740.205942,2451.505594,8512.368333
874.174469,518.144159,2604.724693,9030.512492
874.174798,-444.123565,2451.505594,9252.574275
874.175127,-1406.391290,2298.286494,8956.491898
874.175457,-1776.494261,1302.362347,9696.697840
874.175786,-1998.556043,536.266849,10881.027347
874.176116,-2664.741391,306.438199,11103.089130
874.176445,-2886.803174,0.000000,10436.903782
874.176775,-2368.659014,-995.924147,9474.636058
874.177104,-1258.350101,-1378.971896,9622.677246
874.177433,-814.226536,0.000000,9104.533087
874.177763,-518.144159,536.266849,8438.347739
874.178092,-222.061783,919.314598,8734.430116
874.178422,0.000000,1532.190996,9030.512492
874.178751,222.061783,2374.896044,9474.636058
874.179080,148.041188,1838.629195,10362.883188
874.179410,-740.205942,1915.238745,10436.903782
874.179739,-1702.473667,1608.800546,10214.842000
874.180069,-1554.432478,995.924147,10584.944971
874.180398,-1554.432478,536.266849,10658.965565
874.180728,-1776.494261,76.609550,10140.821405
874.181057,-2368.659014,-306.438199,9696.697840
874.181387,-2516.700203,0.000000,9400.615463
874.181716,-1924.535449,0.000000,9474.636058
874.182046,-1332.370696,459.657299,9696.697840
874.182375,-740.205942,1302.362347,9474.636058
874.182705,-518.144159,919.314598,9252.574275
874.183034,-296.082377,383.047749,9770.718434
874.183364,-666.185348,536.266849,10214.842000
874.183693,-1480.411884,1225.752797,10362.883188
874.184023,-2294.638420,1608.800546,10584.944971
874.184352,-2368.659014,1455.581446,10214.842000
874.184682,-1702.473667,1072.533697,9622.677246
874.185011,-518.144159,766.095498,8808.450710
874.185341,296.082377,612.876398,7772.162391
874.185670,666.185348,689.485948,7105.977043
874.186000,888.247130,1762.019645,7624.121203
874.186329,1332.370696,2298.286494,8438.347739
874.186659,1332.370696,2528.115143,9252.574275
874.186989,370.102971,2451.505594,9104.533087
874.187318,-518.144159,2298.286494,9252.574275
874.187648,-888.247130,1532.190996,9326.594869
874.187977,-1110.308913,536.266849,10066.800811
874.188307,-1480.411884,0.000000,10955.047942
874.188636,-2220.617826,-153.219100,10807.006753
874.188966,-2516.700203,-306.438199,10140.821405
874.189295,-1924.535449,-766.095498,9992.780217
874.189625,-1628.453072,76.609550,9400.615463
874.189954,-740.205942,689.485948,9030.512492
874.190284,-666.185348,536.266849,8586.388927
874.190613,-148.041188,1685.410096,8512.368333
874.190943,0.000000,1991.848295,8956.491898
874.191272,0.000000,1455.581446,9252.574275
874.191602,-222.061783,1532.190996,9844.739029
874.191931,-1184.329507,1685.410096,10140.821405
874.192261,-1776.494261,1838.629195,10140.821405
874.192590,-1332.370696,1072.533697,10584.944971
874.192920,-1184.329507,229.828649,10584.944971
874.193250,-1776.494261,0.000000,9770.718434
874.193579,-2590.720797,153.219100,9400.615463
874.193909,-2590.720797,0.000000,9548.656652
874.194238,-2146.597232,-153.219100,9770.718434
874.194568,-1184.329507,76.609550,10362.883188
874.194897,-666.185348,536.266849,9474.636058
874.195227,-444.123565,76.609550,9548.656652
874.195556,-222.061783,0.000000,9844.739029
874.195886,-444.123565,842.705048,9992.780217
874.196215,-1036.288319,1225.752797,10066.800811
874.196545,-1184.329507,1685.410096,10362.883188
874.196874,-1406.391290,1685.410096,9696.697840
874.197204,-518.144159,1532.190996,9252.574275
874.197533,-296.082377,536.266849,8586.388927
874.197863,-444.123565,229.828649,8216.285956
874.198192,-962.267725,536.266849,7772.162391
874.198522,-1110.308913,1838.629195,8882.471304
874.198852,-740.205942,1762.019645,9400.615463
874.199181,-592.164754,1455.581446,9400.615463
874.199511,-1554.432478,1149.143247,8956.491898
874.199840,-1998.556043,1532.190996,8808.450710
874.200170,-2072.576638,383.047749,8882.471304
874.200499,-2146.597232,0.000000,10362.883188
874.200829,-2590.720797,153.219100,10436.903782
874.201158,-2516.700203,-306.438199,10362.883188
874.201488,-2368.659014,-689.485948,9844.739029
874.201817,-1184.329507,-306.438199,9252.574275
874.202147,-740.205942,229.828649,8586.388927
874.202476,-296.082377,536.266849,8364.327145
874.202806,74.020594,1225.752797,8734.430116
874.203135,370.102971,2068.457845,8956.491898
874.203465,444.123565,2757.943793,9770.718434
874.203794,370.102971,2374.896044,9844.739029
874.204124,-592.164754,2451.505594,9918.759623
874.204454,-1480.411884,2298.286494,10066.800811
874.204783,-1702.473667,1838.629195,10362.883188
874.205113,-2220.617826,919.314598,10436.903782
874.205442,-2368.659014,76.609550,10214.842000
874.205772,-3256.906145,-229.828649,9548.656652
874.206101,-3330.926739,-459.657299,9474.636058
874.206431,-2442.679609,-536.266849,9474.636058
874.206760,-1628.453072,-306.438199,9992.780217
874.207090,-962.267725,76.609550,9770.718434
874.207419,-740.205942,766.095498,9992.780217
874.207749,0.000000,919.314598,9918.759623
874.208078,296.082377,1608.800546,9844.739029
874.208408,148.041188,1915.238745,9918.759623
874.208737,-222.061783,1838.629195,9622.677246
874.209067,-444.123565,1532.190996,9400.615463
874.209396,-148.041188,1915.238745,9400.615463
874.209726,296.082377,1532.190996,9030.512492
874.210055,370.102971,1072.533697,8438.347739
874.210385,0.000000,995.924147,8290.306550
874.210715,-296.082377,1685.410096,8142.265362
874.211044,296.082377,1838.629195,9178.553681
874.211374,592.164754,1838.629195,9474.636058
874.211703,-814.226536,1838.629195,9178.553681
874.212033,-1480.411884,1455.581446,9178.553681
874.212362,-1332.370696,536.266849,9770.718434
874.212692,-1332.370696,306.438199,10288.862594
874.213021,-1850.514855,689.485948,10214.842000
874.213351,-2146.597232,459.657299,9474.636058
874.213680,-1998.556043,-153.219100,8660.409521
874.214010,-1332.370696,153.219100,8438.347739
874.214339,-1036.288319,536.266849,8068.244768
874.214669,-1406.391290,995.924147,8364.327145
874.214998,-1628.453072,1072.533697,9030.512492
874.215328,-1480.411884,1915.238745,9474.636058
874.215657,-1184.329507,1378.971896,10066.800811
874.215987,-1258.350101,1991.848295,10881.027347
874.216317,-2146.597232,1608.800546,10732.986159
874.216646,-2368.659014,1225.752797,10214.842000
874.216976,-1850.514855,842.705048,10584.944971
874.217305,-1332.370696,689.485948,10658.965565
874.217635,-1480.411884,383.047749,9622.677246
874.217964,-2146.597232,-229.828649,9400.615463
874.218294,-2072.576638,-383.047749,9252.574275
874.218623,-1184.329507,-536.266849,9622.677246
874.218953,-444.123565,-153.219100,10140.821405
874.219282,-370.102971,1072.533697,9992.780217
874.219612,0.000000,1225.752797,9474.636058
874.219941,370.102971,306.438199,9474.636058
874.220271,592.164754,536.266849,9770.718434
874.220600,-444.123565,1302.362347,10214.842000
874.220930,-1850.514855,2145.067394,10362.883188
874.221259,-2368.659014,2298.286494,10214.842000
874.221589,-2442.679609,1838.629195,9474.636058
874.221919,-1628.453072,1225.752797,8808.450710
874.222248,-814.226536,76.609550,8216.285956
874.222578,-222.061783,536.266849,7624.121203
874.222907,-518.144159,1991.848295,7772.162391
874.223237,-296.082377,1762.019645,8216.285956
874.223566,222.061783,1915.238745,8660.409521
874.223896,0.000000,1225.752797,9178.553681
874.224225,-740.205942,1302.362347,9770.718434
874.224555,-814.226536,1455.581446,10362.883188
874.224884,-1184.329507,842.705048,10584.944971
874.225214,-1332.370696,536.266849,10658.965565
874.225543,-1332.370696,306.438199,9992.780217
874.225873,-740.205942,0.000000,9252.574275
874.226202,0.000000,459.657299,8364.327145
874.226532,666.185348,612.876398,8216.285956
874.226861,962.267725,1378.971896,8290.306550
874.227191,666.185348,1762.019645,8956.491898
874.227521,74.020594,2451.505594,9326.594869
874.227850,0.000000,2834.553343,9696.697840
874.228180,-444.123565,2451.505594,9770.718434
874.228509,-1332.370696,1838.629195,10288.862594
874.228839,-2886.803174,1608.800546,10066.800811
874.229168,-3552.988522,383.047749,10066.800811
874.229498,-3108.864956,-383.047749,10214.842000
874.229827,-2886.803174,-842.705048,9770.718434
874.230157,-3552.988522,-1225.752797,9474.636058
874.230486,-3701.029710,-1072.533697,9252.574275
874.230816,-2664.741391,-689.485948,9326.594869
874.231145,-1332.370696,153.219100,9548.656652
874.231475,296.082377,689.485948,9696.697840
874.231804,1184.329507,842.705048,9474.636058
874.232134,1480.411884,766.095498,9474.636058
874.232463,1036.288319,1302.362347,10140.821405
874.232793,222.061783,2221.676944,10807.006753
874.233122,-1184.329507,2145.067394,10955.047942
874.233452,-1480.411884,1685.410096,10881.027347
874.233782,-2072.576638,1225.752797,10362.883188
874.234111,-1628.453072,229.828649,9252.574275
874.234441,-666.185348,-689.485948,8438.347739
874.234770,-740.205942,-383.047749,7920.203579
874.235100,-1184.329507,612.876398,7624.121203
874.235429,-1258.350101,1225.752797,8216.285956
874.235759,-962.267725,1915.238745,8956.491898
874.236088,-740.205942,1608.800546,9178.553681
874.236418,-1702.473667,1072.533697,9104.533087
874.236747,-2072.576638,76.609550,9252.574275
874.237077,-2294.638420,76.609550,10510.924376
874.237406,-2812.782580,-229.828649,10584.944971
874.237736,-2812.782580,459.657299,10436.903782
874.238065,-1998.556043,76.609550,9622.677246
874.238395,-370.102971,-842.705048,9326.594869
874.238724,518.144159,0.000000,8660.409521
874.239054,962.267725,842.705048,8142.265362
874.239384,666.185348,1685.410096,8734.430116
874.239713,148.041188,2451.505594,9326.594869
874.240043,-148.041188,3447.429741,9844.739029
874.240372,-296.082377,2834.553343,9918.759623
874.240702,-1184.329507,1762.019645,9622.677246
874.241031,-1776.494261,1072.533697,9400.615463
874.241361,-2294.638420,229.828649,9474.636058
874.241690,-2516.700203,-229.828649,9992.780217
874.242020,-2368.659014,-383.047749,9992.780217
874.242349,-2664.741391,-689.485948,9400.615463
874.242679,-3182.885551,-306.438199,9400.615463
874.243008,-2442.679609,0.000000,9474.636058
874.243338,-1184.329507,306.438199,9844.739029
874.243667,-370.102971,919.314598,10140.821405
874.243997,222.061783,1991.848295,10436.903782
874.244326,592.164754,1149.143247,9844.739029
874.244656,370.102971,1149.143247,10140.821405
874.244986,0.000000,1608.800546,10510.924376
874.245315,-666.185348,1838.629195,10584.944971
874.245645,-1036.288319,1225.752797,10362.883188
874.245974,-1258.350101,919.314598,10066.800811
874.246304,-888.247130,1532.190996,9400.615463
874.246633,-296.082377,1149.143247,8882.471304
874.246963,148.041188,995.924147,8068.244768
874.247292,0.000000,1455.581446,7402.059420
874.247622,74.020594,1838.629195,7402.059420
874.247951,0.000000,1838.629195,8512.368333
874.248281,0.000000,1991.848295,9104.533087
874.248610,-888.247130,1915.238745,9696.697840
874.248940,-2072.576638,1685.410096,9844.739029
874.249269,-2590.720797,383.047749,9844.739029
874.249599,-2146.597232,229.828649,10362.883188
874.249928,-2146.597232,76.609550,10436.903782
874.250258,-1850.514855,0.000000,9548.656652
874.250587,-1036.288319,-306.438199,9178.553681
874.250917,-740.205942,76.609550,8364.327145
874.251247,-444.123565,1378.971896,8290.306550
874.251576,-370.102971,1685.410096,8586.388927
874.251906,-444.123565,1838.629195,8734.430116
874.252235,-592.164754,2374.896044,9030.512492
874.252565,-370.102971,1991.848295,9548.656652
874.252894,-1184.329507,1455.581446,9918.759623
874.253224,-1924.535449,1378.971896,10214.842000
874.253553,-2442.679609,1149.143247,9770.718434
874.253883,-2368.659014,459.657299,9918.759623
874.254212,-1628.453072,306.438199,10066.800811
874.254542,-1480.411884,-459.657299,10066.800811
874.254871,-2220.617826,0.000000,9474.636058
874.255201,-2368.659014,-153.219100,9474.636058
874.255530,-2146.597232,-383.047749,10510.924376
874.255860,-1702.473667,229.828649,11547.212695
874.256189,-1258.350101,919.314598,11251.130318
874.256519,-1110.308913,689.485948,10288.862594
874.256849,-222.061783,153.219100,9992.780217
874.257178,148.041188,536.266849,9696.697840
874.257508,296.082377,1225.752797,9770.718434
874.257837,0.000000,1685.410096,9918.759623
874.258167,-592.164754,1762.019645,9622.677246
874.258496,-888.247130,2221.676944,9178.553681
874.258826,-296.082377,1532.190996,8586.388927
874.259155,222.061783,842.705048,8438.347739
874.259485,74.020594,1072.533697,7920.203579
874.259814,222.061783,919.314598,7994.224174
874.260144,-222.061783,1455.581446,8586.388927
874.260473,-148.041188,1225.752797,9400.615463
874.260803,-592.164754,1225.752797,9844.739029
874.261132,-1924.535449,1762.019645,9622.677246
874.261462,-1850.514855,1838.629195,9696.697840
874.261791,-1776.494261,842.705048,10288.862594
874.262121,-1850.514855,612.876398,10288.862594
874.262451,-1628.453072,612.876398,10066.800811
874.262780,-1480.411884,306.438199,8808.450710
874.263110,-814.226536,306.438199,7772.162391
874.263439,-444.123565,536.266849,7328.038826
874.263769,-222.061783,689.485948,7698.141797
874.264098,-222.061783,995.924147,8290.306550
874.264428,-222.061783,1762.019645,9178.553681
874.264757,-370.102971,2451.505594,9918.759623
874.265087,-370.102971,2374.896044,10214.842000
874.265416,-888.247130,2374.896044,10658.965565
874.265746,-1924.535449,1838.629195,10510.924376
874.266075,-2368.659014,1455.581446,10288.862594
874.266405,-1628.453072,689.485948,10732.986159
874.266734,-1554.432478,-229.828649,10066.800811
874.267064,-2368.659014,-995.924147,9622.677246
874.267393,-3034.844362,-919.314598,10288.862594
874.267723,-2812.782580,-689.485948,10436.903782
874.268052,-1998.556043,-306.438199,10510.924376
874.268382,-1332.370696,229.828649,10066.800811
874.268712,148.041188,689.485948,9548.656652
874.269041,814.226536,0.000000,9252.574275
874.269371,888.247130,1072.533697,9474.636058
874.269700,296.082377,1991.848295,10140.821405
874.270030,-518.144159,2374.896044,10584.944971
874.270359,-1554.432478,2451.505594,10510.924376
874.270689,-1998.556043,1685.410096,10214.842000
874.271018,-1628.453072,766.095498,9326.594869
874.271348,-518.144159,383.047749,8512.368333
874.271677,-148.041188,-306.438199,7920.203579
874.272007,-296.082377,-76.609550,7698.141797
874.272336,-296.082377,1149.143247,8586.388927
874.272666,-296.082377,1608.800546,9104.533087
874.272995,-296.082377,1915.238745,9622.677246
874.273325,-1258.350101,1838.629195,9400.615463
874.273654,-1332.370696,1915.238745,9770.718434
874.273984,-1258.350101,383.047749,9770.718434
874.274314,-1628.453072,153.219100,10066.800811
874.274643,-1776.494261,459.657299,9622.677246
874.274973,-1628.453072,-306.438199,9104.533087
874.275302,-888.247130,-1072.533697,8734.430116
874.275632,-666.185348,0.000000,8734.430116
874.275961,-222.061783,995.924147,8438.347739
874.276291,74.020594,766.095498,8290.306550
874.276620,-148.041188,1838.629195,8734.430116
874.276950,-814.226536,2757.943793,9400.615463
874.277279,-740.205942,2987.772442,9622.677246
874.277609,-1184.329507,1838.629195,10140.821405
874.277938,-2072.576638,1532.190996,10436.903782
874.278268,-2886.803174,1072.533697,10288.862594
874.278597,-2664.741391,153.219100,10510.924376
874.278927,-2368.659014,-459.657299,9918.759623
874.279256,-2368.659014,-1149.143247,9992.780217
874.279586,-2960.823768,-1072.533697,9918.759623
874.279916,-2812.782580,-689.485948,9992.780217
874.280245,-1850.514855,-536.266849,10436.903782
874.280574,-1406.391290,306.438199,10658.965565
874.280904,148.041188,1149.143247,10214.842000
874.281233,740.205942,1225.752797,9696.697840
874.281562,1628.453072,459.657299,9844.739029
874.281892,1332.370696,1225.752797,10436.903782
874.282221,222.061783,1991.848295,10066.800811
874.282551,-1036.288319,2068.457845,9918.759623
874.282880,-1480.411884,1838.629195,10436.903782
874.283209,-1628.453072,1762.019645,9696.697840
874.283539,-814.226536,1225.752797,9178.553681
874.283868,-148.041188,229.828649,8438.347739
874.284197,0.000000,612.876398,7031.956449
874.284527,-370.102971,1608.800546,7105.977043
874.284856,0.000000,1991.848295,8216.285956
874.285186,518.144159,1991.848295,8956.491898
874.285515,-518.144159,2604.724693,8808.450710
874.285844,-1554.432478,2451.505594,8364.327145
874.286174,-1850.514855,1149.143247,8734.430116
874.286503,-2072.576638,383.047749,9252.574275
874.286832,-2368.659014,383.047749,9696.697840
874.287162,-2664.741391,76.609550,9474.636058
874.287491,-2146.597232,-766.095498,9474.636058
874.287821,-1554.432478,0.000000,9844.739029
874.288150,-888.247130,459.657299,9474.636058
874.288479,-148.041188,1149.143247,9030.512492
874.288809,1036.288319,1685.410096,9252.574275
874.289138,888.247130,2451.505594,9326.594869
874.289467,1480.411884,3140.991542,9548.656652
874.289797,962.267725,2757.943793,9918.759623
874.290126,-148.041188,2681.334243,10140.821405
874.290456,-1850.514855,1991.848295,10214.842000
874.290785,-2516.700203,1149.143247,10436.903782
874.291114,-2368.659014,0.000000,10436.903782
874.291444,-2738.761985,-1532.190996,10066.800811
874.291773,-3701.029710,-1225.752797,10214.842000
874.292102,-4145.153275,-459.657299,9770.718434
874.292432,-3034.844362,-689.485948,9918.759623
874.292761,-1850.514855,-229.828649,10584.944971
874.293091,-1184.329507,1608.800546,10881.027347
874.293420,-740.205942,2145.067394,10214.842000
874.293749,-148.041188,1455.581446,9918.759623
874.294079,74.020594,1302.362347,10214.842000
874.294408,-592.164754,2068.457845,10214.842000
874.294737,-1332.370696,1378.971896,9918.759623
874.295067,-1924.535449,1225.752797,9622.677246
874.295396,-1628.453072,1302.362347,9030.512492
874.295726,-370.102971,612.876398,8068.244768
874.296055,888.247130,0.000000,7920.203579
874.296384,888.247130,383.047749,7624.121203
874.296714,592.164754,1915.238745,7328.038826
874.297043,666.185348,2528.115143,7920.203579
874.297372,1184.329507,2374.896044,9326.594869
874.297702,444.123565,1915.238745,9844.739029
874.298031,-1332.370696,1762.019645,9844.739029
874.298361,-2516.700203,1455.581446,9474.636058
874.298690,-2294.638420,612.876398,9844.739029
874.299019,-1628.453072,0.000000,10140.821405
874.299349,-1184.329507,-536.266849,9770.718434
874.299678,-1332.370696,-995.924147,9104.533087
874.300007,-888.247130,-689.485948,8660.409521
874.300337,-296.082377,919.314598,9030.512492
874.300666,-444.123565,1608.800546,9104.533087
874.300996,-370.102971,2145.067394,9178.553681
874.301325,-296.082377,2221.676944,9696.697840
874.301654,-296.082377,2145.067394,9696.697840
874.301984,-1036.288319,1685.410096,10288.862594
874.302313,-1554.432478,766.095498,9844.739029
874.302642,-2368.659014,229.828649,9696.697840
874.302972,-2368.659014,0.000000,10066.800811
874.303301,-1850.514855,-229.828649,10362.883188
874.303631,-1406.391290,-842.705048,10140.821405
874.303960,-1776.494261,-306.438199,9844.739029
874.304289,-2072.576638,306.438199,9770.718434
874.304619,-1406.391290,766.095498,10066.800811
874.304948,-296.082377,995.924147,10436.903782
874.305277,0.000000,1225.752797,10955.047942
874.305607,-222.061783,1072.533697,9918.759623
874.305936,-296.082377,919.314598,9622.677246
874.306266,-518.144159,383.047749,10066.800811
874.306595,-1036.288319,536.266849,10214.842000
874.306924,-1776.494261,1378.971896,9918.759623
874.307254,-2294.638420,842.705048,9474.636058
874.307583,-2368.659014,1302.362347,9252.574275
874.307912,-1628.453072,919.314598,8586.388927
874.308242,-518.144159,689.485948,7994.224174
874.308571,-148.041188,766.095498,7920.203579
874.308901,-814.226536,995.924147,7994.224174
874.309230,-444.123565,1762.019645,8290.306550
874.309559,0.000000,1915.238745,8882.471304
874.309889,0.000000,1532.190996,9252.574275
874.310218,-888.247130,1149.143247,9696.697840
874.310547,-1628.453072,1608.800546,10066.800811
874.310877,-1554.432478,536.266849,10066.800811
874.311206,-1850.514855,153.219100,9918.759623
874.311536,-1554.432478,842.705048,10066.800811
874.311865,-814.226536,306.438199,9030.512492
874.312194,-592.164754,-536.266849,8660.409521
874.312524,0.000000,229.828649,8290.306550
874.312853,-370.102971,1225.752797,8512.368333
874.313183,-740.205942,1302.362347,9030.512492
874.313512,-1110.308913,1608.800546,9844.739029
874.313841,-1554.432478,2451.505594,9992.780217
874.314171,-1628.453072,1685.410096,9992.780217
874.314500,-1480.411884,842.705048,10362.883188
874.314829,-2146.597232,842.705048,9992.780217
874.315159,-2442.679609,76.609550,10066.800811
874.315488,-2220.617826,306.438199,10066.800811
874.315818,-1702.473667,459.657299,9844.739029
874.316147,-1406.391290,-306.438199,10362.883188
874.316476,-2220.617826,0.000000,10288.862594
874.316806,-2442.679609,153.219100,9622.677246
874.317135,-1628.453072,-306.438199,10066.800811
874.317464,-592.164754,0.000000,10140.821405
874.317794,-518.144159,459.657299,10214.842000
874.318123,222.061783,306.438199,9622.677246
874.318453,518.144159,-153.219100,9622.677246
874.318782,666.185348,536.266849,9844.739029
874.319111,148.041188,1762.019645,9474.636058
874.319441,-74.020594,1608.800546,9622.677246
874.319770,-592.164754,1608.800546,9474.636058
874.320099,-740.205942,2145.067394,8956.491898
874.320429,0.000000,1302.362347,8660.409521
874.320758,74.020594,612.876398,8438.347739
874.321088,0.000000,1072.533697,8216.285956
874.321417,-1184.329507,1072.533697,8216.285956
874.321746,-1184.329507,1072.533697,8956.491898
874.322076,-740.205942,995.924147,9622.677246
874.322405,-888.247130,766.095498,9992.780217
874.322734,-1406.391290,1072.533697,10214.842000
874.323064,-1924.535449,995.924147,9474.636058
874.323393,-1332.370696,766.095498,10214.842000
874.323723,-888.247130,1072.533697,9770.718434
874.324052,-370.102971,919.314598,9030.512492
874.324381,148.041188,153.219100,8438.347739
874.324711,518.144159,612.876398,8142.265362
874.325040,370.102971,1302.362347,8956.491898
874.325369,-296.082377,1685.410096,9326.594869
874.325699,-740.205942,1762.019645,9696.697840
874.326028,-1554.432478,2528.115143,10140.821405
874.326358,-1332.370696,2451.505594,10658.965565
874.326687,-1628.453072,1762.019645,10436.903782
874.327016,-1924.535449,1302.362347,10140.821405
874.327346,-2738.761985,995.924147,9400.615463
874.327675,-2812.782580,536.266849,9474.636058
874.328004,-2294.638420,612.876398,9844.739029
874.328334,-1850.514855,0.000000,9918.759623
874.328663,-3034.844362,229.828649,9474.636058
874.328993,-3256.906145,459.657299,9770.718434
874.329322,-2886.803174,229.828649,9548.656652
874.329651,-1776.494261,229.828649,10362.883188
874.329981,-962.267725,1225.752797,10510.924376
874.330310,-148.041188,1072.533697,9474.636058
874.330639,740.205942,459.657299,9548.656652
874.330969,1184.329507,536.266849,9622.677246
874.331298,666.185348,1378.971896,9844.739029
874.331628,222.061783,2145.067394,9770.718434
874.331957,-370.102971,2145.067394,10288.862594
874.332286,-592.164754,2145.067394,9548.656652
874.332616,-148.041188,1762.019645,9178.553681
874.332945,296.082377,842.705048,8512.368333
874.333274,74.020594,919.314598,7920.203579
874.333604,-444.123565,1302.362347,7550.100608
874.333933,-814.226536,1532.190996,8290.306550
874.334263,-370.102971,1225.752797,9252.574275
874.334592,-592.164754,1149.143247,9696.697840
874.334921,-1480.411884,1302.362347,10066.800811
874.335251,-1850.514855,1225.752797,10214.842000
874.335580,-2146.597232,306.438199,9992.780217
874.335909,-1776.494261,76.609550,10288.862594
874.336239,-1332.370696,0.000000,9844.739029
874.336568,-740.205942,-153.219100,9252.574275
874.336898,-148.041188,-919.314598,8734.430116
874.337227,296.082377,229.828649,8882.471304
874.337556,148.041188,1072.533697,8586.388927
874.337886,0.000000,1685.410096,8734.430116
874.338215,0.000000,2068.457845,9474.636058
874.338544,296.082377,2451.505594,9770.718434
874.338874,222.061783,2221.676944,10288.862594
874.339203,-740.205942,1838.629195,10066.800811
874.339533,-1998.556043,1378.971896,9696.697840
874.339862,-2516.700203,459.657299,9622.677246
874.340191,-2294.638420,229.828649,10140.821405
874.340521,-2220.617826,0.000000,10066.800811
874.340850,-2368.659014,-383.047749,9770.718434
874.341179,-3182.885551,-612.876398,9622.677246
874.341509,-3034.844362,0.000000,9770.718434
874.341838,-2368.659014,383.047749,10214.842000
874.342168,-1850.514855,766.095498,10288.862594
874.342497,-962.267725,1302.362347,9770.718434
874.342826,0.000000,1149.143247,9252.574275
874.343156,370.102971,306.438199,9104.533087
874.343485,0.000000,1149.143247,9548.656652
874.343814,-888.247130,2451.505594,10066.800811
874.344144,-1184.329507,1915.238745,9992.780217
874.344473,-1924.535449,2068.457845,10066.800811
874.344803,-1406.391290,1608.800546,9400.615463
874.345132,-370.102971,459.657299,9104.533087
874.345461,0.000000,229.828649,9104.533087
874.345791,-444.123565,1532.190996,8068.244768
874.346120,-518.144159,1762.019645,8290.306550
874.346449,0.000000,1608.800546,9030.512492
874.346779,148.041188,1455.581446,9474.636058
874.347108,-592.164754,1455.581446,9474.636058
874.347438,-1406.391290,1685.410096,9400.615463
874.347767,-1480.411884,995.924147,9400.615463
874.348096,-1110.308913,383.047749,9918.759623
874.348426,-1184.329507,766.095498,9992.780217
874.348755,-1110.308913,612.876398,9252.574275
874.349085,-296.082377,-153.219100,8142.265362
874.349414,0.000000,76.609550,8438.347739
874.349743,-222.061783,1608.800546,8956.491898
874.350073,-592.164754,1762.019645,9104.533087
874.350402,-1036.288319,1838.629195,9474.636058
874.350731,-1628.453072,2681.334243,9770.718434
874.351061,-962.267725,2451.505594,10584.944971
874.351390,-1702.473667,1072.533697,9918.759623
874.351720,-2368.659014,766.095498,9548.656652
874.352049,-3034.844362,153.219100,9252.574275
874.352378,-2812.782580,-306.438199,9622.677246
874.352708,-2146.597232,-1225.752797,9918.759623
874.353037,-2220.617826,-536.266849,10214.842000
874.353366,-2442.679609,-459.657299,9844.739029
874.353696,-2220.617826,0.000000,9548.656652
874.354025,-1184.329507,0.000000,9844.739029
874.354355,-296.082377,383.047749,10807.006753
874.354684,148.041188,995.924147,10510.924376
874.355013,444.123565,842.705048,10214.842000
874.355343,740.205942,153.219100,10288.862594
874.355672,0.000000,766.095498,10140.821405
874.356001,-962.267725,1149.143247,10436.903782
874.356331,-1258.350101,1072.533697,10362.883188
874.356660,-1554.432478,1225.752797,10214.842000
874.356990,-1480.411884,1455.581446,9474.636058
874.357319,-666.185348,919.314598,8882.471304
874.357648,0.000000,0.000000,8216.285956
874.357978,222.061783,1455.581446,7624.121203
874.358307,-518.144159,1685.410096,7624.121203
874.358636,-148.041188,1991.848295,8512.368333
874.358966,-296.082377,1991.848295,8956.491898
874.359295,-1036.288319,1378.971896,8882.471304
874.359625,-1776.494261,766.095498,9474.636058
874.359954,-2590.720797,383.047749,9548.656652
874.360283,-2368.659014,0.000000,10362.883188
874.360613,-2442.679609,0.000000,10658.965565
874.360942,-2368.659014,0.000000,9992.780217
874.361271,-962.267725,153.219100,9178.553681
874.361601,666.185348,0.000000,8956.491898
874.361930,1036.288319,1072.533697,8734.430116
874.362260,1406.391290,1915.238745,8586.388927
874.362589,1258.350101,2298.286494,8808.450710
874.362918,592.164754,2987.772442,9252.574275
874.363248,74.020594,3370.820191,9474.636058
874.363577,-370.102971,2374.896044,9918.759623
874.363906,-1110.308913,1685.410096,10066.800811
874.364236,-2664.741391,995.924147,9548.656652
874.364565,-3034.844362,383.047749,9548.656652
874.364895,-2442.679609,-306.438199,9844.739029
874.365224,-2738.761985,-153.219100,10140.821405
874.365553,-3108.864956,-153.219100,10066.800811
874.365883,-3404.947333,536.266849,9844.739029
874.366212,-2664.741391,612.876398,9844.739029
874.366541,-1702.473667,383.047749,10362.883188
874.366871,-1258.350101,1532.190996,10214.842000
874.367200,-518.144159,1838.629195,9696.697840
874.367530,0.000000,536.266849,9696.697840
874.367859,-296.082377,689.485948,9844.739029
874.368188,-592.164754,1532.190996,9918.759623
874.368518,-1110.308913,1455.581446,9844.739029
874.368847,-962.267725,1149.143247,9844.739029
874.369176,-888.247130,1838.629195,9474.636058
874.369506,-222.061783,1302.362347,9400.615463
874.369835,296.082377,919.314598,9104.533087
874.370165,370.102971,2068.457845,8438.347739
874.370494,0.000000,2451.505594,8068.244768
874.370823,0.000000,1685.410096,8512.368333
874.371153,592.164754,1378.971896,9178.553681
874.371482,0.000000,919.314598,9474.636058
874.371811,-1184.329507,919.314598,9252.574275
874.372141,-2146.597232,995.924147,9474.636058
874.372470,-1850.514855,612.876398,9770.718434
874.372800,-1850.514855,306.438199,10140.821405
874.373129,-1776.494261,919.314598,9770.718434
874.373458,-1110.308913,459.657299,9326.594869
874.373788,0.000000,536.266849,9252.574275
874.374117,0.000000,919.314598,8734.430116
874.374446,-296.082377,1149.143247,8956.491898
874.374776,-888.247130,919.314598,9326.594869
874.375105,-1628.453072,1532.190996,9622.677246
874.375435,-2220.617826,2374.896044,9622.677246
874.375764,-1480.411884,1762.019645,9696.697840
874.376093,-1332.370696,612.876398,9474.636058
874.376423,-1406.391290,0.000000,9178.553681
874.376752,-1702.473667,536.266849,9326.594869
874.377081,-1554.432478,1378.971896,9992.780217
874.377411,-666.185348,383.047749,9770.718434
874.377740,-1184.329507,612.876398,9844.739029
874.378070,-1480.411884,612.876398,10288.862594
874.378399,-1924.535449,383.047749,10658.965565
874.378728,-1850.514855,0.000000,11029.068536
874.379058,-1702.473667,0.000000,11177.109724
874.379387,-2146.597232,383.047749,11029.068536
874.379716,-1480.411884,0.000000,10362.883188
874.380046,-592.164754,-229.828649,9918.759623
874.380375,-296.082377,383.047749,9400.615463
874.380705,-148.041188,1072.533697,9400.615463
874.381034,-444.123565,1608.800546,9104.533087
874.381363,-888.247130,2068.457845,9548.656652
874.381693,-814.226536,2528.115143,9326.594869
874.382022,0.000000,2145.067394,9178.553681
874.382351,0.000000,1915.238745,8808.450710
874.382681,-592.164754,536.266849,7846.182985
874.383010,-518.144159,766.095498,7994.224174
874.383339,148.041188,536.266849,8808.450710
874.383669,-222.061783,766.095498,9696.697840
874.383998,-740.205942,1225.752797,9844.739029
874.384327,-1480.411884,1838.629195,9474.636058
874.384657,-1110.308913,383.047749,9178.553681
874.384986,-814.226536,459.657299,9548.656652
874.385316,-370.102971,1378.971896,10214.842000
874.385645,-296.082377,1072.533697,9548.656652
874.385974,-296.082377,76.609550,9030.512492
874.386304,-296.082377,919.314598,9104.533087
874.386633,-666.185348,1302.362347,8956.491898
874.386962,-814.226536,1302.362347,8808.450710
874.387292,-666.185348,1302.362347,8734.430116
874.387621,-962.267725,1532.190996,9030.512492
874.387950,-888.247130,1378.971896,9178.553681
874.388280,-888.247130,1302.362347,9992.780217
874.388609,-1850.514855,1302.362347,9918.759623
874.388938,-2442.679609,1225.752797,9696.697840
874.389268,-2368.659014,1072.533697,9992.780217
874.389597,-1702.473667,76.609550,10584.944971
874.389926,-1554.432478,-306.438199,10732.986159
874.390256,-2664.741391,-766.095498,10436.903782
874.390585,-3034.844362,-153.219100,10436.903782
874.390914,-2664.741391,0.000000,10510.924376
874.391244,-2220.617826,-612.876398,10362.883188
874.391573,-1036.288319,536.266849,10214.842000
874.391902,-666.185348,306.438199,9178.553681
874.392232,74.020594,229.828649,8956.491898
874.392561,592.164754,612.876398,9252.574275
874.392890,0.000000,1455.581446,9178.553681
874.393220,-1036.288319,1225.752797,9252.574275
874.393549,-1776.494261,2068.457845,9770.718434
874.393878,-1628.453072,1991.848295,9992.780217
874.394208,-1184.329507,1302.362347,9622.677246
874.394537,-1110.308913,459.657299,8956.491898
874.394866,-1036.288319,0.000000,8660.409521
874.395196,-1554.432478,459.657299,8586.388927
874.395525,-1036.288319,1072.533697,9030.512492
874.395854,-518.144159,842.705048,9474.636058
874.396184,-740.205942,995.924147,9252.574275
874.396513,-962.267725,306.438199,8808.450710
874.396842,-1036.288319,306.438199,9030.512492
874.397172,-814.226536,536.266849,9696.697840
874.397501,-666.185348,1149.143247,9844.739029
874.397830,-592.164754,842.705048,9400.615463
874.398160,-370.102971,-383.047749,8882.471304
874.398489,0.000000,766.095498,9548.656652
874.398818,-148.041188,1149.143247,9548.656652
874.399148,-444.123565,1532.190996,9696.697840
874.399477,-814.226536,1532.190996,9770.718434
874.399806,-1110.308913,2145.067394,9696.697840
874.400136,-888.247130,1915.238745,9770.718434
874.400465,-444.123565,1225.752797,9622.677246
874.400794,-1110.308913,1532.190996,9474.636058
874.401124,-1924.535449,1225.752797,9252.574275
874.401453,-1924.535449,306.438199,9400.615463
874.401782,-1184.329507,842.705048,9844.739029
874.402112,-1776.494261,153.219100,10140.821405
874.402441,-2220.617826,306.438199,10140.821405
874.402770,-2516.700203,919.314598,9844.739029
874.403100,-2368.659014,383.047749,9844.739029
874.403429,-1406.391290,229.828649,10140.821405
874.403758,-814.226536,842.705048,9622.677246
874.404088,0.000000,995.924147,9548.656652
874.404417,444.123565,536.266849,8956.491898
874.404746,592.164754,1072.533697,9178.553681
874.405076,518.144159,1455.581446,9622.677246
874.405405,-222.061783,1762.019645,9770.718434
874.405735,-1036.288319,2068.457845,9844.739029
874.406064,-1628.453072,2374.896044,9770.718434
874.406393,-1036.288319,1915.238745,9474.636058
874.406723,-814.226536,1149.143247,8956.491898
874.407052,-888.247130,766.095498,8808.450710
874.407381,-1184.329507,612.876398,7994.224174
874.407711,-814.226536,842.705048,8068.244768
874.408040,-222.061783,459.657299,8512.368333
874.408369,0.000000,0.000000,8956.491898
874.408699,-592.164754,1072.533697,9622.677246
874.409028,-1332.370696,1225.752797,9474.636058
874.409357,-1850.514855,842.705048,10436.903782
874.409687,-1628.453072,1072.533697,10510.924376
874.410016,-1480.411884,842.705048,10732.986159
874.410345,-1184.329507,306.438199,9770.718434
874.410675,-740.205942,153.219100,9030.512492
874.411004,-370.102971,766.095498,8956.491898
874.411333,-518.144159,919.314598,8808.450710
874.411663,-666.185348,919.314598,9030.512492
874.411992,-814.226536,1455.581446,9474.636058
874.412321,-814.226536,2145.067394,9400.615463
874.412651,-592.164754,1685.410096,9770.718434
874.412980,-1110.308913,1302.362347,9474.636058
874.413309,-1776.494261,766.095498,9474.636058
874.413639,-2442.679609,459.657299,9474.636058
874.413968,-1998.556043,229.828649,10140.821405
874.414297,-2220.617826,306.438199,10066.800811
874.414627,-2220.617826,-229.828649,10214.842000
874.414956,-2960.823768,-306.438199,10214.842000
874.415285,-2886.803174,306.438199,10140.821405
874.415615,-2072.576638,229.828649,10362.883188
874.415944,-814.226536,612.876398,10140.821405
874.416273,0.000000,612.876398,9622.677246
874.416603,370.102971,76.609550,9400.615463
874.416932,296.082377,229.828649,9400.615463
874.417261,74.020594,1149.143247,9992.780217
874.417591,-370.102971,1532.190996,10288.862594
874.417920,-666.185348,1532.190996,10288.862594
874.418249,-1258.350101,1608.800546,10214.842000
874.418579,-814.226536,1915.238745,9474.636058
874.418908,0.000000,1225.752797,8734.430116
874.419237,148.041188,1149.143247,7920.203579
874.419567,222.061783,1455.581446,7624.121203
874.419896,0.000000,1685.410096,7920.203579
874.420225,370.102971,1838.629195,8512.368333
874.420555,370.102971,1302.362347,9178.553681
874.420884,-148.041188,1072.533697,9178.553681
874.421213,-962.267725,766.095498,9474.636058
874.421543,-1998.556043,306.438199,9770.718434
874.421872,-2072.576638,536.266849,10584.944971
874.422201,-1924.535449,1225.752797,10955.047942
874.422531,-1628.453072,842.705048,9992.780217
874.422860,-1332.370696,536.266849,8734.430116
874.423189,-222.061783,306.438199,8956.491898
874.423519,74.020594,1302.362347,8808.450710
874.423848,-222.061783,1838.629195,8882.471304
874.424177,-666.185348,2068.457845,9178.553681
874.424507,-888.247130,2068.457845,8808.450710
874.424836,-1480.411884,2298.286494,9400.615463
874.425165,-1702.473667,1149.143247,9548.656652
874.425495,-1628.453072,689.485948,9992.780217
874.425824,-2368.659014,229.828649,9918.759623
874.426154,-2368.659014,0.000000,10436.903782
874.426483,-2146.597232,0.000000,9918.759623
874.426812,-2368.659014,-229.828649,10584.944971
874.427142,-2516.700203,306.438199,10658.965565
874.427471,-2812.782580,459.657299,10140.821405
874.427800,-2294.638420,459.657299,10214.842000
874.428130,-962.267725,766.095498,9992.780217
874.428459,-592.164754,306.438199,9992.780217
874.428788,-370.102971,153.219100,8882.471304
874.429118,-222.061783,-153.219100,8586.388927
874.429447,0.000000,229.828649,9104.533087
874.429776,-148.041188,1225.752797,9400.615463
874.430106,-666.185348,1378.971896,9400.615463
874.430435,-1036.288319,1608.800546,10140.821405
874.430764,-1184.329507,1838.629195,9992.780217
874.431094,-666.185348,1991.848295,9622.677246
874.431423,-74.020594,1532.190996,9104.533087
874.431752,-296.082377,995.924147,8586.388927
874.432082,-962.267725,1149.143247,8364.327145
874.432411,-888.247130,919.314598,8512.368333
874.432740,-740.205942,689.485948,8956.491898
874.433070,-1702.473667,153.219100,9030.512492
874.433399,-2220.617826,0.000000,9104.533087
874.433728,-2368.659014,-536.266849,9696.697840
874.434058,-2220.617826,-536.266849,10584.944971
874.434387,-1702.473667,76.609550,11251.130318
874.434716,-1110.308913,459.657299,10955.047942
874.435046,74.020594,842.705048,9622.677246
874.435375,1184.329507,76.609550,9030.512492
874.435704,1628.453072,1072.533697,9252.574275
874.436034,1480.411884,1915.238745,8882.471304
874.436363,1036.288319,1762.019645,9030.512492
874.436692,370.102971,2528.115143,9178.553681
874.437022,-296.082377,2145.067394,9622.677246
874.437351,-444.123565,1838.629195,9622.677246
874.437680,-1110.308913,1225.752797,9622.677246
874.438010,-2072.576638,995.924147,9474.636058
874.438339,-2590.720797,1072.533697,9326.594869
874.438668,-2294.638420,766.095498,9548.656652
874.438998,-2442.679609,383.047749,9992.780217
874.439327,-2960.823768,536.266849,9844.739029
874.439656,-3923.091493,459.657299,9548.656652
874.439986,-3182.885551,459.657299,9696.697840
874.440315,-2368.659014,0.000000,10140.821405
874.440644,-1776.494261,612.876398,10288.862594
874.440974,-1184.329507,766.095498,9696.697840
874.441303,-444.123565,76.609550,9178.553681
874.441632,444.123565,536.266849,9252.574275
874.441962,888.247130,1455.581446,9400.615463
874.442291,1332.370696,2298.286494,9474.636058
874.442620,518.144159,2451.505594,9770.718434
874.442950,370.102971,3064.381992,9918.759623
874.443279,666.185348,3064.381992,9770.718434
874.443608,666.185348,2374.896044,9400.615463
874.443938,-148.041188,1762.019645,8808.450710
874.444267,-666.185348,1455.581446,8364.327145
874.444596,-814.226536,995.924147,8586.388927
874.444926,-888.247130,766.095498,9104.533087
874.445255,-1258.350101,76.609550,9252.574275
874.445584,-2146.597232,536.266849,8956.491898
874.445914,-2516.700203,153.219100,9474.636058
874.446243,-2368.659014,76.609550,9918.759623
874.446573,-2072.576638,689.485948,10066.800811
874.446902,-1850.514855,842.705048,9844.739029
874.447231,-1110.308913,689.485948,9104.533087
874.447561,-370.102971,459.657299,8882.471304
874.447890,-370.102971,689.485948,9252.574275
874.448219,-666.185348,1072.533697,9326.594869
874.448549,-740.205942,1225.752797,9548.656652
874.448878,-962.267725,1455.581446,9696.697840
874.449207,-222.061783,2145.067394,9696.697840
874.449537,148.041188,1225.752797,9622.677246
874.449866,0.000000,612.876398,9918.759623
874.450195,-888.247130,1149.143247,9548.656652
874.450525,-1406.391290,1378.971896,9622.677246
874.450854,-1628.453072,1378.971896,10066.800811
874.451183,-814.226536,0.000000,9844.739029
874.451513,-1554.432478,-306.438199,10288.862594
874.451842,-2664.741391,-383.047749,10214.842000
874.452171,-3182.885551,-76.609550,10214.842000
874.452501,-2738.761985,-536.266849,10436.903782
874.452830,-2516.700203,-306.438199,10214.842000
874.453159,-1628.453072,0.000000,9696.697840
874.453489,-740.205942,-229.828649,9474.636058
874.453818,296.082377,0.000000,9030.512492
874.454147,518.144159,1455.581446,9252.574275
874.454477,74.020594,1762.019645,9326.594869
874.454806,-222.061783,2068.457845,9696.697840
874.455135,-888.247130,2604.724693,9992.780217
874.455465,-1110.308913,2604.724693,9844.739029
874.455794,-1036.288319,2068.457845,9474.636058
874.456123,-666.185348,1302.362347,8068.244768
874.456453,-592.164754,612.876398,7698.141797
874.456782,-592.164754,76.609550,7994.224174
874.457111,-148.041188,306.438199,8512.368333
874.457441,0.000000,995.924147,9030.512492
874.457770,-962.267725,766.095498,9400.615463
874.458099,-888.247130,1608.800546,9252.574275
874.458429,-1332.370696,1378.971896,9844.739029
874.458758,-962.267725,1149.143247,10510.924376
874.459087,-962.267725,1225.752797,10362.883188
874.459417,-962.267725,1072.533697,9696.697840
874.459746,-888.247130,306.438199,9104.533087
874.460075,-592.164754,0.000000,9326.594869
874.460405,-888.247130,536.266849,9400.615463
874.460734,-1110.308913,1455.581446,8956.491898
874.461063,-1184.329507,1378.971896,9474.636058
874.461393,-888.247130,1915.238745,9178.553681
874.461722,-444.123565,2374.896044,9474.636058
874.462051,-592.164754,1455.581446,9474.636058
874.462381,-1036.288319,1378.971896,9622.677246
874.462710,-2146.597232,995.924147,9696.697840
874.463039,-2368.659014,919.314598,10140.821405
874.463369,-2146.597232,1302.362347,11029.068536
874.463698,-2442.679609,0.000000,10658.965565
874.464027,-2960.823768,0.000000,9992.780217
874.464357,-2886.803174,-383.047749,9474.636058
874.464686,-2146.597232,0.000000,9474.636058
874.465015,-1184.329507,0.000000,9548.656652
874.465345,-518.144159,766.095498,9548.656652
874.465674,148.041188,1072.533697,9104.533087
874.466003,148.041188,842.705048,9178.553681
874.466333,148.041188,1149.143247,9400.615463
874.466662,-666.185348,1455.581446,9622.677246
874.466992,-740.205942,1378.971896,10288.862594
874.467321,-1924.535449,1378.971896,10510.924376
874.467650,-1924.535449,1532.190996,10066.800811
874.467980,-1332.370696,995.924147,9400.615463
874.468309,-592.164754,-459.657299,8512.368333
874.468638,-518.144159,0.000000,7920.203579
874.468968,-666.185348,536.266849,7994.224174
874.469297,-444.123565,1302.362347,8586.388927
874.469626,0.000000,1149.143247,9030.512492
874.469956,-222.061783,919.314598,9548.656652
874.470285,-888.247130,1762.019645,9548.656652
874.470614,-1406.391290,842.705048,9622.677246
874.470944,-1332.370696,229.828649,10362.883188
874.471273,-1554.432478,153.219100,10807.006753
874.471602,-1406.391290,0.000000,10510.924376
874.471932,-814.226536,306.438199,10140.821405
874.472261,-222.061783,0.000000,9696.697840
874.472590,-296.082377,766.095498,9252.574275
874.472920,0.000000,1455.581446,8734.430116
874.473249,74.020594,1378.971896,8734.430116
874.473578,296.082377,1608.800546,9326.594869
874.473908,0.000000,1915.238745,8660.409521
874.474237,-370.102971,1838.629195,9400.615463
874.474566,-1110.308913,1378.971896,9400.615463
874.474896,-1998.556043,919.314598,9326.594869
874.475225,-2368.659014,689.485948,9696.697840
874.475554,-2072.576638,919.314598,10658.965565
874.475884,-1628.453072,459.657299,10584.944971
874.476213,-2294.638420,153.219100,10214.842000
874.476542,-2664.741391,536.266849,9992.780217
874.476872,-2368.659014,536.266849,9696.697840
874.477201,-1628.453072,0.000000,9474.636058
874.477530,-740.205942,1225.752797,9770.718434
874.477860,-222.061783,1685.410096,9548.656652
874.478189,222.061783,612.876398,9030.512492
874.478518,444.123565,842.705048,9326.594869
874.478848,0.000000,1685.410096,9474.636058
874.479177,-444.123565,1915.238745,9844.739029
874.479506,-1332.370696,1915.238745,10214.842000
874.479836,-1628.453072,2068.457845,9696.697840
874.480165,-962.267725,1838.629195,9474.636058
874.480494,-444.123565,1225.752797,9104.533087
874.480824,74.020594,1225.752797,8660.409521
874.481153,-370.102971,842.705048,7994.224174
874.481483,-370.102971,1072.533697,8216.285956
874.481812,-370.102971,1225.752797,8734.430116
874.482142,-814.226536,1149.143247,9252.574275
874.482471,-1480.411884,76.609550,9252.574275
874.482801,-2294.638420,842.705048,9474.636058
874.483130,-2442.679609,766.095498,9918.759623
874.483460,-2220.617826,689.485948,10140.821405
874.483789,-1702.473667,459.657299,9992.780217
874.484119,-1036.288319,229.828649,9326.594869
874.484448,-370.102971,306.438199,9622.677246
874.484778,-592.164754,459.657299,9548.656652
874.485107,-592.164754,842.705048,9252.574275
874.485437,-740.205942,1149.143247,9178.553681
874.485766,-592.164754,1455.581446,9326.594869
874.486096,-370.102971,2068.457845,9474.636058
874.486425,-592.164754,1378.971896,9400.615463
874.486755,-962.267725,1149.143247,9548.656652
874.487084,-1628.453072,919.314598,9622.677246
874.487414,-2220.617826,1225.752797,9622.677246
874.487743,-1554.432478,1149.143247,10140.821405
874.488073,-1480.411884,153.219100,10584.944971
874.488402,-1924.535449,0.000000,10362.883188
874.488732,-2516.700203,-229.828649,9992.780217
874.489061,-2960.823768,0.000000,10510.924376
874.489391,-2368.659014,-229.828649,10732.986159
874.489720,-1924.535449,306.438199,10214.842000
874.490050,-1332.370696,536.266849,9622.677246
874.490379,0.000000,0.000000,9178.553681
874.490709,518.144159,0.000000,8734.430116
874.491038,888.247130,1072.533697,9030.512492
874.491368,740.205942,2298.286494,9104.533087
874.491697,0.000000,2911.162892,9474.636058
874.492026,-296.082377,3294.210641,9770.718434
874.492356,-296.082377,2604.724693,9400.615463
874.492685,222.061783,1915.238745,8586.388927
874.493015,740.205942,1608.800546,8438.347739
874.493344,148.041188,383.047749,7994.224174
874.493674,-666.185348,842.705048,8586.388927
874.494003,-962.267725,995.924147,9474.636058
874.494333,-1184.329507,766.095498,9696.697840
874.494662,-1924.535449,995.924147,9474.636058
874.494992,-2294.638420,1455.581446,9104.533087
874.495321,-1480.411884,919.314598,9844.739029
874.495651,-1184.329507,919.314598,9844.739029
874.495980,-1036.288319,1455.581446,9622.677246
874.496310,-740.205942,1149.143247,9252.574275
874.496639,-370.102971,306.438199,9178.553681
874.496969,-296.082377,306.438199,9326.594869
874.497298,-666.185348,995.924147,9252.574275
874.497628,-962.267725,995.924147,9400.615463
874.497957,-1036.288319,842.705048,9696.697840
874.498287,-1480.411884,1378.971896,9992.780217
874.498616,-1258.350101,1302.362347,9622.677246
874.498946,-962.267725,919.314598,10140.821405
874.499275,-1332.370696,995.924147,9918.759623
874.499605,-1850.514855,1302.362347,10066.800811
874.499934,-1850.514855,919.314598,9918.759623
874.500264,-1702.473667,919.314598,10436.903782
874.500593,-1480.411884,536.266849,10214.842000
874.500923,-2072.576638,229.828649,9844.739029
874.501252,-2516.700203,306.438199,9622.677246
874.501582,-2220.617826,-229.828649,9326.594869
874.501911,-1628.453072,0.000000,9474.636058
874.502241,-1480.411884,459.657299,9326.594869
874.502570,-666.185348,766.095498,9104.533087
874.502900,-518.144159,459.657299,9030.512492
874.503229,-740.205942,1149.143247,9104.533087
874.503559,-814.226536,2068.457845,9474.636058
874.503888,-1332.370696,1838.629195,9918.759623
874.504218,-2072.576638,1991.848295,9844.739029
874.504547,-2294.638420,1762.019645,9548.656652
874.504877,-1998.556043,1149.143247,9548.656652
874.505206,-1702.473667,76.609550,9104.533087
874.505536,-1406.391290,-306.438199,8216.285956
874.505865,-1184.329507,-306.438199,8216.285956
874.506195,-370.102971,306.438199,8808.450710
874.506524,592.164754,76.609550,9030.512492
874.506854,888.247130,229.828649,9252.574275
874.507183,666.185348,1532.190996,9696.697840
874.507513,222.061783,1532.190996,9474.636058
874.507842,148.041188,1532.190996,10214.842000
874.508172,0.000000,1455.581446,11177.109724
874.508501,-148.041188,1762.019645,10881.027347
874.508831,-148.041188,919.314598,9770.718434
874.509160,-666.185348,76.609550,9474.636058
874.509490,-1036.288319,153.219100,9400.615463
874.509819,-1850.514855,76.609550,9252.574275
874.510149,-2368.659014,229.828649,9252.574275
874.510478,-2516.700203,1072.533697,9178.553681
874.510808,-2368.659014,919.314598,8808.450710
874.511137,-1850.514855,842.705048,9104.533087
874.511467,-1628.453072,842.705048,9030.512492
874.511796,-1850.514855,1302.362347,9400.615463
874.512126,-1924.535449,1455.581446,9622.677246
874.512455,-1110.308913,1532.190996,10436.903782
874.512785,-1036.288319,995.924147,10584.944971
874.513114,-1776.494261,536.266849,10658.965565
874.513444,-2294.638420,842.705048,10140.821405
874.513773,-2072.576638,229.828649,9548.656652
874.514103,-962.267725,-153.219100,9770.718434
874.514432,-592.164754,383.047749,9992.780217
874.514762,74.020594,919.314598,9548.656652
874.515091,666.185348,689.485948,9104.533087
874.515420,740.205942,1302.362347,9252.574275
874.515750,444.123565,2298.286494,9622.677246
874.516079,0.000000,2834.553343,9844.739029
874.516409,-814.226536,2451.505594,10066.800811
874.516738,-1776.494261,2528.115143,9844.739029
874.517068,-1554.432478,2068.457845,9548.656652
874.517397,-1332.370696,1149.143247,8882.471304
874.517727,-1184.329507,76.609550,8068.244768
874.518056,-1554.432478,153.219100,7772.162391
874.518386,-1332.370696,459.657299,7550.100608
874.518715,-518.144159,459.657299,8512.368333
874.519045,-370.102971,612.876398,9178.553681
874.519374,-814.226536,1608.800546,9326.594869
874.519704,-1480.411884,2451.505594,8882.471304
874.520033,-1036.288319,1762.019645,10066.800811
874.520363,-444.123565,1455.581446,10807.006753
874.520692,-370.102971,1455.581446,10732.986159
874.521022,-666.185348,919.314598,9252.574275
874.521351,-222.061783,459.657299,9400.615463
874.521681,-666.185348,0.000000,9548.656652
874.522010,-1110.308913,612.876398,9326.594869
874.522340,-1702.473667,1072.533697,9400.615463
874.522669,-1554.432478,919.314598,8882.471304
874.522999,-1036.288319,1149.143247,8734.430116
874.523328,-888.247130,1149.143247,9326.594869
874.523658,-740.205942,1072.533697,9696.697840
874.523987,-1554.432478,1302.362347,9622.677246
874.524317,-2294.638420,1455.581446,9992.780217
874.524646,-2368.659014,1455.581446,10881.027347
874.524976,-1702.473667,153.219100,11251.130318
874.525305,-1998.556043,153.219100,11177.109724
874.525635,-3034.844362,0.000000,10362.883188
874.525964,-3108.864956,-306.438199,9992.780217
874.526294,-2146.597232,-919.314598,9844.739029
874.526623,-1406.391290,0.000000,9918.759623
874.526953,-370.102971,229.828649,9622.677246
874.527282,222.061783,459.657299,8956.491898
874.527612,592.164754,612.876398,8808.450710
874.527941,962.267725,1378.971896,9104.533087
874.528271,518.144159,2145.067394,9474.636058
874.528600,-370.102971,2451.505594,10066.800811
874.528930,-1110.308913,2681.334243,10066.800811
874.529259,-1332.370696,2451.505594,9400.615463
874.529589,-814.226536,1838.629195,8660.409521
874.529918,-222.061783,306.438199,7994.224174
874.530248,444.123565,0.000000,7846.182985
874.530577,-296.082377,689.485948,7920.203579
874.530907,-148.041188,1149.143247,8512.368333
874.531236,148.041188,1072.533697,9326.594869
874.531566,-222.061783,2145.067394,9622.677246
874.531895,-1480.411884,1838.629195,9696.697840
874.532225,-1480.411884,1762.019645,10362.883188
874.532554,-1184.329507,1225.752797,10658.965565
874.532884,-1554.432478,995.924147,10732.986159
874.533213,-1924.535449,612.876398,10066.800811
874.533543,-1258.350101,0.000000,9844.739029
874.533872,-1184.329507,0.000000,9326.594869
874.534202,-814.226536,459.657299,8956.491898
874.534531,-740.205942,612.876398,8660.409521
874.534861,-444.123565,842.705048,8956.491898
874.535190,0.000000,1915.238745,9178.553681
874.535520,-222.061783,2298.286494,9252.574275
874.535849,-296.082377,2374.896044,9622.677246
874.536179,-592.164754,1991.848295,10214.842000
874.536508,-1554.432478,1685.410096,10436.903782
874.536838,-1850.514855,1532.190996,10436.903782
874.537167,-2294.638420,689.485948,10436.903782
874.537497,-1998.556043,0.000000,10807.006753
874.537826,-2516.700203,-383.047749,10510.924376
874.538155,-3182.885551,-306.438199,9770.718434
874.538485,-2368.659014,-306.438199,9622.677246
874.538814,-1480.411884,0.000000,9548.656652
874.539144,-518.144159,229.828649,9474.636058
874.539473,0.000000,612.876398,9104.533087
874.539803,370.102971,612.876398,8956.491898
874.540132,0.000000,1225.752797,9474.636058
874.540462,-962.267725,2374.896044,9770.718434
874.540791,-1776.494261,2145.067394,9992.780217
874.541121,-2220.617826,1991.848295,10362.883188
874.541450,-2072.576638,1838.629195,9844.739029
