#time,accel_x,accel_y,accel_z
1107.135029,-1036.288319,1072.533697,9474.636058
1107.135359,-1036.288319,995.924147,9400.615463
1107.135689,-1110.308913,995.924147,9400.615463
1107.136018,-1036.288319,1072.533697,9770.718434
1107.136348,-1258.350101,919.314598,9252.574275
1107.136678,-1036.288319,766.095498,9622.677246
1107.137007,-1110.308913,842.705048,9548.656652
1107.137337,-962.267725,689.485948,9474.636058
1107.137667,-888.247130,1072.533697,9252.574275
1107.137996,-962.267725,842.705048,9474.636058
1107.138326,-962.267725,766.095498,9474.636058
1107.138656,-888.247130,919.314598,9844.739029
1107.138985,-888.247130,1072.533697,9696.697840
1107.139315,-1184.329507,1302.362347,9474.636058
1107.139645,-1184.329507,1149.143247,9770.718434
1107.139974,-962.267725,1072.533697,9622.677246
1107.140304,-1184.329507,919.314598,9474.636058
1107.140633,-1184.329507,689.485948,9548.656652
1107.140963,-962.267725,842.705048,9178.553681
1107.141293,-1036.288319,612.876398,9622.677246
1107.141622,-888.247130,919.314598,9548.656652
1107.141952,-962.267725,766.095498,9622.677246
1107.142282,-1110.308913,842.705048,9474.636058
1107.142611,-962.267725,766.095498,9400.615463
1107.142941,-666.185348,1072.533697,9548.656652
1107.143271,-1110.308913,689.485948,9400.615463
1107.143600,-1258.350101,842.705048,9474.636058
1107.143930,-962.267725,842.705048,9548.656652
1107.144260,-962.267725,612.876398,9474.636058
1107.144589,-666.185348,1225.752797,9474.636058
1107.144919,-1036.288319,919.314598,9252.574275
1107.145249,-962.267725,919.314598,9474.636058
1107.145578,-1036.288319,1225.752797,9474.636058
1107.145908,-962.267725,1072.533697,9548.656652
1107.146238,-1110.308913,1302.362347,9326.594869
1107.146567,-1110.308913,842.705048,9326.594869
1107.146897,-962.267725,995.924147,9548.656652
1107.147226,-962.267725,842.705048,9474.636058
1107.147556,-888.247130,919.314598,9548.656652
1107.147886,-814.226536,1378.971896,9474.636058
1107.148215,-666.185348,689.485948,9474.636058
1107.148545,-1184.329507,689.485948,9474.636058
1107.148875,-1036.288319,919.314598,9622.677246
1107.149204,-962.267725,919.314598,9622.677246
1107.149534,-1036.288319,1685.410096,9770.718434
1107.149864,-666.185348,1072.533697,9400.615463
1107.150193,-740.205942,842.705048,9696.697840
1107.150523,-888.247130,1072.533697,9696.697840
1107.150853,-1184.329507,995.924147,9622.677246
1107.151182,-1036.288319,1225.752797,9622.677246
1107.151512,-666.185348,1072.533697,9770.718434
1107.151842,-962.267725,766.095498,9696.697840
1107.152171,-1036.288319,536.266849,9474.636058
1107.152501,-1184.329507,766.095498,9474.636058
1107.152831,-1036.288319,995.924147,9696.697840
1107.153160,-1184.329507,919.314598,9622.677246
1107.153490,-962.267725,995.924147,9622.677246
1107.153819,-814.226536,689.485948,9474.636058
1107.154149,-962.267725,842.705048,9474.636058
1107.154479,-962.267725,919.314598,9548.656652
1107.154808,-1184.329507,1072.533697,9252.574275
1107.155138,-888.247130,766.095498,9178.553681
1107.155468,-1036.288319,1072.533697,9548.656652
1107.155797,-888.247130,919.314598,9400.615463
1107.156127,-1036.288319,919.314598,9474.636058
1107.156457,-1036.288319,919.314598,9474.636058
1107.156786,-1036.288319,842.705048,9326.594869
1107.157116,-814.226536,842.705048,9622.677246
1107.157446,-1110.308913,919.314598,9474.636058
1107.157775,-1110.308913,842.705048,9474.636058
1107.158105,-1036.288319,995.924147,9326.594869
1107.158435,-1184.329507,1072.533697,9474.636058
1107.158764,-666.185348,689.485948,9770.718434
1107.159094,-962.267725,689.485948,9622.677246
1107.159424,-1036.288319,995.924147,9474.636058
1107.159753,-962.267725,919.314598,9622.677246
1107.160083,-814.226536,1302.362347,9696.697840
1107.160412,-740.205942,383.047749,9400.615463
1107.160742,-888.247130,919.314598,9548.656652
1107.161072,-1184.329507,995.924147,9548.656652
1107.161401,-1110.308913,919.314598,9474.636058
1107.161731,-1036.288319,1072.533697,9400.615463
1107.162061,-518.144159,689.485948,9918.759623
1107.162390,-962.267725,919.314598,9622.677246
1107.162720,-888.247130,995.924147,9474.636058
1107.163050,-370.102971,919.314598,8882.471304
1107.163379,518.144159,306.438199,9326.594869
1107.163709,1110.308913,306.438199,9400.615463
1107.164039,1036.288319,689.485948,9474.636058
1107.164368,592.164754,919.314598,9548.656652
1107.164698,0.000000,995.924147,10066.800811
1107.165028,-518.144159,919.314598,10140.821405
1107.165357,-666.185348,766.095498,10362.883188
1107.165687,-592.164754,0.000000,9992.780217
1107.166017,0.000000,76.609550,9400.615463
1107.166346,740.205942,0.000000,9104.533087
1107.166676,1702.473667,0.000000,8882.471304
1107.167005,2664.741391,919.314598,8216.285956
1107.167335,3330.926739,1455.581446,8808.450710
1107.167665,3478.967927,1685.410096,8734.430116
1107.167994,3478.967927,2298.286494,9252.574275
1107.168324,3552.988522,1762.019645,9918.759623
1107.168654,2812.782580,995.924147,10214.842000
1107.168983,1998.556043,1302.362347,10214.842000
1107.169313,1184.329507,689.485948,10510.924376
1107.169643,1406.391290,0.000000,10881.027347
1107.169972,1628.453072,-153.219100,10214.842000
1107.170302,2146.597232,-306.438199,9474.636058
1107.170632,2738.761985,-612.876398,9030.512492
1107.170961,3849.070898,689.485948,8660.409521
1107.171291,4515.256246,1378.971896,8956.491898
1107.171621,4293.194464,2068.457845,9252.574275
1107.171950,3478.967927,2604.724693,10066.800811
1107.172280,2294.638420,3064.381992,10658.965565
1107.172610,222.061783,2911.162892,10288.862594
1107.172939,-1628.453072,2145.067394,9844.739029
1107.173269,-1998.556043,919.314598,9178.553681
1107.173598,-962.267725,-459.657299,8142.265362
1107.173928,888.247130,-1302.362347,7254.018232
1107.174258,2368.659014,-1302.362347,6513.812290
1107.174587,3775.050304,-536.266849,6439.791695
1107.174917,4219.173869,689.485948,7402.059420
1107.175247,3701.029710,2681.334243,9326.594869
1107.175576,2442.679609,4596.572988,11103.089130
1107.175906,1110.308913,3983.696590,12287.418637
1107.176236,0.000000,3217.601092,12583.501014
1107.176565,-1110.308913,1532.190996,12805.562797
1107.176895,-2146.597232,-459.657299,11843.295072
1107.177225,-1776.494261,-1838.629195,10955.047942
1107.177554,-962.267725,-2987.772442,9400.615463
1107.177884,592.164754,-2221.676944,8586.388927
1107.178214,2220.617826,-1762.019645,7476.080014
1107.178543,3997.112087,-689.485948,7179.997637
1107.178873,5107.421000,1149.143247,7105.977043
1107.179203,5033.400406,2681.334243,7698.141797
1107.179532,4811.338623,4519.963438,9178.553681
1107.179862,3849.070898,4366.744339,9696.697840
1107.180191,3256.906145,3830.477490,10732.986159
1107.180521,2294.638420,2374.896044,11621.233289
1107.180851,666.185348,1225.752797,11695.253884
1107.181180,0.000000,-306.438199,11029.068536
1107.181510,-1332.370696,-1378.971896,10214.842000
1107.181840,-740.205942,-1838.629195,10584.944971
1107.182169,-518.144159,-1455.581446,10214.842000
1107.182499,0.000000,-689.485948,9770.718434
1107.182829,592.164754,229.828649,9104.533087
1107.183158,1924.535449,612.876398,7772.162391
1107.183488,3182.885551,919.314598,7994.224174
1107.183818,4071.132681,766.095498,8216.285956
1107.184147,4737.318029,842.705048,8142.265362
1107.184477,4589.276840,766.095498,8660.409521
1107.184807,4219.173869,919.314598,9622.677246
1107.185136,2590.720797,1608.800546,10066.800811
1107.185466,1480.411884,2068.457845,10510.924376
1107.185796,1850.514855,1685.410096,10807.006753
1107.186125,1924.535449,1915.238745,10510.924376
1107.186455,2294.638420,2145.067394,10362.883188
1107.186785,2220.617826,1532.190996,9474.636058
1107.187114,2738.761985,1455.581446,8142.265362
1107.187444,3182.885551,919.314598,7846.182985
1107.187773,2812.782580,842.705048,8290.306550
1107.188103,2368.659014,1378.971896,8734.430116
1107.188433,1332.370696,689.485948,9252.574275
1107.188762,-296.082377,383.047749,9548.656652
1107.189092,-1332.370696,229.828649,10658.965565
1107.189422,-1406.391290,-229.828649,11769.274478
1107.189751,-1850.514855,-229.828649,12065.356855
1107.190081,-2146.597232,536.266849,11251.130318
1107.190411,-1406.391290,306.438199,10214.842000
1107.190740,370.102971,-153.219100,9178.553681
1107.191070,3108.864956,0.000000,8364.327145
1107.191400,5403.503377,919.314598,7624.121203
1107.191729,7624.121203,2681.334243,7105.977043
1107.192059,9474.636058,2911.162892,7550.100608
1107.192389,9104.533087,3753.867940,8660.409521
1107.192718,7476.080014,5132.839837,10214.842000
1107.193048,4811.338623,5286.058936,11695.253884
1107.193378,2294.638420,4213.525239,12509.480420
1107.193707,-888.247130,2451.505594,13471.748144
1107.194037,-4515.256246,153.219100,13619.789333
1107.194366,-7179.997637,-1608.800546,12435.459826
1107.194696,-7994.224174,-2987.772442,10362.883188
1107.195026,-6439.791695,-3294.210641,7031.956449
1107.195355,-1554.432478,-3294.210641,3108.864956
1107.195685,4515.256246,-4136.915689,1110.308913
1107.196015,9178.553681,-3217.601092,2072.576638
1107.196344,9474.636058,1762.019645,4885.359217
1107.196674,7550.100608,6281.983084,7772.162391
1107.197004,6069.688724,8733.488677,11473.192101
1107.197333,3552.988522,10265.679673,14137.933492
1107.197663,222.061783,7124.688131,16728.654289
1107.197993,-2294.638420,1608.800546,17764.942608
1107.198322,-4219.173869,-842.705048,15766.386565
1107.198652,-4293.194464,-1915.238745,12583.501014
1107.198982,-2368.659014,-4826.401637,9326.594869
1107.199311,1332.370696,-6665.030833,7105.977043
1107.199641,5477.523971,-5745.716235,3256.906145
1107.199971,9696.697840,-3600.648841,962.267725
1107.200300,12805.562797,-536.266849,2960.823768
1107.200630,12213.398043,4903.011187,6513.812290
1107.200959,8216.285956,7048.078582,11251.130318
1107.201289,1998.556043,7967.393179,14211.954086
1107.201619,-3701.029710,9039.926876,14878.139434
1107.201948,-5181.441594,4979.620737,15692.365970
1107.202278,-3923.091493,-1149.143247,14137.933492
1107.202608,-3701.029710,-5745.716235,10658.965565
1107.202937,-2812.782580,-7660.954980,5255.462188
1107.203267,666.185348,-8044.002729,3701.029710
1107.203597,4737.318029,-5898.935335,5551.544565
1107.203926,4959.379811,-842.705048,6883.915261
1107.204256,2960.823768,2681.334243,8290.306550
1107.204586,3182.885551,5286.058936,9770.718434
1107.204915,5181.441594,7048.078582,12287.418637
1107.205245,4811.338623,5745.716235,14285.974681
1107.205575,1998.556043,4443.353888,13175.665768
1107.205904,-1036.288319,383.047749,11991.336260
1107.206234,-1850.514855,-2681.334243,11843.295072
1107.206564,-3108.864956,-3217.601092,12065.356855
1107.206893,-4293.194464,-2757.943793,9548.656652
1107.207223,-1998.556043,-4443.353888,5921.647536
1107.207552,2590.720797,-5286.058936,4737.318029
1107.207882,8438.347739,-2451.505594,4441.235652
1107.208212,11251.130318,1072.533697,4811.338623
1107.208541,11029.068536,3677.258390,7031.956449
1107.208871,7772.162391,8120.612279,10881.027347
1107.209201,2738.761985,11184.994271,14211.954086
1107.209530,0.000000,9269.755526,16580.613101
1107.209860,-1998.556043,4443.353888,16210.510130
1107.210189,-3775.050304,-459.657299,13767.830521
1107.210519,-4737.318029,-3753.867940,11769.274478
1107.210848,-4811.338623,-5822.325785,10362.883188
1107.211178,-4737.318029,-6205.373534,8808.450710
1107.211508,-5181.441594,-5056.230287,5921.647536
1107.211837,-3775.050304,-2068.457845,3256.906145
1107.212167,2368.659014,1762.019645,4293.194464
1107.212496,9400.615463,1762.019645,5551.544565
1107.212826,11769.274478,3753.867940,5477.523971
1107.213155,10288.862594,7048.078582,5551.544565
1107.213485,8808.450710,8503.660028,9252.574275
1107.213814,6217.729913,9806.022374,13619.789333
1107.214144,2146.597232,8963.317327,16210.510130
1107.214474,-518.144159,4979.620737,15396.283594
1107.214803,-1036.288319,-612.876398,12731.542202
1107.215133,-888.247130,-2911.162892,10881.027347
1107.215462,-962.267725,-4290.134789,10066.800811
1107.215792,-2072.576638,-4979.620737,10288.862594
1107.216121,-3923.091493,-2068.457845,9030.512492
1107.216451,-3330.926739,1072.533697,7105.977043
1107.216780,1332.370696,1991.848295,4293.194464
1107.217110,8216.285956,1532.190996,2368.659014
1107.217440,13101.645173,76.609550,2146.597232
1107.217769,13175.665768,919.314598,4145.153275
1107.218099,8882.471304,5056.230287,6809.894666
1107.218428,5033.400406,6818.249932,11177.109724
1107.218758,3034.844362,6281.983084,15692.365970
1107.219087,-296.082377,4290.134789,17394.839637
1107.219417,-3849.070898,1378.971896,17246.798449
1107.219746,-4737.318029,-3677.258390,14211.954086
1107.220076,-5477.523971,-6588.421283,11843.295072
1107.220406,-7031.956449,-4596.572988,11547.212695
1107.220735,-6587.832884,-3294.210641,10510.924376
1107.221065,-2294.638420,-3524.039291,6587.832884
1107.221394,4441.235652,-3370.820191,2664.741391
1107.221724,10510.924376,-2528.115143,3108.864956
1107.222053,12065.356855,612.876398,5329.482782
1107.222383,9844.739029,5822.325785,6143.709319
1107.222712,7254.018232,7737.564530,8956.491898
1107.223042,6217.729913,8197.221829,14434.015869
1107.223372,2516.700203,8120.612279,18801.230927
1107.223701,-4737.318029,6588.421283,16580.613101
1107.224031,-9548.656652,-919.314598,13175.665768
1107.224360,-9326.594869,-5056.230287,11695.253884
1107.224690,-6291.750507,-6128.763984,10881.027347
1107.225019,-2146.597232,-9576.193725,9104.533087
1107.225349,-592.164754,-6588.421283,5773.606348
1107.225678,222.061783,-2528.115143,2294.638420
1107.226008,4737.318029,-1225.752797,1776.494261
1107.226338,9252.574275,2221.676944,6439.791695
1107.226667,9696.697840,7584.345430,10436.903782
1107.226997,6661.853478,11721.261119,13249.686362
1107.227326,2146.597232,10572.117872,12879.583391
1107.227656,-814.226536,7507.735880,12731.542202
1107.227985,-2368.659014,2451.505594,12509.480420
1107.228315,-2812.782580,-1608.800546,12509.480420
1107.228644,-2516.700203,-2604.724693,10510.924376
1107.228974,-3034.844362,-4826.401637,6217.729913
1107.229304,-2960.823768,-6128.763984,1776.494261
1107.229633,-1110.308913,-5515.887586,296.082377
1107.229963,4589.276840,-3983.696590,3404.947333
1107.230292,7402.059420,766.095498,7328.038826
1107.230622,4885.359217,6588.421283,10955.047942
1107.230951,592.164754,10572.117872,12361.439231
1107.231281,-1702.473667,8656.879127,13397.727550
1107.231610,-1776.494261,2987.772442,16432.571912
1107.231940,-1850.514855,1225.752797,17616.901420
1107.232270,-5181.441594,1685.410096,14137.933492
1107.232599,-7179.997637,-536.266849,8142.265362
1107.232929,-4737.318029,-5898.935335,4367.215058
1107.233258,296.082377,-8733.488677,4071.132681
1107.233588,4145.153275,-6588.421283,6735.874072
1107.233917,4219.173869,-1302.362347,8142.265362
1107.234247,2072.576638,6818.249932,7846.182985
1107.234576,148.041188,8350.440928,7476.080014
1107.234906,1258.350101,5822.325785,10732.986159
1107.235236,1554.432478,4903.011187,15544.324782
1107.235565,0.000000,5362.668486,17024.736666
1107.235895,-3478.967927,4903.011187,15026.180623
1107.236224,-6365.771101,2681.334243,11547.212695
1107.236554,-5699.585753,-3064.381992,9252.574275
1107.236883,-1924.535449,-7967.393179,8882.471304
1107.237213,222.061783,-7354.516781,8438.347739
1107.237542,-592.164754,-1608.800546,7031.956449
1107.237872,-1924.535449,995.924147,6143.709319
1107.238202,-2220.617826,1532.190996,6661.853478
1107.238531,592.164754,2987.772442,8660.409521
1107.238861,3330.926739,3677.258390,10510.924376
1107.239190,3997.112087,5975.544884,9178.553681
1107.239520,1258.350101,4826.401637,7476.080014
1107.239849,-222.061783,1685.410096,7550.100608
1107.240179,-962.267725,-612.876398,8734.430116
1107.240508,-1332.370696,-1915.238745,10140.821405
1107.240838,-2590.720797,-1302.362347,9992.780217
1107.241168,-5107.421000,-919.314598,9030.512492
1107.241497,-7105.977043,-1608.800546,7846.182985
1107.241827,-5921.647536,-2681.334243,8882.471304
1107.242156,-3108.864956,-2298.286494,9918.759623
1107.242486,-1184.329507,2298.286494,8068.244768
1107.242815,-666.185348,2757.943793,5255.462188
1107.243145,1110.308913,766.095498,6661.853478
1107.243474,2146.597232,1532.190996,9992.780217
1107.243804,1406.391290,2145.067394,13397.727550
1107.244134,-370.102971,2604.724693,14359.995275
1107.244463,-3478.967927,3524.039291,13545.768739
1107.244793,-5921.647536,1532.190996,11843.295072
1107.245122,-4737.318029,-2221.676944,12213.398043
1107.245452,-2590.720797,-4673.182538,12435.459826
1107.245781,-1332.370696,-2757.943793,9770.718434
1107.246111,-1480.411884,-2221.676944,6883.915261
1107.246440,222.061783,-1532.190996,7994.224174
1107.246770,2886.803174,1302.362347,9918.759623
1107.247100,4515.256246,2604.724693,10807.006753
1107.247429,5107.421000,4060.306139,10658.965565
1107.247759,4589.276840,7277.907231,9030.512492
1107.248088,2812.782580,6588.421283,8512.368333
1107.248418,-148.041188,3370.820191,9992.780217
1107.248747,-3701.029710,1225.752797,12139.377449
1107.249077,-6143.709319,1532.190996,11621.233289
1107.249406,-6217.729913,1838.629195,8734.430116
1107.249736,-4737.318029,-1991.848295,5403.503377
1107.250066,-2664.741391,-5286.058936,5181.441594
1107.250395,-222.061783,-3983.696590,5921.647536
1107.250725,1110.308913,-995.924147,6143.709319
1107.251054,1702.473667,1838.629195,5847.626942
1107.251384,-296.082377,2987.772442,7254.018232
1107.251713,-1998.556043,5132.839837,9770.718434
1107.252043,-2072.576638,4596.572988,11621.233289
1107.252372,-962.267725,1378.971896,11843.295072
1107.252702,-444.123565,1685.410096,9252.574275
1107.253032,-370.102971,306.438199,6883.915261
1107.253361,666.185348,-4366.744339,7550.100608
1107.253691,2072.576638,-3983.696590,11029.068536
1107.254020,1702.473667,0.000000,12139.377449
1107.254350,-444.123565,2221.676944,10881.027347
1107.254679,-1924.535449,2911.162892,10881.027347
1107.255009,-1628.453072,4213.525239,11251.130318
1107.255338,-148.041188,3294.210641,11843.295072
1107.255668,-592.164754,612.876398,12213.398043
1107.255998,-1850.514855,1532.190996,11029.068536
1107.256327,-3997.112087,2068.457845,9622.677246
1107.256657,-4589.276840,-383.047749,9326.594869
1107.256986,-3923.091493,-2145.067394,10510.924376
1107.257316,-2368.659014,-2221.676944,11843.295072
1107.257645,-2368.659014,-919.314598,10436.903782
1107.257975,-3330.926739,306.438199,9400.615463
1107.258304,-3552.988522,1838.629195,9252.574275
1107.258634,-1184.329507,2298.286494,10066.800811
1107.258964,0.000000,1378.971896,10955.047942
1107.259293,-370.102971,3447.429741,9770.718434
1107.259623,-666.185348,3677.258390,7328.038826
1107.259952,962.267725,1225.752797,6957.935855
1107.260282,2590.720797,0.000000,7179.997637
1107.260611,2590.720797,-306.438199,7994.224174
1107.260941,740.205942,689.485948,8586.388927
1107.261270,-2220.617826,2068.457845,8142.265362
1107.261600,-4589.276840,2528.115143,8216.285956
1107.261929,-4293.194464,1991.848295,8586.388927
1107.262259,-3404.947333,536.266849,9178.553681
1107.262589,-2886.803174,459.657299,8734.430116
1107.262918,-3182.885551,995.924147,6513.812290
1107.263248,-3330.926739,536.266849,5107.421000
1107.263577,-1406.391290,0.000000,5847.626942
1107.263907,370.102971,-229.828649,7698.141797
1107.264236,222.061783,383.047749,9770.718434
1107.264566,-814.226536,2068.457845,10881.027347
1107.264895,-1924.535449,2145.067394,12509.480420
1107.265225,-2294.638420,1838.629195,12953.603985
1107.265555,-3256.906145,2068.457845,13471.748144
1107.265884,-2960.823768,1302.362347,13545.768739
1107.266214,-1850.514855,76.609550,12731.542202
1107.266543,-370.102971,-229.828649,11029.068536
1107.266873,1480.411884,-1072.533697,9844.739029
1107.267202,3478.967927,-1455.581446,9770.718434
1107.267532,3997.112087,383.047749,11251.130318
1107.267861,2294.638420,3830.477490,10362.883188
1107.268191,296.082377,3830.477490,9696.697840
1107.268521,-370.102971,3064.381992,10214.842000
1107.268850,-1332.370696,2451.505594,11177.109724
1107.269180,-1850.514855,2451.505594,11029.068536
1107.269509,-1850.514855,612.876398,9104.533087
1107.269839,-2294.638420,-1608.800546,7550.100608
1107.270168,-2220.617826,-766.095498,7402.059420
1107.270498,-444.123565,-459.657299,7698.141797
1107.270827,1332.370696,-689.485948,8660.409521
1107.271157,814.226536,0.000000,7846.182985
1107.271487,-1628.453072,3600.648841,6587.832884
1107.271816,-2294.638420,3830.477490,6883.915261
1107.272146,222.061783,1762.019645,8586.388927
1107.272475,592.164754,1455.581446,8956.491898
1107.272805,-2072.576638,2374.896044,7031.956449
1107.273134,-3330.926739,0.000000,5847.626942
1107.273464,-1406.391290,-2451.505594,7105.977043
1107.273793,962.267725,-1915.238745,8734.430116
1107.274123,518.144159,-1225.752797,9400.615463
1107.274453,-592.164754,-689.485948,9770.718434
1107.274782,-1924.535449,1302.362347,9992.780217
1107.275112,-2442.679609,2757.943793,10584.944971
1107.275441,-1554.432478,2528.115143,12657.521608
1107.275771,-962.267725,1991.848295,13619.789333
1107.276100,-1554.432478,1838.629195,11917.315666
1107.276430,-1998.556043,612.876398,8956.491898
1107.276759,-518.144159,-1378.971896,8586.388927
1107.277089,2072.576638,-1685.410096,10510.924376
1107.277419,2146.597232,-1762.019645,12731.542202
1107.277748,-518.144159,0.000000,13841.851115
1107.278078,-3849.070898,1838.629195,12509.480420
1107.278407,-4515.256246,2451.505594,12731.542202
1107.278737,-2812.782580,2528.115143,13175.665768
1107.279066,-2294.638420,2145.067394,12879.583391
1107.279396,-1628.453072,1225.752797,10807.006753
1107.279725,-1258.350101,0.000000,7402.059420
1107.280055,-296.082377,-306.438199,6069.688724
1107.280385,518.144159,612.876398,7105.977043
1107.280714,1258.350101,153.219100,7698.141797
1107.281044,1036.288319,1149.143247,7772.162391
1107.281373,-148.041188,2987.772442,5921.647536
1107.281703,-1776.494261,2451.505594,6587.832884
1107.282032,-1998.556043,2298.286494,8364.327145
1107.282362,-2738.761985,3524.039291,9252.574275
1107.282691,-3775.050304,2528.115143,9252.574275
1107.283021,-4441.235652,1149.143247,7328.038826
1107.283351,-3701.029710,536.266849,6069.688724
1107.283680,-1850.514855,-306.438199,4589.276840
1107.284010,148.041188,-1378.971896,5699.585753
1107.284339,1628.453072,-536.266849,7624.121203
1107.284669,592.164754,2068.457845,8068.244768
1107.284998,-1850.514855,2451.505594,7328.038826
1107.285328,-3182.885551,1762.019645,9474.636058
1107.285657,-2294.638420,2451.505594,13027.624579
1107.285987,-2368.659014,2834.553343,16062.468941
1107.286317,-3627.009116,1302.362347,14211.954086
1107.286646,-4293.194464,1149.143247,10288.862594
1107.286976,-1628.453072,-1302.362347,8660.409521
1107.287305,2368.659014,-3447.429741,10658.965565
1107.287635,3923.091493,-2757.943793,13323.706956
1107.287964,2886.803174,383.047749,12805.562797
1107.288294,-1184.329507,2911.162892,10066.800811
1107.288623,-2960.823768,3217.601092,11325.150913
1107.288953,-1998.556043,3677.258390,13841.851115
1107.289283,740.205942,2604.724693,13397.727550
1107.289612,1776.494261,-153.219100,11103.089130
1107.289942,74.020594,153.219100,7402.059420
1107.290271,-592.164754,536.266849,6069.688724
1107.290601,1776.494261,-306.438199,6957.935855
1107.290930,2960.823768,-1608.800546,9400.615463
1107.291260,1110.308913,1455.581446,10362.883188
1107.291589,-2368.659014,5132.839837,8660.409521
1107.291919,-2960.823768,4596.572988,8660.409521
1107.292249,-1850.514855,1838.629195,8216.285956
1107.292578,-2294.638420,1532.190996,8142.265362
1107.292908,-3627.009116,229.828649,7105.977043
1107.293237,-3330.926739,-229.828649,5995.668130
1107.293567,-2368.659014,-766.095498,5329.482782
1107.293896,-1110.308913,-1455.581446,5181.441594
1107.294226,-592.164754,-2298.286494,6365.771101
1107.294555,-296.082377,-1915.238745,7624.121203
1107.294885,-888.247130,1762.019645,7698.141797
1107.295215,-1480.411884,2911.162892,8808.450710
1107.295544,-962.267725,3677.258390,10955.047942
1107.295874,-666.185348,3064.381992,12361.439231
1107.296203,-1850.514855,1455.581446,12139.377449
1107.296533,-2294.638420,1378.971896,10658.965565
1107.296862,-962.267725,0.000000,10955.047942
1107.297192,888.247130,-919.314598,11029.068536
1107.297521,740.205942,-1915.238745,11103.089130
1107.297851,0.000000,-1608.800546,11991.336260
1107.298181,-814.226536,229.828649,11843.295072
1107.298510,-1998.556043,1762.019645,11917.315666
1107.298840,-3034.844362,3524.039291,12731.542202
1107.299169,-2590.720797,2374.896044,14137.933492
1107.299499,-2368.659014,1685.410096,13619.789333
1107.299828,-1850.514855,1762.019645,11029.068536
1107.300158,-1776.494261,-229.828649,8438.347739
1107.300487,0.000000,-306.438199,7994.224174
1107.300817,1258.350101,306.438199,8216.285956
1107.301147,1776.494261,-536.266849,9104.533087
1107.301476,962.267725,766.095498,8660.409521
1107.301806,-1258.350101,3140.991542,7550.100608
1107.302135,-2220.617826,3830.477490,7105.977043
1107.302465,-1332.370696,1762.019645,9104.533087
1107.302794,-1776.494261,536.266849,10362.883188
1107.303124,-2590.720797,2298.286494,8512.368333
1107.303453,-3997.112087,2068.457845,5921.647536
1107.303783,-1924.535449,-689.485948,4737.318029
1107.304113,0.000000,-766.095498,5995.668130
1107.304442,1184.329507,-612.876398,6587.832884
1107.304772,-296.082377,76.609550,5773.606348
1107.305101,-1998.556043,1608.800546,5773.606348
1107.305431,-3034.844362,3907.087040,8216.285956
1107.305760,-2294.638420,3524.039291,11251.130318
1107.306090,-2368.659014,1532.190996,12139.377449
1107.306419,-2812.782580,2298.286494,11399.171507
1107.306749,-3256.906145,1378.971896,9104.533087
1107.307079,-1184.329507,-842.705048,8956.491898
1107.307408,1406.391290,-1991.848295,10066.800811
1107.307738,2072.576638,-1225.752797,11843.295072
1107.308067,-370.102971,76.609550,11917.315666
1107.308397,-3330.926739,1915.238745,12287.418637
1107.308727,-3849.070898,3370.820191,13249.686362
1107.309056,-1554.432478,1838.629195,14952.160028
1107.309386,-592.164754,-76.609550,15100.201217
1107.309716,-1998.556043,766.095498,13545.768739
1107.310045,-1406.391290,766.095498,9992.780217
1107.310375,592.164754,-1915.238745,7994.224174
1107.310705,2812.782580,-1608.800546,8438.347739
1107.311035,2664.741391,1608.800546,9918.759623
1107.311364,2590.720797,2451.505594,10510.924376
1107.311694,1554.432478,3064.381992,9252.574275
1107.312024,-666.185348,4596.572988,7698.141797
1107.312353,-1480.411884,4443.353888,7476.080014
1107.312683,-518.144159,2451.505594,9474.636058
1107.313013,-518.144159,1378.971896,10214.842000
1107.313343,-2516.700203,1915.238745,7550.100608
1107.313672,-4737.318029,689.485948,4589.276840
1107.314002,-3478.967927,-1762.019645,4663.297435
1107.314332,-962.267725,-2068.457845,6143.709319
1107.314661,-222.061783,-995.924147,6957.935855
1107.314991,-1332.370696,842.705048,5921.647536
1107.315321,-2960.823768,1225.752797,5995.668130
1107.315651,-3256.906145,2145.067394,7328.038826
1107.315980,-2960.823768,2604.724693,9992.780217
1107.316310,-2590.720797,2374.896044,11399.171507
1107.316640,-2220.617826,1991.848295,10214.842000
1107.316969,-2960.823768,842.705048,8808.450710
1107.317299,-1480.411884,-1072.533697,7772.162391
1107.317629,1776.494261,-2528.115143,8882.471304
1107.317959,4145.153275,-2145.067394,11621.233289
1107.318288,2960.823768,919.314598,11769.274478
1107.318618,-1480.411884,2298.286494,11695.253884
1107.318948,-2738.761985,2681.334243,12435.459826
1107.319277,-1480.411884,3217.601092,13915.871710
1107.319607,-666.185348,1838.629195,15100.201217
1107.319937,-1258.350101,459.657299,14063.912898
1107.320267,-2220.617826,-1532.190996,12435.459826
1107.320596,-1776.494261,-689.485948,11177.109724
1107.320926,-592.164754,-1072.533697,10510.924376
1107.321256,666.185348,-2068.457845,11029.068536
1107.321585,814.226536,-383.047749,11029.068536
1107.321915,0.000000,1532.190996,8808.450710
1107.322245,-814.226536,1991.848295,8586.388927
1107.322575,148.041188,2451.505594,8956.491898
1107.322904,148.041188,3217.601092,9252.574275
1107.323234,-148.041188,2221.676944,8512.368333
1107.323564,-888.247130,1378.971896,7254.018232
1107.323893,-1332.370696,1915.238745,5995.668130
1107.324223,-370.102971,689.485948,5625.565159
1107.324553,74.020594,-1685.410096,6217.729913
1107.324882,-518.144159,-612.876398,6735.874072
1107.325212,-2146.597232,1608.800546,6587.832884
1107.325542,-3034.844362,1991.848295,7476.080014
1107.325872,-4589.276840,2145.067394,8290.306550
1107.326201,-4293.194464,1915.238745,9400.615463
1107.326531,-2738.761985,306.438199,10436.903782
1107.326861,-2442.679609,995.924147,7179.997637
1107.327190,-2220.617826,-229.828649,4589.276840
1107.327520,-518.144159,-1302.362347,5699.585753
1107.327850,1850.514855,-1378.971896,8512.368333
1107.328180,1554.432478,0.000000,10658.965565
1107.328509,-444.123565,1455.581446,11917.315666
1107.328839,-2960.823768,3600.648841,12805.562797
1107.329169,-3256.906145,4443.353888,13545.768739
1107.329498,-1554.432478,1455.581446,14359.995275
1107.329828,370.102971,-1225.752797,14359.995275
1107.330158,-1184.329507,0.000000,12509.480420
1107.330488,-1850.514855,229.828649,10288.862594
1107.330817,-370.102971,-689.485948,11843.295072
1107.331147,1332.370696,153.219100,12509.480420
1107.331477,1110.308913,383.047749,11251.130318
1107.331806,666.185348,-1072.533697,9548.656652
1107.332136,-444.123565,1225.752797,9474.636058
1107.332466,-1258.350101,3140.991542,11177.109724
1107.332796,-2146.597232,2987.772442,11547.212695
1107.333125,-2368.659014,1762.019645,11029.068536
1107.333455,-2738.761985,1532.190996,9400.615463
1107.333785,-2442.679609,459.657299,7105.977043
1107.334114,-1406.391290,-1455.581446,5477.523971
1107.334444,370.102971,-1302.362347,5921.647536
1107.334774,592.164754,-1072.533697,6439.791695
1107.335104,-370.102971,0.000000,6809.894666
1107.335433,-2294.638420,1762.019645,7254.018232
1107.335763,-3256.906145,3600.648841,7698.141797
1107.336093,-3627.009116,2987.772442,8734.430116
1107.336422,-2738.761985,1838.629195,9326.594869
1107.336752,-1628.453072,689.485948,9548.656652
1107.337082,-1110.308913,-229.828649,6661.853478
1107.337412,-518.144159,-766.095498,4737.318029
1107.337741,2220.617826,-1225.752797,5329.482782
1107.338071,3923.091493,-1149.143247,8216.285956
1107.338401,3478.967927,229.828649,10362.883188
1107.338730,1110.308913,2298.286494,10881.027347
1107.339060,-1258.350101,3600.648841,12139.377449
1107.339390,-1480.411884,4213.525239,12953.603985
1107.339720,-1332.370696,2221.676944,14063.912898
1107.340049,-1184.329507,-1149.143247,14063.912898
1107.340379,-1776.494261,-1532.190996,11621.233289
1107.340709,-1702.473667,-689.485948,9696.697840
1107.341038,-518.144159,-1455.581446,9622.677246
1107.341368,814.226536,-1991.848295,11695.253884
1107.341698,740.205942,-612.876398,12657.521608
1107.342028,-888.247130,1455.581446,11547.212695
1107.342357,-2516.700203,3370.820191,11103.089130
1107.342687,-2442.679609,4366.744339,11843.295072
1107.343017,-1406.391290,3600.648841,12805.562797
1107.343346,-1184.329507,1532.190996,11547.212695
1107.343676,-1628.453072,0.000000,9030.512492
1107.344006,-1702.473667,0.000000,6291.750507
1107.344336,-888.247130,306.438199,5995.668130
1107.344665,888.247130,-919.314598,6883.915261
1107.344995,222.061783,-766.095498,7920.203579
1107.345325,-1480.411884,1149.143247,7105.977043
1107.345654,-3034.844362,2374.896044,7772.162391
1107.345984,-2886.803174,2681.334243,10214.842000
1107.346314,-2738.761985,4749.792088,11029.068536
1107.346643,-3775.050304,4213.525239,7402.059420
1107.346973,-4145.153275,383.047749,3923.091493
1107.347303,-1776.494261,-612.876398,3182.885551
1107.347633,888.247130,-229.828649,4663.297435
1107.347962,2368.659014,-1915.238745,6661.853478
1107.348292,592.164754,-1378.971896,8882.471304
1107.348622,-1924.535449,2757.943793,9770.718434
1107.348951,-2960.823768,4596.572988,10584.944971
1107.349281,-2146.597232,2604.724693,11399.171507
1107.349611,-1776.494261,2221.676944,12435.459826
1107.349941,-2368.659014,2834.553343,13545.768739
1107.350270,-3108.864956,-229.828649,13693.809927
1107.350600,-3330.926739,-383.047749,11843.295072
1107.350930,-2146.597232,-229.828649,10362.883188
1107.351259,148.041188,-1838.629195,10214.842000
1107.351589,1628.453072,-2374.896044,10807.006753
1107.351919,2072.576638,-1455.581446,11473.192101
1107.352249,962.267725,1225.752797,10436.903782
1107.352578,-1332.370696,2987.772442,11103.089130
1107.352908,-1924.535449,4136.915689,12879.583391
1107.353238,-1184.329507,3753.867940,14211.954086
1107.353567,-740.205942,2145.067394,13545.768739
1107.353897,-1702.473667,1225.752797,9548.656652
1107.354227,-1332.370696,0.000000,7328.038826
1107.354557,296.082377,-1225.752797,6661.853478
1107.354886,1332.370696,-1455.581446,8068.244768
1107.355216,370.102971,-459.657299,9252.574275
1107.355546,-2516.700203,2681.334243,7698.141797
1107.355875,-4219.173869,2834.553343,6587.832884
1107.356205,-3923.091493,1838.629195,7105.977043
1107.356535,-2664.741391,1302.362347,8956.491898
1107.356865,-2812.782580,842.705048,8216.285956
1107.357194,-2812.782580,689.485948,5181.441594
1107.357524,-2516.700203,-229.828649,3034.844362
1107.357854,-148.041188,-1762.019645,4737.318029
1107.358183,1776.494261,-1225.752797,7698.141797
1107.358513,1258.350101,689.485948,9252.574275
1107.358843,-814.226536,1072.533697,9104.533087
1107.359173,-2368.659014,3677.258390,10584.944971
1107.359502,-1776.494261,4366.744339,11695.253884
1107.359832,148.041188,1532.190996,13027.624579
1107.360162,0.000000,-1608.800546,12509.480420
1107.360491,-1258.350101,1225.752797,10436.903782
1107.360821,-1406.391290,842.705048,8956.491898
1107.361151,592.164754,-1762.019645,9844.739029
1107.361481,2294.638420,-1302.362347,11473.192101
1107.361810,2368.659014,153.219100,12361.439231
1107.362140,1998.556043,0.000000,11843.295072
1107.362470,0.000000,1225.752797,12065.356855
1107.362799,-1776.494261,3753.867940,13027.624579
1107.363129,-1184.329507,3983.696590,13471.748144
1107.363459,-370.102971,766.095498,13915.871710
1107.363789,-148.041188,766.095498,11325.150913
1107.364118,-1480.411884,1149.143247,7846.182985
1107.364448,0.000000,-766.095498,5773.606348
1107.364778,2368.659014,-1838.629195,7179.997637
1107.365107,2294.638420,-536.266849,9030.512492
1107.365437,-296.082377,1072.533697,10584.944971
1107.365767,-2812.782580,2068.457845,11103.089130
1107.366097,-4515.256246,5439.278036,10955.047942
1107.366426,-4515.256246,5898.935335,8438.347739
1107.366756,-3330.926739,536.266849,7254.018232
1107.367086,-962.267725,-1072.533697,6365.771101
1107.367415,0.000000,1455.581446,3923.091493
1107.367745,0.000000,-383.047749,2812.782580
1107.368075,296.082377,-1072.533697,4219.173869
1107.368404,370.102971,1378.971896,6883.915261
1107.368734,666.185348,919.314598,8438.347739
1107.369064,-740.205942,536.266849,8290.306550
1107.369394,-2738.761985,2987.772442,8956.491898
1107.369723,-3182.885551,4826.401637,11547.212695
1107.370053,-2738.761985,689.485948,13323.706956
1107.370383,-2738.761985,-383.047749,12879.583391
1107.370712,-3552.988522,1225.752797,10362.883188
1107.371042,-2664.741391,-536.266849,8956.491898
1107.371372,592.164754,-1608.800546,9252.574275
1107.371702,2072.576638,-536.266849,10955.047942
1107.372031,1702.473667,-612.876398,11473.192101
1107.372361,-666.185348,1378.971896,10288.862594
1107.372691,-2664.741391,3447.429741,11991.336260
1107.373020,-2738.761985,3753.867940,13397.727550
1107.373350,-2442.679609,2145.067394,14211.954086
1107.373680,-2368.659014,0.000000,12583.501014
1107.374010,-2146.597232,-1762.019645,9992.780217
1107.374339,-1036.288319,-1762.019645,8660.409521
1107.374669,1036.288319,-842.705048,9400.615463
1107.374999,2368.659014,0.000000,11251.130318
1107.375328,1776.494261,766.095498,11103.089130
1107.375658,0.000000,3370.820191,9622.677246
1107.375988,-1036.288319,3370.820191,9178.553681
1107.376318,-370.102971,3447.429741,9918.759623
1107.376647,-1110.308913,3753.867940,10288.862594
1107.376977,-1924.535449,2221.676944,7772.162391
1107.377307,-2146.597232,-689.485948,4737.318029
1107.377636,-1998.556043,-1762.019645,3404.947333
1107.377966,-1110.308913,-689.485948,3923.091493
1107.378296,74.020594,-1225.752797,5921.647536
1107.378626,222.061783,-153.219100,7328.038826
1107.378955,-370.102971,1685.410096,7846.182985
1107.379285,-2294.638420,1762.019645,7698.141797
1107.379615,-2516.700203,2298.286494,9030.512492
1107.379944,-2442.679609,3524.039291,11621.233289
1107.380274,-2368.659014,3217.601092,12065.356855
1107.380604,-2738.761985,1608.800546,10436.903782
1107.380934,-1998.556043,-919.314598,8216.285956
1107.381263,1036.288319,-2528.115143,7328.038826
1107.381593,2886.803174,-2451.505594,8660.409521
1107.381923,2664.741391,-1532.190996,10881.027347
1107.382252,1480.411884,383.047749,11843.295072
1107.382582,-666.185348,2911.162892,11917.315666
1107.382912,-1702.473667,4060.306139,12805.562797
1107.383242,-444.123565,3140.991542,14730.098246
1107.383571,0.000000,2374.896044,15322.262999
1107.383901,-1110.308913,1991.848295,12509.480420
1107.384231,-1998.556043,-153.219100,8808.450710
1107.384560,0.000000,-1455.581446,7698.141797
1107.384890,1850.514855,-1302.362347,9770.718434
1107.385220,2294.638420,-1685.410096,12287.418637
1107.385550,296.082377,-153.219100,13545.768739
1107.385879,-2220.617826,4443.353888,11177.109724
1107.386209,-4071.132681,6435.202183,7179.997637
1107.386539,-2368.659014,2451.505594,6735.874072
1107.386868,0.000000,153.219100,9622.677246
1107.387198,-444.123565,1991.848295,9326.594869
1107.387528,-3701.029710,459.657299,6217.729913
1107.387858,-4959.379811,-459.657299,4441.235652
1107.388187,-3108.864956,1685.410096,6439.791695
1107.388517,222.061783,-842.705048,7254.018232
1107.388847,740.205942,-3907.087040,7105.977043
1107.389176,-1406.391290,919.314598,5255.462188
1107.389506,-2960.823768,5439.278036,5255.462188
1107.389836,-1406.391290,2298.286494,8734.430116
1107.390165,-370.102971,1225.752797,11399.171507
1107.390495,-2368.659014,4979.620737,10436.903782
1107.390825,-2368.659014,2221.676944,7328.038826
1107.391155,-666.185348,-1378.971896,6883.915261
1107.391484,1110.308913,-459.657299,8956.491898
1107.391814,1332.370696,-842.705048,10658.965565
1107.392144,592.164754,-995.924147,11473.192101
1107.392473,-1036.288319,995.924147,11843.295072
1107.392803,-2516.700203,3524.039291,11473.192101
1107.393133,-3108.864956,536.266849,12805.562797
1107.393463,-2664.741391,-459.657299,13175.665768
1107.393792,-2146.597232,919.314598,13767.830521
1107.394122,-1924.535449,536.266849,11843.295072
1107.394452,-962.267725,153.219100,10066.800811
1107.394781,222.061783,-766.095498,9474.636058
1107.395111,1184.329507,-1072.533697,9918.759623
1107.395441,2072.576638,306.438199,11769.274478
1107.395771,1406.391290,2528.115143,12435.459826
1107.396100,-222.061783,4136.915689,11547.212695
1107.396430,-2442.679609,3447.429741,10732.986159
1107.396760,-2960.823768,2528.115143,10807.006753
1107.397089,-1924.535449,1608.800546,10584.944971
1107.397419,-1406.391290,153.219100,9030.512492
1107.397749,-2368.659014,153.219100,6291.750507
1107.398079,-2664.741391,-459.657299,5033.400406
1107.398408,-1332.370696,-1072.533697,4663.297435
1107.398738,1110.308913,-1532.190996,5847.626942
1107.399068,1332.370696,0.000000,6069.688724
1107.399397,-962.267725,2298.286494,5181.441594
1107.399727,-2886.803174,3370.820191,6291.750507
1107.400057,-2442.679609,3677.258390,8438.347739
1107.400387,-1628.453072,1991.848295,10658.965565
1107.400716,-2072.576638,1149.143247,10436.903782
1107.401046,-3256.906145,2298.286494,7698.141797
1107.401376,-1850.514855,459.657299,6809.894666
1107.401705,1406.391290,-1915.238745,8586.388927
1107.402035,2960.823768,-842.705048,10658.965565
1107.402365,2072.576638,689.485948,10955.047942
1107.402695,-296.082377,306.438199,10140.821405
1107.403024,-2368.659014,2528.115143,12065.356855
1107.403354,-2368.659014,4749.792088,13693.809927
1107.403684,-962.267725,2145.067394,13101.645173
1107.404013,-444.123565,-919.314598,11621.233289
1107.404343,-1110.308913,-766.095498,8808.450710
1107.404673,74.020594,-1455.581446,10214.842000
1107.405003,1184.329507,-2604.724693,13323.706956
1107.405332,592.164754,536.266849,14359.995275
1107.405662,-888.247130,3600.648841,11177.109724
1107.405992,-1406.391290,2068.457845,8808.450710
1107.406321,0.000000,-153.219100,10066.800811
1107.406651,666.185348,3600.648841,11769.274478
1107.406981,-740.205942,3447.429741,10732.986159
1107.407311,-2738.761985,689.485948,10066.800811
1107.407640,-3627.009116,2451.505594,8586.388927
1107.407970,-3256.906145,1685.410096,6809.894666
1107.408300,0.000000,-3600.648841,5773.606348
1107.408629,888.247130,-3370.820191,5477.523971
1107.408959,0.000000,1455.581446,5921.647536
1107.409289,-592.164754,612.876398,6809.894666
1107.409618,-1850.514855,612.876398,8290.306550
1107.409948,-4219.173869,4826.401637,8808.450710
1107.410278,-5181.441594,3830.477490,8586.388927
1107.410608,-3256.906145,689.485948,8808.450710
1107.410937,-2220.617826,842.705048,7920.203579
1107.411267,-1702.473667,306.438199,5921.647536
1107.411597,-1184.329507,-1455.581446,5107.421000
1107.411927,1184.329507,-1072.533697,7550.100608
1107.412256,2590.720797,0.000000,10288.862594
1107.412586,1406.391290,536.266849,11473.192101
1107.412916,-1998.556043,1762.019645,11177.109724
1107.413246,-2960.823768,2604.724693,11621.233289
1107.413575,-1776.494261,1685.410096,13323.706956
1107.413905,-962.267725,1762.019645,14878.139434
1107.414235,-1184.329507,536.266849,14063.912898
1107.414565,-2072.576638,-919.314598,10732.986159
1107.414894,-1036.288319,-1225.752797,9178.553681
1107.415224,962.267725,-1072.533697,10436.903782
1107.415554,2960.823768,-153.219100,11917.315666
1107.415883,2368.659014,459.657299,11843.295072
1107.416213,0.000000,2451.505594,10214.842000
1107.416543,-1776.494261,4596.572988,10658.965565
1107.416873,-1036.288319,2451.505594,11917.315666
1107.417202,-888.247130,2911.162892,13397.727550
1107.417532,-2886.803174,2528.115143,11473.192101
1107.417862,-4293.194464,689.485948,7698.141797
1107.418192,-2738.761985,-919.314598,5921.647536
1107.418521,0.000000,-1991.848295,5107.421000
1107.418851,1258.350101,-1532.190996,6513.812290
1107.419181,740.205942,-536.266849,7031.956449
1107.419511,-1406.391290,3140.991542,6735.874072
1107.419840,-3034.844362,4443.353888,7476.080014
1107.420170,-3034.844362,4290.134789,8290.306550
1107.420500,-2442.679609,4519.963438,8882.471304
1107.420830,-1850.514855,2451.505594,8290.306550
1107.421159,-2146.597232,0.000000,6513.812290
1107.421489,-2368.659014,-1149.143247,5699.585753
1107.421819,-1850.514855,-1225.752797,5551.544565
1107.422149,-666.185348,-1838.629195,7772.162391
1107.422478,-444.123565,-1762.019645,9918.759623
1107.422808,-1184.329507,2298.286494,10214.842000
1107.423138,-1628.453072,1991.848295,9918.759623
1107.423467,-592.164754,842.705048,10436.903782
1107.423797,222.061783,1762.019645,11843.295072
1107.424127,0.000000,1149.143247,13249.686362
1107.424457,296.082377,1302.362347,14508.036463
1107.424786,-2072.576638,1608.800546,12509.480420
1107.425116,-2368.659014,1608.800546,10214.842000
1107.425446,-222.061783,-1455.581446,10288.862594
1107.425776,1406.391290,-2987.772442,12361.439231
1107.426105,444.123565,-229.828649,11695.253884
1107.426435,-1628.453072,689.485948,11177.109724
1107.426765,-2738.761985,1915.238745,10584.944971
1107.427095,-2294.638420,3753.867940,11621.233289
1107.427424,-1110.308913,919.314598,12213.398043
1107.427754,-592.164754,536.266849,11029.068536
1107.428084,-1332.370696,1991.848295,7772.162391
1107.428414,-518.144159,0.000000,6661.853478
1107.428743,1406.391290,-1072.533697,7328.038826
1107.429073,2146.597232,0.000000,8586.388927
1107.429403,222.061783,-383.047749,7994.224174
1107.429733,-2294.638420,459.657299,7031.956449
1107.430062,-3478.967927,3600.648841,8216.285956
1107.430392,-2664.741391,4213.525239,9030.512492
1107.430722,-2220.617826,383.047749,9252.574275
1107.431052,-2368.659014,612.876398,7402.059420
1107.431381,-2886.803174,2298.286494,4663.297435
1107.431711,-1332.370696,-306.438199,4293.194464
1107.432041,1554.432478,-842.705048,5847.626942
1107.432370,2146.597232,612.876398,8068.244768
1107.432700,518.144159,-536.266849,8956.491898
1107.433030,-1554.432478,153.219100,9400.615463
1107.433360,-2812.782580,2451.505594,10732.986159
1107.433689,-1998.556043,3983.696590,12657.521608
1107.434019,-962.267725,1685.410096,13767.830521
1107.434349,-1036.288319,383.047749,13471.748144
1107.434679,-1480.411884,689.485948,11399.171507
1107.435008,-1258.350101,612.876398,10584.944971
1107.435338,518.144159,459.657299,10584.944971
1107.435668,1924.535449,842.705048,11769.274478
1107.435998,1628.453072,0.000000,11991.336260
1107.436327,296.082377,689.485948,10436.903782
1107.436657,-888.247130,1378.971896,10362.883188
1107.436987,-1406.391290,2451.505594,11621.233289
1107.437317,-2220.617826,3064.381992,12805.562797
1107.437646,-2590.720797,919.314598,12139.377449
1107.437976,-2146.597232,76.609550,9918.759623
1107.438306,-1998.556043,612.876398,7698.141797
1107.438636,-1480.411884,536.266849,6587.832884
1107.438965,518.144159,0.000000,7328.038826
1107.439295,1258.350101,-306.438199,9104.533087
1107.439625,-666.185348,2145.067394,8216.285956
1107.439954,-3701.029710,3600.648841,7105.977043
1107.440284,-3701.029710,2298.286494,7328.038826
1107.440614,-2812.782580,2451.505594,8512.368333
1107.440944,-3182.885551,1838.629195,8660.409521
1107.441273,-3552.988522,-153.219100,6439.791695
1107.441603,-2738.761985,-995.924147,5255.462188
1107.441933,-2368.659014,-306.438199,5625.565159
1107.442263,-1258.350101,306.438199,7698.141797
1107.442592,-962.267725,-153.219100,9030.512492
1107.442922,-666.185348,1838.629195,8364.327145
1107.443252,-2072.576638,1838.629195,8142.265362
1107.443582,-2294.638420,306.438199,9992.780217
1107.443911,-1184.329507,1685.410096,13767.830521
1107.444241,-1480.411884,1991.848295,13915.871710
1107.444571,-2590.720797,2145.067394,9474.636058
1107.444901,-2220.617826,-229.828649,7328.038826
1107.445230,888.247130,-3064.381992,9548.656652
1107.445560,2516.700203,-919.314598,11251.130318
1107.445890,1406.391290,-1608.800546,12435.459826
1107.446220,592.164754,-153.219100,12879.583391
1107.446549,-1110.308913,3524.039291,12805.562797
1107.446879,-1850.514855,2221.676944,13175.665768
1107.447209,-814.226536,-459.657299,13767.830521
1107.447538,-962.267725,1608.800546,12953.603985
1107.447868,-962.267725,3447.429741,11177.109724
1107.448198,74.020594,-995.924147,8882.471304
1107.448528,1036.288319,-1915.238745,7846.182985
1107.448857,1110.308913,383.047749,7105.977043
1107.449187,1332.370696,-1608.800546,7105.977043
1107.449517,1332.370696,-459.657299,8586.388927
1107.449847,592.164754,3064.381992,8734.430116
1107.450176,-1998.556043,2681.334243,8586.388927
1107.450506,-3701.029710,1762.019645,8290.306550
1107.450836,-3182.885551,2681.334243,9252.574275
1107.451166,-1332.370696,1532.190996,9474.636058
1107.451495,-1184.329507,-229.828649,7105.977043
1107.451825,-2220.617826,306.438199,4959.379811
1107.452155,-962.267725,-153.219100,5921.647536
1107.452485,888.247130,-919.314598,7624.121203
1107.452814,1036.288319,842.705048,8512.368333
1107.453144,-518.144159,2068.457845,8734.430116
1107.453474,-2368.659014,2987.772442,7624.121203
1107.453804,-2738.761985,3140.991542,8660.409521
1107.454133,-2294.638420,1302.362347,11325.150913
1107.454463,-1776.494261,1685.410096,12879.583391
1107.454793,-3256.906145,2221.676944,10362.883188
1107.455122,-3627.009116,229.828649,8068.244768
1107.455452,-888.247130,-1991.848295,9474.636058
1107.455782,1110.308913,-995.924147,11325.150913
1107.456112,1332.370696,229.828649,12139.377449
1107.456441,-444.123565,76.609550,11621.233289
1107.456771,-2590.720797,2987.772442,11843.295072
1107.457101,-2738.761985,4136.915689,13101.645173
1107.457431,-1480.411884,2068.457845,13915.871710
1107.457760,-1110.308913,2221.676944,13323.706956
1107.458090,-1998.556043,1838.629195,10362.883188
1107.458420,-2072.576638,0.000000,7772.162391
1107.458750,-444.123565,-919.314598,8142.265362
1107.459079,1110.308913,-306.438199,9400.615463
1107.459409,592.164754,1455.581446,9252.574275
1107.459739,-814.226536,1302.362347,7920.203579
1107.460069,-1998.556043,1149.143247,8364.327145
1107.460398,-2368.659014,2451.505594,9992.780217
1107.460728,-2738.761985,3600.648841,9178.553681
1107.461058,-2516.700203,1838.629195,8660.409521
1107.461388,-2220.617826,0.000000,8216.285956
1107.461717,-2072.576638,1685.410096,6513.812290
1107.462047,-962.267725,459.657299,5329.482782
1107.462377,1110.308913,-2068.457845,5033.400406
1107.462706,1554.432478,229.828649,6439.791695
1107.463036,518.144159,1302.362347,7772.162391
1107.463366,74.020594,766.095498,9178.553681
1107.463696,-1110.308913,1915.238745,10436.903782
1107.464025,-3034.844362,4903.011187,10214.842000
1107.464355,-2516.700203,3753.867940,9696.697840
1107.464685,-740.205942,-842.705048,10955.047942
1107.465015,0.000000,-766.095498,10288.862594
1107.465344,-1110.308913,-1225.752797,8956.491898
1107.465674,-370.102971,-2221.676944,8956.491898
1107.466004,962.267725,-536.266849,11473.192101
1107.466334,1258.350101,1149.143247,12805.562797
1107.466663,0.000000,383.047749,12139.377449
1107.466993,-1406.391290,0.000000,11843.295072
1107.467323,-1702.473667,3294.210641,13101.645173
1107.467653,-1776.494261,4213.525239,14285.974681
1107.467982,-1480.411884,1072.533697,13767.830521
1107.468312,-1628.453072,842.705048,10288.862594
1107.468642,-1554.432478,0.000000,6587.832884
1107.468972,666.185348,-2298.286494,7031.956449
1107.469301,2812.782580,-919.314598,9400.615463
1107.469631,1924.535449,1225.752797,11103.089130
1107.469961,-962.267725,1991.848295,9252.574275
1107.470290,-3849.070898,2068.457845,8586.388927
1107.470620,-3849.070898,3294.210641,9326.594869
1107.470950,-2664.741391,3140.991542,9770.718434
1107.471280,-2590.720797,766.095498,9770.718434
1107.471609,-3627.009116,612.876398,7476.080014
1107.471939,-3997.112087,229.828649,5625.565159
1107.472269,-2220.617826,-1302.362347,5773.606348
1107.472599,222.061783,-766.095498,6587.832884
1107.472928,222.061783,995.924147,6143.709319
1107.473258,592.164754,1532.190996,6513.812290
1107.473588,0.000000,1991.848295,6439.791695
1107.473918,-1110.308913,3294.210641,8068.244768
1107.474247,-962.267725,4060.306139,10066.800811
1107.474577,-1628.453072,2451.505594,12287.418637
1107.474907,-2812.782580,2374.896044,11843.295072
1107.475237,-3627.009116,1072.533697,9992.780217
1107.475566,-1480.411884,-1072.533697,9030.512492
1107.475896,1184.329507,-1991.848295,8956.491898
1107.476226,1850.514855,-2604.724693,10881.027347
1107.476556,1184.329507,-459.657299,12065.356855
1107.476885,-666.185348,2221.676944,12361.439231
1107.477215,-2368.659014,2681.334243,11991.336260
1107.477545,-3034.844362,2987.772442,13027.624579
1107.477875,-2664.741391,3447.429741,13249.686362
1107.478204,-2368.659014,1532.190996,11547.212695
1107.478534,-2368.659014,-766.095498,8660.409521
1107.478864,-1702.473667,-689.485948,7550.100608
1107.479193,222.061783,76.609550,8142.265362
1107.479523,1258.350101,-1225.752797,9030.512492
1107.479853,518.144159,76.609550,9844.739029
1107.480183,-1332.370696,3064.381992,9400.615463
1107.480512,-3108.864956,3294.210641,9252.574275
1107.480842,-2516.700203,3294.210641,9918.759623
1107.481172,-2072.576638,3217.601092,11695.253884
1107.481502,-2220.617826,2681.334243,11991.336260
1107.481831,-4367.215058,-383.047749,8586.388927
1107.482161,-5995.668130,-2451.505594,6809.894666
1107.482491,-5995.668130,-1685.410096,6439.791695
1107.482821,-4145.153275,-995.924147,6661.853478
1107.483150,-1554.432478,-1149.143247,6587.832884
1107.483480,370.102971,-766.095498,5921.647536
1107.483810,-740.205942,-229.828649,5255.462188
1107.484140,-2072.576638,2911.162892,6809.894666
1107.484469,-2442.679609,4060.306139,10584.944971
1107.484799,-3330.926739,4673.182538,12953.603985
1107.485129,-5403.503377,5286.058936,11843.295072
1107.485459,-7624.121203,1838.629195,8956.491898
1107.485788,-7105.977043,-3064.381992,8364.327145
1107.486118,-5329.482782,-3983.696590,10288.862594
1107.486448,-4441.235652,-2145.067394,11177.109724
1107.486777,-3404.947333,-1302.362347,10732.986159
1107.487107,-3552.988522,-1915.238745,9400.615463
1107.487437,-3627.009116,689.485948,9622.677246
1107.487767,-2664.741391,1685.410096,11473.192101
1107.488096,-1998.556043,2298.286494,12213.398043
1107.488426,-2368.659014,4903.011187,12065.356855
1107.488756,-2886.803174,5898.935335,12583.501014
1107.489086,-4441.235652,2298.286494,11325.150913
1107.489415,-4959.379811,-1072.533697,9474.636058
1107.489745,-5255.462188,-2451.505594,9326.594869
1107.490075,-3849.070898,-2145.067394,10362.883188
1107.490405,-3256.906145,-306.438199,10658.965565
1107.490734,-2664.741391,1302.362347,9326.594869
1107.491064,-3775.050304,842.705048,8290.306550
1107.491394,-5699.585753,2451.505594,8956.491898
1107.491724,-6661.853478,5132.839837,10584.944971
1107.492053,-5329.482782,5822.325785,10066.800811
1107.492383,-5329.482782,3907.087040,8290.306550
1107.492713,-5477.523971,1378.971896,5773.606348
1107.493043,-5181.441594,-2451.505594,4293.194464
1107.493372,-3701.029710,-3983.696590,5255.462188
1107.493702,-2664.741391,-1685.410096,5995.668130
1107.494032,-2072.576638,1072.533697,6883.915261
1107.494361,-1184.329507,2451.505594,8364.327145
1107.494691,-1036.288319,3064.381992,9474.636058
1107.495021,-2664.741391,3830.477490,9474.636058
1107.495351,-4663.297435,4213.525239,9548.656652
1107.495680,-5699.585753,4903.011187,10436.903782
1107.496010,-6883.915261,3677.258390,11843.295072
1107.496340,-6513.812290,689.485948,11473.192101
1107.496670,-5477.523971,-2834.553343,8586.388927
1107.496999,-3108.864956,-4749.792088,6365.771101
1107.497329,-666.185348,-5286.058936,6513.812290
1107.497659,666.185348,-3217.601092,8216.285956
1107.497989,-148.041188,536.266849,10584.944971
1107.498318,-1184.329507,4596.572988,12583.501014
1107.498648,-1924.535449,5975.544884,13619.789333
1107.498978,-3182.885551,6894.859482,14878.139434
1107.499308,-4441.235652,6511.811733,14804.118840
1107.499637,-7179.997637,1838.629195,14211.954086
1107.499967,-9770.718434,-1455.581446,13397.727550
1107.500297,-11029.068536,-1762.019645,11103.089130
1107.500627,-8364.327145,-4366.744339,8068.244768
1107.500956,-4589.276840,-7660.954980,6217.729913
1107.501286,-1998.556043,-6894.859482,5181.441594
1107.501616,814.226536,-2451.505594,3997.112087
1107.501945,3256.906145,76.609550,5477.523971
1107.502275,3923.091493,4443.353888,9474.636058
1107.502605,1702.473667,10648.727422,12731.542202
1107.502935,-1850.514855,11797.870669,12879.583391
1107.503264,-4219.173869,9269.755526,11917.315666
1107.503594,-5921.647536,5898.935335,11769.274478
1107.503924,-6513.812290,1762.019645,11029.068536
1107.504254,-6217.729913,-2987.772442,8808.450710
1107.504583,-6809.894666,-6358.592633,7031.956449
1107.504913,-7550.100608,-7354.516781,5847.626942
1107.505243,-8068.244768,-5898.935335,3923.091493
1107.505573,-6365.771101,-2987.772442,3849.070898
1107.505902,-3108.864956,-919.314598,6661.853478
1107.506232,-1406.391290,2987.772442,8438.347739
1107.506562,-592.164754,6971.469032,8734.430116
1107.506892,444.123565,7814.174080,8660.409521
1107.507221,0.000000,5362.668486,11473.192101
1107.507551,-3108.864956,4749.792088,13249.686362
1107.507881,-6809.894666,4596.572988,12361.439231
1107.508211,-8364.327145,689.485948,10881.027347
1107.508540,-8068.244768,-2221.676944,10140.821405
1107.508870,-7179.997637,-4290.134789,9844.739029
1107.509200,-5551.544565,-5209.449386,9548.656652
1107.509529,-3108.864956,-3830.477490,7105.977043
1107.509859,-1184.329507,-1225.752797,6291.750507
1107.510189,-148.041188,1762.019645,8364.327145
1107.510519,-1036.288319,4060.306139,11695.253884
1107.510848,-3627.009116,6588.421283,13545.768739
1107.511178,-6069.688724,6971.469032,14285.974681
1107.511508,-7846.182985,5745.716235,13841.851115
1107.511838,-7698.141797,2834.553343,13619.789333
1107.512167,-6809.894666,-2068.457845,11547.212695
1107.512497,-6365.771101,-6052.154434,7920.203579
1107.512827,-5107.421000,-5898.935335,5255.462188
1107.513156,-2294.638420,-3600.648841,5107.421000
1107.513486,0.000000,-1838.629195,6661.853478
1107.513816,-1332.370696,1072.533697,7994.224174
1107.514145,-3627.009116,3830.477490,9400.615463
1107.514475,-3997.112087,6205.373534,11029.068536
1107.514805,-3627.009116,7967.393179,11991.336260
1107.515134,-3627.009116,5439.278036,11917.315666
1107.515464,-3775.050304,1072.533697,10288.862594
1107.515794,-2960.823768,-2145.067394,8660.409521
1107.516123,-2146.597232,-3140.991542,7105.977043
1107.516453,-1332.370696,-2681.334243,5921.647536
1107.516783,-148.041188,-2528.115143,5921.647536
1107.517112,222.061783,-536.266849,7402.059420
1107.517442,-296.082377,383.047749,8734.430116
1107.517772,-2368.659014,2757.943793,9918.759623
1107.518101,-4219.173869,5362.668486,11177.109724
1107.518431,-6069.688724,6358.592633,11991.336260
1107.518761,-7105.977043,4749.792088,12361.439231
1107.519090,-7105.977043,2451.505594,11325.150913
1107.519420,-5403.503377,-612.876398,8512.368333
1107.519750,-3256.906145,-3524.039291,6587.832884
1107.520079,-2738.761985,-3600.648841,5921.647536
1107.520409,-1998.556043,-2298.286494,7105.977043
1107.520739,-1184.329507,-766.095498,8216.285956
1107.521068,-1480.411884,1838.629195,9326.594869
1107.521398,-3108.864956,4366.744339,11177.109724
1107.521728,-5329.482782,5286.058936,12657.521608
1107.522057,-6439.791695,5132.839837,14137.933492
1107.522387,-7846.182985,3294.210641,14582.057057
1107.522717,-8216.285956,1762.019645,13989.892304
1107.523046,-7846.182985,-306.438199,11473.192101
1107.523376,-5699.585753,-2757.943793,8586.388927
1107.523706,-2442.679609,-4903.011187,6661.853478
1107.524035,148.041188,-3907.087040,6217.729913
1107.524365,1850.514855,-612.876398,5921.647536
1107.524695,2368.659014,2374.896044,6587.832884
1107.525024,888.247130,4903.011187,8660.409521
1107.525354,-1332.370696,6971.469032,10584.944971
1107.525684,-3478.967927,6741.640382,11473.192101
1107.526013,-5921.647536,3753.867940,12509.480420
1107.526343,-9030.512492,1685.410096,12657.521608
1107.526673,-11103.089130,306.438199,11843.295072
1107.527002,-10807.006753,-1608.800546,9622.677246
1107.527332,-8808.450710,-4519.963438,7105.977043
1107.527662,-5847.626942,-5209.449386,5107.421000
1107.527991,-2960.823768,-4213.525239,4071.132681
1107.528321,-222.061783,-1225.752797,4737.318029
1107.528651,444.123565,2681.334243,6439.791695
1107.528980,0.000000,5898.935335,8290.306550
1107.529310,-1332.370696,7890.783629,9548.656652
1107.529640,-3182.885551,7660.954980,11325.150913
1107.529969,-5625.565159,4826.401637,12583.501014
1107.530299,-7698.141797,1762.019645,13101.645173
1107.530629,-9252.574275,-1532.190996,11917.315666
1107.530958,-9104.533087,-4060.306139,11029.068536
1107.531288,-8216.285956,-6358.592633,10362.883188
1107.531618,-5995.668130,-5362.668486,9252.574275
1107.531947,-2220.617826,-3217.601092,7550.100608
1107.532277,1036.288319,-995.924147,6735.874072
1107.532607,2738.761985,1915.238745,7698.141797
1107.532936,2960.823768,4903.011187,9844.739029
1107.533266,1628.453072,7354.516781,11103.089130
1107.533596,-1258.350101,6588.421283,12657.521608
1107.533925,-4515.256246,4366.744339,14137.933492
1107.534255,-7920.203579,1225.752797,14952.160028
1107.534585,-9918.759623,306.438199,13397.727550
1107.534914,-10362.883188,-2834.553343,9844.739029
1107.535244,-7994.224174,-6052.154434,6587.832884
1107.535574,-4145.153275,-6205.373534,4959.379811
1107.535903,-1332.370696,-3907.087040,4663.297435
1107.536233,592.164754,-766.095498,5107.421000
1107.536562,444.123565,4136.915689,6291.750507
1107.536892,-222.061783,7890.783629,8068.244768
1107.537222,-962.267725,9806.022374,10288.862594
1107.537551,-3182.885551,8503.660028,12213.398043
1107.537881,-4515.256246,5898.935335,12435.459826
1107.538211,-6143.709319,1991.848295,12657.521608
1107.538540,-7328.038826,-612.876398,12139.377449
1107.538870,-8734.430116,-2374.896044,10807.006753
1107.539200,-7772.162391,-3907.087040,8586.388927
1107.539529,-5033.400406,-3370.820191,7105.977043
1107.539859,-1850.514855,-919.314598,5995.668130
1107.540189,888.247130,1225.752797,5921.647536
1107.540518,2294.638420,3524.039291,6957.935855
1107.540848,1258.350101,6588.421283,8068.244768
1107.541178,222.061783,8656.879127,9474.636058
1107.541507,-1554.432478,8044.002729,11621.233289
1107.541837,-3627.009116,5745.716235,12435.459826
1107.542167,-5181.441594,3447.429741,11991.336260
1107.542496,-5625.565159,766.095498,10584.944971
1107.542826,-5033.400406,-1532.190996,9326.594869
1107.543156,-4219.173869,-2528.115143,8438.347739
1107.543485,-3182.885551,-1149.143247,8586.388927
1107.543815,-3034.844362,1302.362347,8364.327145
1107.544145,-2738.761985,2987.772442,8586.388927
1107.544474,-2220.617826,4673.182538,9918.759623
1107.544804,-2294.638420,5669.106685,10436.903782
1107.545134,-1850.514855,7201.297681,11251.130318
1107.545463,-1924.535449,5669.106685,11251.130318
1107.545793,-1850.514855,3983.696590,11103.089130
1107.546123,-962.267725,2987.772442,10362.883188
1107.546452,-592.164754,2068.457845,9474.636058
1107.546782,-148.041188,1455.581446,8586.388927
1107.547112,-370.102971,1991.848295,8660.409521
1107.547441,296.082377,3447.429741,9474.636058
1107.547771,74.020594,6052.154434,9992.780217
1107.548101,-1036.288319,7354.516781,9844.739029
1107.548430,-2146.597232,7354.516781,9622.677246
1107.548760,-2368.659014,7124.688131,9400.615463
1107.549090,-2812.782580,6128.763984,8882.471304
1107.549419,-2960.823768,3907.087040,7476.080014
1107.549749,-2368.659014,2145.067394,5921.647536
1107.550079,-1184.329507,766.095498,5847.626942
1107.550408,-1406.391290,306.438199,6217.729913
1107.550738,-2072.576638,1455.581446,7254.018232
1107.551068,-2368.659014,3140.991542,8142.265362
1107.551397,-2960.823768,5209.449386,9548.656652
1107.551727,-2812.782580,6971.469032,11177.109724
1107.552057,-2368.659014,7201.297681,11399.171507
1107.552386,-1184.329507,6358.592633,10955.047942
1107.552716,-296.082377,5056.230287,10436.903782
1107.553046,-370.102971,4290.134789,10510.924376
1107.553375,-370.102971,3600.648841,10066.800811
1107.553705,74.020594,3064.381992,9992.780217
1107.554035,0.000000,1991.848295,9400.615463
1107.554364,0.000000,2221.676944,9326.594869
1107.554694,666.185348,2221.676944,9696.697840
1107.555024,518.144159,2681.334243,9992.780217
1107.555353,-444.123565,3753.867940,10807.006753
1107.555683,-2220.617826,5286.058936,11251.130318
1107.556013,-2220.617826,5822.325785,11843.295072
1107.556342,-1628.453072,5286.058936,11917.315666
1107.556672,-1332.370696,4749.792088,11029.068536
1107.557002,-1036.288319,3447.429741,9400.615463
1107.557331,-444.123565,3370.820191,8882.471304
1107.557661,222.061783,3907.087040,9178.553681
1107.557991,74.020594,5132.839837,8882.471304
1107.558320,0.000000,4596.572988,7550.100608
1107.558650,222.061783,3983.696590,7254.018232
1107.558980,-148.041188,2681.334243,6661.853478
1107.559309,-1184.329507,2451.505594,7772.162391
1107.559639,-2442.679609,2451.505594,8586.388927
1107.559969,-3552.988522,2911.162892,9030.512492
1107.560298,-4071.132681,3294.210641,9770.718434
1107.560628,-3478.967927,3217.601092,9622.677246
1107.560958,-2146.597232,3830.477490,9844.739029
1107.561287,-1036.288319,4290.134789,9400.615463
1107.561617,-370.102971,5286.058936,8882.471304
1107.561946,148.041188,5669.106685,9178.553681
1107.562276,518.144159,5822.325785,9252.574275
1107.562606,148.041188,6052.154434,9252.574275
1107.562935,-666.185348,5822.325785,8956.491898
1107.563265,-1332.370696,4366.744339,8364.327145
1107.563595,-1850.514855,2451.505594,7920.203579
1107.563924,-2146.597232,766.095498,7846.182985
1107.564254,-2146.597232,0.000000,8068.244768
1107.564584,-2146.597232,-229.828649,9400.615463
1107.564913,-1998.556043,842.705048,10140.821405
1107.565243,-1480.411884,2451.505594,10955.047942
1107.565573,-962.267725,4060.306139,11325.150913
1107.565902,0.000000,5362.668486,12213.398043
1107.566232,222.061783,6971.469032,13101.645173
1107.566562,74.020594,7124.688131,12361.439231
1107.566891,0.000000,6052.154434,11325.150913
1107.567221,-518.144159,4903.011187,10362.883188
1107.567551,-814.226536,2911.162892,9770.718434
1107.567880,-1480.411884,2374.896044,8956.491898
1107.568210,-1850.514855,2451.505594,8512.368333
1107.568540,-1184.329507,1838.629195,7920.203579
1107.568869,-740.205942,1685.410096,7402.059420
1107.569199,0.000000,2221.676944,7254.018232
1107.569529,740.205942,2757.943793,7994.224174
1107.569858,592.164754,3983.696590,9474.636058
1107.570188,0.000000,6052.154434,10288.862594
1107.570518,-740.205942,7201.297681,11251.130318
1107.570847,-1184.329507,6741.640382,11769.274478
1107.571177,-1850.514855,6588.421283,12139.377449
1107.571507,-3330.926739,6741.640382,11473.192101
1107.571836,-4145.153275,5822.325785,9326.594869
1107.572166,-3404.947333,4060.306139,6217.729913
1107.572496,-962.267725,1915.238745,4293.194464
1107.572825,1850.514855,842.705048,3849.070898
1107.573155,2368.659014,919.314598,3701.029710
1107.573485,1480.411884,1915.238745,5033.400406
1107.573814,-222.061783,3600.648841,7698.141797
1107.574144,-2442.679609,5975.544884,11251.130318
1107.574474,-4219.173869,7814.174080,14285.974681
1107.574803,-4737.318029,7584.345430,15840.407159
1107.575133,-4811.338623,6128.763984,15396.283594
1107.575463,-4737.318029,4979.620737,13545.768739
1107.575792,-3849.070898,3677.258390,11325.150913
1107.576122,-1406.391290,2221.676944,8882.471304
1107.576452,1110.308913,995.924147,6439.791695
1107.576781,3775.050304,1838.629195,5033.400406
1107.577111,4885.359217,2528.115143,4663.297435
1107.577441,4441.235652,3677.258390,5329.482782
1107.577770,2664.741391,5056.230287,7772.162391
1107.578100,-518.144159,7354.516781,10436.903782
1107.578430,-3404.947333,8197.221829,13101.645173
1107.578759,-4737.318029,6358.592633,13915.871710
1107.579089,-4589.276840,4213.525239,13767.830521
1107.579419,-3256.906145,2068.457845,12287.418637
1107.579748,-2368.659014,842.705048,9104.533087
1107.580078,-1184.329507,-306.438199,7105.977043
1107.580408,-740.205942,0.000000,7624.121203
1107.580737,-888.247130,3753.867940,9400.615463
1107.581067,-1628.453072,6665.030833,9030.512492
1107.581397,-1110.308913,5362.668486,6735.874072
1107.581726,0.000000,2298.286494,5699.585753
1107.582056,148.041188,1225.752797,8216.285956
1107.582386,-1184.329507,3370.820191,11473.192101
1107.582715,-2738.761985,5439.278036,12657.521608
1107.583045,-3182.885551,6205.373534,12509.480420
1107.583375,-2368.659014,5669.106685,11399.171507
1107.583704,-1406.391290,3753.867940,9548.656652
1107.584034,0.000000,1608.800546,7105.977043
1107.584364,814.226536,0.000000,5181.441594
1107.584693,1332.370696,1302.362347,5033.400406
1107.585023,1258.350101,3677.258390,6587.832884
1107.585353,1406.391290,3524.039291,8364.327145
1107.585682,0.000000,3907.087040,11029.068536
1107.586012,-2072.576638,4979.620737,12213.398043
1107.586342,-3330.926739,6511.811733,12361.439231
1107.586671,-2368.659014,5669.106685,12065.356855
1107.587001,-1332.370696,3524.039291,12139.377449
1107.587330,-1110.308913,2987.772442,12361.439231
1107.587660,-1702.473667,3753.867940,10881.027347
1107.587990,-1480.411884,3983.696590,8808.450710
1107.588319,-888.247130,4749.792088,7698.141797
1107.588649,296.082377,5439.278036,6883.915261
1107.588979,1480.411884,3907.087040,5847.626942
1107.589308,3034.844362,1915.238745,5477.523971
1107.589638,2590.720797,2451.505594,6143.709319
1107.589968,740.205942,4060.306139,8438.347739
1107.590297,-1554.432478,5439.278036,11621.233289
1107.590627,-3849.070898,7201.297681,14211.954086
1107.590957,-5033.400406,9116.536426,14656.077652
1107.591286,-3923.091493,7737.564530,13693.809927
1107.591616,-1998.556043,5132.839837,12583.501014
1107.591946,-1776.494261,3217.601092,10288.862594
1107.592275,-2590.720797,1838.629195,7476.080014
1107.592605,-3108.864956,2374.896044,5995.668130
1107.592935,-2072.576638,4136.915689,4737.318029
1107.593264,0.000000,3907.087040,4737.318029
1107.593594,1924.535449,2145.067394,4515.256246
1107.593924,2442.679609,4443.353888,5329.482782
1107.594253,2146.597232,6588.421283,5995.668130
1107.594583,1850.514855,6435.202183,8364.327145
1107.594913,592.164754,6511.811733,11917.315666
1107.595242,-1924.535449,7660.954980,14582.057057
1107.595572,-3627.009116,8273.831378,15470.304188
1107.595902,-4071.132681,6128.763984,14508.036463
1107.596231,-4441.235652,5286.058936,11991.336260
1107.596561,-4589.276840,2374.896044,9326.594869
1107.596891,-3775.050304,-1302.362347,7550.100608
1107.597220,-2738.761985,-1455.581446,5477.523971
1107.597550,-1036.288319,-766.095498,3330.926739
1107.597880,1480.411884,-306.438199,2812.782580
1107.598209,3330.926739,1302.362347,4071.132681
1107.598539,3404.947333,2834.553343,6735.874072
1107.598869,3182.885551,4903.011187,10658.965565
1107.599198,2664.741391,7354.516781,14804.118840
1107.599528,1036.288319,8963.317327,17098.757260
1107.599858,-1554.432478,8733.488677,17690.922014
1107.600187,-3330.926739,5056.230287,17172.777854
1107.600517,-4219.173869,2681.334243,14508.036463
1107.600847,-4145.153275,766.095498,10658.965565
1107.601176,-2664.741391,-1302.362347,7105.977043
1107.601506,74.020594,-2834.553343,5255.462188
1107.601836,2146.597232,-3524.039291,3997.112087
1107.602165,2072.576638,-1838.629195,2146.597232
1107.602495,2072.576638,536.266849,2368.659014
1107.602825,2072.576638,2221.676944,6069.688724
1107.603154,1554.432478,5286.058936,11843.295072
1107.603484,-888.247130,8963.317327,16506.592507
1107.603814,-4145.153275,10801.946522,17246.798449
1107.604143,-5847.626942,8120.612279,15470.304188
1107.604473,-6735.874072,4596.572988,13397.727550
1107.604803,-5625.565159,1455.581446,10584.944971
1107.605132,-3701.029710,-2221.676944,7402.059420
1107.605462,-1702.473667,-3447.429741,3997.112087
1107.605792,-222.061783,-3447.429741,222.061783
1107.606121,2072.576638,-3524.039291,-296.082377
1107.606451,3034.844362,-842.705048,2590.720797
1107.606781,2738.761985,4290.134789,7550.100608
1107.607110,1036.288319,7660.954980,11399.171507
1107.607440,-1776.494261,8733.488677,12879.583391
1107.607770,-2812.782580,6894.859482,14137.933492
1107.608099,-3108.864956,3983.696590,15544.324782
1107.608429,-2886.803174,1532.190996,14656.077652
1107.608759,-2368.659014,-1149.143247,11103.089130
1107.609088,-1850.514855,-3217.601092,7031.956449
1107.609418,-592.164754,-3983.696590,5107.421000
1107.609748,592.164754,-3600.648841,4811.338623
1107.610077,2368.659014,-2987.772442,7031.956449
1107.610407,3478.967927,-459.657299,8586.388927
1107.610737,1480.411884,3140.991542,9104.533087
1107.611066,-888.247130,4443.353888,11843.295072
1107.611396,-1628.453072,4826.401637,16358.551318
1107.611725,-1924.535449,6128.763984,19097.313304
1107.612055,-2738.761985,6588.421283,18653.189738
1107.612384,-2886.803174,4596.572988,13693.809927
1107.612714,-1554.432478,-612.876398,8068.244768
1107.613044,2368.659014,-6205.373534,4885.359217
1107.613373,3552.988522,-7277.907231,3775.050304
1107.613703,3034.844362,-2987.772442,5255.462188
1107.614032,222.061783,0.000000,5995.668130
1107.614362,-2960.823768,1685.410096,7254.018232
1107.614691,-5033.400406,2145.067394,9474.636058
1107.615021,-4441.235652,2145.067394,12657.521608
1107.615350,-2516.700203,3370.820191,14285.974681
1107.615680,-2220.617826,5056.230287,12805.562797
1107.616009,-1554.432478,4366.744339,9844.739029
1107.616339,0.000000,995.924147,7846.182985
1107.616669,1184.329507,-1225.752797,6587.832884
1107.616998,1332.370696,-383.047749,7328.038826
1107.617328,-1036.288319,1302.362347,6957.935855
1107.617657,-3627.009116,2068.457845,4959.379811
1107.617987,-3849.070898,-842.705048,4589.276840
1107.618316,-2442.679609,-3983.696590,5625.565159
1107.618646,-1554.432478,-3677.258390,8142.265362
1107.618975,-1332.370696,-689.485948,10214.842000
1107.619305,-2220.617826,1532.190996,10510.924376
1107.619634,-1258.350101,1915.238745,11621.233289
1107.619964,962.267725,2068.457845,12287.418637
1107.620294,2590.720797,1991.848295,12213.398043
1107.620623,3108.864956,1915.238745,12065.356855
1107.620953,1184.329507,4213.525239,10288.862594
1107.621282,74.020594,3064.381992,9178.553681
1107.621612,370.102971,-1378.971896,9104.533087
1107.621941,0.000000,-3677.258390,9474.636058
1107.622271,-1480.411884,-2528.115143,10584.944971
1107.622600,-3182.885551,-766.095498,10140.821405
1107.622930,-2664.741391,-1225.752797,9992.780217
1107.623259,-1110.308913,-1685.410096,11325.150913
1107.623589,-222.061783,0.000000,13027.624579
1107.623918,-814.226536,2987.772442,14730.098246
1107.624248,-1998.556043,5822.325785,14211.954086
1107.624578,-2738.761985,6052.154434,12509.480420
1107.624907,-2146.597232,3600.648841,9770.718434
1107.625237,-1184.329507,306.438199,8290.306550
1107.625566,444.123565,-1915.238745,8216.285956
1107.625896,-444.123565,0.000000,7105.977043
1107.626225,-2294.638420,1378.971896,4959.379811
1107.626555,-1036.288319,-612.876398,4959.379811
1107.626884,0.000000,-1455.581446,6513.812290
1107.627214,1036.288319,459.657299,9252.574275
1107.627543,0.000000,4213.525239,9918.759623
1107.627873,-2368.659014,6281.983084,9474.636058
1107.628203,-2960.823768,5515.887586,8808.450710
1107.628532,-1850.514855,2528.115143,8956.491898
1107.628862,-518.144159,153.219100,9622.677246
1107.629191,0.000000,536.266849,8290.306550
1107.629521,-1628.453072,1532.190996,4811.338623
1107.629850,-1036.288319,-306.438199,3404.947333
1107.630180,962.267725,-3064.381992,5255.462188
1107.630509,1702.473667,-1991.848295,9104.533087
1107.630839,296.082377,2528.115143,10214.842000
1107.631168,-2368.659014,3983.696590,10881.027347
1107.631498,-3627.009116,2528.115143,11251.130318
1107.631828,-2960.823768,1532.190996,12583.501014
1107.632157,-1332.370696,383.047749,14434.015869
1107.632487,-296.082377,383.047749,13693.809927
1107.632816,0.000000,1378.971896,9622.677246
1107.633146,518.144159,-1378.971896,8586.388927
1107.633475,1776.494261,-2604.724693,10288.862594
1107.633805,1406.391290,-536.266849,11695.253884
1107.634134,1184.329507,1608.800546,11621.233289
1107.634464,0.000000,1532.190996,9844.739029
1107.634793,-1554.432478,1685.410096,10362.883188
1107.635123,-1554.432478,1378.971896,11103.089130
1107.635452,-1480.411884,0.000000,11843.295072
1107.635782,-1480.411884,-766.095498,10510.924376
1107.636112,-2368.659014,306.438199,8734.430116
1107.636441,-2220.617826,306.438199,8882.471304
1107.636771,-1554.432478,-1302.362347,8882.471304
1107.637100,-1184.329507,-1991.848295,8512.368333
1107.637430,-814.226536,459.657299,9474.636058
1107.637759,-1480.411884,3140.991542,9474.636058
1107.638089,-2812.782580,3370.820191,9178.553681
1107.638418,-2886.803174,919.314598,8808.450710
1107.638748,-2738.761985,-459.657299,7402.059420
1107.639077,-1850.514855,-1685.410096,7402.059420
1107.639407,-888.247130,-612.876398,7550.100608
1107.639737,-888.247130,1455.581446,6883.915261
1107.640066,-222.061783,0.000000,6143.709319
1107.640396,1110.308913,-2068.457845,7402.059420
1107.640725,1924.535449,-766.095498,10436.903782
1107.641055,444.123565,3524.039291,11177.109724
1107.641384,-2072.576638,4290.134789,9474.636058
1107.641714,-1702.473667,1532.190996,9252.574275
1107.642043,-518.144159,-612.876398,10066.800811
1107.642373,0.000000,-995.924147,11695.253884
1107.642702,-592.164754,459.657299,10066.800811
1107.643032,-1110.308913,0.000000,7328.038826
1107.643362,444.123565,-1685.410096,7402.059420
1107.643691,2072.576638,-1302.362347,10807.006753
1107.644021,2072.576638,689.485948,13175.665768
1107.644350,0.000000,2528.115143,13027.624579
1107.644680,-3330.926739,4673.182538,12287.418637
1107.645009,-3997.112087,4673.182538,13471.748144
1107.645339,-3034.844362,3064.381992,13693.809927
1107.645668,-2442.679609,306.438199,12213.398043
1107.645998,-1702.473667,-842.705048,9474.636058
1107.646327,-2072.576638,0.000000,6883.915261
1107.646657,-740.205942,-306.438199,6365.771101
1107.646987,592.164754,-842.705048,6365.771101
1107.647316,888.247130,-842.705048,8290.306550
1107.647646,296.082377,2068.457845,9844.739029
1107.647975,-2220.617826,5286.058936,9400.615463
1107.648305,-2886.803174,4596.572988,8142.265362
1107.648634,-2368.659014,1685.410096,8068.244768
1107.648964,-1184.329507,153.219100,8882.471304
1107.649293,-888.247130,1072.533697,8882.471304
1107.649623,-1406.391290,1455.581446,6661.853478
1107.649952,-1110.308913,-766.095498,4737.318029
1107.650282,-296.082377,-2374.896044,4811.338623
1107.650611,740.205942,-1915.238745,7772.162391
1107.650941,1110.308913,689.485948,10362.883188
1107.651271,-814.226536,3140.991542,9696.697840
1107.651600,-2220.617826,3140.991542,9992.780217
1107.651930,-1924.535449,1455.581446,10807.006753
1107.652259,-1850.514855,229.828649,12805.562797
1107.652589,-1628.453072,383.047749,13027.624579
1107.652918,-1998.556043,1532.190996,9918.759623
1107.653248,-1184.329507,-1149.143247,7994.224174
1107.653577,1036.288319,-2987.772442,9474.636058
1107.653907,962.267725,-1838.629195,11399.171507
1107.654236,-296.082377,153.219100,11843.295072
1107.654566,-1554.432478,1915.238745,10658.965565
1107.654896,-2368.659014,2374.896044,11103.089130
1107.655225,-1110.308913,1302.362347,12435.459826
1107.655555,-888.247130,-459.657299,12657.521608
1107.655884,-1110.308913,-229.828649,11621.233289
1107.656214,-1480.411884,2221.676944,9474.636058
1107.656543,-1184.329507,842.705048,7920.203579
1107.656873,962.267725,-1685.410096,7772.162391
1107.657202,1406.391290,-1991.848295,9622.677246
1107.657532,370.102971,229.828649,10658.965565
1107.657861,-1554.432478,4443.353888,9326.594869
1107.658191,-2664.741391,4366.744339,8438.347739
1107.658521,-2072.576638,2145.067394,8512.368333
1107.658850,-1850.514855,689.485948,8956.491898
1107.659180,-1406.391290,-306.438199,9178.553681
1107.659509,-1924.535449,766.095498,7179.997637
1107.659839,-2590.720797,459.657299,5477.523971
1107.660168,-2072.576638,-1149.143247,5773.606348
1107.660498,-666.185348,-2451.505594,7550.100608
1107.660827,-888.247130,-536.266849,9474.636058
1107.661157,-1184.329507,2528.115143,9622.677246
1107.661486,-2442.679609,4366.744339,9474.636058
1107.661816,-2072.576638,3294.210641,9030.512492
1107.662145,-666.185348,689.485948,9696.697840
1107.662475,962.267725,-689.485948,10881.027347
1107.662805,1110.308913,2221.676944,10214.842000
1107.663134,-296.082377,3294.210641,8142.265362
1107.663464,0.000000,383.047749,7624.121203
1107.663793,1480.411884,-2068.457845,9770.718434
1107.664123,888.247130,-612.876398,12287.418637
1107.664452,-814.226536,2451.505594,13027.624579
1107.664782,-2368.659014,3064.381992,12065.356855
1107.665111,-3108.864956,1991.848295,11547.212695
1107.665441,-2220.617826,0.000000,11769.274478
1107.665770,-1702.473667,-689.485948,12805.562797
1107.666100,-1628.453072,1838.629195,12361.439231
1107.666430,-2368.659014,4136.915689,9844.739029
1107.666759,-1406.391290,2604.724693,7846.182985
1107.667089,1110.308913,-995.924147,7698.141797
1107.667418,1554.432478,-1532.190996,9252.574275
1107.667748,-148.041188,2911.162892,10510.924376
1107.668077,-3552.988522,5592.497135,9622.677246
1107.668407,-4737.318029,3983.696590,9474.636058
1107.668736,-3701.029710,1149.143247,9474.636058
1107.669066,-2590.720797,-919.314598,8956.491898
1107.669395,-1110.308913,-1685.410096,8512.368333
1107.669725,-2220.617826,995.924147,6143.709319
1107.670055,-1850.514855,1762.019645,4811.338623
1107.670384,0.000000,-153.219100,5477.523971
1107.670714,1184.329507,-306.438199,7402.059420
1107.671043,1258.350101,1762.019645,8956.491898
1107.671373,-296.082377,4519.963438,9326.594869
1107.671702,-2220.617826,4060.306139,8438.347739
1107.672032,-1850.514855,1072.533697,8586.388927
1107.672361,-740.205942,-1149.143247,9770.718434
1107.672691,0.000000,-1302.362347,11325.150913
1107.673020,-962.267725,153.219100,9844.739029
1107.673350,-1924.535449,0.000000,8956.491898
1107.673680,-592.164754,-1302.362347,9474.636058
1107.674009,0.000000,-1149.143247,11103.089130
1107.674339,592.164754,383.047749,12657.521608
1107.674668,0.000000,3140.991542,12435.459826
1107.674998,-1776.494261,3753.867940,11695.253884
1107.675327,-1998.556043,2221.676944,11621.233289
1107.675657,-1554.432478,229.828649,11547.212695
1107.675986,-962.267725,-766.095498,12213.398043
1107.676316,-592.164754,306.438199,10881.027347
1107.676645,-1332.370696,1685.410096,8364.327145
1107.676975,-1850.514855,-1225.752797,7105.977043
1107.677304,-592.164754,-2528.115143,8364.327145
1107.677634,0.000000,-536.266849,11843.295072
1107.677964,-1332.370696,3524.039291,11917.315666
1107.678293,-3552.988522,5439.278036,9622.677246
1107.678623,-3478.967927,1762.019645,9030.512492
1107.678952,-2294.638420,-153.219100,8882.471304
1107.679282,-1036.288319,-383.047749,9548.656652
1107.679611,-592.164754,1685.410096,8660.409521
1107.679941,-1110.308913,2528.115143,7031.956449
1107.680270,-1776.494261,1225.752797,5995.668130
1107.680600,-370.102971,0.000000,7254.018232
1107.680929,148.041188,-459.657299,8882.471304
1107.681259,-296.082377,2451.505594,8734.430116
1107.681589,-1406.391290,4519.963438,8364.327145
1107.681918,-2442.679609,2528.115143,8216.285956
1107.682248,-1628.453072,1072.533697,9474.636058
1107.682577,-1258.350101,459.657299,10140.821405
1107.682907,-888.247130,766.095498,9030.512492
1107.683236,-1184.329507,1685.410096,7328.038826
1107.683566,-518.144159,995.924147,7994.224174
1107.683895,592.164754,612.876398,8956.491898
1107.684225,814.226536,383.047749,10140.821405
1107.684554,518.144159,1838.629195,11769.274478
1107.684884,-1110.308913,3447.429741,11177.109724
1107.685214,-3330.926739,3294.210641,10658.965565
1107.685543,-2590.720797,1225.752797,11621.233289
1107.685873,-1332.370696,0.000000,11991.336260
1107.686202,-740.205942,1149.143247,11547.212695
1107.686532,-666.185348,2298.286494,10288.862594
1107.686861,-740.205942,1072.533697,9104.533087
1107.687191,-370.102971,536.266849,9400.615463
1107.687520,74.020594,1072.533697,10807.006753
1107.687850,-296.082377,2451.505594,11843.295072
1107.688179,-1924.535449,4213.525239,10584.944971
1107.688509,-2664.741391,2757.943793,9548.656652
1107.688838,-2368.659014,689.485948,8882.471304
1107.689168,-1850.514855,-842.705048,9030.512492
1107.689498,-1702.473667,0.000000,8956.491898
1107.689827,-1480.411884,1762.019645,7402.059420
1107.690157,-1702.473667,1685.410096,6291.750507
1107.690486,0.000000,383.047749,6069.688724
1107.690816,740.205942,-766.095498,6883.915261
1107.691145,148.041188,1302.362347,8882.471304
1107.691475,-1480.411884,3830.477490,9104.533087
1107.691804,-3256.906145,3907.087040,9030.512492
1107.692134,-2812.782580,995.924147,8660.409521
1107.692463,-1998.556043,-1455.581446,9400.615463
1107.692793,-1258.350101,-2604.724693,9696.697840
1107.693123,-962.267725,-536.266849,9326.594869
1107.693452,-962.267725,459.657299,7772.162391
1107.693782,-666.185348,-919.314598,8216.285956
1107.694111,1184.329507,-842.705048,9696.697840
1107.694441,1036.288319,842.705048,11991.336260
1107.694770,-148.041188,3064.381992,12065.356855
1107.695100,-1554.432478,3677.258390,11325.150913
1107.695429,-1480.411884,1455.581446,11473.192101
1107.695759,-888.247130,383.047749,11843.295072
1107.696088,-1258.350101,-383.047749,12361.439231
1107.696418,-1184.329507,689.485948,11621.233289
1107.696748,-1924.535449,1378.971896,9474.636058
1107.697077,-962.267725,-459.657299,8660.409521
1107.697407,592.164754,-1302.362347,9030.512492
1107.697736,222.061783,76.609550,11325.150913
1107.698066,-666.185348,3064.381992,11547.212695
1107.698395,-3034.844362,4903.011187,9918.759623
1107.698725,-4293.194464,2451.505594,9178.553681
1107.699054,-3034.844362,0.000000,9474.636058
1107.699384,-2590.720797,306.438199,11103.089130
1107.699713,-2146.597232,2145.067394,9992.780217
1107.700043,-1924.535449,3064.381992,7031.956449
1107.700373,-888.247130,1378.971896,5181.441594
1107.700702,962.267725,0.000000,6291.750507
1107.701032,962.267725,76.609550,7920.203579
1107.701361,-148.041188,3370.820191,9844.739029
1107.701691,-2072.576638,5745.716235,8734.430116
1107.702020,-3330.926739,4290.134789,7698.141797
1107.702350,-2368.659014,0.000000,8216.285956
1107.702679,-962.267725,-919.314598,9474.636058
1107.703009,-148.041188,-766.095498,9326.594869
1107.703338,-888.247130,1762.019645,7105.977043
1107.703668,-888.247130,1302.362347,6513.812290
1107.703997,1110.308913,0.000000,7772.162391
1107.704327,2738.761985,459.657299,9770.718434
1107.704657,1776.494261,1991.848295,10362.883188
1107.704986,0.000000,4060.306139,10362.883188
1107.705316,-2220.617826,4136.915689,10214.842000
1107.705645,-2664.741391,1378.971896,11399.171507
1107.705975,-2368.659014,-1149.143247,11769.274478
1107.706304,-2516.700203,-2757.943793,11251.130318
1107.706634,-2368.659014,-1838.629195,11103.089130
1107.706963,-2886.803174,-842.705048,10436.903782
1107.707293,-2664.741391,-1685.410096,10140.821405
1107.707622,-1258.350101,-1762.019645,10955.047942
1107.707952,-370.102971,229.828649,12731.542202
1107.708282,-518.144159,4366.744339,13915.871710
1107.708611,-2590.720797,6588.421283,12509.480420
1107.708941,-2516.700203,2987.772442,9622.677246
1107.709270,-1110.308913,-1072.533697,8512.368333
1107.709600,148.041188,-1685.410096,9252.574275
1107.709929,-518.144159,1072.533697,9252.574275
1107.710259,-1332.370696,1915.238745,7402.059420
1107.710588,-592.164754,-1072.533697,6291.750507
1107.710918,666.185348,-2374.896044,7031.956449
1107.711247,518.144159,-612.876398,9474.636058
1107.711577,222.061783,3064.381992,9918.759623
1107.711907,-1998.556043,4749.792088,7994.224174
1107.712236,-3182.885551,3753.867940,7550.100608
1107.712566,-1554.432478,766.095498,8364.327145
1107.712895,-962.267725,-459.657299,9326.594869
1107.713225,-1036.288319,-536.266849,7920.203579
1107.713554,-2072.576638,1072.533697,6143.709319
1107.713884,-1850.514855,-536.266849,5773.606348
1107.714214,-222.061783,-2298.286494,7402.059420
1107.714543,148.041188,-2221.676944,9622.677246
1107.714873,-740.205942,536.266849,11547.212695
1107.715203,-2664.741391,3753.867940,11473.192101
1107.715532,-3404.947333,3140.991542,11843.295072
1107.715862,-2146.597232,919.314598,11695.253884
1107.716191,-1036.288319,-842.705048,11769.274478
1107.716521,518.144159,-612.876398,11917.315666
1107.716851,1332.370696,2145.067394,9844.739029
1107.717180,1258.350101,919.314598,9030.512492
1107.717510,1628.453072,-306.438199,9992.780217
1107.717840,1628.453072,842.705048,11547.212695
1107.718169,1184.329507,2374.896044,12731.542202
1107.718499,-222.061783,4213.525239,11103.089130
1107.718829,-2146.597232,3140.991542,9992.780217
1107.719158,-2516.700203,842.705048,9992.780217
1107.719488,-2442.679609,-536.266849,10658.965565
1107.719818,-2664.741391,-459.657299,10066.800811
1107.720147,-3256.906145,536.266849,7920.203579
1107.720477,-3330.926739,1149.143247,6735.874072
1107.720807,-1628.453072,-612.876398,7402.059420
1107.721136,-592.164754,-383.047749,8734.430116
1107.721466,-962.267725,1532.190996,9104.533087
1107.721796,-2368.659014,4826.401637,8586.388927
1107.722125,-3627.009116,4290.134789,8808.450710
1107.722455,-3404.947333,2528.115143,9474.636058
1107.722785,-2516.700203,1225.752797,8660.409521
1107.723114,-1332.370696,-1608.800546,7994.224174
1107.723444,-518.144159,-1072.533697,6587.832884
1107.723774,-296.082377,766.095498,6217.729913
1107.724103,888.247130,-1149.143247,6883.915261
1107.724433,2072.576638,-995.924147,8142.265362
1107.724763,2368.659014,459.657299,9400.615463
1107.725092,1480.411884,2757.943793,10955.047942
1107.725422,-370.102971,4060.306139,11177.109724
1107.725751,-1110.308913,2451.505594,11325.150913
1107.726081,-666.185348,536.266849,11029.068536
1107.726411,-370.102971,-1991.848295,11473.192101
1107.726740,74.020594,-1302.362347,11029.068536
1107.727070,-814.226536,0.000000,9474.636058
1107.727400,-1184.329507,-1762.019645,8734.430116
1107.727729,0.000000,-2068.457845,9548.656652
1107.728059,-222.061783,-1149.143247,12509.480420
1107.728389,-592.164754,2528.115143,14137.933492
1107.728718,-3182.885551,5132.839837,12435.459826
1107.729048,-3701.029710,2757.943793,10658.965565
1107.729378,-2368.659014,-229.828649,10807.006753
1107.729707,-2368.659014,-1915.238745,11325.150913
1107.730037,-2886.803174,-612.876398,10807.006753
1107.730367,-3330.926739,919.314598,8438.347739
1107.730696,-2294.638420,-383.047749,7031.956449
1107.731026,296.082377,-1378.971896,7031.956449
1107.731356,1184.329507,-1532.190996,8438.347739
1107.731685,740.205942,459.657299,9474.636058
1107.732015,-1406.391290,3907.087040,8882.471304
1107.732345,-2590.720797,4903.011187,8808.450710
1107.732674,-1702.473667,3524.039291,9400.615463
1107.733004,-962.267725,1149.143247,9474.636058
1107.733334,-148.041188,153.219100,8290.306550
1107.733663,74.020594,842.705048,6143.709319
1107.733993,-222.061783,0.000000,5033.400406
1107.734323,888.247130,-383.047749,6217.729913
1107.734652,518.144159,-1072.533697,7920.203579
1107.734982,296.082377,0.000000,10140.821405
1107.735312,-1184.329507,2987.772442,10510.924376
1107.735641,-3108.864956,3677.258390,9918.759623
1107.735971,-3182.885551,1762.019645,9178.553681
1107.736300,-1480.411884,-1685.410096,9918.759623
1107.736630,0.000000,-2068.457845,11843.295072
1107.736960,74.020594,1378.971896,11917.315666
1107.737289,-962.267725,1991.848295,10066.800811
1107.737619,-518.144159,306.438199,9252.574275
1107.737949,962.267725,-1302.362347,10436.903782
1107.738278,1110.308913,306.438199,13101.645173
1107.738608,0.000000,3447.429741,13545.768739
1107.738938,-2072.576638,4443.353888,11917.315666
1107.739267,-2368.659014,2911.162892,11547.212695
1107.739597,-1850.514855,383.047749,10955.047942
1107.739927,-1406.391290,-1762.019645,10732.986159
1107.740256,-814.226536,-995.924147,9474.636058
1107.740586,-1332.370696,919.314598,7476.080014
1107.740916,-888.247130,1378.971896,7179.997637
1107.741245,222.061783,689.485948,7846.182985
1107.741575,74.020594,383.047749,8586.388927
1107.741905,-740.205942,2451.505594,9400.615463
1107.742234,-2294.638420,4290.134789,8438.347739
1107.742564,-2886.803174,2757.943793,8660.409521
1107.742894,-2664.741391,306.438199,8216.285956
1107.743223,-2220.617826,-1532.190996,8142.265362
1107.743553,-1850.514855,-689.485948,8438.347739
1107.743883,-2072.576638,1302.362347,7698.141797
1107.744212,-1184.329507,1149.143247,6957.935855
1107.744542,444.123565,-689.485948,6587.832884
1107.744872,1554.432478,-1532.190996,8512.368333
1107.745201,1480.411884,1378.971896,10140.821405
1107.745531,-518.144159,3600.648841,10288.862594
1107.745860,-1850.514855,2834.553343,10214.842000
1107.746190,-1776.494261,766.095498,10658.965565
1107.746520,-1554.432478,-459.657299,11621.233289
1107.746849,-370.102971,-919.314598,10955.047942
1107.747179,-370.102971,-612.876398,9178.553681
1107.747509,518.144159,-766.095498,8142.265362
1107.747838,1554.432478,-995.924147,8808.450710
1107.748168,1406.391290,-229.828649,10510.924376
1107.748498,1184.329507,1838.629195,11843.295072
1107.748827,-666.185348,3677.258390,11843.295072
1107.749157,-2368.659014,3447.429741,11103.089130
1107.749487,-2812.782580,383.047749,11103.089130
1107.749816,-2072.576638,-1915.238745,11399.171507
1107.750146,-1480.411884,-1532.190996,11917.315666
1107.750476,-2294.638420,766.095498,10140.821405
1107.750805,-2960.823768,1455.581446,8068.244768
1107.751135,-962.267725,-1762.019645,8734.430116
1107.751465,74.020594,-1838.629195,10807.006753
1107.751794,-444.123565,2298.286494,11769.274478
1107.752124,-1850.514855,4596.572988,9252.574275
1107.752454,-2738.761985,4213.525239,7402.059420
1107.752783,-1184.329507,1072.533697,7550.100608
1107.753113,-148.041188,-842.705048,9770.718434
1107.753443,-740.205942,0.000000,9474.636058
1107.753772,-2072.576638,1455.581446,7328.038826
1107.754102,-2220.617826,0.000000,5477.523971
1107.754432,-962.267725,-2068.457845,6217.729913
1107.754761,148.041188,-1149.143247,7624.121203
1107.755091,888.247130,76.609550,9104.533087
1107.755421,962.267725,2528.115143,8808.450710
1107.755750,-888.247130,4290.134789,8290.306550
1107.756080,-1850.514855,2834.553343,9326.594869
1107.756409,-1110.308913,383.047749,9918.759623
1107.756739,-1184.329507,-1225.752797,10214.842000
1107.757069,-1036.288319,0.000000,9696.697840
1107.757398,-1702.473667,1762.019645,8660.409521
1107.757728,-1332.370696,-229.828649,8438.347739
1107.758058,518.144159,-2221.676944,9770.718434
1107.758387,962.267725,-766.095498,11769.274478
1107.758717,814.226536,2681.334243,12731.542202
1107.759047,-1184.329507,4136.915689,11251.130318
1107.759376,-2072.576638,3677.258390,11621.233289
1107.759706,-1184.329507,1378.971896,11769.274478
1107.760036,-518.144159,459.657299,12509.480420
1107.760365,-296.082377,1608.800546,11917.315666
1107.760695,-1110.308913,2604.724693,9252.574275
1107.761025,-1258.350101,229.828649,8364.327145
1107.761354,148.041188,-1225.752797,9326.594869
1107.761684,222.061783,0.000000,9918.759623
1107.762014,-148.041188,2145.067394,10140.821405
1107.762343,-1702.473667,4443.353888,8364.327145
1107.762673,-2812.782580,3753.867940,8068.244768
1107.763003,-2294.638420,1685.410096,8438.347739
1107.763332,-1480.411884,919.314598,8956.491898
1107.763662,-1036.288319,1455.581446,8734.430116
1107.763992,-1554.432478,1685.410096,6513.812290
1107.764321,-2220.617826,0.000000,6217.729913
1107.764651,-1110.308913,-1149.143247,7031.956449
1107.764981,-592.164754,-766.095498,8808.450710
1107.765310,-592.164754,536.266849,9844.739029
1107.765640,-1776.494261,3140.991542,9770.718434
1107.765969,-2886.803174,2987.772442,9622.677246
1107.766299,-2146.597232,689.485948,9622.677246
1107.766629,-740.205942,-383.047749,8956.491898
1107.766958,0.000000,-1991.848295,9326.594869
1107.767288,444.123565,-612.876398,9696.697840
1107.767618,-888.247130,1072.533697,9178.553681
1107.767947,-222.061783,-306.438199,9104.533087
1107.768277,1850.514855,-2374.896044,10807.006753
1107.768607,1998.556043,0.000000,12509.480420
1107.768936,888.247130,3294.210641,12139.377449
1107.769266,-518.144159,3294.210641,11547.212695
1107.769596,-592.164754,1225.752797,10881.027347
1107.769925,-814.226536,766.095498,10881.027347
1107.770255,-370.102971,-306.438199,11843.295072
1107.770585,-740.205942,306.438199,10732.986159
1107.770914,-2294.638420,842.705048,8734.430116
1107.771244,-2072.576638,-612.876398,8882.471304
1107.771574,-1480.411884,-1225.752797,9326.594869
1107.771903,-1480.411884,0.000000,11103.089130
1107.772233,-2590.720797,2987.772442,10955.047942
1107.772563,-3478.967927,3907.087040,9400.615463
1107.772892,-3330.926739,1762.019645,8438.347739
1107.773222,-2220.617826,612.876398,8660.409521
1107.773552,-1480.411884,842.705048,9474.636058
1107.773881,-888.247130,2374.896044,8734.430116
1107.774211,-1184.329507,2757.943793,7328.038826
1107.774541,-1332.370696,1225.752797,5107.421000
1107.774870,0.000000,-919.314598,5847.626942
1107.775200,666.185348,-1532.190996,8438.347739
1107.775530,222.061783,2221.676944,10140.821405
1107.775859,-888.247130,4213.525239,9918.759623
1107.776189,-1628.453072,3677.258390,9104.533087
1107.776518,-962.267725,1378.971896,7772.162391
1107.776848,222.061783,-1149.143247,9252.574275
1107.777178,1036.288319,76.609550,10436.903782
1107.777507,74.020594,3370.820191,9030.512492
1107.777837,-296.082377,2757.943793,7031.956449
1107.778167,1628.453072,76.609550,7550.100608
1107.778496,1924.535449,-1455.581446,9696.697840
1107.778826,592.164754,1378.971896,11843.295072
1107.779156,-1850.514855,3677.258390,11695.253884
1107.779485,-3330.926739,3294.210641,11251.130318
1107.779815,-3775.050304,1455.581446,11029.068536
1107.780145,-2664.741391,-1608.800546,12287.418637
1107.780474,-1776.494261,-1455.581446,12953.603985
1107.780804,-2220.617826,1225.752797,10140.821405
1107.781134,-1776.494261,2221.676944,8882.471304
1107.781463,296.082377,1072.533697,9770.718434
1107.781793,888.247130,612.876398,11325.150913
1107.782123,0.000000,2528.115143,11769.274478
1107.782452,-1554.432478,4366.744339,10066.800811
1107.782782,-2220.617826,2681.334243,9104.533087
1107.783112,-2146.597232,995.924147,9474.636058
1107.783441,-1776.494261,-76.609550,10214.842000
1107.783771,-1480.411884,-229.828649,9844.739029
1107.784101,-1924.535449,1915.238745,8142.265362
1107.784430,-2146.597232,2298.286494,6439.791695
1107.784760,-592.164754,153.219100,6217.729913
1107.785090,518.144159,-1302.362347,7105.977043
1107.785419,518.144159,1455.581446,8660.409521
1107.785749,-148.041188,4366.744339,8438.347739
1107.786078,-1850.514855,3600.648841,6735.874072
1107.786408,-1924.535449,459.657299,6809.894666
1107.786738,-888.247130,-842.705048,8290.306550
1107.787067,-666.185348,-306.438199,9400.615463
1107.787397,-518.144159,689.485948,8734.430116
1107.787727,-1184.329507,1072.533697,7328.038826
1107.788056,-370.102971,-612.876398,7254.018232
1107.788386,370.102971,-1915.238745,9474.636058
1107.788716,1184.329507,-459.657299,11621.233289
1107.789045,444.123565,1915.238745,11769.274478
1107.789375,-2368.659014,2911.162892,11695.253884
1107.789705,-3108.864956,1532.190996,11991.336260
1107.790034,-2294.638420,-1072.533697,12583.501014
1107.790364,-814.226536,-2298.286494,13323.706956
1107.790694,-814.226536,-306.438199,11991.336260
1107.791023,-2072.576638,1225.752797,9622.677246
1107.791353,-962.267725,-536.266849,9326.594869
1107.791683,666.185348,-2145.067394,10584.944971
1107.792012,1332.370696,-229.828649,11769.274478
1107.792342,1184.329507,3753.867940,12657.521608
1107.792672,-444.123565,4673.182538,10881.027347
1107.793001,-1924.535449,3907.087040,9844.739029
1107.793331,-1554.432478,919.314598,10140.821405
1107.793661,-592.164754,0.000000,11103.089130
1107.793990,-1110.308913,1532.190996,9696.697840
1107.794320,-2516.700203,2604.724693,7105.977043
1107.794650,-2590.720797,919.314598,5181.441594
1107.794979,-1184.329507,-2221.676944,5625.565159
1107.795309,-148.041188,-1378.971896,8216.285956
1107.795639,-1332.370696,3217.601092,8956.491898
1107.795968,-3478.967927,4903.011187,7476.080014
1107.796298,-3701.029710,3294.210641,7031.956449
1107.796627,-2664.741391,612.876398,7624.121203
1107.796957,-1850.514855,-766.095498,8956.491898
1107.797287,-1332.370696,612.876398,9252.574275
1107.797616,-2146.597232,2145.067394,7698.141797
1107.797946,-2072.576638,2604.724693,7105.977043
1107.798276,-296.082377,76.609550,8290.306550
1107.798605,1406.391290,-689.485948,9474.636058
1107.798935,1850.514855,842.705048,10732.986159
1107.799265,1184.329507,3140.991542,11621.233289
1107.799594,-666.185348,4443.353888,10807.006753
1107.799924,-1184.329507,2451.505594,11029.068536
1107.800254,-444.123565,-153.219100,11177.109724
1107.800583,148.041188,-306.438199,11547.212695
1107.800913,888.247130,1762.019645,11399.171507
1107.801243,370.102971,3447.429741,10807.006753
1107.801572,740.205942,2221.676944,9474.636058
1107.801902,1406.391290,-76.609550,8512.368333
1107.802232,2368.659014,612.876398,10140.821405
1107.802561,1036.288319,3830.477490,11103.089130
1107.802891,-2072.576638,6205.373534,9326.594869
1107.803221,-3552.988522,3294.210641,8808.450710
1107.803550,-3552.988522,-229.828649,9844.739029
1107.803880,-3256.906145,-1532.190996,11029.068536
1107.804210,-3849.070898,-153.219100,11251.130318
1107.804539,-4663.297435,1225.752797,8882.471304
1107.804869,-4663.297435,-919.314598,7105.977043
1107.805199,-2812.782580,-1685.410096,7846.182985
1107.805528,-1628.453072,0.000000,10584.944971
1107.805858,-1776.494261,3524.039291,11843.295072
1107.806188,-3182.885551,6052.154434,9844.739029
1107.806517,-3034.844362,3907.087040,7254.018232
1107.806847,-518.144159,-1149.143247,6957.935855
1107.807176,1184.329507,-3524.039291,8364.327145
1107.807506,592.164754,-1378.971896,8586.388927
1107.807836,-1258.350101,76.609550,7328.038826
1107.808165,-814.226536,306.438199,7402.059420
1107.808495,296.082377,-689.485948,8734.430116
1107.808825,2294.638420,-1302.362347,10140.821405
1107.809154,2590.720797,-842.705048,11177.109724
1107.809484,1184.329507,1225.752797,10288.862594
1107.809814,-888.247130,2987.772442,9992.780217
1107.810143,-1998.556043,536.266849,10362.883188
1107.810473,-1850.514855,-1378.971896,10955.047942
1107.810803,-1406.391290,-1378.971896,11769.274478
1107.811132,-1850.514855,459.657299,10807.006753
1107.811462,-2664.741391,689.485948,8734.430116
1107.811792,-1406.391290,-2528.115143,7846.182985
1107.812121,222.061783,-2987.772442,9770.718434
1107.812451,74.020594,-306.438199,12213.398043
1107.812781,-1628.453072,3753.867940,12731.542202
1107.813110,-3182.885551,4749.792088,11917.315666
1107.813440,-2960.823768,1838.629195,11103.089130
1107.813770,-2220.617826,383.047749,11991.336260
1107.814099,-1258.350101,383.047749,12361.439231
1107.814429,-592.164754,1225.752797,9770.718434
1107.814759,-666.185348,612.876398,6809.894666
1107.815088,222.061783,-766.095498,6439.791695
1107.815418,814.226536,0.000000,8142.265362
1107.815748,370.102971,1762.019645,8808.450710
1107.816077,0.000000,3524.039291,8290.306550
1107.816407,-1258.350101,5209.449386,7476.080014
1107.816737,-1554.432478,4136.915689,7624.121203
1107.817066,-740.205942,2221.676944,7698.141797
1107.817396,-888.247130,-766.095498,8142.265362
1107.817726,-1406.391290,-229.828649,8068.244768
1107.818055,-3034.844362,1991.848295,7328.038826
1107.818385,-3478.967927,459.657299,7550.100608
1107.818715,-2368.659014,-2145.067394,8142.265362
1107.819044,-1776.494261,-612.876398,9992.780217
1107.819374,-888.247130,2451.505594,11251.130318
1107.819703,-1924.535449,4366.744339,10881.027347
1107.820033,-2072.576638,2681.334243,9918.759623
1107.820363,-1036.288319,1072.533697,9696.697840
1107.820692,296.082377,-612.876398,10881.027347
1107.821022,296.082377,0.000000,11473.192101
1107.821352,-666.185348,2374.896044,10288.862594
1107.821681,-592.164754,919.314598,9696.697840
1107.822011,222.061783,-1532.190996,10288.862594
1107.822341,592.164754,-306.438199,11621.233289
1107.822670,296.082377,1302.362347,12213.398043
1107.823000,-666.185348,2298.286494,10732.986159
1107.823330,-962.267725,1225.752797,10288.862594
1107.823659,-518.144159,1608.800546,10807.006753
1107.823989,-814.226536,919.314598,10955.047942
1107.824319,-1036.288319,229.828649,10436.903782
1107.824648,-2220.617826,1838.629195,9178.553681
1107.824978,-3034.844362,2374.896044,8512.368333
1107.825308,-2368.659014,842.705048,8068.244768
1107.825637,-1406.391290,-689.485948,8068.244768
1107.825967,-296.082377,-766.095498,9030.512492
1107.826297,-2146.597232,1991.848295,8956.491898
1107.826626,-3849.070898,2681.334243,8364.327145
1107.826956,-3182.885551,995.924147,8364.327145
1107.827286,-2294.638420,-689.485948,8956.491898
1107.827615,-1776.494261,-536.266849,9770.718434
1107.827945,-2072.576638,1685.410096,8734.430116
1107.828275,-2072.576638,766.095498,6661.853478
1107.828604,-592.164754,-1225.752797,5403.503377
1107.828934,1406.391290,-2068.457845,7179.997637
1107.829264,2664.741391,76.609550,10436.903782
1107.829593,1480.411884,2987.772442,9918.759623
1107.829923,-592.164754,3140.991542,8290.306550
1107.830253,0.000000,536.266849,8512.368333
1107.830582,0.000000,-842.705048,10732.986159
1107.830912,0.000000,76.609550,12065.356855
1107.831242,-1332.370696,536.266849,10955.047942
1107.831571,-2516.700203,-689.485948,9326.594869
1107.831901,-2220.617826,-1991.848295,9844.739029
1107.832231,-1036.288319,-2451.505594,12213.398043
1107.832560,-666.185348,-2145.067394,12953.603985
1107.832890,-1850.514855,689.485948,11843.295072
1107.833220,-2590.720797,2834.553343,11325.150913
1107.833549,-2072.576638,2911.162892,12065.356855
1107.833879,-1110.308913,1991.848295,12361.439231
1107.834209,-444.123565,995.924147,11991.336260
1107.834538,-1036.288319,1838.629195,9770.718434
1107.834868,-1184.329507,1455.581446,8512.368333
1107.835198,-1332.370696,76.609550,8364.327145
1107.835527,-370.102971,-766.095498,8956.491898
1107.835857,-1036.288319,-612.876398,10140.821405
1107.836187,-2146.597232,1991.848295,9918.759623
1107.836516,-3182.885551,4903.011187,8882.471304
1107.836846,-2442.679609,2528.115143,6587.832884
1107.837176,-444.123565,-689.485948,6587.832884
1107.837505,592.164754,-229.828649,7624.121203
1107.837835,-370.102971,3830.477490,8290.306550
1107.838164,-1924.535449,3600.648841,6069.688724
1107.838494,-2220.617826,1838.629195,5255.462188
1107.838824,-1184.329507,229.828649,6587.832884
1107.839153,-222.061783,0.000000,8956.491898
1107.839483,74.020594,1608.800546,10214.842000
1107.839813,-962.267725,1608.800546,9104.533087
1107.840142,-2516.700203,1685.410096,9104.533087
1107.840472,-2516.700203,689.485948,10214.842000
1107.840802,-1628.453072,229.828649,11843.295072
1107.841131,-888.247130,919.314598,11917.315666
1107.841461,-1702.473667,1991.848295,9252.574275
1107.841791,-1480.411884,995.924147,8142.265362
1107.842120,962.267725,-995.924147,9622.677246
1107.842450,2146.597232,-612.876398,11177.109724
1107.842780,1628.453072,919.314598,11843.295072
1107.843109,0.000000,2451.505594,11251.130318
1107.843439,-1480.411884,3064.381992,10510.924376
1107.843769,-1332.370696,1072.533697,11473.192101
1107.844098,0.000000,-536.266849,12435.459826
1107.844428,0.000000,76.609550,12509.480420
1107.844758,-1036.288319,2528.115143,11103.089130
1107.845087,-1554.432478,2221.676944,8734.430116
1107.845417,-1406.391290,-1302.362347,8068.244768
1107.845747,-962.267725,-2681.334243,9030.512492
1107.846076,-888.247130,-229.828649,10881.027347
1107.846406,-2294.638420,3217.601092,10584.944971
1107.846736,-3701.029710,2757.943793,8882.471304
1107.847065,-3182.885551,612.876398,7402.059420
1107.847395,-1480.411884,-383.047749,8068.244768
1107.847725,-518.144159,306.438199,9178.553681
1107.848054,-962.267725,2298.286494,8142.265362
1107.848384,-1998.556043,1838.629195,6513.812290
1107.848714,-1850.514855,-842.705048,6069.688724
1107.849043,-1480.411884,-1225.752797,7846.182985
1107.849373,-888.247130,0.000000,9622.677246
1107.849703,-1184.329507,1915.238745,9622.677246
1107.850032,-1924.535449,2374.896044,8586.388927
1107.850362,-1776.494261,1532.190996,8586.388927
1107.850692,-740.205942,-536.266849,9178.553681
1107.851021,0.000000,-1225.752797,9252.574275
1107.851351,-296.082377,842.705048,9178.553681
1107.851681,-444.123565,1762.019645,8882.471304
1107.852010,-962.267725,612.876398,8290.306550
1107.852340,-222.061783,-689.485948,8734.430116
1107.852670,518.144159,-1838.629195,10510.924376
1107.852999,444.123565,-1149.143247,12361.439231
1107.853329,-1776.494261,1072.533697,12953.603985
1107.853659,-3108.864956,1378.971896,12139.377449
1107.853988,-3034.844362,306.438199,12139.377449
1107.854318,-2146.597232,-689.485948,12805.562797
1107.854648,-1184.329507,766.095498,13175.665768
1107.854977,-1036.288319,1991.848295,11621.233289
1107.855307,-1258.350101,1762.019645,8882.471304
1107.855637,-296.082377,-153.219100,7476.080014
1107.855966,1332.370696,-1762.019645,8290.306550
1107.856296,1332.370696,-1072.533697,9548.656652
1107.856625,-592.164754,1532.190996,9622.677246
1107.856955,-2146.597232,1685.410096,8512.368333
1107.857285,-2220.617826,-76.609550,8364.327145
1107.857614,-1258.350101,-1608.800546,8734.430116
1107.857944,-222.061783,-1072.533697,9474.636058
1107.858274,-666.185348,76.609550,9030.512492
1107.858603,-2294.638420,1378.971896,7624.121203
1107.858933,-1850.514855,2145.067394,6883.915261
1107.859263,-592.164754,-306.438199,6587.832884
1107.859592,222.061783,-1685.410096,6883.915261
1107.859922,-296.082377,-1685.410096,7698.141797
1107.860252,-1480.411884,-1762.019645,8364.327145
1107.860581,-2368.659014,-1762.019645,7846.182985
1107.860911,-3256.906145,-4290.134789,7179.997637
1107.861241,-2368.659014,-4903.011187,9400.615463
1107.861570,-1776.494261,-3064.381992,11769.274478
1107.861900,-1998.556043,-1072.533697,12435.459826
1107.862230,-1702.473667,-536.266849,10510.924376
1107.862559,-666.185348,-3524.039291,9030.512492
1107.862889,1332.370696,-4903.011187,10066.800811
1107.863219,2738.761985,-2604.724693,12287.418637
1107.863548,1702.473667,-153.219100,13397.727550
1107.863878,-962.267725,536.266849,11917.315666
1107.864208,-2072.576638,-459.657299,10584.944971
1107.864537,-1776.494261,-3064.381992,12065.356855
1107.864867,-666.185348,-3753.867940,12657.521608
1107.865197,-370.102971,-4213.525239,11177.109724
1107.865526,-1036.288319,-3983.696590,9030.512492
1107.865856,-2220.617826,-5362.668486,7328.038826
1107.866186,-2072.576638,-5056.230287,8734.430116
1107.866515,-444.123565,-2987.772442,10807.006753
1107.866845,296.082377,-1149.143247,10732.986159
1107.867175,0.000000,-306.438199,10510.924376
1107.867504,-1406.391290,0.000000,11325.150913
1107.867834,-2590.720797,-536.266849,10658.965565
1107.868164,-3330.926739,76.609550,9918.759623
1107.868493,-2368.659014,-919.314598,8808.450710
1107.868823,-1332.370696,-2221.676944,7920.203579
1107.869153,-1332.370696,-2757.943793,7550.100608
1107.869482,-1628.453072,-3140.991542,6809.894666
1107.869812,-1406.391290,-2451.505594,5181.441594
1107.870142,0.000000,-2604.724693,5403.503377
1107.870471,1924.535449,-1762.019645,6735.874072
1107.870801,2294.638420,-766.095498,8216.285956
1107.871131,888.247130,-1225.752797,9474.636058
1107.871460,-1036.288319,-1302.362347,10658.965565
1107.871790,-3552.988522,766.095498,11103.089130
1107.872120,-3997.112087,459.657299,12213.398043
1107.872449,-3923.091493,-1225.752797,11843.295072
1107.872779,-3330.926739,-3064.381992,9474.636058
1107.873109,-1184.329507,-4903.011187,6735.874072
1107.873438,1184.329507,-6894.859482,5477.523971
1107.873768,2294.638420,-4979.620737,5921.647536
1107.874097,2664.741391,-1685.410096,8956.491898
1107.874427,1924.535449,842.705048,12213.398043
1107.874757,296.082377,4443.353888,13323.706956
1107.875086,-1258.350101,4213.525239,13027.624579
1107.875416,-592.164754,-1149.143247,13101.645173
1107.875746,-814.226536,-2987.772442,14211.954086
1107.876075,-2664.741391,-3370.820191,14656.077652
1107.876405,-5255.462188,-4136.915689,12361.439231
1107.876735,-7105.977043,-4673.182538,9844.739029
1107.877064,-5921.647536,-4903.011187,8882.471304
1107.877394,-2812.782580,-4366.744339,8586.388927
1107.877724,740.205942,-4596.572988,6883.915261
1107.878053,4145.153275,-3907.087040,4145.153275
1107.878383,5847.626942,-3140.991542,3552.988522
1107.878713,5551.544565,-842.705048,6809.894666
1107.879042,3849.070898,3064.381992,12657.521608
1107.879372,518.144159,5975.544884,16506.592507
1107.879702,-2886.803174,7737.564530,16062.468941
1107.880031,-4367.215058,4213.525239,13323.706956
1107.880361,-4219.173869,-2145.067394,11325.150913
1107.880691,-2590.720797,-6741.640382,9622.677246
1107.881020,-2886.803174,-6435.202183,6661.853478
1107.881350,-3256.906145,-4826.401637,3701.029710
1107.881680,-2442.679609,-3983.696590,2960.823768
1107.882009,-1554.432478,-3677.258390,3849.070898
1107.882339,-888.247130,-1455.581446,4589.276840
1107.882669,0.000000,0.000000,4071.132681
1107.882998,1998.556043,-383.047749,4811.338623
1107.883328,2738.761985,-842.705048,7328.038826
1107.883658,1332.370696,-689.485948,11029.068536
1107.883987,-1850.514855,-1225.752797,14285.974681
1107.884317,-4441.235652,-612.876398,16654.633695
1107.884647,-5995.668130,1302.362347,17542.880825
1107.884976,-6365.771101,1532.190996,16062.468941
1107.885306,-4663.297435,-2451.505594,12139.377449
1107.885636,-1184.329507,-7124.688131,7476.080014
1107.885965,2294.638420,-8044.002729,4663.297435
1107.886295,4589.276840,-5669.106685,4737.318029
1107.886625,4515.256246,-2528.115143,6513.812290
1107.886954,2738.761985,-842.705048,8734.430116
1107.887284,740.205942,1225.752797,11917.315666
1107.887614,-888.247130,612.876398,14063.912898
1107.887943,-2220.617826,76.609550,14508.036463
1107.888273,-2886.803174,-1378.971896,13471.748144
1107.888603,-3404.947333,-5439.278036,11399.171507
1107.888932,-2886.803174,-8273.831378,10066.800811
1107.889262,-2664.741391,-8503.660028,9696.697840
1107.889592,-2590.720797,-5669.106685,9622.677246
1107.889921,-2146.597232,-2834.553343,9252.574275
1107.890251,-1110.308913,-1225.752797,8364.327145
1107.890581,592.164754,-1225.752797,7920.203579
1107.890910,1924.535449,-2298.286494,8068.244768
1107.891240,1036.288319,-842.705048,8882.471304
1107.891570,-1036.288319,1378.971896,9918.759623
1107.891899,-2368.659014,229.828649,10807.006753
1107.892229,-2368.659014,-1762.019645,11325.150913
1107.892558,-1998.556043,-3830.477490,9474.636058
1107.892888,-814.226536,-5745.716235,7698.141797
1107.893218,592.164754,-6511.811733,6513.812290
1107.893547,1258.350101,-5439.278036,6513.812290
1107.893877,888.247130,-3677.258390,7105.977043
1107.894207,222.061783,-1838.629195,8290.306550
1107.894536,-666.185348,536.266849,10288.862594
1107.894866,-962.267725,2451.505594,11843.295072
1107.895196,-962.267725,2604.724693,12509.480420
1107.895525,-1332.370696,1685.410096,11547.212695
1107.895855,-1924.535449,76.609550,9474.636058
1107.896185,-1332.370696,-2528.115143,8586.388927
1107.896514,-888.247130,-3907.087040,8438.347739
1107.896844,-1036.288319,-3600.648841,8216.285956
1107.897174,-1554.432478,-3294.210641,8290.306550
1107.897503,-1702.473667,-3677.258390,8660.409521
1107.897833,-1998.556043,-2757.943793,8956.491898
1107.898163,-1702.473667,-2145.067394,9474.636058
1107.898492,-1332.370696,-1072.533697,11103.089130
1107.898822,-1332.370696,383.047749,12731.542202
1107.899152,-1258.350101,1149.143247,13693.809927
1107.899481,-888.247130,1302.362347,13767.830521
1107.899811,-1406.391290,1915.238745,11843.295072
1107.900141,-814.226536,2374.896044,9770.718434
1107.900470,518.144159,229.828649,7624.121203
1107.900800,2294.638420,-2451.505594,5773.606348
1107.901130,3034.844362,-3600.648841,4145.153275
1107.901459,1702.473667,-4443.353888,4441.235652
1107.901789,-148.041188,-4366.744339,6735.874072
1107.902119,-2442.679609,-3447.429741,9400.615463
1107.902448,-3478.967927,-1838.629195,12361.439231
1107.902778,-3627.009116,0.000000,14137.933492
1107.903108,-3182.885551,766.095498,14656.077652
1107.903437,-3256.906145,689.485948,12731.542202
1107.903767,-2590.720797,-766.095498,10807.006753
1107.904097,-1924.535449,-766.095498,9400.615463
1107.904426,-666.185348,-459.657299,8142.265362
1107.904756,518.144159,-919.314598,6439.791695
1107.905086,962.267725,-2757.943793,5329.482782
1107.905415,444.123565,-4596.572988,4367.215058
1107.905745,-370.102971,-5745.716235,5107.421000
1107.906075,-1110.308913,-5132.839837,7994.224174
1107.906404,-1628.453072,-4060.306139,10807.006753
1107.906734,-1998.556043,-3600.648841,12065.356855
1107.907064,-1480.411884,-3753.867940,13027.624579
1107.907393,-1702.473667,-3600.648841,13841.851115
1107.907723,-1406.391290,-2145.067394,13767.830521
1107.908053,-888.247130,-1685.410096,12879.583391
1107.908382,-592.164754,-1072.533697,11029.068536
1107.908712,-222.061783,-1225.752797,9918.759623
1107.909042,-592.164754,-2298.286494,9030.512492
1107.909371,-1110.308913,-4060.306139,7994.224174
1107.909701,-1924.535449,-4979.620737,6883.915261
1107.910031,-2294.638420,-5056.230287,6291.750507
1107.910360,-2220.617826,-4979.620737,7624.121203
1107.910690,-1998.556043,-5209.449386,9104.533087
1107.911019,-814.226536,-5056.230287,9474.636058
1107.911349,-148.041188,-5056.230287,9622.677246
1107.911679,-592.164754,-5439.278036,10362.883188
1107.912008,-1406.391290,-3140.991542,12139.377449
1107.912338,-1850.514855,-1915.238745,13323.706956
1107.912668,-2072.576638,-1762.019645,13027.624579
1107.912997,-1924.535449,-1991.848295,11917.315666
1107.913327,-1628.453072,-2451.505594,10807.006753
1107.913657,-1332.370696,-3217.601092,9622.677246
1107.913986,-740.205942,-2528.115143,8882.471304
1107.914316,0.000000,-1532.190996,7994.224174
1107.914646,444.123565,-153.219100,7772.162391
1107.914975,814.226536,76.609550,8068.244768
1107.915305,888.247130,536.266849,8512.368333
1107.915635,-148.041188,0.000000,8734.430116
1107.915964,-1332.370696,-229.828649,9326.594869
1107.916294,-2886.803174,-383.047749,10807.006753
1107.916624,-4737.318029,-306.438199,11843.295072
1107.916953,-5625.565159,-383.047749,12139.377449
1107.917283,-6365.771101,-689.485948,11325.150913
1107.917613,-5995.668130,0.000000,10066.800811
1107.917942,-5551.544565,0.000000,8290.306550
1107.918272,-4145.153275,612.876398,7772.162391
1107.918602,-2368.659014,1378.971896,7254.018232
1107.918931,-814.226536,1838.629195,6809.894666
1107.919261,-444.123565,2221.676944,6661.853478
1107.919590,-222.061783,2298.286494,7031.956449
1107.919920,-666.185348,1685.410096,8216.285956
1107.920250,-1628.453072,1455.581446,9548.656652
1107.920579,-2960.823768,1762.019645,10807.006753
1107.920909,-5033.400406,766.095498,11547.212695
1107.921239,-6883.915261,0.000000,11991.336260
1107.921568,-7550.100608,76.609550,11547.212695
1107.921898,-6735.874072,-383.047749,9918.759623
1107.922228,-4959.379811,-842.705048,8142.265362
1107.922557,-2886.803174,-1072.533697,6365.771101
1107.922887,-1702.473667,-536.266849,6217.729913
1107.923217,-1036.288319,0.000000,7254.018232
1107.923546,-1480.411884,919.314598,8364.327145
1107.923876,-3108.864956,2068.457845,9474.636058
1107.924206,-5033.400406,1838.629195,11325.150913
1107.924535,-5921.647536,919.314598,12657.521608
1107.924865,-6735.874072,0.000000,13767.830521
1107.925195,-7031.956449,-612.876398,13471.748144
1107.925524,-6365.771101,-689.485948,12361.439231
1107.925854,-5329.482782,-919.314598,11251.130318
1107.926183,-4071.132681,-1149.143247,10362.883188
1107.926513,-3108.864956,-1225.752797,8734.430116
1107.926843,-2664.741391,-1225.752797,7031.956449
1107.927172,-2368.659014,-995.924147,6883.915261
1107.927502,-2664.741391,-919.314598,7476.080014
1107.927832,-3627.009116,-1225.752797,8734.430116
1107.928161,-4663.297435,-1532.190996,9178.553681
1107.928491,-5625.565159,-1608.800546,9844.739029
1107.928821,-6143.709319,-1762.019645,10510.924376
1107.929150,-5921.647536,-689.485948,11251.130318
1107.929480,-4811.338623,76.609550,11547.212695
1107.929810,-3923.091493,1149.143247,10658.965565
1107.930139,-2886.803174,2834.553343,9548.656652
1107.930469,-1776.494261,3677.258390,8512.368333
1107.930799,-666.185348,3140.991542,7920.203579
1107.931128,0.000000,2451.505594,7550.100608
1107.931458,-1184.329507,2298.286494,8142.265362
1107.931787,-2886.803174,766.095498,8290.306550
1107.932117,-5033.400406,-689.485948,9252.574275
1107.932447,-7031.956449,-1378.971896,10362.883188
1107.932776,-8512.368333,-1762.019645,11251.130318
1107.933106,-8364.327145,-1532.190996,11769.274478
1107.933436,-7402.059420,-612.876398,11991.336260
1107.933765,-5625.565159,1608.800546,11325.150913
1107.934095,-3478.967927,2757.943793,9326.594869
1107.934425,-1184.329507,3294.210641,7328.038826
1107.934754,1332.370696,3983.696590,6291.750507
1107.935084,2220.617826,4443.353888,6513.812290
1107.935414,1110.308913,4136.915689,7031.956449
1107.935743,-888.247130,2911.162892,8142.265362
1107.936073,-3997.112087,1991.848295,9326.594869
1107.936403,-6809.894666,842.705048,10732.986159
1107.936732,-7846.182985,153.219100,11621.233289
1107.937062,-8364.327145,0.000000,11251.130318
1107.937391,-6957.935855,-383.047749,10955.047942
1107.937721,-5477.523971,612.876398,10436.903782
1107.938051,-4367.215058,2451.505594,10066.800811
1107.938380,-2960.823768,3217.601092,9178.553681
1107.938710,-2072.576638,3983.696590,8438.347739
1107.939040,-1702.473667,4060.306139,8586.388927
1107.939369,-2368.659014,2757.943793,8808.450710
1107.939699,-3701.029710,1302.362347,8660.409521
1107.940029,-5107.421000,-689.485948,8660.409521
1107.940358,-5995.668130,-2298.286494,9474.636058
1107.940688,-6513.812290,-2221.676944,10658.965565
1107.941018,-6513.812290,-1685.410096,11325.150913
1107.941347,-5995.668130,-459.657299,10955.047942
1107.941677,-4885.359217,1378.971896,10288.862594
1107.942007,-2590.720797,3370.820191,10066.800811
1107.942336,-296.082377,4596.572988,10436.903782
1107.942666,1258.350101,5286.058936,9696.697840
1107.942996,1628.453072,4903.011187,8438.347739
1107.943325,370.102971,3677.258390,7698.141797
1107.943655,-1776.494261,1455.581446,8216.285956
1107.943984,-4737.318029,-612.876398,8734.430116
1107.944314,-7698.141797,-2374.896044,9474.636058
1107.944644,-9696.697840,-3294.210641,9474.636058
1107.944973,-9770.718434,-3753.867940,9844.739029
1107.945303,-8956.491898,-4596.572988,9622.677246
1107.945633,-7105.977043,-3524.039291,9104.533087
1107.945962,-4737.318029,-919.314598,8290.306550
1107.946292,-1258.350101,1915.238745,8512.368333
1107.946622,1924.535449,5209.449386,8586.388927
