#time,accel_x,accel_y,accel_z
879.287110,-1110.308913,842.705048,9474.636058
879.287439,-1110.308913,842.705048,9474.636058
879.287769,-1110.308913,1072.533697,9326.594869
879.288099,-592.164754,766.095498,9252.574275
879.288429,-962.267725,919.314598,9252.574275
879.288758,-1184.329507,842.705048,9474.636058
879.289088,-1184.329507,1072.533697,9474.636058
879.289418,-1110.308913,919.314598,9474.636058
879.289748,-1184.329507,842.705048,9178.553681
879.290078,-962.267725,612.876398,9474.636058
879.290407,-962.267725,1072.533697,9696.697840
879.290737,-1110.308913,1072.533697,9622.677246
879.291067,-962.267725,842.705048,9622.677246
879.291397,-888.247130,919.314598,9474.636058
879.291726,-962.267725,766.095498,9844.739029
879.292056,-962.267725,766.095498,9696.697840
879.292386,-888.247130,766.095498,9844.739029
879.292716,-962.267725,766.095498,9696.697840
879.293045,-1110.308913,766.095498,9770.718434
879.293375,-962.267725,1072.533697,9474.636058
879.293705,-962.267725,919.314598,9548.656652
879.294035,-888.247130,919.314598,9696.697840
879.294364,-962.267725,612.876398,9474.636058
879.294694,-888.247130,919.314598,9696.697840
879.295024,-1332.370696,842.705048,9326.594869
879.295354,-592.164754,1149.143247,9770.718434
879.295684,-888.247130,766.095498,9622.677246
879.296013,-1110.308913,689.485948,9400.615463
879.296343,-1110.308913,689.485948,9252.574275
879.296673,-1406.391290,766.095498,9474.636058
879.297003,-370.102971,1072.533697,9400.615463
879.297332,-962.267725,1072.533697,9474.636058
879.297662,-1110.308913,1149.143247,9474.636058
879.297992,-962.267725,842.705048,9474.636058
879.298322,-962.267725,842.705048,9474.636058
879.298651,-1332.370696,1149.143247,9252.574275
879.298981,-1258.350101,1225.752797,9400.615463
879.299311,-1036.288319,995.924147,9548.656652
879.299641,-1036.288319,842.705048,9474.636058
879.299971,-1184.329507,995.924147,9474.636058
879.300300,-666.185348,842.705048,9326.594869
879.300630,-740.205942,1072.533697,9696.697840
879.300960,-1110.308913,1072.533697,9548.656652
879.301290,-1110.308913,919.314598,9622.677246
879.301619,-1036.288319,842.705048,9622.677246
879.301949,-888.247130,1302.362347,9622.677246
879.302279,-1184.329507,1302.362347,9400.615463
879.302609,-1184.329507,766.095498,9770.718434
879.302938,-1110.308913,995.924147,9622.677246
879.303268,-962.267725,995.924147,9548.656652
879.303598,-1036.288319,995.924147,9696.697840
879.303928,-1036.288319,995.924147,9104.533087
879.304258,-1036.288319,842.705048,9696.697840
879.304587,-962.267725,995.924147,9622.677246
879.304917,-1036.288319,919.314598,9770.718434
879.305247,-1036.288319,919.314598,9474.636058
879.305577,-1184.329507,995.924147,9548.656652
879.305906,-962.267725,383.047749,9326.594869
879.306236,-1110.308913,689.485948,9474.636058
879.306566,-1184.329507,1149.143247,9474.636058
879.306896,-962.267725,1225.752797,9622.677246
879.307225,-666.185348,919.314598,8882.471304
879.307555,0.000000,766.095498,8956.491898
879.307885,666.185348,766.095498,9104.533087
879.308215,1110.308913,536.266849,9400.615463
879.308544,814.226536,766.095498,9474.636058
879.308874,296.082377,842.705048,9696.697840
879.309204,-222.061783,1072.533697,9770.718434
879.309534,-444.123565,995.924147,10288.862594
879.309864,-666.185348,842.705048,10288.862594
879.310193,-148.041188,229.828649,9696.697840
879.310523,148.041188,-383.047749,9252.574275
879.310853,1036.288319,0.000000,9030.512492
879.311183,1998.556043,306.438199,8882.471304
879.311512,2516.700203,1072.533697,8956.491898
879.311842,3404.947333,1225.752797,9326.594869
879.312172,3478.967927,1838.629195,9252.574275
879.312502,3256.906145,2298.286494,9474.636058
879.312831,3182.885551,1225.752797,9844.739029
879.313161,2516.700203,1072.533697,10288.862594
879.313491,1702.473667,919.314598,10510.924376
879.313821,1184.329507,536.266849,10881.027347
879.314151,1480.411884,0.000000,10881.027347
879.314480,1776.494261,-306.438199,10140.821405
879.314810,2368.659014,0.000000,9770.718434
879.315140,3034.844362,0.000000,9474.636058
879.315470,3997.112087,383.047749,9252.574275
879.315799,4293.194464,1378.971896,9326.594869
879.316129,4145.153275,2374.896044,9918.759623
879.316459,2886.803174,2681.334243,9844.739029
879.316789,1406.391290,2911.162892,10436.903782
879.317118,-370.102971,2604.724693,10288.862594
879.317448,-1480.411884,1762.019645,9474.636058
879.317778,-1332.370696,536.266849,8068.244768
879.318108,0.000000,-536.266849,7402.059420
879.318437,1628.453072,-1302.362347,7179.997637
879.318767,2664.741391,-459.657299,6809.894666
879.319097,3478.967927,536.266849,7105.977043
879.319427,3849.070898,1838.629195,7920.203579
879.319757,3182.885551,3370.820191,9474.636058
879.320086,2220.617826,4443.353888,11325.150913
879.320416,962.267725,3600.648841,12065.356855
879.320746,-148.041188,2298.286494,12509.480420
879.321076,-1332.370696,1149.143247,11843.295072
879.321405,-1554.432478,-1608.800546,10881.027347
879.321735,-1258.350101,-2528.115143,10214.842000
879.322065,-592.164754,-2604.724693,9622.677246
879.322395,740.205942,-1991.848295,8586.388927
879.322724,2368.659014,-1378.971896,7994.224174
879.323054,3552.988522,76.609550,7550.100608
879.323384,4441.235652,1915.238745,7476.080014
879.323714,3849.070898,2911.162892,8512.368333
879.324044,3330.926739,3907.087040,9548.656652
879.324373,2664.741391,4213.525239,10510.924376
879.324703,1776.494261,3217.601092,10807.006753
879.325033,518.144159,2374.896044,11547.212695
879.325363,-666.185348,153.219100,11251.130318
879.325692,-1850.514855,-689.485948,10732.986159
879.326022,-2886.803174,-842.705048,10214.842000
879.326352,-2590.720797,-842.705048,10066.800811
879.326682,-1480.411884,-842.705048,9770.718434
879.327011,-814.226536,76.609550,9104.533087
879.327341,-296.082377,459.657299,8290.306550
879.327671,1184.329507,383.047749,7772.162391
879.328001,2072.576638,306.438199,8068.244768
879.328331,2146.597232,919.314598,8734.430116
879.328660,2590.720797,766.095498,9622.677246
879.328990,1702.473667,995.924147,9696.697840
879.329320,592.164754,842.705048,10288.862594
879.329650,0.000000,689.485948,10955.047942
879.329979,-740.205942,1149.143247,11325.150913
879.330309,-1332.370696,1225.752797,10807.006753
879.330639,-1036.288319,1225.752797,10214.842000
879.330969,-444.123565,1455.581446,8808.450710
879.331298,592.164754,1149.143247,8586.388927
879.331628,1184.329507,1302.362347,7624.121203
879.331958,888.247130,2374.896044,6661.853478
879.332288,296.082377,1149.143247,6439.791695
879.332617,148.041188,1532.190996,8142.265362
879.332947,-888.247130,1532.190996,9696.697840
879.333277,-2960.823768,1225.752797,10584.944971
879.333607,-5033.400406,1378.971896,11251.130318
879.333937,-5181.441594,612.876398,11547.212695
879.334266,-4885.359217,-306.438199,11177.109724
879.334596,-4219.173869,-766.095498,10510.924376
879.334926,-2368.659014,-1149.143247,9400.615463
879.335256,-518.144159,-1608.800546,9030.512492
879.335585,814.226536,-1072.533697,9178.553681
879.335915,1184.329507,1225.752797,9474.636058
879.336245,962.267725,2374.896044,9696.697840
879.336575,1184.329507,3064.381992,10140.821405
879.336904,1628.453072,3600.648841,10732.986159
879.337234,1702.473667,4060.306139,10288.862594
879.337564,1258.350101,3600.648841,9548.656652
879.337894,592.164754,1608.800546,9326.594869
879.338224,-148.041188,1455.581446,8882.471304
879.338553,-962.267725,919.314598,9104.533087
879.338883,-1776.494261,383.047749,9104.533087
879.339213,-1776.494261,536.266849,9622.677246
879.339543,-2590.720797,153.219100,9104.533087
879.339872,-2738.761985,229.828649,8956.491898
879.340202,-2590.720797,229.828649,9104.533087
879.340532,-2516.700203,1149.143247,9252.574275
879.340862,-2220.617826,1762.019645,9548.656652
879.341191,-1702.473667,1149.143247,9622.677246
879.341521,-1702.473667,459.657299,9696.697840
879.341851,-2368.659014,76.609550,9844.739029
879.342181,-2738.761985,459.657299,9474.636058
879.342511,-2220.617826,689.485948,9178.553681
879.342840,-1258.350101,-536.266849,9326.594869
879.343170,74.020594,536.266849,8882.471304
879.343500,1184.329507,1378.971896,8290.306550
879.343830,2368.659014,1532.190996,7920.203579
879.344159,2590.720797,2528.115143,8068.244768
879.344489,1998.556043,2834.553343,8956.491898
879.344819,1332.370696,2911.162892,10510.924376
879.345149,370.102971,2987.772442,11843.295072
879.345478,-1850.514855,2068.457845,12213.398043
879.345808,-3701.029710,995.924147,11547.212695
879.346138,-4885.359217,-459.657299,10881.027347
879.346468,-4441.235652,-1608.800546,10214.842000
879.346797,-3849.070898,-2298.286494,9992.780217
879.347127,-2812.782580,-2604.724693,9326.594869
879.347457,-1776.494261,-1762.019645,8808.450710
879.347787,-962.267725,-383.047749,8586.388927
879.348117,-888.247130,536.266849,8882.471304
879.348446,-518.144159,2528.115143,9548.656652
879.348776,74.020594,2987.772442,9622.677246
879.349106,962.267725,3140.991542,9918.759623
879.349436,1110.308913,2528.115143,9548.656652
879.349765,666.185348,1915.238745,9474.636058
879.350095,222.061783,459.657299,9326.594869
879.350425,-148.041188,229.828649,9474.636058
879.350755,-148.041188,383.047749,10288.862594
879.351084,-222.061783,766.095498,10732.986159
879.351414,0.000000,1072.533697,9474.636058
879.351744,0.000000,1302.362347,8364.327145
879.352074,740.205942,1149.143247,8068.244768
879.352404,888.247130,1455.581446,8586.388927
879.352733,296.082377,1455.581446,8882.471304
879.353063,-518.144159,1608.800546,8956.491898
879.353393,-1628.453072,1072.533697,9104.533087
879.353723,-2738.761985,306.438199,9474.636058
879.354052,-3404.947333,-459.657299,9622.677246
879.354382,-3849.070898,-1072.533697,9474.636058
879.354712,-3330.926739,-919.314598,9548.656652
879.355042,-2146.597232,-306.438199,9252.574275
879.355371,-1258.350101,536.266849,9770.718434
879.355701,-296.082377,1762.019645,9474.636058
879.356031,0.000000,2451.505594,8216.285956
879.356361,296.082377,2681.334243,8068.244768
879.356690,1036.288319,2757.943793,8734.430116
879.357020,444.123565,2451.505594,10140.821405
879.357349,-666.185348,1762.019645,11177.109724
879.357679,-2812.782580,1149.143247,10807.006753
879.358009,-4071.132681,459.657299,11325.150913
879.358338,-3923.091493,-766.095498,11843.295072
879.358668,-2960.823768,-1455.581446,11029.068536
879.358998,-2072.576638,-1838.629195,9992.780217
879.359327,-962.267725,-1532.190996,9178.553681
879.359657,-222.061783,-995.924147,9252.574275
879.359986,0.000000,919.314598,9252.574275
879.360316,-444.123565,1378.971896,9178.553681
879.360646,-740.205942,2068.457845,9474.636058
879.360975,0.000000,2451.505594,10066.800811
879.361305,444.123565,2145.067394,10214.842000
879.361635,222.061783,1072.533697,9622.677246
879.361964,-666.185348,766.095498,8290.306550
879.362294,-370.102971,383.047749,8438.347739
879.362623,0.000000,995.924147,8882.471304
879.362953,74.020594,1378.971896,9474.636058
879.363283,0.000000,1762.019645,9178.553681
879.363612,-888.247130,1608.800546,8364.327145
879.363942,-962.267725,1072.533697,8438.347739
879.364272,-740.205942,1685.410096,9400.615463
879.364601,-888.247130,1378.971896,9770.718434
879.364931,-1480.411884,842.705048,9252.574275
879.365260,-1702.473667,-766.095498,8660.409521
879.365590,-1702.473667,-1149.143247,8734.430116
879.365920,-2072.576638,-1072.533697,9178.553681
879.366249,-2072.576638,-612.876398,9474.636058
879.366579,-1628.453072,0.000000,9622.677246
879.366909,-592.164754,766.095498,9696.697840
879.367238,592.164754,1225.752797,9696.697840
879.367568,1184.329507,1225.752797,9992.780217
879.367897,740.205942,2068.457845,9696.697840
879.368227,370.102971,2987.772442,10214.842000
879.368557,-148.041188,3140.991542,10436.903782
879.368886,-370.102971,2145.067394,10436.903782
879.369216,-1628.453072,1225.752797,10140.821405
879.369546,-2590.720797,306.438199,9770.718434
879.369875,-3034.844362,-306.438199,9918.759623
879.370205,-3256.906145,-459.657299,10066.800811
879.370534,-2368.659014,-459.657299,10288.862594
879.370864,-1924.535449,-459.657299,9400.615463
879.371194,-1480.411884,-153.219100,9474.636058
879.371523,-666.185348,459.657299,9400.615463
879.371853,-666.185348,1378.971896,9252.574275
879.372182,-962.267725,1838.629195,9252.574275
879.372512,-1184.329507,2528.115143,8956.491898
879.372842,-962.267725,2528.115143,9474.636058
879.373171,-148.041188,1991.848295,9696.697840
879.373501,0.000000,1302.362347,9030.512492
879.373831,0.000000,919.314598,8068.244768
879.374160,148.041188,1149.143247,8438.347739
879.374490,666.185348,1608.800546,9252.574275
879.374819,444.123565,2068.457845,9918.759623
879.375149,0.000000,2528.115143,10066.800811
879.375479,-666.185348,2681.334243,9548.656652
879.375808,-1258.350101,1915.238745,8882.471304
879.376138,-1110.308913,1685.410096,9326.594869
879.376468,-1924.535449,1072.533697,9030.512492
879.376797,-2664.741391,306.438199,8734.430116
879.377127,-3404.947333,-689.485948,8364.327145
879.377456,-3552.988522,-919.314598,8956.491898
879.377786,-3404.947333,-536.266849,8882.471304
879.378116,-3627.009116,-919.314598,9252.574275
879.378445,-2812.782580,-536.266849,9400.615463
879.378775,-1332.370696,383.047749,10066.800811
879.379105,0.000000,1302.362347,10362.883188
879.379434,888.247130,1915.238745,9622.677246
879.379764,1258.350101,2681.334243,8956.491898
879.380093,1850.514855,2451.505594,9400.615463
879.380423,2072.576638,2145.067394,10436.903782
879.380753,1184.329507,1991.848295,11177.109724
879.381082,-518.144159,1685.410096,11177.109724
879.381412,-1480.411884,1838.629195,11325.150913
879.381742,-2664.741391,229.828649,10955.047942
879.382071,-2368.659014,-766.095498,10881.027347
879.382401,-1850.514855,-1225.752797,10288.862594
879.382730,-1406.391290,-1302.362347,8882.471304
879.383060,-1110.308913,-842.705048,8068.244768
879.383390,-518.144159,-306.438199,8586.388927
879.383719,-1258.350101,612.876398,8882.471304
879.384049,-1998.556043,1378.971896,9178.553681
879.384379,-2146.597232,2145.067394,9474.636058
879.384708,-1628.453072,2681.334243,9696.697840
879.385038,-666.185348,1455.581446,9770.718434
879.385367,-222.061783,995.924147,9400.615463
879.385697,-370.102971,1072.533697,8734.430116
879.386027,0.000000,1225.752797,8438.347739
879.386356,518.144159,1762.019645,8586.388927
879.386686,888.247130,2298.286494,9104.533087
879.387016,740.205942,1915.238745,9622.677246
879.387345,148.041188,1915.238745,9622.677246
879.387675,-222.061783,2145.067394,9622.677246
879.388004,-296.082377,2298.286494,9548.656652
879.388334,-518.144159,1762.019645,9104.533087
879.388664,-666.185348,0.000000,8660.409521
879.388993,-1036.288319,-919.314598,8882.471304
879.389323,-1702.473667,-842.705048,9178.553681
879.389653,-2368.659014,0.000000,9474.636058
879.389982,-2960.823768,76.609550,9030.512492
879.390312,-2442.679609,153.219100,9474.636058
879.390641,-1850.514855,459.657299,9770.718434
879.390971,-814.226536,842.705048,10288.862594
879.391301,-518.144159,1608.800546,10288.862594
879.391630,-740.205942,2374.896044,9474.636058
879.391960,-740.205942,2911.162892,8956.491898
879.392290,-296.082377,1608.800546,9696.697840
879.392619,0.000000,1149.143247,10362.883188
879.392949,-1258.350101,995.924147,10584.944971
879.393278,-2220.617826,536.266849,10362.883188
879.393608,-2516.700203,536.266849,10510.924376
879.393938,-2442.679609,-153.219100,10807.006753
879.394267,-2368.659014,-459.657299,10510.924376
879.394597,-1406.391290,-689.485948,9770.718434
879.394927,-740.205942,-306.438199,9104.533087
879.395256,0.000000,0.000000,8956.491898
879.395586,-370.102971,229.828649,8734.430116
879.395915,-666.185348,612.876398,8734.430116
879.396245,-592.164754,1378.971896,9104.533087
879.396575,-370.102971,1608.800546,9770.718434
879.396904,222.061783,2068.457845,9918.759623
879.397234,148.041188,1685.410096,9400.615463
879.397563,-296.082377,1072.533697,8808.450710
879.397893,-592.164754,1149.143247,8438.347739
879.398223,-296.082377,1685.410096,9030.512492
879.398552,-370.102971,1149.143247,9844.739029
879.398882,-1184.329507,1072.533697,9548.656652
879.399212,-1776.494261,1302.362347,9400.615463
879.399541,-1998.556043,1072.533697,9474.636058
879.399871,-1702.473667,689.485948,9474.636058
879.400200,-1554.432478,766.095498,9474.636058
879.400530,-1480.411884,383.047749,8660.409521
879.400860,-1184.329507,-383.047749,8734.430116
879.401189,-1554.432478,0.000000,9326.594869
879.401519,-2146.597232,306.438199,9474.636058
879.401849,-2294.638420,459.657299,9844.739029
879.402178,-2072.576638,1302.362347,10066.800811
879.402508,-1406.391290,1149.143247,9770.718434
879.402837,-370.102971,1608.800546,9918.759623
879.403167,444.123565,1608.800546,9400.615463
879.403497,296.082377,1532.190996,9104.533087
879.403826,0.000000,2451.505594,9696.697840
879.404156,0.000000,2068.457845,10658.965565
879.404486,-962.267725,2068.457845,11325.150913
879.404815,-2146.597232,1991.848295,11029.068536
879.405145,-3108.864956,919.314598,10436.903782
879.405474,-3108.864956,0.000000,9992.780217
879.405804,-2368.659014,-306.438199,9400.615463
879.406134,-2220.617826,-306.438199,9178.553681
879.406463,-1850.514855,-306.438199,8512.368333
879.406793,-1258.350101,0.000000,8290.306550
879.407123,-740.205942,153.219100,8586.388927
879.407452,-592.164754,1072.533697,8808.450710
879.407782,-518.144159,1838.629195,8882.471304
879.408111,-370.102971,2145.067394,8956.491898
879.408441,296.082377,2451.505594,9548.656652
879.408771,518.144159,2604.724693,9696.697840
879.409100,666.185348,2757.943793,9400.615463
879.409430,222.061783,2068.457845,8290.306550
879.409760,-222.061783,1685.410096,9030.512492
879.410089,-296.082377,1685.410096,9918.759623
879.410419,-962.267725,1532.190996,10362.883188
879.410748,-1480.411884,1455.581446,10288.862594
879.411078,-1924.535449,1378.971896,9474.636058
879.411408,-1850.514855,1072.533697,9400.615463
879.411737,-1554.432478,842.705048,9252.574275
879.412067,-1110.308913,383.047749,8956.491898
879.412397,-888.247130,-229.828649,8512.368333
879.412726,-814.226536,-612.876398,8808.450710
879.413056,-1184.329507,-536.266849,9326.594869
879.413385,-1924.535449,383.047749,10066.800811
879.413715,-2368.659014,383.047749,9992.780217
879.414045,-2220.617826,612.876398,9918.759623
879.414374,-1480.411884,919.314598,10584.944971
879.414704,222.061783,1838.629195,10584.944971
879.415034,148.041188,2221.676944,9622.677246
879.415363,0.000000,2221.676944,8512.368333
879.415693,222.061783,1915.238745,8956.491898
879.416022,370.102971,2145.067394,9918.759623
879.416352,0.000000,2068.457845,10658.965565
879.416682,-1850.514855,1302.362347,10658.965565
879.417011,-3182.885551,766.095498,10066.800811
879.417341,-3627.009116,153.219100,9918.759623
879.417671,-3330.926739,-995.924147,10066.800811
879.418000,-2368.659014,-766.095498,9252.574275
879.418330,-1554.432478,-919.314598,9104.533087
879.418659,-1036.288319,-919.314598,8512.368333
879.418989,-518.144159,-306.438199,8660.409521
879.419319,-222.061783,995.924147,9178.553681
879.419648,74.020594,1455.581446,9474.636058
879.419978,-148.041188,2451.505594,10066.800811
879.420307,0.000000,3064.381992,10066.800811
879.420637,444.123565,2604.724693,10288.862594
879.420967,740.205942,1685.410096,9548.656652
879.421296,370.102971,1455.581446,8290.306550
879.421626,370.102971,1302.362347,8142.265362
879.421956,222.061783,842.705048,8808.450710
879.422285,0.000000,1149.143247,9622.677246
879.422615,-962.267725,1225.752797,9474.636058
879.422944,-1924.535449,1838.629195,9548.656652
879.423274,-1702.473667,1685.410096,9474.636058
879.423604,-888.247130,689.485948,9770.718434
879.423933,-1036.288319,766.095498,9696.697840
879.424263,-1184.329507,766.095498,8956.491898
879.424593,-1480.411884,0.000000,9030.512492
879.424922,-1406.391290,-306.438199,9400.615463
879.425252,-1998.556043,76.609550,8882.471304
879.425581,-2220.617826,-306.438199,9400.615463
879.425911,-1924.535449,-153.219100,9770.718434
879.426241,-1110.308913,1072.533697,10214.842000
879.426570,-370.102971,1991.848295,10288.862594
879.426900,148.041188,2298.286494,9326.594869
879.427230,-222.061783,1685.410096,8586.388927
879.427559,0.000000,1762.019645,9474.636058
879.427889,-148.041188,2451.505594,10732.986159
879.428218,-1480.411884,2145.067394,11177.109724
879.428548,-2738.761985,1225.752797,10362.883188
879.428878,-3256.906145,766.095498,10066.800811
879.429207,-3552.988522,-536.266849,9844.739029
879.429537,-2516.700203,-1532.190996,10140.821405
879.429867,-1998.556043,-1149.143247,9474.636058
879.430196,-1554.432478,-229.828649,8216.285956
879.430526,-518.144159,0.000000,8290.306550
879.430855,296.082377,-459.657299,9030.512492
879.431185,296.082377,919.314598,9696.697840
879.431515,-370.102971,1991.848295,10066.800811
879.431844,-592.164754,2451.505594,10140.821405
879.432174,222.061783,2604.724693,9918.759623
879.432504,148.041188,1685.410096,10140.821405
879.432833,74.020594,459.657299,9474.636058
879.433163,-592.164754,536.266849,8734.430116
879.433492,-666.185348,612.876398,8586.388927
879.433822,-592.164754,995.924147,8808.450710
879.434152,-592.164754,536.266849,9548.656652
879.434481,-1332.370696,995.924147,9474.636058
879.434811,-1554.432478,1225.752797,9104.533087
879.435141,-1554.432478,1532.190996,9474.636058
879.435470,-1258.350101,1072.533697,9548.656652
879.435800,-1702.473667,1455.581446,9474.636058
879.436129,-2220.617826,153.219100,9400.615463
879.436459,-2294.638420,-153.219100,9474.636058
879.436789,-1998.556043,-306.438199,9622.677246
879.437118,-1702.473667,-383.047749,9696.697840
879.437448,-1998.556043,-229.828649,9474.636058
879.437778,-1480.411884,0.000000,9326.594869
879.438107,-666.185348,842.705048,9474.636058
879.438437,0.000000,1455.581446,10362.883188
879.438766,74.020594,1991.848295,10362.883188
879.439096,-592.164754,3217.601092,9770.718434
879.439426,-592.164754,2681.334243,9474.636058
879.439755,-444.123565,2221.676944,10140.821405
879.440085,-370.102971,1532.190996,10066.800811
879.440415,-1554.432478,1225.752797,9992.780217
879.440744,-2072.576638,459.657299,9474.636058
879.441074,-2664.741391,229.828649,9326.594869
879.441403,-2812.782580,229.828649,9696.697840
879.441733,-2368.659014,0.000000,9326.594869
879.442063,-1480.411884,0.000000,8956.491898
879.442392,-962.267725,0.000000,8660.409521
879.442722,-592.164754,383.047749,8882.471304
879.443051,-740.205942,1149.143247,9400.615463
879.443381,-1332.370696,1762.019645,9400.615463
879.443711,-1258.350101,1915.238745,9548.656652
879.444040,-296.082377,1991.848295,10214.842000
879.444370,518.144159,1838.629195,10362.883188
879.444700,444.123565,2221.676944,9474.636058
879.445029,0.000000,1685.410096,8364.327145
879.445359,74.020594,1455.581446,8364.327145
879.445688,370.102971,1915.238745,9104.533087
879.446018,740.205942,2298.286494,9252.574275
879.446348,-592.164754,1762.019645,9474.636058
879.446677,-2072.576638,1455.581446,8882.471304
879.447007,-2738.761985,1072.533697,8808.450710
879.447337,-2664.741391,459.657299,9696.697840
879.447666,-2368.659014,-229.828649,9992.780217
879.447996,-2294.638420,-459.657299,9474.636058
879.448325,-1998.556043,-766.095498,9918.759623
879.448655,-1924.535449,-383.047749,10288.862594
879.448985,-1258.350101,0.000000,9918.759623
879.449314,-740.205942,383.047749,9622.677246
879.449644,0.000000,919.314598,8882.471304
879.449974,1184.329507,1378.971896,9474.636058
879.450303,1776.494261,1455.581446,9622.677246
879.450633,1480.411884,1608.800546,9770.718434
879.450962,518.144159,2145.067394,9622.677246
879.451292,0.000000,2604.724693,9770.718434
879.451622,74.020594,1302.362347,9770.718434
879.451951,-592.164754,1225.752797,9622.677246
879.452281,-1258.350101,306.438199,9252.574275
879.452611,-1998.556043,153.219100,9030.512492
879.452940,-2886.803174,306.438199,9252.574275
879.453270,-3108.864956,-383.047749,10214.842000
879.453599,-3923.091493,383.047749,10288.862594
879.453929,-3478.967927,229.828649,10066.800811
879.454259,-2664.741391,-229.828649,9770.718434
879.454588,-2072.576638,-306.438199,9770.718434
879.454918,-1628.453072,229.828649,9548.656652
879.455248,-1702.473667,536.266849,9548.656652
879.455577,-1332.370696,766.095498,9622.677246
879.455907,-740.205942,2068.457845,10140.821405
879.456236,74.020594,2298.286494,10066.800811
879.456566,740.205942,1608.800546,9326.594869
879.456896,1258.350101,1762.019645,8364.327145
879.457225,1332.370696,1685.410096,8216.285956
879.457555,1998.556043,1532.190996,8734.430116
879.457884,1776.494261,1762.019645,9178.553681
879.458214,518.144159,2068.457845,9104.533087
879.458544,-592.164754,1608.800546,8660.409521
879.458873,-962.267725,1455.581446,9104.533087
879.459203,-962.267725,1149.143247,9844.739029
879.459532,-962.267725,1149.143247,9992.780217
879.459862,-1554.432478,919.314598,9474.636058
879.460192,-1924.535449,689.485948,9474.636058
879.460521,-2220.617826,306.438199,9548.656652
879.460851,-2738.761985,153.219100,9252.574275
879.461181,-2960.823768,0.000000,9252.574275
879.461510,-2812.782580,-153.219100,9104.533087
879.461840,-2368.659014,229.828649,9252.574275
879.462169,-1998.556043,306.438199,9178.553681
879.462499,-1480.411884,919.314598,9252.574275
879.462829,-1036.288319,1302.362347,8882.471304
879.463158,-370.102971,1455.581446,8956.491898
879.463488,296.082377,2068.457845,9992.780217
879.463817,296.082377,2068.457845,10732.986159
879.464147,-370.102971,1762.019645,10807.006753
879.464477,-962.267725,1455.581446,10732.986159
879.464806,-1406.391290,995.924147,10658.965565
879.465136,-1184.329507,306.438199,10658.965565
879.465465,-518.144159,-995.924147,10214.842000
879.465795,-666.185348,-995.924147,9474.636058
879.466125,-740.205942,-689.485948,9326.594869
879.466454,-666.185348,-229.828649,9622.677246
879.466784,-962.267725,306.438199,9918.759623
879.467113,-1554.432478,1225.752797,9696.697840
879.467443,-2072.576638,1378.971896,9548.656652
879.467773,-1850.514855,1378.971896,10066.800811
879.468102,-1184.329507,1455.581446,9918.759623
879.468432,-1110.308913,766.095498,9104.533087
879.468762,-1332.370696,612.876398,8216.285956
879.469091,-740.205942,229.828649,7402.059420
879.469421,-444.123565,306.438199,8364.327145
879.469750,-666.185348,766.095498,8364.327145
879.470080,-962.267725,1302.362347,8586.388927
879.470410,-962.267725,919.314598,9104.533087
879.470739,-814.226536,1762.019645,9622.677246
879.471069,-814.226536,1685.410096,11029.068536
879.471398,-1036.288319,1685.410096,10881.027347
879.471728,-1480.411884,1302.362347,10436.903782
879.472058,-1554.432478,612.876398,10066.800811
879.472387,-2146.597232,229.828649,9622.677246
879.472717,-1554.432478,-153.219100,9252.574275
879.473046,-1850.514855,-1149.143247,8364.327145
879.473376,-1776.494261,-612.876398,8364.327145
879.473706,-1406.391290,76.609550,9030.512492
879.474035,-814.226536,995.924147,9622.677246
879.474365,0.000000,1608.800546,9104.533087
879.474694,-222.061783,1915.238745,8734.430116
879.475024,0.000000,2298.286494,9326.594869
879.475354,-296.082377,2528.115143,10436.903782
879.475683,-1036.288319,2221.676944,11695.253884
879.476013,-2146.597232,2145.067394,11325.150913
879.476343,-3775.050304,1378.971896,10955.047942
879.476672,-3701.029710,383.047749,10732.986159
879.477002,-2960.823768,-612.876398,10510.924376
879.477331,-1998.556043,-995.924147,9770.718434
879.477661,-1110.308913,-1072.533697,8660.409521
879.477991,-518.144159,-536.266849,7846.182985
879.478320,148.041188,306.438199,8734.430116
879.478650,0.000000,1532.190996,9104.533087
879.478979,-296.082377,2298.286494,9400.615463
879.479309,-444.123565,2451.505594,9400.615463
879.479639,-148.041188,2987.772442,9770.718434
879.479968,592.164754,2451.505594,9992.780217
879.480298,296.082377,1302.362347,9400.615463
879.480627,0.000000,306.438199,8364.327145
879.480957,148.041188,766.095498,8364.327145
879.481287,148.041188,1455.581446,8956.491898
879.481616,518.144159,1072.533697,9252.574275
879.481946,0.000000,1378.971896,9548.656652
879.482275,-1110.308913,2068.457845,9252.574275
879.482605,-1184.329507,2068.457845,9622.677246
879.482935,-740.205942,1685.410096,9844.739029
879.483264,-962.267725,1838.629195,9770.718434
879.483594,-1850.514855,995.924147,9326.594869
879.483924,-2368.659014,0.000000,9178.553681
879.484253,-2368.659014,-919.314598,9252.574275
879.484583,-2812.782580,-383.047749,9252.574275
879.484912,-2516.700203,-1378.971896,8734.430116
879.485242,-2294.638420,-383.047749,8956.491898
879.485572,-962.267725,306.438199,9178.553681
879.485901,148.041188,306.438199,9770.718434
879.486231,814.226536,1225.752797,9918.759623
879.486560,444.123565,2911.162892,9696.697840
879.486890,518.144159,3294.210641,9844.739029
879.487220,592.164754,2451.505594,10288.862594
879.487549,222.061783,1762.019645,10881.027347
879.487879,-962.267725,1455.581446,10955.047942
879.488208,-2294.638420,919.314598,10288.862594
879.488538,-2516.700203,-536.266849,10584.944971
879.488868,-2886.803174,-536.266849,10584.944971
879.489197,-2220.617826,-612.876398,9844.739029
879.489527,-1406.391290,-1378.971896,9104.533087
879.489857,-888.247130,0.000000,8882.471304
879.490186,-518.144159,0.000000,8956.491898
879.490516,-740.205942,995.924147,9400.615463
879.490845,-1628.453072,1608.800546,9326.594869
879.491175,-1628.453072,1991.848295,9548.656652
879.491505,-1184.329507,2068.457845,9770.718434
879.491834,-666.185348,2298.286494,9844.739029
879.492164,-148.041188,1149.143247,9104.533087
879.492493,-444.123565,612.876398,8142.265362
879.492823,222.061783,919.314598,8290.306550
879.493153,888.247130,1225.752797,8734.430116
879.493482,1702.473667,1225.752797,9326.594869
879.493812,814.226536,1838.629195,8956.491898
879.494141,74.020594,2068.457845,9030.512492
879.494471,0.000000,2298.286494,9474.636058
879.494801,0.000000,1915.238745,10140.821405
879.495130,-814.226536,1532.190996,9622.677246
879.495460,-1776.494261,1302.362347,8956.491898
879.495789,-1702.473667,-153.219100,9252.574275
879.496119,-2294.638420,-689.485948,9400.615463
879.496449,-2738.761985,-612.876398,9474.636058
879.496778,-3182.885551,-383.047749,9252.574275
879.497108,-2812.782580,-229.828649,9104.533087
879.497438,-2146.597232,229.828649,9178.553681
879.497767,-1110.308913,842.705048,9696.697840
879.498097,-222.061783,1302.362347,9992.780217
879.498426,-518.144159,1838.629195,9622.677246
879.498756,-518.144159,2374.896044,10140.821405
879.499086,-518.144159,2834.553343,10658.965565
879.499415,-222.061783,1991.848295,11325.150913
879.499745,-592.164754,1072.533697,10436.903782
879.500074,-1036.288319,459.657299,9918.759623
879.500404,-1332.370696,0.000000,9918.759623
879.500734,-814.226536,-383.047749,9992.780217
879.501063,-592.164754,0.000000,9844.739029
879.501393,-592.164754,383.047749,9326.594869
879.501722,-296.082377,459.657299,9326.594869
879.502052,0.000000,383.047749,9548.656652
879.502382,-296.082377,1302.362347,9474.636058
879.502711,-1480.411884,1149.143247,9326.594869
879.503041,-1998.556043,1455.581446,9474.636058
879.503370,-1924.535449,1685.410096,9696.697840
879.503700,-1554.432478,995.924147,9696.697840
879.504030,-1554.432478,612.876398,8734.430116
879.504359,-1258.350101,229.828649,8068.244768
879.504689,-1184.329507,0.000000,8290.306550
879.505019,-296.082377,995.924147,9030.512492
879.505348,0.000000,1072.533697,9400.615463
879.505678,-518.144159,1685.410096,8956.491898
879.506007,-814.226536,1685.410096,9252.574275
879.506337,-1332.370696,1608.800546,9622.677246
879.506667,-962.267725,1685.410096,10066.800811
879.506996,-888.247130,842.705048,9696.697840
879.507326,-1036.288319,459.657299,9548.656652
879.507655,-1480.411884,0.000000,9104.533087
879.507985,-2072.576638,-306.438199,9622.677246
879.508315,-2516.700203,-383.047749,9474.636058
879.508644,-2738.761985,-536.266849,9400.615463
879.508974,-2368.659014,153.219100,9252.574275
879.509303,-1406.391290,766.095498,9622.677246
879.509633,-592.164754,1072.533697,9770.718434
879.509963,-370.102971,995.924147,9252.574275
879.510292,-518.144159,1991.848295,9252.574275
879.510622,-370.102971,2145.067394,9696.697840
879.510951,-370.102971,1991.848295,9918.759623
879.511281,-444.123565,2451.505594,10436.903782
879.511611,-1258.350101,1302.362347,10510.924376
879.511940,-1776.494261,842.705048,10658.965565
879.512270,-2146.597232,919.314598,10658.965565
879.512600,-2072.576638,459.657299,10510.924376
879.512929,-1554.432478,689.485948,10066.800811
879.513259,-1036.288319,76.609550,9326.594869
879.513588,-666.185348,0.000000,9178.553681
879.513918,-888.247130,995.924147,9030.512492
879.514248,-1258.350101,1915.238745,8956.491898
879.514577,-1554.432478,1685.410096,9030.512492
879.514907,-1850.514855,1762.019645,8882.471304
879.515236,-1184.329507,1685.410096,9030.512492
879.515566,-888.247130,1072.533697,8734.430116
879.515896,-814.226536,919.314598,8364.327145
879.516225,-1184.329507,-229.828649,8142.265362
879.516555,-296.082377,689.485948,8808.450710
879.516884,0.000000,1225.752797,9992.780217
879.517214,666.185348,1302.362347,10436.903782
879.517544,814.226536,2145.067394,9770.718434
879.517873,888.247130,2068.457845,9844.739029
879.518203,1480.411884,1838.629195,9844.739029
879.518532,1184.329507,2068.457845,10066.800811
879.518862,444.123565,1685.410096,9548.656652
879.519192,0.000000,1302.362347,9326.594869
879.519521,-1258.350101,689.485948,9474.636058
879.519851,-1998.556043,306.438199,9326.594869
879.520181,-2442.679609,-842.705048,8956.491898
879.520510,-3404.947333,-1225.752797,8882.471304
879.520840,-3034.844362,-536.266849,8808.450710
879.521169,-2368.659014,76.609550,9400.615463
879.521499,-1702.473667,842.705048,9918.759623
879.521829,-1776.494261,1149.143247,9326.594869
879.522158,-1332.370696,2221.676944,9474.636058
879.522488,-814.226536,2451.505594,10362.883188
879.522817,0.000000,3064.381992,11325.150913
879.523147,-370.102971,2757.943793,10881.027347
879.523477,-1036.288319,995.924147,9622.677246
879.523806,-1480.411884,689.485948,9548.656652
879.524136,-1628.453072,76.609550,10066.800811
879.524465,-1924.535449,0.000000,10584.944971
879.524795,-1998.556043,-306.438199,10436.903782
879.525125,-2294.638420,-612.876398,10066.800811
879.525454,-1184.329507,-536.266849,9548.656652
879.525784,-592.164754,0.000000,9474.636058
879.526114,-296.082377,919.314598,9178.553681
879.526443,-444.123565,1455.581446,9178.553681
879.526773,-148.041188,1532.190996,8956.491898
879.527102,0.000000,2451.505594,9178.553681
879.527432,222.061783,1915.238745,9252.574275
879.527762,0.000000,1302.362347,8586.388927
879.528091,-222.061783,842.705048,8216.285956
879.528421,0.000000,612.876398,8438.347739
879.528750,518.144159,459.657299,8956.491898
879.529080,-74.020594,842.705048,9474.636058
879.529410,-518.144159,1685.410096,9844.739029
879.529739,-1184.329507,2145.067394,9992.780217
879.530069,-1184.329507,2068.457845,9992.780217
879.530398,-888.247130,1608.800546,9770.718434
879.530728,-1110.308913,1302.362347,9770.718434
879.531058,-1776.494261,766.095498,9326.594869
879.531387,-2072.576638,229.828649,9104.533087
879.531717,-2442.679609,-689.485948,9178.553681
879.532046,-2960.823768,-995.924147,9178.553681
879.532376,-3034.844362,-995.924147,8438.347739
879.532706,-2664.741391,-459.657299,9104.533087
879.533035,-1406.391290,-153.219100,9400.615463
879.533365,0.000000,536.266849,9696.697840
879.533695,962.267725,1072.533697,9696.697840
879.534024,1332.370696,1685.410096,9474.636058
879.534354,1110.308913,2528.115143,10362.883188
879.534683,1184.329507,3370.820191,10955.047942
879.535013,370.102971,2757.943793,11029.068536
879.535343,-814.226536,1915.238745,10807.006753
879.535672,-1776.494261,919.314598,10214.842000
879.536002,-1702.473667,0.000000,10362.883188
879.536331,-2368.659014,-689.485948,10140.821405
879.536661,-2294.638420,-842.705048,9548.656652
879.536991,-2220.617826,-766.095498,9252.574275
879.537320,-1850.514855,-612.876398,8734.430116
879.537650,-1332.370696,536.266849,8882.471304
879.537979,-1554.432478,1072.533697,9326.594869
879.538309,-1924.535449,1532.190996,9326.594869
879.538639,-1776.494261,2068.457845,9474.636058
879.538968,-1406.391290,1991.848295,9474.636058
879.539298,-444.123565,1608.800546,9178.553681
879.539627,-444.123565,612.876398,8808.450710
879.539957,-740.205942,383.047749,8216.285956
879.540287,0.000000,536.266849,8364.327145
879.540616,296.082377,995.924147,9252.574275
879.540946,814.226536,1532.190996,9770.718434
879.541276,740.205942,2145.067394,9770.718434
879.541605,0.000000,2374.896044,9474.636058
879.541935,-148.041188,2374.896044,9918.759623
879.542264,-444.123565,2145.067394,9918.759623
879.542594,-1184.329507,2068.457845,9918.759623
879.542924,-1850.514855,1225.752797,9474.636058
879.543253,-2442.679609,-383.047749,9326.594869
879.543583,-3330.926739,-1455.581446,8956.491898
879.543912,-4145.153275,-1225.752797,8734.430116
879.544242,-4219.173869,-1532.190996,8808.450710
879.544572,-3775.050304,-689.485948,8956.491898
879.544901,-2294.638420,0.000000,9326.594869
879.545231,-1110.308913,536.266849,9844.739029
879.545560,-666.185348,1378.971896,9400.615463
879.545890,-296.082377,2374.896044,9400.615463
879.546220,222.061783,3217.601092,9326.594869
879.546549,74.020594,2834.553343,10140.821405
879.546879,148.041188,1991.848295,10807.006753
879.547208,-888.247130,1378.971896,10955.047942
879.547538,-2146.597232,459.657299,10584.944971
879.547868,-2368.659014,-383.047749,11103.089130
879.548197,-2294.638420,-536.266849,10658.965565
879.548527,-1850.514855,-689.485948,10362.883188
879.548857,-1110.308913,-995.924147,9770.718434
879.549186,-444.123565,0.000000,9104.533087
879.549516,-296.082377,536.266849,8956.491898
879.549845,-148.041188,459.657299,9030.512492
879.550175,-814.226536,1378.971896,9178.553681
879.550505,-1036.288319,1915.238745,9178.553681
879.550834,-888.247130,1915.238745,9622.677246
879.551164,-444.123565,1302.362347,9400.615463
879.551493,-740.205942,1378.971896,8660.409521
879.551823,0.000000,306.438199,7994.224174
879.552153,296.082377,536.266849,8586.388927
879.552482,814.226536,1225.752797,9474.636058
879.552812,518.144159,2145.067394,10066.800811
879.553141,-444.123565,2834.553343,9178.553681
879.553471,-296.082377,2757.943793,9770.718434
879.553801,-296.082377,2681.334243,9696.697840
879.554130,-296.082377,2451.505594,9696.697840
879.554460,-740.205942,1838.629195,9326.594869
879.554790,-1480.411884,536.266849,8586.388927
879.555119,-1776.494261,-536.266849,8438.347739
879.555449,-2664.741391,-842.705048,8734.430116
879.555778,-3478.967927,-919.314598,8586.388927
879.556108,-3182.885551,-919.314598,8734.430116
879.556438,-2664.741391,0.000000,9030.512492
879.556767,-962.267725,842.705048,9030.512492
879.557097,-222.061783,1225.752797,9918.759623
879.557426,370.102971,1685.410096,10066.800811
879.557756,0.000000,3447.429741,10066.800811
879.558085,0.000000,4443.353888,9918.759623
879.558415,74.020594,3447.429741,10362.883188
879.558744,370.102971,2298.286494,10732.986159
879.559074,-444.123565,1072.533697,10436.903782
879.559403,-1776.494261,306.438199,10436.903782
879.559733,-2738.761985,0.000000,10807.006753
879.560062,-3034.844362,-153.219100,10955.047942
879.560392,-3182.885551,153.219100,10214.842000
879.560721,-2442.679609,-919.314598,9400.615463
879.561051,-1480.411884,-612.876398,9474.636058
879.561380,-814.226536,383.047749,9252.574275
879.561710,-888.247130,995.924147,8808.450710
879.562039,-1406.391290,1302.362347,8882.471304
879.562369,-1850.514855,1915.238745,8808.450710
879.562698,-1110.308913,2298.286494,9474.636058
879.563028,-370.102971,1378.971896,9548.656652
879.563357,-296.082377,995.924147,8808.450710
879.563687,-370.102971,689.485948,7698.141797
879.564016,518.144159,229.828649,7846.182985
879.564346,1036.288319,766.095498,8956.491898
879.564675,814.226536,1685.410096,9696.697840
879.565005,0.000000,2298.286494,9844.739029
879.565334,-888.247130,2298.286494,9992.780217
879.565664,-962.267725,2757.943793,10140.821405
879.565993,-1110.308913,2145.067394,10362.883188
879.566323,-1332.370696,1762.019645,9548.656652
879.566652,-1702.473667,689.485948,9178.553681
879.566982,-2442.679609,-766.095498,8734.430116
879.567311,-2886.803174,-1072.533697,8586.388927
879.567641,-3478.967927,-1838.629195,8660.409521
879.567970,-3627.009116,-1149.143247,8808.450710
879.568300,-3034.844362,-612.876398,9400.615463
879.568629,-1850.514855,153.219100,9696.697840
879.568959,-370.102971,842.705048,9548.656652
879.569289,444.123565,842.705048,9326.594869
879.569618,296.082377,2451.505594,9548.656652
879.569948,666.185348,3370.820191,10510.924376
879.570277,814.226536,3447.429741,11399.171507
879.570607,370.102971,2987.772442,11177.109724
879.570936,-370.102971,2451.505594,10214.842000
879.571266,-518.144159,766.095498,9474.636058
879.571595,-1036.288319,-383.047749,9474.636058
879.571925,-1184.329507,-459.657299,9844.739029
879.572254,-1480.411884,-459.657299,9696.697840
879.572584,-1924.535449,-383.047749,9252.574275
879.572913,-1850.514855,0.000000,9400.615463
879.573243,-1258.350101,306.438199,9770.718434
879.573572,-1554.432478,689.485948,9548.656652
879.573902,-1850.514855,1302.362347,9622.677246
879.574231,-1702.473667,1455.581446,9548.656652
879.574561,-1036.288319,1608.800546,9548.656652
879.574890,-814.226536,919.314598,9474.636058
879.575220,-888.247130,536.266849,9030.512492
879.575549,-740.205942,306.438199,8512.368333
879.575879,-222.061783,612.876398,8512.368333
879.576208,666.185348,919.314598,9474.636058
879.576538,444.123565,842.705048,9770.718434
879.576867,74.020594,1608.800546,9178.553681
879.577197,0.000000,1608.800546,9696.697840
879.577526,-222.061783,2068.457845,9622.677246
879.577856,-370.102971,2374.896044,9844.739029
879.578185,-222.061783,1532.190996,9622.677246
879.578515,-1258.350101,612.876398,9400.615463
879.578844,-1702.473667,0.000000,9474.636058
879.579174,-2516.700203,-612.876398,9326.594869
879.579503,-3182.885551,-919.314598,8882.471304
879.579833,-3478.967927,-612.876398,8660.409521
879.580162,-3552.988522,-689.485948,9030.512492
879.580492,-2516.700203,0.000000,9696.697840
879.580821,-1554.432478,689.485948,9326.594869
879.581151,-888.247130,1149.143247,9400.615463
879.581480,-592.164754,1991.848295,9252.574275
879.581810,-222.061783,2987.772442,9474.636058
879.582139,74.020594,2834.553343,10214.842000
879.582469,-370.102971,2451.505594,10658.965565
879.582798,-1480.411884,1991.848295,10807.006753
879.583128,-2368.659014,1225.752797,10436.903782
879.583457,-3330.926739,0.000000,10140.821405
879.583787,-3552.988522,-842.705048,10140.821405
879.584116,-3256.906145,-1608.800546,9474.636058
879.584446,-2368.659014,-2451.505594,9104.533087
879.584775,-1628.453072,-1838.629195,9104.533087
879.585105,-814.226536,-229.828649,9474.636058
879.585434,-370.102971,612.876398,9474.636058
879.585764,0.000000,1915.238745,9992.780217
879.586093,518.144159,2681.334243,10066.800811
879.586423,1406.391290,2604.724693,10214.842000
879.586752,2368.659014,2834.553343,9770.718434
879.587082,1850.514855,2298.286494,8808.450710
879.587411,1332.370696,1225.752797,8142.265362
879.587741,1036.288319,766.095498,8216.285956
879.588070,592.164754,766.095498,8956.491898
879.588400,296.082377,1762.019645,9400.615463
879.588729,-740.205942,1915.238745,9178.553681
879.589059,-1258.350101,1685.410096,8808.450710
879.589388,-1184.329507,1685.410096,8882.471304
879.589718,-1184.329507,1991.848295,9252.574275
879.590047,-1184.329507,1685.410096,9400.615463
879.590377,-1998.556043,689.485948,9104.533087
879.590706,-2738.761985,383.047749,8956.491898
879.591036,-3182.885551,76.609550,9326.594869
879.591365,-3552.988522,-612.876398,9252.574275
879.591695,-3034.844362,-995.924147,9400.615463
879.592024,-2442.679609,0.000000,9178.553681
879.592354,-1110.308913,306.438199,9696.697840
879.592683,-296.082377,919.314598,9918.759623
879.593013,370.102971,1762.019645,10066.800811
879.593342,592.164754,3217.601092,9844.739029
879.593672,962.267725,4366.744339,9918.759623
879.594002,1480.411884,3753.867940,10066.800811
879.594331,888.247130,2757.943793,10510.924376
879.594661,-296.082377,1762.019645,10658.965565
879.594990,-1702.473667,1302.362347,10658.965565
879.595320,-2516.700203,153.219100,10732.986159
879.595649,-2886.803174,-919.314598,10584.944971
879.595979,-2664.741391,-995.924147,9474.636058
879.596308,-2072.576638,-1378.971896,8808.450710
879.596638,-1110.308913,-1378.971896,8956.491898
879.596967,-962.267725,229.828649,9252.574275
879.597297,-1702.473667,1685.410096,9030.512492
879.597626,-1924.535449,2374.896044,9548.656652
879.597956,-1998.556043,2528.115143,9622.677246
879.598285,-1406.391290,2145.067394,9548.656652
879.598615,-740.205942,1455.581446,9400.615463
879.598944,-222.061783,1532.190996,8956.491898
879.599274,0.000000,842.705048,7550.100608
879.599603,-148.041188,76.609550,7920.203579
879.599933,0.000000,612.876398,8660.409521
879.600262,222.061783,995.924147,9474.636058
879.600592,296.082377,1915.238745,10214.842000
879.600921,-518.144159,2145.067394,9844.739029
879.601251,-592.164754,2528.115143,10436.903782
879.601580,-296.082377,2221.676944,9548.656652
879.601910,-148.041188,919.314598,9030.512492
879.602239,-370.102971,306.438199,9030.512492
879.602569,-1258.350101,-536.266849,9400.615463
879.602898,-2072.576638,-1225.752797,9400.615463
879.603228,-2738.761985,-1225.752797,9252.574275
879.603557,-2960.823768,-1532.190996,9252.574275
879.603887,-2294.638420,-689.485948,9622.677246
879.604216,-1332.370696,153.219100,9622.677246
879.604546,-444.123565,1378.971896,9992.780217
879.604875,0.000000,2068.457845,9696.697840
879.605205,-222.061783,2374.896044,9400.615463
879.605534,0.000000,2757.943793,10362.883188
879.605864,-74.020594,2374.896044,10881.027347
879.606193,-962.267725,3064.381992,10955.047942
879.606523,-1554.432478,1838.629195,10140.821405
879.606852,-1924.535449,459.657299,9474.636058
879.607182,-1924.535449,-612.876398,9474.636058
879.607511,-1554.432478,-995.924147,9918.759623
879.607841,-962.267725,-842.705048,9548.656652
879.608170,-1406.391290,153.219100,8808.450710
879.608500,-962.267725,153.219100,9400.615463
879.608829,-518.144159,842.705048,9770.718434
879.609159,-592.164754,1608.800546,9770.718434
879.609488,-740.205942,1532.190996,9770.718434
879.609818,-444.123565,2068.457845,9474.636058
879.610147,-666.185348,1762.019645,9844.739029
879.610477,-370.102971,1302.362347,9770.718434
879.610806,-740.205942,842.705048,9252.574275
879.611136,0.000000,612.876398,8068.244768
879.611465,148.041188,995.924147,8364.327145
879.611795,370.102971,995.924147,9104.533087
879.612124,296.082377,1378.971896,9252.574275
879.612454,0.000000,1762.019645,9104.533087
879.612783,-962.267725,2374.896044,9104.533087
879.613113,-1406.391290,2451.505594,9326.594869
879.613442,-1406.391290,1991.848295,9622.677246
879.613772,-1998.556043,1302.362347,9548.656652
879.614101,-2072.576638,689.485948,9178.553681
879.614431,-2442.679609,-536.266849,9252.574275
879.614760,-2886.803174,0.000000,9178.553681
879.615090,-2664.741391,-612.876398,9326.594869
879.615419,-2960.823768,-689.485948,8956.491898
879.615749,-2220.617826,0.000000,9030.512492
879.616078,-1184.329507,842.705048,9474.636058
879.616408,-814.226536,1532.190996,9918.759623
879.616737,-370.102971,1608.800546,9474.636058
879.617067,-666.185348,2451.505594,9400.615463
879.617396,-370.102971,2757.943793,9548.656652
879.617726,0.000000,2068.457845,9770.718434
879.618055,-370.102971,842.705048,9992.780217
879.618385,-1036.288319,1149.143247,10732.986159
879.618715,-2368.659014,-153.219100,10436.903782
879.619044,-2812.782580,-536.266849,11399.171507
879.619374,-2960.823768,-229.828649,11325.150913
879.619703,-2368.659014,76.609550,10288.862594
879.620033,-1110.308913,-919.314598,9252.574275
879.620362,-222.061783,-995.924147,9252.574275
879.620692,0.000000,-459.657299,9474.636058
879.621021,-296.082377,383.047749,9326.594869
879.621351,-1036.288319,1378.971896,9844.739029
879.621680,-1406.391290,1378.971896,10140.821405
879.622010,-666.185348,1532.190996,9918.759623
879.622339,0.000000,919.314598,9696.697840
879.622669,148.041188,383.047749,8956.491898
879.622998,222.061783,229.828649,8142.265362
879.623328,740.205942,459.657299,8438.347739
879.623657,888.247130,1302.362347,8882.471304
879.623987,888.247130,1532.190996,9178.553681
879.624316,148.041188,1838.629195,9326.594869
879.624646,-296.082377,2451.505594,9474.636058
879.624975,-592.164754,2298.286494,9622.677246
879.625305,-518.144159,1762.019645,9326.594869
879.625634,-592.164754,1532.190996,9030.512492
879.625964,-1110.308913,0.000000,8956.491898
879.626293,-1554.432478,-383.047749,9178.553681
879.626623,-2590.720797,-229.828649,9326.594869
879.626952,-3330.926739,-153.219100,9252.574275
879.627282,-3034.844362,-153.219100,9030.512492
879.627611,-2368.659014,306.438199,9400.615463
879.627941,-1480.411884,995.924147,9548.656652
879.628270,-296.082377,1302.362347,9696.697840
879.628600,-296.082377,1685.410096,9030.512492
879.628929,0.000000,3064.381992,9178.553681
879.629259,148.041188,2757.943793,9844.739029
879.629588,0.000000,2681.334243,10955.047942
879.629918,-370.102971,2681.334243,10732.986159
879.630247,-1036.288319,1915.238745,9696.697840
879.630577,-1554.432478,612.876398,9474.636058
879.630906,-1702.473667,0.000000,10140.821405
879.631236,-1998.556043,306.438199,10658.965565
879.631565,-2146.597232,306.438199,10140.821405
879.631895,-2368.659014,0.000000,10288.862594
879.632224,-1924.535449,612.876398,10066.800811
879.632554,-1702.473667,383.047749,9326.594869
879.632883,-1702.473667,459.657299,8956.491898
879.633213,-1406.391290,766.095498,8734.430116
879.633542,-1036.288319,1302.362347,8734.430116
879.633872,-296.082377,1149.143247,9104.533087
879.634201,-370.102971,1608.800546,9696.697840
879.634531,-444.123565,1149.143247,8956.491898
879.634860,-814.226536,1072.533697,8882.471304
879.635190,-148.041188,1149.143247,9400.615463
879.635519,296.082377,1378.971896,9844.739029
879.635849,444.123565,1685.410096,9696.697840
879.636178,-444.123565,1608.800546,9770.718434
879.636508,-592.164754,2221.676944,9622.677246
879.636837,-814.226536,2451.505594,9918.759623
879.637167,-888.247130,1685.410096,9474.636058
879.637496,-888.247130,1149.143247,9030.512492
879.637826,-1110.308913,0.000000,8808.450710
879.638155,-1184.329507,-1072.533697,9474.636058
879.638485,-1850.514855,-995.924147,9326.594869
879.638814,-2664.741391,-536.266849,8808.450710
879.639144,-2812.782580,-612.876398,8660.409521
879.639473,-1776.494261,0.000000,8290.306550
879.639803,-148.041188,766.095498,8734.430116
879.640132,518.144159,689.485948,8956.491898
879.640462,888.247130,1685.410096,9104.533087
879.640791,370.102971,2604.724693,9474.636058
879.641121,518.144159,2987.772442,10881.027347
879.641450,296.082377,2834.553343,11251.130318
879.641780,-444.123565,2451.505594,11325.150913
879.642109,-1628.453072,1302.362347,10955.047942
879.642439,-2294.638420,383.047749,10584.944971
879.642768,-2516.700203,-306.438199,10658.965565
879.643098,-2442.679609,-536.266849,9992.780217
879.643428,-2368.659014,-1072.533697,9252.574275
879.643757,-1702.473667,-1302.362347,9178.553681
879.644087,-740.205942,-766.095498,9400.615463
879.644416,-296.082377,459.657299,9844.739029
879.644746,-592.164754,1302.362347,9252.574275
879.645075,-518.144159,1991.848295,9992.780217
879.645405,-444.123565,2068.457845,9844.739029
879.645734,0.000000,1685.410096,9918.759623
879.646064,-296.082377,1455.581446,9474.636058
879.646393,-888.247130,306.438199,7698.141797
879.646723,-296.082377,153.219100,7846.182985
879.647052,370.102971,536.266849,8660.409521
879.647382,888.247130,919.314598,9548.656652
879.647711,518.144159,1685.410096,9622.677246
879.648041,-444.123565,2298.286494,9178.553681
879.648370,-592.164754,2757.943793,9104.533087
879.648700,-888.247130,2681.334243,9474.636058
879.649029,-814.226536,2068.457845,9918.759623
879.649359,-1258.350101,1532.190996,9474.636058
879.649688,-2072.576638,0.000000,9104.533087
879.650018,-2442.679609,-1378.971896,8734.430116
879.650347,-3182.885551,-919.314598,9178.553681
879.650677,-3775.050304,-1149.143247,8808.450710
879.651006,-3478.967927,-842.705048,8882.471304
879.651336,-2294.638420,76.609550,8808.450710
879.651665,-370.102971,1302.362347,8808.450710
879.651995,74.020594,2068.457845,9030.512492
879.652324,444.123565,2298.286494,9400.615463
879.652654,0.000000,3370.820191,9918.759623
879.652983,-222.061783,3677.258390,10732.986159
879.653313,-518.144159,3753.867940,11473.192101
879.653642,-1924.535449,1991.848295,11177.109724
879.653972,-2590.720797,229.828649,10214.842000
879.654301,-2960.823768,-1378.971896,10362.883188
879.654631,-3330.926739,-1608.800546,10732.986159
879.654960,-3330.926739,-1302.362347,10140.821405
879.655290,-2146.597232,-1225.752797,9548.656652
879.655619,-962.267725,-1378.971896,9178.553681
879.655949,74.020594,-229.828649,9326.594869
879.656278,444.123565,229.828649,9474.636058
879.656607,148.041188,1838.629195,9400.615463
879.656937,-222.061783,3064.381992,9622.677246
879.657266,-296.082377,3140.991542,9622.677246
879.657596,-370.102971,2221.676944,10510.924376
879.657925,-592.164754,919.314598,9696.697840
879.658254,-962.267725,-229.828649,8438.347739
879.658584,-888.247130,0.000000,7624.121203
879.658913,0.000000,0.000000,8438.347739
879.659242,444.123565,153.219100,9400.615463
879.659572,0.000000,1072.533697,9548.656652
879.659901,-592.164754,2757.943793,9326.594869
879.660230,-666.185348,3140.991542,9474.636058
879.660560,-814.226536,2604.724693,9104.533087
879.660889,-592.164754,2145.067394,9474.636058
879.661219,-1110.308913,1149.143247,9474.636058
879.661548,-1554.432478,76.609550,9252.574275
879.661877,-2368.659014,-842.705048,9400.615463
879.662207,-3330.926739,-919.314598,8808.450710
879.662536,-3849.070898,-766.095498,9030.512492
879.662865,-2960.823768,-766.095498,9104.533087
879.663195,-1406.391290,383.047749,9474.636058
879.663524,0.000000,1149.143247,9474.636058
879.663853,814.226536,1455.581446,9252.574275
879.664183,1110.308913,2681.334243,9178.553681
879.664512,1036.288319,3294.210641,9474.636058
879.664842,1036.288319,3830.477490,10436.903782
879.665171,370.102971,3217.601092,10807.006753
879.665500,-370.102971,2145.067394,10584.944971
879.665830,-1554.432478,689.485948,9696.697840
879.666159,-2146.597232,0.000000,9696.697840
879.666488,-2590.720797,-459.657299,9548.656652
879.666818,-2442.679609,-536.266849,9770.718434
879.667147,-2146.597232,-383.047749,9326.594869
879.667476,-1480.411884,76.609550,9030.512492
879.667806,-814.226536,-76.609550,8956.491898
879.668135,-962.267725,1532.190996,9474.636058
879.668465,-1554.432478,2145.067394,9326.594869
879.668794,-1850.514855,1991.848295,9474.636058
879.669123,-1702.473667,1991.848295,9770.718434
879.669453,-1628.453072,1608.800546,9474.636058
879.669782,-1184.329507,689.485948,9548.656652
879.670111,-1110.308913,76.609550,8660.409521
879.670441,-592.164754,0.000000,8290.306550
879.670770,222.061783,76.609550,9030.512492
879.671099,1036.288319,842.705048,9622.677246
879.671429,1184.329507,2451.505594,9622.677246
879.671758,296.082377,2604.724693,9252.574275
879.672088,296.082377,2528.115143,9400.615463
879.672417,148.041188,2068.457845,9844.739029
879.672746,-444.123565,1455.581446,9622.677246
879.673076,-1406.391290,919.314598,9622.677246
879.673405,-2368.659014,0.000000,9548.656652
879.673734,-2664.741391,-1225.752797,9622.677246
879.674064,-3330.926739,-1455.581446,9622.677246
879.674393,-4071.132681,-1532.190996,8956.491898
879.674722,-3478.967927,-612.876398,9030.512492
879.675052,-2294.638420,0.000000,8882.471304
879.675381,-962.267725,383.047749,9252.574275
879.675711,-222.061783,919.314598,9474.636058
879.676040,-222.061783,2068.457845,9400.615463
879.676369,0.000000,2757.943793,9400.615463
879.676699,0.000000,2834.553343,9992.780217
879.677028,74.020594,2145.067394,10658.965565
879.677357,-518.144159,1455.581446,10362.883188
879.677687,-1036.288319,612.876398,10214.842000
879.678016,-1110.308913,612.876398,9770.718434
879.678345,-1924.535449,-76.609550,10214.842000
879.678675,-1702.473667,-229.828649,10362.883188
879.679004,-1702.473667,0.000000,9770.718434
879.679334,-1332.370696,459.657299,9770.718434
879.679663,-666.185348,766.095498,9844.739029
879.679992,-592.164754,1378.971896,9474.636058
879.680322,-1184.329507,1532.190996,9252.574275
879.680651,-1702.473667,1149.143247,9474.636058
879.680980,-1406.391290,1302.362347,9696.697840
879.681310,-1258.350101,1685.410096,9844.739029
879.681639,-962.267725,1225.752797,9030.512492
879.681968,-1110.308913,229.828649,8216.285956
879.682298,-370.102971,459.657299,7920.203579
879.682627,592.164754,919.314598,8734.430116
879.682957,1258.350101,1838.629195,9474.636058
879.683286,666.185348,2451.505594,9622.677246
879.683615,148.041188,2451.505594,9400.615463
879.683945,-296.082377,2451.505594,9326.594869
879.684274,-74.020594,2068.457845,9992.780217
879.684603,-370.102971,1378.971896,9992.780217
879.684933,-962.267725,1072.533697,9696.697840
879.685262,-2072.576638,0.000000,8956.491898
879.685591,-1924.535449,-766.095498,9548.656652
879.685921,-2738.761985,-842.705048,9326.594869
879.686250,-3034.844362,-306.438199,8956.491898
879.686580,-2516.700203,0.000000,8734.430116
879.686909,-2146.597232,383.047749,8512.368333
879.687238,-518.144159,995.924147,9178.553681
879.687568,0.000000,1302.362347,9474.636058
879.687897,0.000000,1685.410096,9474.636058
879.688226,-296.082377,2681.334243,9844.739029
879.688556,-666.185348,2604.724693,10288.862594
879.688885,-370.102971,2068.457845,11547.212695
879.689214,-888.247130,1302.362347,10955.047942
879.689544,-1628.453072,306.438199,10140.821405
879.689873,-2368.659014,-459.657299,9770.718434
879.690202,-2516.700203,-766.095498,10288.862594
879.690532,-2442.679609,0.000000,10288.862594
879.690861,-2368.659014,-612.876398,9844.739029
879.691191,-2146.597232,0.000000,9474.636058
879.691520,-1332.370696,153.219100,9622.677246
879.691849,-740.205942,306.438199,9770.718434
879.692179,-592.164754,689.485948,9474.636058
879.692508,-1480.411884,1072.533697,9400.615463
879.692837,-1480.411884,1455.581446,9400.615463
879.693167,-1036.288319,1532.190996,9548.656652
879.693496,-1036.288319,919.314598,9622.677246
879.693825,-518.144159,383.047749,9030.512492
879.694155,-666.185348,459.657299,8364.327145
879.694484,0.000000,689.485948,8808.450710
879.694814,814.226536,766.095498,9622.677246
879.695143,592.164754,1608.800546,9770.718434
879.695472,0.000000,1991.848295,9400.615463
879.695802,-888.247130,2145.067394,9474.636058
879.696131,-962.267725,2068.457845,9696.697840
879.696460,-962.267725,2221.676944,9770.718434
879.696790,-1036.288319,1149.143247,9326.594869
879.697119,-1776.494261,-383.047749,8734.430116
879.697448,-1924.535449,-919.314598,8882.471304
879.697778,-2812.782580,-689.485948,9104.533087
879.698107,-3627.009116,-459.657299,8956.491898
879.698437,-3552.988522,0.000000,9104.533087
879.698766,-2294.638420,536.266849,9252.574275
879.699095,-518.144159,1149.143247,9400.615463
879.699425,666.185348,1302.362347,9400.615463
879.699754,592.164754,1991.848295,9030.512492
879.700083,518.144159,3140.991542,9326.594869
879.700413,592.164754,3447.429741,10288.862594
879.700742,666.185348,3140.991542,10807.006753
879.701071,0.000000,1762.019645,10436.903782
879.701401,-1036.288319,1532.190996,10066.800811
879.701730,-1924.535449,612.876398,9844.739029
879.702060,-2368.659014,-153.219100,10140.821405
879.702389,-2294.638420,-153.219100,9918.759623
879.702718,-2442.679609,0.000000,8882.471304
879.703048,-1554.432478,-383.047749,8882.471304
879.703377,-962.267725,-153.219100,9326.594869
879.703706,-814.226536,1072.533697,9474.636058
879.704036,-1110.308913,1532.190996,9326.594869
879.704365,-1554.432478,1915.238745,9474.636058
879.704694,-888.247130,2145.067394,9992.780217
879.705024,-666.185348,1915.238745,10362.883188
879.705353,-666.185348,1072.533697,10214.842000
879.705683,-962.267725,919.314598,8956.491898
879.706012,-888.247130,995.924147,8438.347739
879.706341,0.000000,766.095498,9178.553681
879.706671,0.000000,766.095498,9770.718434
879.707000,370.102971,1378.971896,9918.759623
879.707329,0.000000,2145.067394,9252.574275
879.707659,0.000000,2068.457845,9474.636058
879.707988,0.000000,1838.629195,9548.656652
879.708317,-222.061783,1378.971896,9918.759623
879.708647,-962.267725,1225.752797,9474.636058
879.708976,-1628.453072,306.438199,9178.553681
879.709306,-1998.556043,-306.438199,9030.512492
879.709635,-2072.576638,0.000000,7920.203579
879.709964,-2590.720797,-1149.143247,7476.080014
879.710294,-2738.761985,-766.095498,8068.244768
879.710623,-2294.638420,306.438199,8734.430116
879.710952,-888.247130,1072.533697,9918.759623
879.711282,-518.144159,1225.752797,10214.842000
879.711611,-1036.288319,2757.943793,9622.677246
879.711940,-888.247130,2911.162892,10140.821405
879.712270,-370.102971,2757.943793,10881.027347
879.712599,-370.102971,2145.067394,11251.130318
879.712929,-1184.329507,1149.143247,10955.047942
879.713258,-2146.597232,612.876398,10436.903782
879.713587,-2886.803174,-306.438199,10140.821405
879.713917,-2442.679609,-612.876398,10066.800811
879.714246,-1628.453072,-1302.362347,9548.656652
879.714575,-1036.288319,-1072.533697,9252.574275
879.714905,-444.123565,-842.705048,9326.594869
879.715234,74.020594,-229.828649,9992.780217
879.715563,0.000000,1685.410096,10510.924376
879.715893,-740.205942,2834.553343,10066.800811
879.716222,-666.185348,1991.848295,9844.739029
879.716552,222.061783,2374.896044,9696.697840
879.716881,370.102971,2145.067394,9548.656652
879.717210,222.061783,1225.752797,9400.615463
879.717540,-444.123565,995.924147,8364.327145
879.717869,-962.267725,1302.362347,7624.121203
879.718198,0.000000,612.876398,8290.306550
879.718528,592.164754,919.314598,9252.574275
879.718857,-222.061783,2374.896044,9548.656652
879.719186,-962.267725,2757.943793,9104.533087
879.719516,-1332.370696,2451.505594,8882.471304
879.719845,-814.226536,1608.800546,9548.656652
879.720175,-518.144159,842.705048,9992.780217
879.720504,-1110.308913,0.000000,9622.677246
879.720833,-1998.556043,0.000000,9400.615463
879.721163,-2368.659014,-229.828649,9326.594869
879.721492,-2294.638420,-306.438199,8586.388927
879.721821,-1702.473667,0.000000,7772.162391
879.722151,-962.267725,153.219100,8142.265362
879.722480,-370.102971,612.876398,8438.347739
879.722809,74.020594,1378.971896,9400.615463
879.723139,0.000000,2145.067394,10362.883188
879.723468,-1036.288319,2604.724693,10214.842000
879.723798,-1628.453072,3217.601092,11177.109724
879.724127,-1332.370696,2681.334243,11621.233289
879.724456,-962.267725,1455.581446,11251.130318
879.724786,-1184.329507,0.000000,10510.924376
879.725115,-1480.411884,-459.657299,9696.697840
879.725444,-1850.514855,-459.657299,9252.574275
879.725774,-1702.473667,-995.924147,9622.677246
879.726103,-1628.453072,-842.705048,9992.780217
879.726432,-1258.350101,-383.047749,9696.697840
879.726762,-888.247130,0.000000,9696.697840
879.727091,-370.102971,306.438199,9770.718434
879.727420,-666.185348,1455.581446,9400.615463
879.727750,-666.185348,842.705048,9474.636058
879.728079,-1258.350101,1149.143247,9326.594869
879.728409,-1480.411884,1225.752797,9400.615463
879.728738,-1480.411884,1608.800546,9400.615463
879.729067,-1702.473667,689.485948,9178.553681
879.729397,-1554.432478,842.705048,8734.430116
879.729726,-1184.329507,766.095498,8512.368333
879.730055,-296.082377,1072.533697,9178.553681
879.730385,-222.061783,1608.800546,9400.615463
879.730714,-518.144159,2374.896044,9252.574275
879.731043,-962.267725,2145.067394,8882.471304
879.731373,-1480.411884,1762.019645,8808.450710
879.731702,-1480.411884,1225.752797,9400.615463
879.732032,-1628.453072,536.266849,9474.636058
879.732361,-2442.679609,-229.828649,9178.553681
879.732690,-2368.659014,-689.485948,9474.636058
879.733020,-2738.761985,-1149.143247,9992.780217
879.733349,-2812.782580,-459.657299,9474.636058
879.733678,-2294.638420,0.000000,9104.533087
879.734008,-888.247130,0.000000,8882.471304
879.734337,740.205942,1225.752797,9178.553681
879.734666,1480.411884,1915.238745,9474.636058
879.734996,1480.411884,2374.896044,9918.759623
879.735325,962.267725,2987.772442,9844.739029
879.735655,0.000000,3447.429741,10140.821405
879.735984,-148.041188,3217.601092,10881.027347
879.736313,-814.226536,2298.286494,11399.171507
879.736643,-1554.432478,1378.971896,10807.006753
879.736972,-2516.700203,383.047749,9844.739029
879.737301,-2886.803174,-612.876398,9326.594869
879.737631,-2516.700203,-459.657299,9400.615463
879.737960,-2220.617826,-995.924147,9030.512492
879.738289,-1554.432478,-383.047749,9030.512492
879.738619,-740.205942,0.000000,9400.615463
879.738948,-370.102971,689.485948,9696.697840
879.739278,-740.205942,1838.629195,9548.656652
879.739607,-1184.329507,1685.410096,10288.862594
879.739936,-1184.329507,2068.457845,10288.862594
879.740266,-814.226536,1915.238745,10140.821405
879.740595,-296.082377,1685.410096,9622.677246
879.740924,666.185348,842.705048,8882.471304
879.741254,666.185348,0.000000,7550.100608
879.741583,1332.370696,995.924147,8216.285956
879.741912,1258.350101,1762.019645,8660.409521
879.742242,1036.288319,2451.505594,9178.553681
879.742571,740.205942,2911.162892,9400.615463
879.742901,0.000000,2451.505594,9030.512492
879.743230,-1036.288319,1762.019645,9030.512492
879.743559,-1850.514855,1455.581446,9474.636058
879.743889,-2146.597232,229.828649,9918.759623
879.744218,-2960.823768,-536.266849,9696.697840
879.744547,-3627.009116,-842.705048,9770.718434
879.744877,-3849.070898,-842.705048,9326.594869
879.745206,-3330.926739,-1302.362347,8956.491898
879.745535,-2590.720797,-842.705048,8512.368333
879.745865,-1776.494261,76.609550,8364.327145
879.746194,-370.102971,842.705048,8956.491898
879.746524,518.144159,1762.019645,9400.615463
879.746853,444.123565,2451.505594,9992.780217
879.747182,296.082377,3064.381992,10362.883188
879.747512,-148.041188,3294.210641,10732.986159
879.747841,-222.061783,2681.334243,10955.047942
879.748170,-148.041188,1915.238745,10658.965565
879.748500,-592.164754,612.876398,10510.924376
879.748829,-1480.411884,0.000000,9992.780217
879.749158,-1998.556043,-229.828649,9844.739029
879.749488,-2516.700203,0.000000,9696.697840
879.749817,-1998.556043,0.000000,9696.697840
879.750147,-1554.432478,-306.438199,9252.574275
879.750476,-888.247130,-383.047749,9696.697840
879.750805,-666.185348,76.609550,10140.821405
879.751135,-1184.329507,995.924147,10140.821405
879.751464,-2072.576638,1225.752797,9918.759623
879.751793,-2220.617826,1455.581446,9178.553681
879.752123,-1332.370696,1455.581446,9030.512492
879.752452,-222.061783,1455.581446,8956.491898
879.752781,370.102971,842.705048,8290.306550
879.753111,592.164754,1302.362347,7846.182985
879.753440,740.205942,1991.848295,7624.121203
879.753770,1406.391290,1838.629195,8660.409521
879.754099,1258.350101,2604.724693,9622.677246
879.754428,814.226536,2911.162892,9622.677246
879.754758,0.000000,2528.115143,9474.636058
879.755087,-296.082377,1915.238745,9252.574275
879.755416,-666.185348,919.314598,9844.739029
879.755746,-1480.411884,229.828649,10362.883188
879.756075,-1924.535449,0.000000,9844.739029
879.756404,-2294.638420,-919.314598,9474.636058
879.756734,-2220.617826,-1072.533697,9178.553681
879.757063,-2146.597232,-612.876398,8586.388927
879.757393,-1554.432478,-229.828649,8512.368333
879.757722,-1184.329507,76.609550,8660.409521
879.758051,-370.102971,1608.800546,9104.533087
879.758381,148.041188,2374.896044,9770.718434
879.758710,0.000000,1685.410096,9918.759623
879.759039,0.000000,2068.457845,10436.903782
879.759369,-592.164754,2451.505594,10436.903782
879.759698,-740.205942,2298.286494,11029.068536
879.760027,-962.267725,1762.019645,11177.109724
879.760356,-1850.514855,612.876398,10436.903782
879.760686,-2812.782580,153.219100,9844.739029
879.761015,-2664.741391,-153.219100,10214.842000
879.761344,-2738.761985,-536.266849,10214.842000
879.761674,-2368.659014,-536.266849,9844.739029
879.762003,-1628.453072,-612.876398,8956.491898
879.762332,-592.164754,-1149.143247,9918.759623
879.762662,-148.041188,-153.219100,9992.780217
879.762991,-148.041188,995.924147,9844.739029
879.763320,-1036.288319,1532.190996,9400.615463
879.763650,-1184.329507,1532.190996,9252.574275
879.763979,-370.102971,1991.848295,9104.533087
879.764308,222.061783,1915.238745,9400.615463
879.764638,74.020594,1378.971896,9326.594869
879.764967,-370.102971,1225.752797,8660.409521
879.765296,-740.205942,1378.971896,8438.347739
879.765626,-370.102971,1532.190996,9030.512492
879.765955,-592.164754,1762.019645,9474.636058
879.766284,-1184.329507,1455.581446,9326.594869
879.766613,-1332.370696,1838.629195,9104.533087
879.766943,-1628.453072,1455.581446,8882.471304
879.767272,-1702.473667,919.314598,9030.512492
879.767601,-1702.473667,459.657299,8808.450710
879.767931,-2220.617826,-229.828649,9178.553681
879.768260,-2368.659014,-612.876398,9696.697840
879.768589,-2886.803174,-306.438199,10066.800811
879.768919,-3108.864956,0.000000,9622.677246
879.769248,-2590.720797,-383.047749,8660.409521
879.769577,-2072.576638,0.000000,8808.450710
879.769907,-518.144159,919.314598,9252.574275
879.770236,518.144159,1685.410096,9622.677246
879.770565,1036.288319,1532.190996,9844.739029
879.770895,444.123565,2451.505594,9548.656652
879.771224,74.020594,3217.601092,9918.759623
879.771553,74.020594,2451.505594,10881.027347
879.771883,-296.082377,1915.238745,10881.027347
879.772212,-1332.370696,1378.971896,10510.924376
879.772541,-2220.617826,306.438199,10214.842000
879.772871,-2590.720797,153.219100,9918.759623
879.773200,-2664.741391,0.000000,9992.780217
879.773529,-2146.597232,-459.657299,9696.697840
879.773858,-1554.432478,-919.314598,9178.553681
879.774188,-740.205942,-229.828649,9548.656652
879.774517,-370.102971,229.828649,9844.739029
879.774846,-888.247130,1149.143247,9844.739029
879.775176,-1332.370696,2451.505594,9844.739029
879.775505,-1184.329507,1915.238745,9844.739029
879.775834,-666.185348,1685.410096,9400.615463
879.776164,148.041188,1608.800546,8956.491898
879.776493,592.164754,612.876398,7846.182985
879.776822,740.205942,383.047749,7772.162391
879.777152,666.185348,1225.752797,8364.327145
879.777481,740.205942,1685.410096,9030.512492
879.777810,740.205942,2604.724693,9918.759623
879.778140,148.041188,2681.334243,9474.636058
879.778469,-296.082377,2757.943793,9474.636058
879.778798,-444.123565,2068.457845,9622.677246
879.779128,-740.205942,1915.238745,10066.800811
879.779457,-1184.329507,1072.533697,9844.739029
879.779786,-1924.535449,-153.219100,8956.491898
879.780116,-1924.535449,0.000000,8068.244768
879.780445,-2072.576638,-919.314598,8586.388927
879.780774,-2368.659014,-306.438199,8216.285956
879.781103,-2220.617826,536.266849,8290.306550
879.781433,-1850.514855,383.047749,8364.327145
879.781762,-888.247130,919.314598,8808.450710
879.782091,-740.205942,2145.067394,9918.759623
879.782421,-740.205942,2451.505594,10658.965565
879.782750,-1406.391290,2681.334243,10732.986159
879.783079,-1702.473667,2604.724693,10658.965565
879.783409,-1480.411884,2374.896044,10955.047942
879.783738,-1332.370696,459.657299,10955.047942
879.784067,-1628.453072,-306.438199,10732.986159
879.784397,-2146.597232,-153.219100,10362.883188
879.784726,-2220.617826,-306.438199,10066.800811
879.785055,-1554.432478,-689.485948,10362.883188
879.785385,-1480.411884,-995.924147,10362.883188
879.785714,-592.164754,0.000000,10584.944971
879.786043,-222.061783,536.266849,10510.924376
879.786373,222.061783,995.924147,10214.842000
879.786702,0.000000,1532.190996,9548.656652
879.787031,-592.164754,1838.629195,8956.491898
879.787361,-740.205942,1455.581446,9030.512492
879.787690,-518.144159,1225.752797,8956.491898
879.788019,0.000000,1532.190996,8882.471304
879.788348,0.000000,1072.533697,8290.306550
879.788678,74.020594,1149.143247,7846.182985
879.789007,0.000000,1149.143247,7920.203579
879.789336,0.000000,1685.410096,8882.471304
879.789666,-222.061783,2145.067394,9474.636058
879.789995,-1110.308913,2604.724693,9770.718434
879.790324,-1850.514855,1762.019645,9770.718434
879.790654,-2442.679609,766.095498,9622.677246
879.790983,-2294.638420,76.609550,9844.739029
879.791312,-2368.659014,-459.657299,10066.800811
879.791642,-2368.659014,-689.485948,9622.677246
879.791971,-1850.514855,-919.314598,9178.553681
879.792300,-1406.391290,-995.924147,9326.594869
879.792630,-370.102971,-229.828649,8956.491898
879.792959,370.102971,383.047749,8290.306550
879.793288,1184.329507,1302.362347,8512.368333
879.793618,1924.535449,2451.505594,8956.491898
879.793947,1776.494261,2757.943793,9992.780217
879.794276,1406.391290,3140.991542,10584.944971
879.794605,0.000000,3217.601092,10658.965565
879.794935,-888.247130,2681.334243,10658.965565
879.795264,-1480.411884,1455.581446,10955.047942
879.795593,-1776.494261,383.047749,10584.944971
879.795923,-2590.720797,-766.095498,10288.862594
879.796252,-3330.926739,-1532.190996,9918.759623
879.796581,-3849.070898,-1532.190996,9844.739029
879.796911,-4071.132681,-842.705048,10066.800811
879.797240,-3256.906145,0.000000,9770.718434
879.797569,-1776.494261,76.609550,9400.615463
879.797899,-666.185348,459.657299,9030.512492
879.798228,0.000000,842.705048,9178.553681
879.798557,0.000000,1149.143247,9548.656652
879.798887,-1184.329507,1762.019645,9474.636058
879.799216,-1554.432478,2374.896044,9844.739029
879.799545,-1554.432478,2374.896044,10066.800811
879.799875,-1184.329507,1762.019645,9696.697840
879.800204,-370.102971,536.266849,8956.491898
879.800533,0.000000,0.000000,8142.265362
879.800863,-296.082377,842.705048,8438.347739
879.801192,0.000000,1532.190996,8808.450710
879.801521,-370.102971,1915.238745,9252.574275
879.801850,-740.205942,1608.800546,9400.615463
879.802180,-1258.350101,1455.581446,9252.574275
879.802509,-1332.370696,459.657299,9474.636058
879.802838,-2072.576638,459.657299,10362.883188
879.803168,-1850.514855,0.000000,10214.842000
879.803497,-1924.535449,-153.219100,9548.656652
879.803826,-1850.514855,-536.266849,9400.615463
879.804156,-1406.391290,-766.095498,9104.533087
879.804485,-1554.432478,0.000000,8808.450710
879.804814,-1036.288319,383.047749,8512.368333
879.805144,-740.205942,919.314598,8734.430116
879.805473,-444.123565,1991.848295,9178.553681
879.805802,-444.123565,2145.067394,10140.821405
879.806132,-666.185348,1532.190996,9992.780217
879.806461,-1480.411884,2374.896044,9992.780217
879.806790,-1702.473667,2068.457845,9918.759623
879.807120,-1480.411884,919.314598,10288.862594
879.807449,-1406.391290,229.828649,10214.842000
879.807778,-1406.391290,229.828649,9622.677246
879.808108,-1628.453072,-229.828649,9326.594869
879.808437,-1998.556043,-306.438199,9474.636058
879.808766,-1702.473667,0.000000,10214.842000
879.809095,-1110.308913,-229.828649,10881.027347
879.809425,-444.123565,536.266849,10288.862594
879.809754,-370.102971,383.047749,9770.718434
879.810083,222.061783,919.314598,10214.842000
879.810413,0.000000,1532.190996,10362.883188
879.810742,-296.082377,1608.800546,9696.697840
879.811071,-296.082377,1378.971896,9252.574275
879.811401,0.000000,2221.676944,8734.430116
879.811730,74.020594,1915.238745,9030.512492
879.812059,0.000000,1302.362347,8586.388927
879.812389,-592.164754,1532.190996,8216.285956
879.812718,-962.267725,1685.410096,8142.265362
879.813047,-1258.350101,1608.800546,8956.491898
879.813377,-814.226536,2068.457845,9770.718434
879.813706,-1998.556043,1302.362347,9622.677246
879.814035,-2664.741391,842.705048,9252.574275
879.814365,-2590.720797,612.876398,9252.574275
879.814694,-2220.617826,766.095498,9474.636058
879.815023,-1406.391290,229.828649,9178.553681
879.815352,-1850.514855,0.000000,9178.553681
879.815682,-1406.391290,383.047749,9104.533087
879.816011,-814.226536,689.485948,9178.553681
879.816340,-592.164754,1072.533697,8882.471304
879.816670,-370.102971,1149.143247,8512.368333
879.816999,-148.041188,1455.581446,8512.368333
879.817328,296.082377,1762.019645,9252.574275
879.817658,222.061783,2145.067394,9844.739029
879.817987,-370.102971,2451.505594,10362.883188
879.818316,-1406.391290,2528.115143,10066.800811
879.818646,-1850.514855,2681.334243,10288.862594
879.818975,-1850.514855,1225.752797,10658.965565
879.819304,-1924.535449,383.047749,10658.965565
879.819634,-2442.679609,0.000000,9844.739029
879.819963,-2590.720797,-306.438199,9696.697840
879.820292,-3330.926739,-536.266849,9696.697840
879.820622,-2960.823768,-842.705048,10362.883188
879.820951,-2220.617826,-536.266849,10658.965565
879.821280,-1332.370696,0.000000,10288.862594
879.821610,-592.164754,306.438199,9770.718434
879.821939,296.082377,842.705048,9326.594869
879.822268,592.164754,919.314598,9474.636058
879.822597,222.061783,1685.410096,9252.574275
879.822927,-148.041188,2298.286494,9104.533087
879.823256,0.000000,2451.505594,9548.656652
879.823585,148.041188,2068.457845,9474.636058
879.823915,814.226536,1455.581446,8882.471304
879.824244,148.041188,995.924147,8216.285956
879.824573,74.020594,842.705048,8290.306550
879.824903,74.020594,842.705048,8882.471304
879.825232,74.020594,1225.752797,9770.718434
879.825561,-740.205942,1455.581446,9992.780217
879.825891,-1628.453072,1225.752797,9474.636058
879.826220,-2072.576638,1072.533697,9474.636058
879.826549,-1850.514855,842.705048,9844.739029
879.826879,-1702.473667,383.047749,9770.718434
879.827208,-1850.514855,306.438199,8734.430116
879.827537,-2146.597232,0.000000,9178.553681
879.827867,-1924.535449,0.000000,9030.512492
879.828196,-1776.494261,306.438199,8660.409521
879.828525,-1480.411884,383.047749,8364.327145
879.828855,-296.082377,229.828649,8290.306550
879.829184,-222.061783,1455.581446,9326.594869
879.829513,296.082377,2145.067394,10140.821405
879.829842,74.020594,2451.505594,10510.924376
879.830172,-814.226536,2681.334243,10066.800811
879.830501,-1554.432478,2604.724693,9622.677246
879.830830,-1036.288319,1532.190996,10510.924376
879.831160,-1332.370696,766.095498,10732.986159
879.831489,-2294.638420,153.219100,10214.842000
879.831818,-3034.844362,-459.657299,9622.677246
879.832148,-2590.720797,-1685.410096,10066.800811
879.832477,-2368.659014,-919.314598,10510.924376
879.832806,-2442.679609,-153.219100,10584.944971
879.833136,-1554.432478,229.828649,9770.718434
879.833465,0.000000,689.485948,9474.636058
879.833794,666.185348,919.314598,9474.636058
879.834124,1036.288319,1378.971896,9548.656652
879.834453,74.020594,2145.067394,9474.636058
879.834782,-1036.288319,2528.115143,9252.574275
879.835112,-1184.329507,2451.505594,9252.574275
879.835441,-1110.308913,1685.410096,9474.636058
879.835770,-814.226536,306.438199,8586.388927
879.836100,-1184.329507,0.000000,8438.347739
879.836429,-592.164754,229.828649,8512.368333
879.836758,-518.144159,1149.143247,9326.594869
879.837087,-444.123565,1608.800546,9844.739029
879.837417,-666.185348,1302.362347,9548.656652
879.837746,-1332.370696,1532.190996,9030.512492
879.838075,-1258.350101,1302.362347,9622.677246
879.838405,-888.247130,1225.752797,10066.800811
879.838734,-1110.308913,536.266849,9474.636058
879.839063,-1702.473667,153.219100,8956.491898
879.839393,-1776.494261,153.219100,8586.388927
879.839722,-1480.411884,-306.438199,8438.347739
879.840051,-1406.391290,-153.219100,8068.244768
879.840381,-1184.329507,0.000000,8512.368333
879.840710,-962.267725,612.876398,8512.368333
879.841039,-222.061783,1685.410096,9770.718434
879.841369,-444.123565,2221.676944,9992.780217
879.841698,-666.185348,2528.115143,10584.944971
879.842027,-1554.432478,2681.334243,10288.862594
879.842357,-1628.453072,2145.067394,10658.965565
879.842686,-1998.556043,1225.752797,10807.006753
879.843015,-1998.556043,459.657299,10288.862594
879.843344,-3182.885551,-383.047749,10288.862594
879.843674,-3627.009116,-766.095498,9548.656652
879.844003,-3182.885551,-1378.971896,9918.759623
879.844332,-2294.638420,-1532.190996,10140.821405
879.844662,-962.267725,-995.924147,10436.903782
879.844991,-222.061783,-153.219100,9474.636058
879.845320,370.102971,76.609550,9844.739029
879.845650,814.226536,1378.971896,10510.924376
879.845979,518.144159,2681.334243,10510.924376
879.846308,-148.041188,2298.286494,9770.718434
879.846638,-444.123565,2757.943793,9474.636058
879.846967,-370.102971,2451.505594,9400.615463
879.847296,-148.041188,1378.971896,9400.615463
879.847626,-296.082377,1072.533697,8808.450710
879.847955,-962.267725,1072.533697,7624.121203
879.848284,-740.205942,1378.971896,8068.244768
879.848614,-370.102971,1225.752797,8956.491898
879.848943,-592.164754,1685.410096,9844.739029
879.849272,-1184.329507,1608.800546,9548.656652
879.849602,-1776.494261,1685.410096,9326.594869
879.849931,-1036.288319,1762.019645,9030.512492
879.850260,-1110.308913,995.924147,9326.594869
879.850589,-592.164754,306.438199,8956.491898
879.850919,-740.205942,383.047749,8290.306550
879.851248,-740.205942,306.438199,7994.224174
879.851577,-592.164754,766.095498,8290.306550
879.851907,0.000000,1225.752797,8068.244768
879.852236,-518.144159,1378.971896,8660.409521
879.852565,-370.102971,1685.410096,9252.574275
879.852895,-296.082377,2221.676944,10288.862594
879.853224,-370.102971,2528.115143,11029.068536
879.853553,-1406.391290,2528.115143,10288.862594
879.853883,-2072.576638,2145.067394,10288.862594
879.854212,-2294.638420,1532.190996,10436.903782
879.854541,-2146.597232,995.924147,10881.027347
879.854871,-2294.638420,76.609550,10436.903782
879.855200,-2368.659014,-766.095498,10066.800811
879.855529,-2886.803174,-766.095498,9622.677246
879.855859,-2886.803174,-689.485948,10066.800811
879.856188,-2220.617826,-612.876398,10288.862594
879.856517,-740.205942,76.609550,10362.883188
879.856847,222.061783,383.047749,9696.697840
879.857176,1480.411884,383.047749,9622.677246
879.857505,1332.370696,1302.362347,10140.821405
879.857834,888.247130,2068.457845,10140.821405
879.858164,-370.102971,2834.553343,9992.780217
879.858493,-1554.432478,2604.724693,9770.718434
879.858822,-1110.308913,3140.991542,9548.656652
879.859152,-1036.288319,1685.410096,9104.533087
879.859481,-1110.308913,842.705048,7920.203579
879.859810,-1258.350101,612.876398,7624.121203
879.860140,-1850.514855,612.876398,7550.100608
879.860469,-1776.494261,689.485948,8142.265362
879.860799,-2072.576638,995.924147,8808.450710
879.861128,-2368.659014,459.657299,9030.512492
879.861457,-2368.659014,383.047749,9548.656652
879.861787,-1850.514855,0.000000,10214.842000
879.862116,-1850.514855,-306.438199,10436.903782
879.862446,-888.247130,76.609550,9622.677246
879.862775,-370.102971,229.828649,9400.615463
879.863105,444.123565,-153.219100,8956.491898
879.863434,1036.288319,76.609550,8734.430116
879.863763,1036.288319,919.314598,8586.388927
879.864093,814.226536,2145.067394,8808.450710
879.864422,814.226536,1838.629195,9252.574275
879.864752,518.144159,2374.896044,9844.739029
879.865081,0.000000,1915.238745,10807.006753
879.865411,-962.267725,1991.848295,10807.006753
879.865740,-2294.638420,1838.629195,10362.883188
879.866069,-3108.864956,1455.581446,10362.883188
879.866399,-3256.906145,383.047749,10140.821405
879.866728,-3256.906145,-306.438199,10066.800811
879.867058,-3256.906145,-995.924147,9992.780217
879.867387,-3404.947333,-1225.752797,10140.821405
879.867717,-3256.906145,-842.705048,10362.883188
879.868046,-2960.823768,0.000000,10510.924376
879.868375,-1628.453072,229.828649,10288.862594
879.868705,-148.041188,459.657299,9696.697840
879.869034,888.247130,919.314598,9474.636058
879.869364,1406.391290,1149.143247,9696.697840
879.869693,1110.308913,2221.676944,9548.656652
879.870023,518.144159,2911.162892,9548.656652
879.870352,0.000000,2451.505594,9326.594869
879.870681,370.102971,2298.286494,9178.553681
879.871011,444.123565,2221.676944,9326.594869
879.871340,148.041188,1532.190996,8586.388927
879.871670,-444.123565,1378.971896,8364.327145
879.871999,-962.267725,1378.971896,8216.285956
879.872329,-962.267725,689.485948,8956.491898
879.872658,-1258.350101,1608.800546,9474.636058
879.872987,-1998.556043,612.876398,9474.636058
879.873317,-2738.761985,919.314598,9178.553681
879.873646,-2516.700203,689.485948,9104.533087
879.873976,-2220.617826,383.047749,9252.574275
879.874305,-1258.350101,383.047749,9400.615463
879.874635,-1258.350101,-383.047749,8438.347739
879.874964,-1406.391290,153.219100,8660.409521
879.875293,-1258.350101,459.657299,9104.533087
879.875623,-1554.432478,689.485948,9252.574275
879.875952,-1332.370696,1378.971896,9252.574275
879.876282,-1184.329507,1608.800546,9030.512492
879.876611,0.000000,1532.190996,10807.006753
879.876941,-370.102971,1991.848295,10881.027347
879.877270,-814.226536,1838.629195,10436.903782
879.877599,-1554.432478,1455.581446,9474.636058
879.877929,-1406.391290,919.314598,9622.677246
879.878258,-1036.288319,1225.752797,10510.924376
879.878588,-888.247130,76.609550,10436.903782
879.878917,-1702.473667,-229.828649,9770.718434
879.879247,-2220.617826,-459.657299,9844.739029
879.879576,-2442.679609,-1532.190996,10362.883188
879.879905,-2738.761985,-383.047749,11473.192101
879.880235,-2368.659014,229.828649,11177.109724
879.880564,-1480.411884,0.000000,10214.842000
879.880894,-370.102971,0.000000,9770.718434
879.881223,444.123565,0.000000,9622.677246
879.881553,592.164754,383.047749,9548.656652
879.881882,-148.041188,995.924147,8956.491898
879.882211,-370.102971,2374.896044,9178.553681
879.882541,148.041188,2987.772442,9474.636058
879.882870,370.102971,1762.019645,8956.491898
879.883200,592.164754,1532.190996,8290.306550
879.883529,0.000000,1149.143247,7550.100608
879.883859,-148.041188,1149.143247,8364.327145
879.884188,-296.082377,1378.971896,8956.491898
879.884517,-1036.288319,1378.971896,9474.636058
879.884847,-1850.514855,842.705048,9178.553681
879.885176,-1850.514855,995.924147,9326.594869
879.885506,-1554.432478,612.876398,9770.718434
879.885835,-1184.329507,689.485948,9770.718434
879.886165,-814.226536,689.485948,9474.636058
879.886494,-444.123565,306.438199,8586.388927
879.886823,296.082377,383.047749,8808.450710
879.887153,74.020594,995.924147,8660.409521
879.887482,-148.041188,1762.019645,8660.409521
879.887812,-888.247130,1532.190996,8734.430116
879.888141,-814.226536,1915.238745,9252.574275
879.888471,-592.164754,2681.334243,10214.842000
879.888800,-518.144159,2068.457845,10881.027347
879.889129,-1628.453072,2298.286494,10584.944971
879.889459,-2516.700203,2145.067394,9918.759623
879.889788,-2368.659014,1072.533697,10140.821405
879.890118,-1554.432478,1225.752797,11103.089130
879.890447,-2072.576638,766.095498,10362.883188
879.890777,-2664.741391,0.000000,10140.821405
879.891106,-3034.844362,-383.047749,9844.739029
879.891435,-2738.761985,0.000000,9992.780217
879.891765,-2072.576638,0.000000,10288.862594
879.892094,-888.247130,612.876398,9622.677246
879.892424,-148.041188,689.485948,8956.491898
879.892753,814.226536,459.657299,8882.471304
879.893083,1480.411884,842.705048,9326.594869
879.893412,1036.288319,1685.410096,9622.677246
879.893741,0.000000,1991.848295,9474.636058
879.894071,-888.247130,2834.553343,9770.718434
879.894400,-592.164754,2451.505594,10066.800811
879.894730,-444.123565,1455.581446,9770.718434
879.895059,-592.164754,766.095498,8882.471304
879.895389,-888.247130,1072.533697,7994.224174
879.895718,-740.205942,153.219100,8290.306550
879.896047,-666.185348,842.705048,8734.430116
879.896377,-814.226536,919.314598,9252.574275
879.896706,-1480.411884,919.314598,8956.491898
879.897036,-1776.494261,995.924147,8956.491898
879.897365,-1258.350101,842.705048,9030.512492
879.897695,-1258.350101,612.876398,10066.800811
879.898024,-1036.288319,383.047749,9992.780217
879.898353,-1036.288319,0.000000,9548.656652
879.898683,-962.267725,0.000000,9622.677246
879.899012,-962.267725,383.047749,9326.594869
879.899342,-888.247130,612.876398,9326.594869
879.899671,-592.164754,306.438199,9178.553681
879.900001,-222.061783,766.095498,9326.594869
879.900330,0.000000,1532.190996,9474.636058
879.900659,444.123565,1762.019645,10140.821405
879.900989,0.000000,1915.238745,10362.883188
879.901318,-1554.432478,2374.896044,9844.739029
879.901648,-1850.514855,1838.629195,10140.821405
879.901977,-1480.411884,689.485948,10436.903782
879.902307,-1702.473667,153.219100,10510.924376
879.902636,-2368.659014,-153.219100,10066.800811
879.902965,-2442.679609,-995.924147,9918.759623
879.903295,-2886.803174,-766.095498,9844.739029
879.903624,-2368.659014,0.000000,10066.800811
879.903954,-1258.350101,536.266849,9770.718434
879.904283,-148.041188,229.828649,9104.533087
879.904613,814.226536,536.266849,9104.533087
879.904942,740.205942,1302.362347,9252.574275
879.905271,296.082377,2068.457845,9474.636058
879.905601,-740.205942,2374.896044,9474.636058
879.905930,-962.267725,2145.067394,9844.739029
879.906260,-1332.370696,2451.505594,9770.718434
879.906589,-962.267725,1532.190996,9770.718434
879.906918,-888.247130,919.314598,8882.471304
879.907248,-740.205942,919.314598,7994.224174
879.907577,-148.041188,919.314598,7994.224174
879.907907,74.020594,1378.971896,8734.430116
879.908236,222.061783,1378.971896,9252.574275
879.908566,-592.164754,1762.019645,9326.594869
879.908895,-1110.308913,1838.629195,9474.636058
879.909224,-1850.514855,1838.629195,9696.697840
879.909554,-1554.432478,1149.143247,9992.780217
879.909883,-1110.308913,0.000000,9474.636058
879.910213,-1184.329507,0.000000,9252.574275
879.910542,-1258.350101,0.000000,9474.636058
879.910872,-1406.391290,0.000000,9474.636058
879.911201,-1702.473667,1225.752797,9400.615463
879.911530,-1480.411884,1608.800546,8808.450710
879.911860,-1110.308913,1838.629195,9104.533087
879.912189,-148.041188,1685.410096,9474.636058
879.912519,0.000000,1608.800546,9918.759623
879.912848,-1036.288319,1685.410096,9844.739029
879.913178,-2220.617826,2374.896044,9252.574275
879.913507,-2590.720797,1302.362347,9622.677246
879.913836,-2738.761985,383.047749,10214.842000
879.914166,-2590.720797,0.000000,10658.965565
879.914495,-2664.741391,-612.876398,9770.718434
879.914825,-2738.761985,-842.705048,9030.512492
879.915154,-2516.700203,-1532.190996,9992.780217
879.915484,-2146.597232,-842.705048,10955.047942
879.915813,-1554.432478,76.609550,11325.150913
879.916142,-962.267725,153.219100,10584.944971
879.916472,-296.082377,995.924147,10436.903782
879.916801,518.144159,383.047749,9918.759623
879.917131,0.000000,536.266849,9474.636058
879.917460,0.000000,919.314598,9104.533087
879.917790,-592.164754,1455.581446,9030.512492
879.918119,-296.082377,1608.800546,9178.553681
879.918448,-296.082377,1608.800546,9326.594869
879.918778,-222.061783,1149.143247,8512.368333
879.919107,-444.123565,766.095498,7772.162391
879.919437,148.041188,689.485948,8364.327145
879.919766,148.041188,1378.971896,9548.656652
879.920096,0.000000,2145.067394,10362.883188
879.920425,-1258.350101,1302.362347,9770.718434
879.920754,-1924.535449,1149.143247,9474.636058
879.921084,-1628.453072,689.485948,9770.718434
879.921413,-1110.308913,612.876398,9918.759623
879.921743,-666.185348,766.095498,9474.636058
879.922072,-888.247130,153.219100,8068.244768
879.922402,-370.102971,0.000000,8438.347739
879.922731,-518.144159,689.485948,8734.430116
879.923060,-666.185348,1608.800546,8882.471304
879.923390,-888.247130,1762.019645,9030.512492
879.923719,-1110.308913,1915.238745,9252.574275
879.924049,-962.267725,2451.505594,9622.677246
879.924378,-814.226536,1991.848295,10214.842000
879.924708,-1480.411884,1762.019645,10066.800811
879.925037,-2146.597232,1608.800546,9770.718434
879.925366,-1924.535449,919.314598,9770.718434
879.925696,-2072.576638,1072.533697,9696.697840
879.926025,-1776.494261,229.828649,10658.965565
879.926355,-1924.535449,306.438199,10436.903782
879.926684,-2072.576638,536.266849,10362.883188
879.927014,-1480.411884,153.219100,10140.821405
879.927343,-444.123565,842.705048,10066.800811
879.927672,148.041188,459.657299,9400.615463
879.928002,370.102971,612.876398,8882.471304
879.928331,814.226536,842.705048,9252.574275
879.928661,740.205942,1762.019645,9474.636058
879.928990,0.000000,2681.334243,9178.553681
879.929320,-1332.370696,2451.505594,8956.491898
879.929649,-1924.535449,2451.505594,9252.574275
879.929978,-1776.494261,2221.676944,9474.636058
879.930308,-1998.556043,1225.752797,9622.677246
879.930637,-2294.638420,766.095498,9326.594869
879.930967,-2590.720797,1072.533697,8882.471304
879.931296,-2368.659014,383.047749,8882.471304
879.931626,-1628.453072,153.219100,9474.636058
879.931955,-814.226536,383.047749,9474.636058
879.932284,-814.226536,612.876398,8882.471304
879.932614,-222.061783,612.876398,8882.471304
879.932943,222.061783,995.924147,9474.636058
879.933273,592.164754,1762.019645,9696.697840
879.933602,888.247130,1072.533697,9326.594869
879.933932,888.247130,995.924147,9400.615463
879.934261,370.102971,995.924147,9696.697840
879.934590,-222.061783,1072.533697,9992.780217
879.934920,-1110.308913,995.924147,9622.677246
879.935249,-1924.535449,766.095498,9326.594869
879.935579,-1924.535449,842.705048,9252.574275
879.935908,-1406.391290,306.438199,9178.553681
879.936238,-1850.514855,842.705048,9326.594869
879.936567,-2220.617826,995.924147,9400.615463
879.936896,-2590.720797,1532.190996,9696.697840
879.937226,-2664.741391,1455.581446,9548.656652
879.937555,-2072.576638,995.924147,10362.883188
879.937885,-2146.597232,383.047749,10362.883188
879.938214,-2516.700203,0.000000,10066.800811
879.938544,-2590.720797,0.000000,10140.821405
879.938873,-2368.659014,-689.485948,10510.924376
879.939202,-1850.514855,-153.219100,10807.006753
879.939532,-814.226536,0.000000,10362.883188
879.939861,-444.123565,383.047749,9474.636058
879.940191,666.185348,153.219100,9326.594869
879.940520,1258.350101,1225.752797,9548.656652
879.940850,1110.308913,1685.410096,9400.615463
879.941179,518.144159,2221.676944,9178.553681
879.941508,0.000000,2374.896044,9400.615463
879.941838,-296.082377,2757.943793,9770.718434
879.942167,-296.082377,2068.457845,9844.739029
879.942497,-888.247130,1532.190996,9326.594869
879.942826,-1184.329507,1302.362347,8808.450710
879.943156,-1332.370696,766.095498,7920.203579
879.943485,-592.164754,306.438199,8882.471304
879.943814,-370.102971,536.266849,9252.574275
879.944144,-888.247130,689.485948,9400.615463
879.944473,-1480.411884,919.314598,9252.574275
879.944803,-1554.432478,1302.362347,9844.739029
879.945132,-1406.391290,1225.752797,9622.677246
879.945462,-740.205942,766.095498,9474.636058
879.945791,-444.123565,1072.533697,9252.574275
879.946120,-370.102971,459.657299,9252.574275
879.946450,-666.185348,459.657299,9030.512492
879.946779,-1628.453072,1532.190996,8734.430116
879.947109,-1776.494261,1149.143247,8586.388927
879.947438,-1480.411884,1225.752797,9178.553681
879.947768,-814.226536,1608.800546,9770.718434
879.948097,-518.144159,2068.457845,10214.842000
879.948426,-1184.329507,1762.019645,8956.491898
879.948756,-1628.453072,1302.362347,9178.553681
879.949085,-1554.432478,1378.971896,9474.636058
879.949415,-1480.411884,842.705048,10436.903782
879.949744,-1924.535449,766.095498,10658.965565
879.950074,-2590.720797,-229.828649,9992.780217
879.950403,-2886.803174,-229.828649,10214.842000
879.950732,-2960.823768,-612.876398,11029.068536
879.951062,-2738.761985,-383.047749,11547.212695
879.951391,-2294.638420,-153.219100,10807.006753
879.951721,-1406.391290,76.609550,9770.718434
879.952050,-740.205942,-383.047749,9104.533087
879.952380,-296.082377,153.219100,9622.677246
879.952709,-370.102971,995.924147,9400.615463
879.953038,-888.247130,1378.971896,9252.574275
879.953368,-1184.329507,2374.896044,9252.574275
879.953697,-962.267725,1838.629195,9400.615463
879.954027,-888.247130,1225.752797,9400.615463
879.954356,-1036.288319,919.314598,9104.533087
879.954686,-1184.329507,995.924147,8882.471304
879.955015,-962.267725,919.314598,8882.471304
879.955344,0.000000,766.095498,9326.594869
879.955674,-592.164754,0.000000,9548.656652
879.956003,-740.205942,383.047749,9548.656652
879.956333,-666.185348,536.266849,9474.636058
879.956662,-666.185348,536.266849,9844.739029
879.956992,-296.082377,995.924147,9918.759623
879.957321,0.000000,766.095498,9696.697840
879.957650,-296.082377,459.657299,9326.594869
879.957980,-222.061783,459.657299,9104.533087
879.958309,-222.061783,1072.533697,8956.491898
879.958639,-518.144159,1225.752797,8956.491898
879.958968,-1406.391290,1378.971896,8512.368333
879.959301,-1258.350101,1762.019645,8808.450710
879.959630,-888.247130,1991.848295,9400.615463
879.959960,-518.144159,1685.410096,9696.697840
879.960289,-962.267725,2221.676944,9400.615463
879.960619,-1702.473667,2145.067394,9474.636058
879.960948,-1628.453072,1302.362347,9770.718434
879.961278,-1036.288319,1302.362347,10510.924376
879.961607,-1406.391290,612.876398,10955.047942
879.961936,-2146.597232,229.828649,10584.944971
879.962266,-2664.741391,1225.752797,10362.883188
879.962595,-2368.659014,383.047749,10288.862594
879.962925,-1332.370696,383.047749,10288.862594
879.963254,-296.082377,383.047749,9474.636058
879.963584,666.185348,459.657299,8808.450710
879.963913,1332.370696,842.705048,9178.553681
879.964243,1184.329507,1685.410096,9178.553681
879.964572,222.061783,2451.505594,9252.574275
879.964902,-740.205942,2604.724693,9622.677246
879.965231,-1406.391290,2604.724693,9844.739029
879.965561,-1628.453072,2374.896044,10066.800811
879.965890,-1702.473667,1532.190996,9474.636058
879.966219,-2072.576638,1072.533697,9178.553681
879.966549,-2294.638420,919.314598,8364.327145
879.966878,-1850.514855,612.876398,8586.388927
879.967208,-1110.308913,842.705048,9104.533087
879.967537,-1110.308913,766.095498,8734.430116
879.967867,-888.247130,1302.362347,8808.450710
879.968196,-1036.288319,919.314598,8956.491898
879.968526,-1036.288319,842.705048,9622.677246
879.968855,-740.205942,766.095498,10214.842000
879.969185,-1258.350101,612.876398,9844.739029
879.969514,-962.267725,383.047749,9918.759623
879.969844,-1406.391290,0.000000,9992.780217
879.970173,-1554.432478,383.047749,9770.718434
879.970502,-1702.473667,459.657299,9104.533087
879.970832,-1554.432478,536.266849,8364.327145
879.971161,-740.205942,919.314598,8882.471304
879.971491,-814.226536,1838.629195,9474.636058
879.971820,-370.102971,1915.238745,9770.718434
879.972150,-740.205942,1991.848295,9474.636058
879.972479,-1036.288319,1991.848295,9104.533087
879.972809,-1332.370696,1149.143247,9474.636058
879.973138,-962.267725,536.266849,10362.883188
879.973468,-1554.432478,1072.533697,10362.883188
879.973797,-2220.617826,229.828649,9844.739029
879.974126,-2516.700203,-766.095498,9474.636058
879.974456,-2442.679609,-1225.752797,10510.924376
879.974785,-2146.597232,-612.876398,10881.027347
879.975115,-1554.432478,-306.438199,10584.944971
879.975444,-666.185348,0.000000,10140.821405
879.975774,74.020594,0.000000,9918.759623
879.976103,666.185348,766.095498,9252.574275
879.976433,740.205942,1302.362347,8660.409521
879.976762,296.082377,1378.971896,9030.512492
879.977092,0.000000,2298.286494,9104.533087
879.977421,0.000000,2911.162892,9400.615463
879.977751,148.041188,1838.629195,9326.594869
879.978080,0.000000,2604.724693,8586.388927
879.978409,-222.061783,1455.581446,8068.244768
879.978739,-296.082377,1225.752797,8512.368333
879.979068,0.000000,1072.533697,9252.574275
879.979398,-592.164754,995.924147,9548.656652
879.979727,-1480.411884,1225.752797,9696.697840
879.980057,-2072.576638,1225.752797,9400.615463
879.980386,-1850.514855,766.095498,10066.800811
879.980716,-1480.411884,459.657299,10140.821405
879.981045,-962.267725,383.047749,9696.697840
879.981375,-814.226536,0.000000,9326.594869
879.981704,-814.226536,-76.609550,9030.512492
879.982034,-962.267725,1072.533697,9104.533087
879.982363,-1480.411884,1685.410096,8660.409521
879.982692,-1258.350101,1302.362347,8512.368333
879.983022,-1110.308913,1685.410096,8882.471304
879.983351,-1258.350101,1838.629195,8808.450710
879.983681,-1406.391290,1991.848295,9326.594869
879.984010,-2072.576638,1685.410096,9474.636058
879.984340,-2294.638420,1991.848295,9622.677246
879.984669,-2146.597232,1838.629195,10288.862594
879.984999,-1924.535449,1225.752797,10584.944971
879.985328,-2294.638420,919.314598,10362.883188
879.985658,-2368.659014,-153.219100,10362.883188
879.985987,-2738.761985,-153.219100,10436.903782
879.986316,-2590.720797,0.000000,10955.047942
879.986646,-1924.535449,-306.438199,10584.944971
879.986975,-1036.288319,-306.438199,9548.656652
879.987305,-592.164754,0.000000,8808.450710
879.987634,296.082377,-459.657299,8586.388927
879.987964,666.185348,76.609550,8512.368333
879.988293,0.000000,1225.752797,8586.388927
879.988623,-592.164754,2298.286494,8586.388927
879.988952,-1258.350101,2451.505594,9030.512492
879.989282,-962.267725,2145.067394,9548.656652
879.989611,-666.185348,1685.410096,9400.615463
879.989941,-1036.288319,1302.362347,9030.512492
879.990270,-888.247130,1072.533697,8808.450710
879.990599,-1110.308913,153.219100,9178.553681
879.990929,-1110.308913,383.047749,9918.759623
879.991258,-1332.370696,536.266849,10066.800811
879.991588,-1332.370696,153.219100,9770.718434
879.991917,-1184.329507,-153.219100,9252.574275
879.992247,-666.185348,229.828649,9622.677246
879.992576,0.000000,0.000000,9770.718434
879.992906,296.082377,229.828649,9400.615463
879.993235,370.102971,0.000000,9400.615463
879.993565,148.041188,306.438199,9622.677246
879.993894,-222.061783,536.266849,9400.615463
879.994224,-1036.288319,919.314598,9326.594869
879.994553,-1480.411884,919.314598,9474.636058
879.994882,-1406.391290,1149.143247,9770.718434
879.995212,-1036.288319,1302.362347,10066.800811
879.995541,-592.164754,1685.410096,10288.862594
879.995871,-1406.391290,1072.533697,9326.594869
879.996200,-1850.514855,1455.581446,9104.533087
879.996530,-1406.391290,1149.143247,9474.636058
879.996859,-1110.308913,1225.752797,10362.883188
879.997189,-1332.370696,995.924147,10436.903782
879.997518,-1850.514855,689.485948,9992.780217
879.997848,-1776.494261,0.000000,9844.739029
879.998177,-1554.432478,0.000000,10066.800811
879.998506,-814.226536,612.876398,9844.739029
879.998836,-296.082377,919.314598,9030.512492
879.999165,148.041188,1378.971896,8586.388927
879.999495,370.102971,842.705048,8586.388927
879.999824,148.041188,1302.362347,8734.430116
880.000154,-666.185348,2604.724693,9178.553681
880.000483,-1628.453072,2604.724693,9252.574275
880.000813,-2368.659014,2681.334243,9770.718434
880.001142,-1998.556043,2451.505594,9844.739029
880.001472,-2294.638420,1532.190996,9844.739029
880.001801,-2368.659014,766.095498,9252.574275
880.002131,-2072.576638,536.266849,8734.430116
880.002460,-1184.329507,306.438199,8734.430116
880.002789,0.000000,459.657299,9548.656652
880.003119,0.000000,612.876398,9252.574275
880.003448,0.000000,1302.362347,9104.533087
880.003778,296.082377,1225.752797,9178.553681
880.004107,444.123565,1532.190996,9622.677246
880.004437,888.247130,1608.800546,9844.739029
880.004766,444.123565,919.314598,9474.636058
880.005096,0.000000,153.219100,9474.636058
880.005425,-444.123565,459.657299,9992.780217
880.005755,-1480.411884,919.314598,10140.821405
880.006084,-1998.556043,842.705048,9548.656652
880.006414,-2886.803174,229.828649,9252.574275
880.006743,-2368.659014,919.314598,9400.615463
880.007072,-1924.535449,1149.143247,9400.615463
880.007402,-1480.411884,1072.533697,9474.636058
880.007731,-1924.535449,1455.581446,9104.533087
880.008061,-2146.597232,2068.457845,8660.409521
880.008390,-1850.514855,1532.190996,9474.636058
880.008720,-1554.432478,689.485948,9770.718434
880.009049,-1702.473667,153.219100,10066.800811
880.009379,-2146.597232,-229.828649,10140.821405
880.009708,-1554.432478,-612.876398,10288.862594
880.010038,-1406.391290,-766.095498,10510.924376
880.010367,-1332.370696,-459.657299,10510.924376
880.010696,-518.144159,0.000000,9770.718434
880.011026,592.164754,0.000000,9326.594869
880.011355,1924.535449,306.438199,9696.697840
880.011685,1850.514855,1378.971896,9474.636058
880.012014,888.247130,2298.286494,9326.594869
880.012344,74.020594,2451.505594,9474.636058
880.012673,0.000000,2451.505594,9770.718434
880.013003,0.000000,2374.896044,9844.739029
880.013332,-444.123565,1455.581446,9474.636058
880.013662,-1332.370696,1072.533697,8512.368333
880.013991,-1480.411884,536.266849,7920.203579
880.014321,-1332.370696,0.000000,8512.368333
880.014650,-888.247130,76.609550,9326.594869
880.014979,-1110.308913,459.657299,9178.553681
880.015309,-1258.350101,1225.752797,9474.636058
880.015638,-1702.473667,1225.752797,9252.574275
880.015968,-1554.432478,919.314598,9622.677246
880.016297,-814.226536,1225.752797,10140.821405
880.016627,-592.164754,1608.800546,9770.718434
880.016956,-962.267725,1302.362347,9104.533087
880.017286,-1036.288319,459.657299,9400.615463
880.017615,-1110.308913,459.657299,9252.574275
880.017945,-1554.432478,459.657299,8882.471304
880.018274,-1702.473667,383.047749,8586.388927
880.018604,-1110.308913,995.924147,8808.450710
880.018933,-222.061783,1378.971896,9548.656652
880.019262,74.020594,1608.800546,9918.759623
880.019592,-888.247130,1838.629195,9400.615463
880.019921,-1628.453072,2451.505594,9548.656652
880.020251,-1628.453072,2374.896044,9918.759623
880.020580,-1554.432478,1532.190996,10955.047942
880.020910,-2146.597232,766.095498,11029.068536
880.021239,-2960.823768,-536.266849,10362.883188
880.021569,-3330.926739,-995.924147,9770.718434
880.021898,-3182.885551,-536.266849,9770.718434
880.022228,-2072.576638,-459.657299,10066.800811
880.022557,-1406.391290,0.000000,9252.574275
880.022886,-518.144159,0.000000,8512.368333
880.023216,0.000000,306.438199,8956.491898
880.023545,0.000000,1455.581446,9400.615463
880.023875,-518.144159,2374.896044,10140.821405
880.024204,-1776.494261,2528.115143,9844.739029
880.024534,-1998.556043,2451.505594,10066.800811
880.024863,-1406.391290,1455.581446,10140.821405
880.025193,-814.226536,689.485948,9918.759623
880.025522,-888.247130,306.438199,8586.388927
880.025852,-592.164754,76.609550,7846.182985
880.026181,148.041188,-153.219100,7994.224174
880.026511,888.247130,459.657299,9104.533087
880.026840,888.247130,919.314598,9844.739029
880.027169,518.144159,1762.019645,9622.677246
880.027499,0.000000,1608.800546,9918.759623
880.027828,-592.164754,1225.752797,10066.800811
880.028158,-444.123565,689.485948,10658.965565
880.028487,-666.185348,536.266849,10362.883188
880.028817,-888.247130,-153.219100,9992.780217
880.029146,-1480.411884,-689.485948,9400.615463
880.029476,-1554.432478,0.000000,9474.636058
880.029805,-1924.535449,0.000000,9178.553681
880.030135,-1628.453072,153.219100,8512.368333
880.030464,-962.267725,1072.533697,8438.347739
880.030794,222.061783,1608.800546,9178.553681
880.031123,0.000000,1532.190996,9474.636058
880.031452,-592.164754,1838.629195,9474.636058
880.031782,-1480.411884,2604.724693,9252.574275
880.032111,-1480.411884,2298.286494,9992.780217
880.032441,-1258.350101,1838.629195,10436.903782
880.032770,-1184.329507,1072.533697,10510.924376
880.033100,-1776.494261,0.000000,9844.739029
880.033429,-2220.617826,-689.485948,9770.718434
880.033759,-1998.556043,-536.266849,10214.842000
880.034088,-1628.453072,76.609550,10214.842000
880.034418,-962.267725,229.828649,9474.636058
880.034747,0.000000,459.657299,9178.553681
880.035077,370.102971,383.047749,9104.533087
880.035406,592.164754,1378.971896,9400.615463
880.035735,-222.061783,2221.676944,9400.615463
880.036065,-1036.288319,2604.724693,9326.594869
880.036394,-1036.288319,2987.772442,9918.759623
880.036724,-814.226536,2451.505594,10066.800811
880.037053,-740.205942,1455.581446,9696.697840
880.037383,-1258.350101,995.924147,9030.512492
880.037712,-1554.432478,1302.362347,8142.265362
880.038042,-1332.370696,1072.533697,8882.471304
880.038371,-740.205942,1225.752797,9548.656652
880.038701,-888.247130,1072.533697,9326.594869
880.039030,-1184.329507,689.485948,8956.491898
880.039359,-1258.350101,76.609550,9252.574275
880.039689,-1480.411884,229.828649,10214.842000
880.040018,-1554.432478,766.095498,10436.903782
880.040348,-1332.370696,766.095498,10066.800811
880.040677,-888.247130,612.876398,9400.615463
880.041007,-518.144159,76.609550,9178.553681
880.041336,-296.082377,383.047749,9030.512492
880.041666,-592.164754,919.314598,8808.450710
880.041995,-666.185348,1072.533697,8438.347739
880.042325,-518.144159,1302.362347,8512.368333
880.042654,-222.061783,1532.190996,9400.615463
880.042984,0.000000,1608.800546,9992.780217
880.043313,-1110.308913,1838.629195,9474.636058
880.043642,-1850.514855,2145.067394,9474.636058
880.043972,-1702.473667,1608.800546,9992.780217
880.044301,-1628.453072,1149.143247,10658.965565
880.044631,-1850.514855,919.314598,10436.903782
880.044960,-2442.679609,306.438199,9400.615463
880.045290,-2738.761985,-842.705048,9696.697840
880.045619,-2738.761985,-612.876398,10362.883188
880.045949,-2146.597232,-612.876398,10807.006753
880.046278,-1628.453072,-383.047749,9918.759623
880.046608,-814.226536,0.000000,8882.471304
880.046937,740.205942,0.000000,9474.636058
880.047267,1332.370696,766.095498,9548.656652
880.047596,1110.308913,1149.143247,9178.553681
880.047925,444.123565,1762.019645,9400.615463
880.048255,0.000000,3294.210641,9770.718434
880.048584,444.123565,2987.772442,10214.842000
880.048914,296.082377,2298.286494,10214.842000
880.049243,0.000000,1915.238745,9252.574275
880.049573,-592.164754,1225.752797,8438.347739
880.049902,-296.082377,612.876398,9178.553681
880.050232,-814.226536,383.047749,9622.677246
880.050561,-1480.411884,842.705048,9474.636058
880.050891,-2368.659014,153.219100,9252.574275
880.051220,-2220.617826,229.828649,8882.471304
880.051549,-1702.473667,536.266849,9326.594869
880.051879,-1110.308913,76.609550,9770.718434
880.052208,-666.185348,229.828649,9030.512492
880.052538,-814.226536,919.314598,8808.450710
880.052867,-1110.308913,459.657299,8956.491898
880.053197,-1110.308913,995.924147,9400.615463
880.053526,-1184.329507,1149.143247,9252.574275
880.053856,-1184.329507,919.314598,9474.636058
880.054185,-1184.329507,995.924147,9400.615463
880.054515,-740.205942,1685.410096,10140.821405
880.054844,-666.185348,1685.410096,10288.862594
880.055174,-1184.329507,1838.629195,9918.759623
880.055503,-1332.370696,2604.724693,9326.594869
880.055832,-1332.370696,1685.410096,9696.697840
880.056162,-888.247130,1072.533697,10510.924376
880.056491,-1480.411884,919.314598,10584.944971
880.056821,-2368.659014,383.047749,10140.821405
880.057150,-2664.741391,0.000000,9696.697840
880.057480,-2368.659014,-689.485948,9918.759623
880.057809,-1998.556043,-612.876398,9770.718434
880.058139,-1258.350101,-536.266849,8808.450710
880.058468,-740.205942,-383.047749,8216.285956
880.058798,0.000000,612.876398,8512.368333
880.059127,592.164754,1302.362347,9992.780217
880.059457,-444.123565,2451.505594,10288.862594
880.059786,-1036.288319,2681.334243,9992.780217
880.060115,-1480.411884,2987.772442,9992.780217
880.060445,-666.185348,2298.286494,10288.862594
880.060774,-1036.288319,1378.971896,9844.739029
880.061104,-814.226536,766.095498,9252.574275
880.061433,-1332.370696,229.828649,8216.285956
880.061763,-1036.288319,-153.219100,8438.347739
880.062092,-518.144159,-306.438199,9178.553681
880.062422,-1258.350101,153.219100,9400.615463
880.062751,-1184.329507,153.219100,9178.553681
880.063081,-1258.350101,766.095498,8956.491898
880.063410,-370.102971,536.266849,9770.718434
880.063740,444.123565,689.485948,10140.821405
880.064069,370.102971,1072.533697,9770.718434
880.064399,-148.041188,459.657299,9326.594869
880.064729,-444.123565,612.876398,9548.656652
880.065058,-962.267725,766.095498,9548.656652
880.065388,-1406.391290,689.485948,9326.594869
880.065717,-1628.453072,383.047749,8956.491898
880.066047,-1480.411884,995.924147,8586.388927
880.066376,-814.226536,1072.533697,9252.574275
880.066706,-518.144159,995.924147,9696.697840
880.067035,-1036.288319,1532.190996,9474.636058
880.067365,-1702.473667,1838.629195,9474.636058
880.067694,-1776.494261,2604.724693,9696.697840
880.068024,-1480.411884,1685.410096,10732.986159
880.068353,-2072.576638,766.095498,10584.944971
880.068683,-3108.864956,229.828649,9844.739029
880.069012,-3404.947333,-306.438199,9474.636058
880.069342,-2812.782580,-766.095498,9474.636058
880.069671,-1924.535449,-1225.752797,9622.677246
880.070001,-1480.411884,-919.314598,9326.594869
880.070330,-666.185348,-612.876398,9622.677246
880.070660,518.144159,0.000000,10140.821405
880.070989,1036.288319,1685.410096,10436.903782
880.071319,370.102971,2451.505594,10214.842000
880.071648,74.020594,2987.772442,10214.842000
880.071978,296.082377,3524.039291,10140.821405
880.072307,592.164754,3294.210641,10214.842000
880.072637,222.061783,2604.724693,9326.594869
880.072967,-592.164754,1762.019645,8290.306550
880.073296,-814.226536,689.485948,7846.182985
880.073626,-740.205942,306.438199,7994.224174
880.073955,-814.226536,306.438199,8586.388927
880.074285,-1332.370696,153.219100,8882.471304
880.074614,-1998.556043,1225.752797,8734.430116
880.074944,-2442.679609,536.266849,8660.409521
880.075273,-1924.535449,1072.533697,9844.739029
880.075603,-1480.411884,1225.752797,9992.780217
880.075932,-1480.411884,1225.752797,9548.656652
880.076262,-1258.350101,1302.362347,9252.574275
880.076591,-1110.308913,919.314598,9474.636058
880.076921,-1554.432478,1378.971896,9474.636058
880.077250,-1924.535449,1149.143247,8882.471304
880.077580,-1480.411884,612.876398,8512.368333
880.077909,-814.226536,1225.752797,8586.388927
880.078239,148.041188,1762.019645,9178.553681
880.078568,148.041188,1685.410096,9696.697840
880.078898,-222.061783,2298.286494,9474.636058
880.079227,-1258.350101,2298.286494,9474.636058
880.079557,-1184.329507,1991.848295,10436.903782
880.079886,-740.205942,1225.752797,11325.150913
880.080216,-1628.453072,229.828649,11399.171507
880.080545,-2812.782580,0.000000,10658.965565
880.080875,-3108.864956,-842.705048,10362.883188
880.081205,-2516.700203,-919.314598,10658.965565
880.081534,-1258.350101,-612.876398,10436.903782
880.081864,-296.082377,-306.438199,9252.574275
880.082193,518.144159,0.000000,8956.491898
880.082523,1184.329507,536.266849,9178.553681
880.082852,1110.308913,1762.019645,9696.697840
880.083182,74.020594,3140.991542,10066.800811
880.083511,-888.247130,2987.772442,9918.759623
880.083841,-1110.308913,3140.991542,10140.821405
880.084170,-888.247130,2145.067394,9992.780217
880.084500,-740.205942,689.485948,9400.615463
880.084829,-1184.329507,-229.828649,8586.388927
880.085159,-1628.453072,-153.219100,7994.224174
880.085488,-1406.391290,0.000000,7846.182985
880.085818,-740.205942,766.095498,8808.450710
880.086147,-666.185348,842.705048,9030.512492
880.086477,-814.226536,919.314598,8956.491898
880.086806,-1184.329507,1072.533697,8882.471304
880.087136,-592.164754,919.314598,9548.656652
880.087465,-296.082377,995.924147,10066.800811
880.087795,-592.164754,1072.533697,9770.718434
880.088124,-1258.350101,689.485948,9400.615463
880.088454,-1110.308913,229.828649,9326.594869
880.088783,-888.247130,153.219100,9178.553681
880.089113,-1332.370696,536.266849,8882.471304
880.089443,-1480.411884,536.266849,8882.471304
880.089772,-1184.329507,1378.971896,9104.533087
880.090102,-814.226536,1991.848295,9770.718434
880.090431,-740.205942,2298.286494,9992.780217
880.090761,-1332.370696,2145.067394,9548.656652
880.091090,-1776.494261,2145.067394,9548.656652
880.091420,-2072.576638,1072.533697,10288.862594
880.091749,-1924.535449,766.095498,10955.047942
880.092079,-2516.700203,0.000000,10510.924376
880.092408,-3108.864956,-383.047749,10510.924376
880.092738,-2738.761985,-536.266849,10288.862594
880.093067,-2368.659014,-766.095498,10362.883188
880.093397,-1258.350101,-383.047749,10214.842000
880.093726,-296.082377,0.000000,9696.697840
880.094056,444.123565,153.219100,9178.553681
880.094385,888.247130,1225.752797,9548.656652
880.094715,666.185348,1991.848295,9696.697840
880.095044,-222.061783,2451.505594,9474.636058
880.095374,-962.267725,2604.724693,9474.636058
880.095703,-592.164754,2681.334243,9474.636058
880.096033,-888.247130,2068.457845,9696.697840
880.096362,-666.185348,919.314598,9252.574275
880.096692,-1258.350101,536.266849,8364.327145
880.097021,-1628.453072,383.047749,7994.224174
880.097351,-1332.370696,0.000000,8290.306550
880.097681,-888.247130,459.657299,9474.636058
880.098010,-1702.473667,842.705048,9696.697840
880.098340,-2146.597232,995.924147,9400.615463
880.098669,-1776.494261,919.314598,9104.533087
880.098999,-666.185348,229.828649,9326.594869
880.099328,0.000000,536.266849,9326.594869
880.099658,0.000000,459.657299,9178.553681
880.099987,-296.082377,536.266849,8882.471304
880.100317,-222.061783,459.657299,9326.594869
880.100646,-740.205942,1072.533697,9400.615463
880.100976,-962.267725,1455.581446,9548.656652
880.101305,-1924.535449,689.485948,9104.533087
880.101635,-1702.473667,1225.752797,9548.656652
880.101964,-1628.453072,1378.971896,9844.739029
880.102294,-1332.370696,919.314598,10214.842000
880.102623,-1628.453072,1378.971896,9622.677246
880.102953,-1850.514855,842.705048,9400.615463
880.103282,-1628.453072,919.314598,10140.821405
880.103612,-1036.288319,229.828649,10881.027347
880.103941,-1776.494261,153.219100,10807.006753
880.104271,-2220.617826,0.000000,9992.780217
880.104600,-2072.576638,-229.828649,9696.697840
880.104930,-1628.453072,-306.438199,9918.759623
880.105259,-666.185348,-536.266849,10288.862594
880.105589,0.000000,-306.438199,9770.718434
880.105919,0.000000,-153.219100,9918.759623
880.106248,370.102971,459.657299,10288.862594
880.106578,0.000000,1838.629195,10881.027347
880.106907,-518.144159,2528.115143,10436.903782
880.107237,-962.267725,2528.115143,9992.780217
880.107566,-444.123565,2374.896044,9474.636058
880.107896,148.041188,2528.115143,8956.491898
880.108225,74.020594,1532.190996,8660.409521
880.108555,-592.164754,1225.752797,7994.224174
880.108884,-1554.432478,1455.581446,7550.100608
880.109214,-1628.453072,842.705048,8142.265362
880.109543,-1332.370696,536.266849,8586.388927
880.109873,-1184.329507,1455.581446,9104.533087
880.110202,-1628.453072,536.266849,9030.512492
880.110532,-1480.411884,995.924147,9104.533087
880.110861,-1110.308913,1149.143247,9696.697840
880.111191,-370.102971,1455.581446,9992.780217
880.111520,222.061783,1915.238745,9622.677246
880.111850,0.000000,1378.971896,9326.594869
880.112179,0.000000,1302.362347,9326.594869
880.112509,-370.102971,1532.190996,9178.553681
880.112838,-888.247130,1225.752797,8956.491898
880.113168,-888.247130,1378.971896,8956.491898
880.113497,-1184.329507,1378.971896,8808.450710
880.113827,-1258.350101,1378.971896,9548.656652
880.114157,-1628.453072,1149.143247,9622.677246
880.114486,-2146.597232,1378.971896,9622.677246
880.114816,-2146.597232,1991.848295,9770.718434
880.115145,-2294.638420,1455.581446,10362.883188
880.115475,-1702.473667,919.314598,10881.027347
880.115804,-1776.494261,383.047749,10510.924376
880.116134,-2294.638420,-229.828649,9844.739029
880.116463,-2368.659014,-306.438199,10362.883188
880.116793,-2294.638420,-459.657299,10140.821405
880.117122,-1554.432478,76.609550,10436.903782
880.117452,-444.123565,153.219100,9696.697840
880.117781,370.102971,-306.438199,9622.677246
880.118111,740.205942,306.438199,9770.718434
880.118440,-148.041188,1302.362347,9326.594869
880.118770,-296.082377,2145.067394,9474.636058
880.119099,-740.205942,2528.115143,9770.718434
880.119429,-592.164754,2911.162892,9992.780217
880.119758,74.020594,2221.676944,9770.718434
880.120088,-370.102971,842.705048,8956.491898
880.120417,-370.102971,842.705048,7624.121203
880.120747,-1332.370696,306.438199,7550.100608
880.121076,-1110.308913,153.219100,8512.368333
880.121406,-1258.350101,229.828649,9770.718434
880.121735,-1628.453072,689.485948,9770.718434
880.122065,-2072.576638,919.314598,9326.594869
880.122395,-1628.453072,229.828649,9326.594869
880.122724,-888.247130,536.266849,9992.780217
880.123054,-370.102971,1072.533697,10140.821405
880.123383,-222.061783,1225.752797,9622.677246
880.123713,0.000000,919.314598,8956.491898
880.124042,-592.164754,919.314598,9474.636058
880.124372,-962.267725,919.314598,9030.512492
880.124701,-1554.432478,536.266849,8956.491898
880.125031,-1258.350101,766.095498,8882.471304
880.125360,-962.267725,1532.190996,8808.450710
880.125690,-1036.288319,1685.410096,9400.615463
880.126019,-962.267725,1225.752797,9770.718434
880.126349,-1332.370696,1455.581446,9770.718434
880.126678,-1628.453072,1685.410096,9992.780217
880.127008,-1406.391290,1608.800546,10807.006753
880.127337,-1332.370696,1762.019645,11103.089130
880.127667,-1924.535449,459.657299,10955.047942
880.127996,-2220.617826,0.000000,9770.718434
880.128326,-2072.576638,-612.876398,9252.574275
880.128655,-1406.391290,-536.266849,9400.615463
880.128985,-592.164754,-153.219100,9178.553681
880.129314,-370.102971,0.000000,8364.327145
