#time,accel_x,accel_y,accel_z
785.487813,-962.267725,1072.533697,9696.697840
785.488142,-962.267725,1072.533697,9548.656652
785.488472,-1110.308913,919.314598,9696.697840
785.488801,-962.267725,919.314598,9622.677246
785.489130,-888.247130,612.876398,9844.739029
785.489460,-962.267725,842.705048,9622.677246
785.489789,-1184.329507,919.314598,9622.677246
785.490119,-1258.350101,1302.362347,9548.656652
785.490448,-1036.288319,1149.143247,9696.697840
785.490777,-1036.288319,766.095498,9696.697840
785.491107,-1110.308913,995.924147,9548.656652
785.491436,-1036.288319,995.924147,9474.636058
785.491765,-962.267725,1149.143247,9326.594869
785.492095,-1110.308913,1378.971896,9400.615463
785.492424,-962.267725,995.924147,9696.697840
785.492753,-1110.308913,1072.533697,9474.636058
785.493083,-1184.329507,1149.143247,9622.677246
785.493412,-1110.308913,995.924147,9474.636058
785.493741,-962.267725,1378.971896,9326.594869
785.494071,-1110.308913,1149.143247,9474.636058
785.494400,-814.226536,1225.752797,9474.636058
785.494729,-1110.308913,842.705048,9474.636058
785.495059,-962.267725,766.095498,9474.636058
785.495388,-1110.308913,1302.362347,8956.491898
785.495718,-1184.329507,1072.533697,9326.594869
785.496047,-1184.329507,842.705048,9400.615463
785.496376,-1036.288319,1149.143247,9474.636058
785.496706,-1184.329507,995.924147,9400.615463
785.497035,-1406.391290,1225.752797,9400.615463
785.497364,-888.247130,766.095498,9622.677246
785.497694,-814.226536,766.095498,9548.656652
785.498023,-1110.308913,995.924147,9696.697840
785.498352,-1110.308913,842.705048,9548.656652
785.498682,-962.267725,995.924147,9696.697840
785.499011,-1406.391290,919.314598,9400.615463
785.499340,-962.267725,1072.533697,9474.636058
785.499670,-962.267725,919.314598,9770.718434
785.499999,-962.267725,842.705048,9770.718434
785.500328,-888.247130,766.095498,9844.739029
785.500658,-962.267725,1302.362347,9474.636058
785.500987,-814.226536,842.705048,9622.677246
785.501316,-814.226536,842.705048,9696.697840
785.501646,-1110.308913,766.095498,9696.697840
785.501975,-1184.329507,842.705048,9622.677246
785.502305,-1036.288319,1072.533697,9474.636058
785.502634,-814.226536,919.314598,9622.677246
785.502963,-1036.288319,766.095498,9548.656652
785.503293,-1110.308913,689.485948,9474.636058
785.503622,-962.267725,919.314598,9474.636058
785.503951,-962.267725,919.314598,9474.636058
785.504281,-1184.329507,459.657299,9326.594869
785.504610,-1036.288319,919.314598,9400.615463
785.504939,-888.247130,1302.362347,9400.615463
785.505269,-962.267725,919.314598,9474.636058
785.505598,-1184.329507,995.924147,9400.615463
785.505927,-592.164754,1149.143247,9252.574275
785.506257,-1258.350101,1378.971896,9252.574275
785.506586,-1110.308913,919.314598,9252.574275
785.506915,-962.267725,995.924147,9400.615463
785.507245,-1036.288319,919.314598,9400.615463
785.507574,-1110.308913,1685.410096,9696.697840
785.507903,-1036.288319,1225.752797,9474.636058
785.508233,-1036.288319,919.314598,9474.636058
785.508562,-962.267725,919.314598,9548.656652
785.508892,-1036.288319,919.314598,9548.656652
785.509221,-1036.288319,995.924147,9548.656652
785.509550,-814.226536,1072.533697,9104.533087
785.509880,-518.144159,995.924147,9178.553681
785.510209,222.061783,459.657299,9178.553681
785.510538,888.247130,306.438199,9326.594869
785.510868,740.205942,459.657299,9252.574275
785.511197,444.123565,76.609550,9622.677246
785.511526,0.000000,1072.533697,10436.903782
785.511856,-444.123565,1455.581446,10584.944971
785.512185,-740.205942,459.657299,10362.883188
785.512514,-296.082377,459.657299,10140.821405
785.512844,296.082377,383.047749,9622.677246
785.513173,814.226536,153.219100,9326.594869
785.513502,1480.411884,306.438199,9252.574275
785.513832,2294.638420,536.266849,8808.450710
785.514161,3256.906145,1302.362347,8956.491898
785.514491,3627.009116,1225.752797,9400.615463
785.514820,3701.029710,1991.848295,9030.512492
785.515149,3330.926739,1685.410096,9400.615463
785.515479,2590.720797,1072.533697,9844.739029
785.515808,1924.535449,766.095498,10436.903782
785.516137,1406.391290,612.876398,10881.027347
785.516467,1110.308913,-383.047749,10584.944971
785.516796,740.205942,0.000000,10288.862594
785.517125,1184.329507,0.000000,9770.718434
785.517455,1850.514855,-536.266849,9400.615463
785.517784,2812.782580,153.219100,9178.553681
785.518113,3404.947333,1149.143247,9030.512492
785.518443,3701.029710,2221.676944,8882.471304
785.518772,2886.803174,2834.553343,9178.553681
785.519101,2368.659014,2451.505594,9178.553681
785.519431,1184.329507,2451.505594,9622.677246
785.519760,-814.226536,2068.457845,9992.780217
785.520089,-2294.638420,1838.629195,10066.800811
785.520419,-3701.029710,766.095498,9844.739029
785.520748,-3997.112087,229.828649,9326.594869
785.521078,-3256.906145,0.000000,8364.327145
785.521407,-1628.453072,-306.438199,7105.977043
785.521736,296.082377,383.047749,6291.750507
785.522066,1998.556043,0.000000,6661.853478
785.522395,2664.741391,919.314598,8364.327145
785.522724,1406.391290,2604.724693,10436.903782
785.523054,-666.185348,4519.963438,11991.336260
785.523383,-2738.761985,4213.525239,12953.603985
785.523712,-3775.050304,2834.553343,12509.480420
785.524042,-3627.009116,153.219100,12213.398043
785.524371,-3256.906145,-1991.848295,11177.109724
785.524700,-2368.659014,-2681.334243,9622.677246
785.525030,-814.226536,-2604.724693,8586.388927
785.525359,740.205942,-2068.457845,7846.182985
785.525688,2146.597232,-229.828649,8290.306550
785.526018,2960.823768,1532.190996,8512.368333
785.526347,2812.782580,2911.162892,8808.450710
785.526676,2220.617826,4596.572988,9252.574275
785.527006,1110.308913,4673.182538,9548.656652
785.527335,0.000000,3524.039291,10584.944971
785.527665,-1850.514855,2145.067394,10658.965565
785.527994,-3182.885551,536.266849,10584.944971
785.528323,-3627.009116,-766.095498,9770.718434
785.528653,-4071.132681,-2068.457845,9326.594869
785.528982,-3775.050304,-1915.238745,8808.450710
785.529311,-3256.906145,-1532.190996,9104.533087
785.529641,-1554.432478,-1149.143247,8956.491898
785.529970,-370.102971,306.438199,9030.512492
785.530299,0.000000,1532.190996,9178.553681
785.530629,0.000000,2068.457845,9178.553681
785.530958,518.144159,1762.019645,9844.739029
785.531287,518.144159,2145.067394,10510.924376
785.531617,-148.041188,1608.800546,10955.047942
785.531946,-1332.370696,995.924147,10510.924376
785.532275,-1998.556043,229.828649,9844.739029
785.532605,-2146.597232,-383.047749,8956.491898
785.532934,-296.082377,-229.828649,8290.306550
785.533263,1480.411884,306.438199,7476.080014
785.533593,2812.782580,536.266849,6809.894666
785.533922,3923.091493,1225.752797,6661.853478
785.534252,3627.009116,2451.505594,8216.285956
785.534581,2220.617826,3830.477490,10140.821405
785.534910,0.000000,4673.182538,11769.274478
785.535240,-2442.679609,4213.525239,12731.542202
785.535569,-4737.318029,2374.896044,12583.501014
785.535898,-5921.647536,0.000000,12065.356855
785.536228,-6365.771101,-1685.410096,10362.883188
785.536557,-6143.709319,-3294.210641,9030.512492
785.536886,-4885.359217,-3677.258390,8586.388927
785.537216,-3923.091493,-2451.505594,8364.327145
785.537545,-2294.638420,-995.924147,7994.224174
785.537874,-740.205942,612.876398,7920.203579
785.538204,148.041188,2681.334243,7698.141797
785.538533,1554.432478,3907.087040,7698.141797
785.538862,2812.782580,3600.648841,8586.388927
785.539192,3108.864956,4749.792088,9474.636058
785.539521,1776.494261,4060.306139,10066.800811
785.539851,148.041188,2528.115143,11251.130318
785.540180,-1258.350101,2221.676944,12065.356855
785.540509,-2886.803174,1915.238745,11843.295072
785.540839,-3034.844362,0.000000,10955.047942
785.541168,-3182.885551,-1608.800546,9918.759623
785.541497,-2590.720797,-1225.752797,9474.636058
785.541827,-2294.638420,-612.876398,8660.409521
785.542156,-1850.514855,-229.828649,7920.203579
785.542485,-1406.391290,0.000000,7624.121203
785.542815,-1258.350101,1072.533697,8068.244768
785.543144,-1702.473667,1532.190996,9252.574275
785.543473,-2886.803174,2068.457845,9844.739029
785.543803,-3923.091493,1838.629195,9622.677246
785.544132,-3923.091493,842.705048,9400.615463
785.544461,-2590.720797,-229.828649,9548.656652
785.544791,-888.247130,-306.438199,9030.512492
785.545120,444.123565,-306.438199,8290.306550
785.545449,2294.638420,-536.266849,8216.285956
785.545779,3775.050304,536.266849,9400.615463
785.546108,3923.091493,2451.505594,10955.047942
785.546438,2812.782580,3753.867940,11843.295072
785.546767,1998.556043,4826.401637,11843.295072
785.547096,740.205942,4213.525239,11325.150913
785.547426,296.082377,1838.629195,10658.965565
785.547755,-370.102971,-459.657299,10584.944971
785.548084,-1628.453072,-1991.848295,10066.800811
785.548414,-2220.617826,-2068.457845,9104.533087
785.548743,-2590.720797,-2451.505594,8882.471304
785.549072,-2664.741391,-1378.971896,8660.409521
785.549402,-1924.535449,-612.876398,7772.162391
785.549731,-444.123565,-459.657299,7254.018232
785.550060,740.205942,459.657299,7476.080014
785.550390,1036.288319,2911.162892,8660.409521
785.550719,888.247130,4519.963438,8956.491898
785.551048,74.020594,4060.306139,9104.533087
785.551378,-518.144159,3370.820191,10066.800811
785.551707,-1184.329507,2451.505594,10584.944971
785.552036,-2072.576638,1532.190996,10955.047942
785.552366,-3182.885551,229.828649,10881.027347
785.552695,-4145.153275,-536.266849,10584.944971
785.553025,-4145.153275,-612.876398,10214.842000
785.553354,-2516.700203,-842.705048,9770.718434
785.553683,-1554.432478,-1149.143247,9030.512492
785.554013,-666.185348,536.266849,9104.533087
785.554342,-370.102971,1302.362347,9326.594869
785.554671,-740.205942,1762.019645,10066.800811
785.555001,-1628.453072,2451.505594,9992.780217
785.555330,-2368.659014,2681.334243,9992.780217
785.555659,-2812.782580,1378.971896,9474.636058
785.555989,-1628.453072,459.657299,9030.512492
785.556318,-518.144159,0.000000,7920.203579
785.556647,518.144159,-842.705048,7105.977043
785.556976,1628.453072,-536.266849,7031.956449
785.557305,2220.617826,1302.362347,8956.491898
785.557634,1480.411884,3524.039291,10807.006753
785.557964,0.000000,4673.182538,11991.336260
785.558293,-1554.432478,4826.401637,12213.398043
785.558622,-1924.535449,3983.696590,11843.295072
785.558951,-2886.803174,1838.629195,11103.089130
785.559280,-3182.885551,229.828649,9918.759623
785.559609,-3108.864956,-1991.848295,8734.430116
785.559938,-3108.864956,-3064.381992,8290.306550
785.560268,-3404.947333,-2374.896044,7772.162391
785.560597,-2812.782580,-2374.896044,7402.059420
785.560926,-1702.473667,-995.924147,7550.100608
785.561255,148.041188,0.000000,7698.141797
785.561584,1924.535449,1608.800546,7920.203579
785.561913,3108.864956,2528.115143,8290.306550
785.562242,3923.091493,2757.943793,8882.471304
785.562572,2738.761985,4673.182538,10066.800811
785.562901,1258.350101,4443.353888,11325.150913
785.563230,-370.102971,3294.210641,11991.336260
785.563559,-1628.453072,1608.800546,11843.295072
785.563888,-2368.659014,0.000000,11325.150913
785.564217,-3478.967927,-842.705048,10881.027347
785.564546,-3478.967927,-1302.362347,10140.821405
785.564876,-2960.823768,-2451.505594,8956.491898
785.565205,-2516.700203,-1915.238745,8586.388927
785.565534,-1554.432478,-536.266849,8734.430116
785.565863,-1258.350101,612.876398,9104.533087
785.566192,-1850.514855,1225.752797,9770.718434
785.566521,-2664.741391,1915.238745,9474.636058
785.566851,-2812.782580,1762.019645,9474.636058
785.567180,-2072.576638,1378.971896,9622.677246
785.567509,-1036.288319,766.095498,9030.512492
785.567838,-296.082377,76.609550,8290.306550
785.568167,888.247130,-612.876398,8216.285956
785.568496,1850.514855,0.000000,8734.430116
785.568825,2368.659014,1455.581446,10066.800811
785.569155,2072.576638,3140.991542,11251.130318
785.569484,666.185348,4060.306139,11769.274478
785.569813,0.000000,4290.134789,11991.336260
785.570142,-740.205942,3140.991542,11547.212695
785.570471,-1332.370696,1838.629195,10658.965565
785.570800,-1702.473667,383.047749,9030.512492
785.571129,-1480.411884,-1072.533697,8068.244768
785.571459,-2368.659014,-1991.848295,7994.224174
785.571788,-2590.720797,-1762.019645,7698.141797
785.572117,-2886.803174,-1378.971896,7698.141797
785.572446,-2442.679609,-229.828649,7624.121203
785.572775,-1776.494261,842.705048,7476.080014
785.573104,-296.082377,2068.457845,7994.224174
785.573433,592.164754,2374.896044,7994.224174
785.573763,1110.308913,2757.943793,8586.388927
785.574092,444.123565,3447.429741,9770.718434
785.574421,-518.144159,3907.087040,10807.006753
785.574750,-2146.597232,3294.210641,11103.089130
785.575079,-2664.741391,1838.629195,11325.150913
785.575408,-2664.741391,229.828649,11325.150913
785.575737,-2442.679609,-459.657299,10362.883188
785.576067,-2072.576638,-766.095498,9400.615463
785.576396,-1480.411884,-766.095498,8956.491898
785.576725,-592.164754,-689.485948,9030.512492
785.577054,-518.144159,306.438199,9844.739029
785.577383,-888.247130,1532.190996,10362.883188
785.577712,-1554.432478,2374.896044,10140.821405
785.578041,-2368.659014,1991.848295,9178.553681
785.578371,-1998.556043,1072.533697,8808.450710
785.578700,-1702.473667,0.000000,8882.471304
785.579029,-1184.329507,-689.485948,8364.327145
785.579358,-370.102971,-612.876398,7624.121203
785.579687,296.082377,-306.438199,7476.080014
785.580016,1406.391290,0.000000,9252.574275
785.580345,1406.391290,1838.629195,10732.986159
785.580675,814.226536,3064.381992,11695.253884
785.581004,0.000000,3677.258390,12139.377449
785.581333,-518.144159,3064.381992,12361.439231
785.581662,-1850.514855,3064.381992,11843.295072
785.581991,-2516.700203,1302.362347,10584.944971
785.582320,-2812.782580,-842.705048,9326.594869
785.582649,-2368.659014,-1991.848295,8660.409521
785.582979,-2368.659014,-2374.896044,8142.265362
785.583308,-2516.700203,-2451.505594,7550.100608
785.583637,-2442.679609,-1762.019645,7328.038826
785.583966,-1332.370696,-306.438199,7179.997637
785.584295,148.041188,612.876398,7624.121203
785.584624,1628.453072,1455.581446,8216.285956
785.584953,2368.659014,2757.943793,8142.265362
785.585283,1702.473667,3600.648841,9178.553681
785.585612,888.247130,3370.820191,10732.986159
785.585941,-592.164754,3907.087040,11695.253884
785.586270,-1924.535449,2911.162892,11843.295072
785.586599,-2886.803174,1302.362347,11251.130318
785.586928,-3330.926739,-306.438199,11325.150913
785.587258,-3552.988522,-383.047749,10362.883188
785.587587,-2812.782580,-1072.533697,9400.615463
785.587916,-2220.617826,-1838.629195,8586.388927
785.588245,-1332.370696,-842.705048,8438.347739
785.588574,-666.185348,306.438199,9178.553681
785.588903,-1702.473667,1608.800546,9622.677246
785.589232,-2220.617826,1991.848295,9326.594869
785.589562,-2590.720797,1762.019645,9178.553681
785.589891,-2516.700203,919.314598,9178.553681
785.590220,-1184.329507,459.657299,9622.677246
785.590549,-962.267725,0.000000,9104.533087
785.590878,-74.020594,-536.266849,8068.244768
785.591207,666.185348,-229.828649,8216.285956
785.591536,2072.576638,229.828649,9474.636058
785.591866,2072.576638,2145.067394,10881.027347
785.592195,1480.411884,4443.353888,11695.253884
785.592524,592.164754,4596.572988,11917.315666
785.592853,-148.041188,4136.915689,11547.212695
785.593182,-888.247130,3140.991542,10732.986159
785.593511,-1406.391290,536.266849,9696.697840
785.593840,-1850.514855,-766.095498,8956.491898
785.594170,-2368.659014,-1608.800546,8438.347739
785.594499,-2886.803174,-1991.848295,7920.203579
785.594828,-3034.844362,-1991.848295,7920.203579
785.595157,-2442.679609,-1302.362347,7994.224174
785.595486,-1332.370696,-995.924147,7846.182985
785.595815,-444.123565,153.219100,8068.244768
785.596144,296.082377,1915.238745,8808.450710
785.596474,1036.288319,3064.381992,9030.512492
785.596803,1110.308913,2681.334243,10066.800811
785.597132,814.226536,2604.724693,10288.862594
785.597461,0.000000,3370.820191,10955.047942
785.597790,-962.267725,2757.943793,10584.944971
785.598119,-1332.370696,1072.533697,10214.842000
785.598448,-1702.473667,0.000000,9844.739029
785.598778,-1776.494261,-229.828649,9622.677246
785.599107,-1850.514855,-383.047749,9104.533087
785.599436,-1776.494261,-383.047749,9326.594869
785.599765,-1406.391290,459.657299,9770.718434
785.600094,-1554.432478,1072.533697,10214.842000
785.600423,-2294.638420,1608.800546,10436.903782
785.600752,-2886.803174,1532.190996,9770.718434
785.601082,-3478.967927,766.095498,8882.471304
785.601411,-3034.844362,-153.219100,8956.491898
785.601740,-2146.597232,-919.314598,9178.553681
785.602069,-1480.411884,-919.314598,8290.306550
785.602398,-148.041188,-383.047749,7476.080014
785.602727,1406.391290,229.828649,7994.224174
785.603056,2294.638420,1225.752797,8882.471304
785.603386,2442.679609,2528.115143,10510.924376
785.603715,1406.391290,3907.087040,11621.233289
785.604044,444.123565,4826.401637,12213.398043
785.604373,-148.041188,4673.182538,11917.315666
785.604702,-1850.514855,2681.334243,11843.295072
785.605031,-2960.823768,919.314598,10510.924376
785.605361,-3108.864956,-842.705048,8734.430116
785.605690,-3108.864956,-2451.505594,8438.347739
785.606019,-2886.803174,-2451.505594,7624.121203
785.606348,-3330.926739,-1915.238745,7698.141797
785.606677,-3404.947333,-1302.362347,7402.059420
785.607006,-2146.597232,-383.047749,7550.100608
785.607335,-592.164754,1149.143247,8068.244768
785.607665,518.144159,2145.067394,8734.430116
785.607994,962.267725,2987.772442,9252.574275
785.608323,962.267725,3140.991542,9548.656652
785.608652,444.123565,2911.162892,10510.924376
785.608981,-666.185348,3677.258390,11251.130318
785.609310,-1480.411884,2528.115143,11177.109724
785.609639,-2072.576638,919.314598,11325.150913
785.609969,-2146.597232,76.609550,10658.965565
785.610298,-2368.659014,0.000000,9918.759623
785.610627,-1702.473667,-842.705048,9400.615463
785.610956,-1110.308913,-536.266849,9030.512492
785.611285,-222.061783,689.485948,9326.594869
785.611614,-1110.308913,1302.362347,9326.594869
785.611943,-1406.391290,1378.971896,9696.697840
785.612273,-2072.576638,1608.800546,9326.594869
785.612602,-2368.659014,1072.533697,8808.450710
785.612931,-2294.638420,-383.047749,8808.450710
785.613260,-1036.288319,0.000000,8956.491898
785.613589,0.000000,0.000000,8586.388927
785.613918,444.123565,-306.438199,8364.327145
785.614247,1258.350101,306.438199,9030.512492
785.614577,1628.453072,1455.581446,9992.780217
785.614906,1480.411884,2987.772442,11029.068536
785.615235,962.267725,3524.039291,11547.212695
785.615564,0.000000,3600.648841,11473.192101
785.615893,-666.185348,2681.334243,11251.130318
785.616222,-1184.329507,1838.629195,10510.924376
785.616551,-1554.432478,766.095498,9252.574275
785.616881,-1702.473667,-1455.581446,8438.347739
785.617210,-1850.514855,-1685.410096,8438.347739
785.617539,-2368.659014,-1685.410096,8438.347739
785.617868,-2442.679609,-995.924147,8438.347739
785.618197,-2146.597232,0.000000,8068.244768
785.618526,-1332.370696,306.438199,8068.244768
785.618855,-296.082377,1302.362347,8956.491898
785.619185,444.123565,1838.629195,9104.533087
785.619514,888.247130,2451.505594,9474.636058
785.619843,666.185348,2145.067394,9474.636058
785.620172,-296.082377,2911.162892,10584.944971
785.620501,-1036.288319,2681.334243,11103.089130
785.620830,-1850.514855,2068.457845,11029.068536
785.621159,-2220.617826,919.314598,10436.903782
785.621489,-2294.638420,536.266849,9992.780217
785.621818,-2220.617826,383.047749,9178.553681
785.622147,-1628.453072,-459.657299,8882.471304
785.622476,-1702.473667,0.000000,9030.512492
785.622805,-1702.473667,1149.143247,9696.697840
785.623134,-2368.659014,1991.848295,10214.842000
785.623463,-2738.761985,2145.067394,10362.883188
785.623793,-3701.029710,1608.800546,8808.450710
785.624122,-3330.926739,76.609550,8956.491898
785.624451,-2368.659014,-306.438199,8586.388927
785.624780,-1036.288319,-766.095498,8290.306550
785.625109,0.000000,-383.047749,7772.162391
785.625438,1036.288319,76.609550,7254.018232
785.625768,2220.617826,612.876398,8734.430116
785.626097,2442.679609,2374.896044,10362.883188
785.626426,1850.514855,4060.306139,11695.253884
785.626755,888.247130,4596.572988,12139.377449
785.627084,148.041188,3907.087040,12139.377449
785.627413,-1036.288319,2987.772442,11621.233289
785.627742,-1850.514855,1455.581446,10584.944971
785.628072,-2294.638420,-153.219100,9104.533087
785.628401,-2368.659014,-1685.410096,8438.347739
785.628730,-2442.679609,-2298.286494,7772.162391
785.629059,-2960.823768,-1915.238745,7846.182985
785.629388,-3256.906145,-1225.752797,7624.121203
785.629717,-2368.659014,-689.485948,7550.100608
785.630046,-1036.288319,229.828649,8068.244768
785.630376,0.000000,1225.752797,7920.203579
785.630705,1036.288319,2451.505594,9178.553681
785.631034,1258.350101,2221.676944,9918.759623
785.631363,370.102971,3294.210641,10807.006753
785.631692,-518.144159,3753.867940,11843.295072
785.632021,-1406.391290,2757.943793,11843.295072
785.632350,-1776.494261,1149.143247,11251.130318
785.632680,-2072.576638,842.705048,11029.068536
785.633009,-2146.597232,383.047749,10066.800811
785.633338,-2072.576638,0.000000,9622.677246
785.633667,-1924.535449,-612.876398,8660.409521
785.633996,-1184.329507,0.000000,8808.450710
785.634325,-1554.432478,612.876398,8734.430116
785.634654,-2294.638420,1149.143247,9474.636058
785.634984,-2886.803174,1072.533697,9400.615463
785.635313,-3849.070898,1072.533697,8882.471304
785.635642,-3330.926739,842.705048,8956.491898
785.635971,-2220.617826,153.219100,9178.553681
785.636300,-1036.288319,-689.485948,8882.471304
785.636629,0.000000,-306.438199,8364.327145
785.636958,962.267725,-306.438199,8438.347739
785.637288,2368.659014,612.876398,9326.594869
785.637617,2516.700203,3294.210641,10658.965565
785.637946,1554.432478,3983.696590,11177.109724
785.638275,962.267725,4136.915689,11473.192101
785.638604,296.082377,3524.039291,11325.150913
785.638933,-444.123565,2298.286494,10881.027347
785.639262,-1628.453072,1225.752797,9770.718434
785.639592,-2072.576638,0.000000,9178.553681
785.639921,-2146.597232,-1532.190996,8290.306550
785.640250,-2442.679609,-2298.286494,8512.368333
785.640579,-2442.679609,-2068.457845,8142.265362
785.640908,-2516.700203,-1378.971896,8142.265362
785.641237,-1776.494261,-383.047749,8216.285956
785.641566,-666.185348,612.876398,8142.265362
785.641896,370.102971,1455.581446,8660.409521
785.642225,1184.329507,2221.676944,9548.656652
785.642554,1036.288319,3140.991542,10436.903782
785.642883,148.041188,3983.696590,10658.965565
785.643212,-518.144159,3217.601092,11325.150913
785.643541,-1184.329507,2221.676944,11177.109724
785.643871,-1702.473667,1072.533697,11029.068536
785.644200,-2146.597232,459.657299,10436.903782
785.644529,-2442.679609,612.876398,9548.656652
785.644858,-1554.432478,0.000000,8882.471304
785.645187,-1406.391290,-306.438199,8734.430116
785.645516,-888.247130,229.828649,9252.574275
785.645845,-1406.391290,1378.971896,9918.759623
785.646175,-2664.741391,2528.115143,9474.636058
785.646504,-3404.947333,2528.115143,8882.471304
785.646833,-3478.967927,1378.971896,9178.553681
785.647162,-2368.659014,0.000000,9178.553681
785.647491,-1850.514855,-689.485948,9030.512492
785.647820,-1036.288319,-689.485948,8438.347739
785.648149,296.082377,76.609550,8068.244768
785.648479,1628.453072,0.000000,8142.265362
785.648808,2146.597232,1532.190996,9548.656652
785.649137,1850.514855,3447.429741,10658.965565
785.649466,1480.411884,4290.134789,11399.171507
785.649795,814.226536,4366.744339,11103.089130
785.650124,-444.123565,3600.648841,11177.109724
785.650453,-1850.514855,2221.676944,10807.006753
785.650783,-2368.659014,383.047749,9992.780217
785.651112,-2664.741391,-919.314598,8660.409521
785.651441,-2664.741391,-1915.238745,8290.306550
785.651770,-2368.659014,-2528.115143,7920.203579
785.652099,-2664.741391,-2145.067394,7772.162391
785.652428,-2072.576638,-1302.362347,7772.162391
785.652757,-1258.350101,0.000000,7994.224174
785.653087,-370.102971,1455.581446,8586.388927
785.653416,666.185348,2298.286494,8734.430116
785.653745,1628.453072,2298.286494,9770.718434
785.654074,962.267725,2911.162892,10214.842000
785.654403,0.000000,3294.210641,10658.965565
785.654732,-740.205942,2681.334243,10955.047942
785.655062,-1184.329507,842.705048,10807.006753
785.655391,-1850.514855,306.438199,11177.109724
785.655720,-2738.761985,0.000000,10881.027347
785.656050,-2664.741391,-383.047749,10066.800811
785.656379,-2368.659014,-919.314598,9326.594869
785.656708,-1924.535449,-306.438199,8956.491898
785.657038,-1406.391290,76.609550,9548.656652
785.657367,-1480.411884,689.485948,10066.800811
785.657696,-2146.597232,1685.410096,9844.739029
785.658026,-2442.679609,1378.971896,9400.615463
785.658355,-2664.741391,766.095498,9030.512492
785.658684,-1702.473667,-306.438199,8956.491898
785.659014,-518.144159,-383.047749,8586.388927
785.659343,444.123565,-76.609550,8142.265362
785.659672,1184.329507,153.219100,7698.141797
785.660001,2294.638420,842.705048,8512.368333
785.660331,2738.761985,2298.286494,9844.739029
785.660660,2220.617826,3677.258390,11399.171507
785.660989,1110.308913,4290.134789,11695.253884
785.661319,148.041188,4060.306139,11769.274478
785.661648,-888.247130,2987.772442,11325.150913
785.661977,-1776.494261,2145.067394,9622.677246
785.662307,-1998.556043,-306.438199,8512.368333
785.662636,-1850.514855,-1608.800546,7920.203579
785.662965,-2220.617826,-1762.019645,7920.203579
785.663295,-2960.823768,-2145.067394,7772.162391
785.663624,-2960.823768,-1225.752797,7994.224174
785.663953,-1998.556043,-76.609550,8142.265362
785.664283,-1406.391290,459.657299,8216.285956
785.664612,-296.082377,1838.629195,9178.553681
785.664941,592.164754,2374.896044,9548.656652
785.665271,962.267725,2834.553343,9770.718434
785.665600,148.041188,2451.505594,9844.739029
785.665929,0.000000,3140.991542,11029.068536
785.666259,-888.247130,3064.381992,11399.171507
785.666588,-1702.473667,1915.238745,11103.089130
785.666917,-1776.494261,842.705048,10510.924376
785.667247,-1628.453072,0.000000,10140.821405
785.667576,-1628.453072,0.000000,9400.615463
785.667905,-1332.370696,0.000000,9252.574275
785.668235,-1406.391290,153.219100,9474.636058
785.668564,-1628.453072,995.924147,9844.739029
785.668893,-2072.576638,1455.581446,10288.862594
785.669223,-2886.803174,1838.629195,9622.677246
785.669552,-3552.988522,689.485948,9400.615463
785.669881,-3182.885551,-229.828649,9030.512492
785.670211,-2368.659014,-536.266849,8808.450710
785.670540,-1332.370696,-995.924147,8438.347739
785.670869,-518.144159,-306.438199,7624.121203
785.671199,814.226536,0.000000,7105.977043
785.671528,1924.535449,842.705048,8438.347739
785.671857,2368.659014,2221.676944,9844.739029
785.672187,1554.432478,3677.258390,11325.150913
785.672516,518.144159,3830.477490,11917.315666
785.672845,-740.205942,3753.867940,11991.336260
785.673174,-2072.576638,2681.334243,11769.274478
785.673504,-2516.700203,1149.143247,10362.883188
785.673833,-2812.782580,-1149.143247,9104.533087
785.674162,-2442.679609,-2451.505594,8216.285956
785.674492,-2664.741391,-2604.724693,7772.162391
785.674821,-2516.700203,-2681.334243,7920.203579
785.675150,-2664.741391,-1608.800546,7550.100608
785.675480,-1998.556043,-536.266849,7698.141797
785.675809,-666.185348,842.705048,8438.347739
785.676138,814.226536,1302.362347,9178.553681
785.676468,1480.411884,2681.334243,9400.615463
785.676797,1258.350101,2987.772442,10066.800811
785.677126,666.185348,2757.943793,10881.027347
785.677456,-666.185348,3140.991542,11473.192101
785.677785,-1850.514855,2987.772442,11325.150913
785.678114,-2220.617826,1685.410096,11251.130318
785.678444,-2368.659014,153.219100,10584.944971
785.678773,-2368.659014,-306.438199,9992.780217
785.679102,-2294.638420,-842.705048,9252.574275
785.679432,-1850.514855,-689.485948,8956.491898
785.679761,-1184.329507,0.000000,8734.430116
785.680090,-1628.453072,1378.971896,8882.471304
785.680420,-1998.556043,1532.190996,8956.491898
785.680749,-2368.659014,1149.143247,9326.594869
785.681078,-2590.720797,1149.143247,9178.553681
785.681408,-2294.638420,612.876398,9030.512492
785.681737,-1332.370696,383.047749,8956.491898
785.682066,-222.061783,0.000000,8808.450710
785.682396,518.144159,153.219100,8364.327145
785.682725,1850.514855,229.828649,8660.409521
785.683054,2220.617826,1455.581446,9844.739029
785.683384,2294.638420,3677.258390,10510.924376
785.683713,1776.494261,4213.525239,11325.150913
785.684042,740.205942,3753.867940,11325.150913
785.684372,0.000000,3217.601092,10881.027347
785.684701,-888.247130,2298.286494,9918.759623
785.685030,-1554.432478,536.266849,8956.491898
785.685360,-1702.473667,-689.485948,8216.285956
785.685689,-2294.638420,-1532.190996,8290.306550
785.686018,-2516.700203,-2068.457845,8290.306550
785.686347,-2886.803174,-1455.581446,8438.347739
785.686677,-2664.741391,-612.876398,8142.265362
785.687006,-1702.473667,383.047749,8882.471304
785.687335,-962.267725,1225.752797,9178.553681
785.687665,0.000000,1991.848295,9622.677246
785.687994,444.123565,2221.676944,9548.656652
785.688323,1036.288319,2145.067394,9992.780217
785.688653,740.205942,2451.505594,11177.109724
785.688982,-518.144159,2528.115143,11325.150913
785.689311,-1480.411884,1762.019645,10658.965565
785.689641,-1628.453072,766.095498,10362.883188
785.689970,-1776.494261,0.000000,10214.842000
785.690299,-1332.370696,229.828649,9770.718434
785.690629,-1628.453072,-383.047749,9474.636058
785.690958,-1628.453072,-766.095498,9474.636058
785.691287,-1554.432478,306.438199,9918.759623
785.691617,-1850.514855,1302.362347,10436.903782
785.691946,-2664.741391,1149.143247,10066.800811
785.692275,-3034.844362,1302.362347,9474.636058
785.692605,-2960.823768,612.876398,8882.471304
785.692934,-2146.597232,-306.438199,8660.409521
785.693263,-1332.370696,-995.924147,8364.327145
785.693593,-592.164754,-383.047749,7698.141797
785.693922,296.082377,0.000000,7105.977043
785.694251,1554.432478,689.485948,7920.203579
785.694581,2294.638420,2145.067394,9474.636058
785.694910,1850.514855,3524.039291,10732.986159
785.695239,814.226536,3983.696590,11473.192101
785.695569,0.000000,3907.087040,11547.212695
785.695898,-888.247130,2834.553343,11621.233289
785.696227,-1850.514855,2068.457845,10881.027347
785.696557,-2664.741391,306.438199,9474.636058
785.696886,-2812.782580,-1532.190996,8512.368333
785.697215,-2664.741391,-2145.067394,7846.182985
785.697545,-2590.720797,-2834.553343,7920.203579
785.697874,-2886.803174,-1532.190996,8290.306550
785.698203,-2368.659014,-689.485948,7920.203579
785.698533,-1332.370696,459.657299,8438.347739
785.698862,148.041188,1225.752797,8734.430116
785.699191,1110.308913,2374.896044,9030.512492
785.699520,1480.411884,2451.505594,9696.697840
785.699850,888.247130,2834.553343,10362.883188
785.700179,-296.082377,3447.429741,11251.130318
785.700508,-1628.453072,3370.820191,11251.130318
785.700838,-1850.514855,2145.067394,10732.986159
785.701167,-1776.494261,459.657299,10214.842000
785.701496,-2294.638420,229.828649,10214.842000
785.701826,-2294.638420,-229.828649,9622.677246
785.702155,-2146.597232,-766.095498,9104.533087
785.702484,-1480.411884,76.609550,9252.574275
785.702814,-1776.494261,1302.362347,9252.574275
785.703143,-2072.576638,1302.362347,9844.739029
785.703472,-2664.741391,1302.362347,9252.574275
785.703802,-3034.844362,919.314598,8660.409521
785.704131,-2590.720797,306.438199,8808.450710
785.704460,-1480.411884,0.000000,8808.450710
785.704790,-740.205942,-536.266849,8882.471304
785.705119,0.000000,229.828649,8586.388927
785.705448,962.267725,306.438199,7994.224174
785.705778,2294.638420,995.924147,8660.409521
785.706107,2812.782580,2298.286494,10066.800811
785.706436,2590.720797,3753.867940,11177.109724
785.706766,1258.350101,4060.306139,11399.171507
785.707095,370.102971,3370.820191,11399.171507
785.707424,-518.144159,2604.724693,11103.089130
785.707754,-1554.432478,1608.800546,9844.739029
785.708083,-2072.576638,-612.876398,9400.615463
785.708412,-2072.576638,-1608.800546,8586.388927
785.708742,-2220.617826,-2298.286494,8142.265362
785.709071,-2738.761985,-2145.067394,8364.327145
785.709400,-3108.864956,-1072.533697,8512.368333
785.709730,-2368.659014,0.000000,8586.388927
785.710059,-1702.473667,689.485948,8882.471304
785.710388,-370.102971,1532.190996,9104.533087
785.710718,814.226536,1685.410096,9400.615463
785.711047,1332.370696,1991.848295,10140.821405
785.711376,666.185348,2681.334243,10214.842000
785.711706,-222.061783,3140.991542,10732.986159
785.712035,-740.205942,2221.676944,10732.986159
785.712364,-1332.370696,1225.752797,10214.842000
785.712693,-1406.391290,689.485948,9992.780217
785.713023,-1332.370696,383.047749,9992.780217
785.713352,-1258.350101,536.266849,9474.636058
785.713681,-1184.329507,76.609550,9326.594869
785.714011,-1184.329507,459.657299,9548.656652
785.714340,-1554.432478,1149.143247,10288.862594
785.714669,-2220.617826,2298.286494,10436.903782
785.714999,-3627.009116,1455.581446,9696.697840
785.715328,-3701.029710,689.485948,9252.574275
785.715657,-3108.864956,0.000000,8882.471304
785.715987,-2072.576638,-995.924147,8808.450710
785.716316,-1184.329507,-1302.362347,8586.388927
785.716645,-370.102971,536.266849,7624.121203
785.716975,814.226536,842.705048,7846.182985
785.717304,1998.556043,1225.752797,8586.388927
785.717633,2368.659014,2681.334243,9844.739029
785.717963,1998.556043,4290.134789,10807.006753
785.718292,1332.370696,4749.792088,11251.130318
785.718621,-222.061783,3370.820191,11399.171507
785.718951,-1406.391290,2911.162892,11103.089130
785.719280,-2590.720797,1149.143247,10362.883188
785.719609,-2664.741391,-842.705048,9548.656652
785.719939,-2812.782580,-1532.190996,8734.430116
785.720268,-3108.864956,-2221.676944,7698.141797
785.720597,-2738.761985,-2451.505594,7624.121203
785.720927,-2294.638420,-1378.971896,7846.182985
785.721256,-1850.514855,-229.828649,8216.285956
785.721585,-740.205942,1072.533697,8808.450710
785.721915,370.102971,1991.848295,8882.471304
785.722244,666.185348,3217.601092,9326.594869
785.722573,962.267725,2987.772442,9548.656652
785.722903,444.123565,2757.943793,10362.883188
785.723232,-518.144159,2604.724693,11177.109724
785.723561,-1332.370696,2145.067394,11177.109724
785.723891,-2368.659014,1072.533697,10955.047942
785.724220,-3034.844362,0.000000,10881.027347
785.724549,-2960.823768,-536.266849,10362.883188
785.724879,-2368.659014,-995.924147,9474.636058
785.725208,-1628.453072,-1302.362347,9252.574275
785.725537,-814.226536,-306.438199,9474.636058
785.725866,-814.226536,689.485948,9770.718434
785.726196,-1628.453072,1608.800546,9770.718434
785.726525,-2220.617826,1915.238745,9400.615463
785.726854,-2146.597232,1378.971896,9030.512492
785.727184,-1258.350101,536.266849,8882.471304
785.727513,-370.102971,0.000000,8512.368333
785.727842,0.000000,153.219100,8142.265362
785.728172,370.102971,0.000000,7846.182985
785.728501,1406.391290,306.438199,8438.347739
785.728830,1702.473667,1838.629195,9844.739029
785.729160,1110.308913,2681.334243,11029.068536
785.729489,0.000000,3524.039291,11769.274478
785.729818,-296.082377,3447.429741,11843.295072
785.730148,-888.247130,2757.943793,11547.212695
785.730477,-1702.473667,2068.457845,10140.821405
785.730806,-2072.576638,459.657299,8216.285956
785.731136,-1850.514855,-1225.752797,7698.141797
785.731465,-1480.411884,-1685.410096,7920.203579
785.731794,-1998.556043,-1378.971896,8290.306550
785.732124,-2220.617826,-1072.533697,8142.265362
785.732453,-1924.535449,-383.047749,7920.203579
785.732782,-592.164754,153.219100,8438.347739
785.733112,148.041188,1378.971896,9252.574275
785.733441,740.205942,2145.067394,9696.697840
785.733770,592.164754,2604.724693,9622.677246
785.734100,0.000000,3140.991542,10066.800811
785.734429,0.000000,2451.505594,10584.944971
785.734758,-962.267725,2834.553343,11325.150913
785.735088,-1998.556043,2145.067394,10584.944971
785.735417,-2220.617826,612.876398,10066.800811
785.735746,-2368.659014,0.000000,9548.656652
785.736076,-2220.617826,153.219100,9474.636058
785.736405,-2368.659014,-383.047749,9030.512492
785.736734,-2368.659014,-306.438199,8956.491898
785.737064,-2072.576638,536.266849,9548.656652
785.737393,-2442.679609,1149.143247,10140.821405
785.737722,-3034.844362,1455.581446,9918.759623
785.738052,-3997.112087,1149.143247,9474.636058
785.738381,-3552.988522,153.219100,9252.574275
785.738710,-2146.597232,-383.047749,9400.615463
785.739039,-1258.350101,-689.485948,9104.533087
785.739369,-296.082377,-536.266849,8216.285956
785.739698,1036.288319,0.000000,8512.368333
785.740027,2220.617826,842.705048,8808.450710
785.740357,2368.659014,2834.553343,9844.739029
785.740686,2072.576638,3830.477490,11029.068536
785.741015,1184.329507,3983.696590,11325.150913
785.741345,444.123565,4136.915689,11177.109724
785.741674,-1406.391290,3140.991542,10955.047942
785.742003,-2220.617826,1455.581446,10214.842000
785.742333,-2738.761985,0.000000,9252.574275
785.742662,-3108.864956,-1455.581446,8512.368333
785.742991,-3108.864956,-2068.457845,8216.285956
785.743321,-2738.761985,-2451.505594,8068.244768
785.743650,-2886.803174,-1991.848295,7698.141797
785.743979,-2294.638420,-536.266849,7772.162391
785.744309,-1036.288319,612.876398,8512.368333
785.744638,370.102971,1225.752797,8882.471304
785.744967,592.164754,2068.457845,9252.574275
785.745297,1480.411884,3064.381992,9770.718434
785.745626,888.247130,2911.162892,10288.862594
785.745955,296.082377,2604.724693,11103.089130
785.746285,-518.144159,2528.115143,11399.171507
785.746614,-1406.391290,1455.581446,11473.192101
785.746943,-1998.556043,612.876398,11029.068536
785.747273,-2146.597232,76.609550,10362.883188
785.747602,-1998.556043,-383.047749,9326.594869
785.747931,-1406.391290,-919.314598,8808.450710
785.748261,-1184.329507,-153.219100,8808.450710
785.748590,-666.185348,536.266849,9178.553681
785.748919,-1480.411884,1149.143247,9696.697840
785.749249,-2442.679609,1685.410096,9918.759623
785.749578,-3330.926739,1608.800546,9548.656652
785.749907,-2664.741391,995.924147,9474.636058
785.750237,-1480.411884,153.219100,8882.471304
785.750566,-814.226536,-383.047749,8438.347739
785.750895,0.000000,-766.095498,8216.285956
785.751225,888.247130,-229.828649,8438.347739
785.751554,1184.329507,1225.752797,9400.615463
785.751883,1258.350101,3294.210641,9696.697840
785.752212,1184.329507,3907.087040,10807.006753
785.752542,592.164754,3983.696590,11029.068536
785.752871,148.041188,3064.381992,10807.006753
785.753200,-888.247130,2221.676944,10510.924376
785.753530,-2072.576638,1455.581446,9474.636058
785.753859,-2220.617826,0.000000,8882.471304
785.754188,-2220.617826,-1302.362347,8216.285956
785.754518,-2072.576638,-1915.238745,8290.306550
785.754847,-2146.597232,-1762.019645,8438.347739
785.755176,-1850.514855,76.609550,8290.306550
785.755506,-1332.370696,306.438199,8068.244768
785.755835,-592.164754,1455.581446,9178.553681
785.756164,74.020594,2145.067394,9770.718434
785.756494,370.102971,2451.505594,9918.759623
785.756823,444.123565,2681.334243,9918.759623
785.757152,74.020594,2528.115143,9696.697840
785.757482,-814.226536,2451.505594,10807.006753
785.757811,-1776.494261,1455.581446,11029.068536
785.758141,-2220.617826,842.705048,10807.006753
785.758470,-2516.700203,76.609550,10436.903782
785.758799,-2590.720797,383.047749,9918.759623
785.759129,-1924.535449,0.000000,9178.553681
785.759458,-1258.350101,-459.657299,8586.388927
785.759787,-740.205942,153.219100,8956.491898
785.760117,-666.185348,1225.752797,9326.594869
785.760446,-1628.453072,1915.238745,10140.821405
785.760776,-2960.823768,1455.581446,10140.821405
785.761105,-3182.885551,1838.629195,10066.800811
785.761434,-2664.741391,995.924147,9474.636058
785.761764,-1628.453072,-229.828649,9104.533087
785.762093,0.000000,-995.924147,8068.244768
785.762423,1258.350101,-459.657299,7402.059420
785.762752,1850.514855,-153.219100,7994.224174
785.763081,2146.597232,1455.581446,9474.636058
785.763411,1406.391290,3753.867940,10510.924376
785.763740,592.164754,4290.134789,11251.130318
785.764069,0.000000,4290.134789,10881.027347
785.764399,-666.185348,2757.943793,10658.965565
785.764728,-1184.329507,1762.019645,10214.842000
785.765058,-2294.638420,229.828649,9400.615463
785.765387,-3256.906145,-766.095498,8364.327145
785.765716,-3182.885551,-1685.410096,7846.182985
785.766046,-3701.029710,-2374.896044,8512.368333
785.766375,-3552.988522,-1762.019645,8586.388927
785.766704,-2812.782580,-766.095498,8512.368333
785.767034,-1702.473667,0.000000,8364.327145
785.767363,-370.102971,1072.533697,8660.409521
785.767693,1110.308913,1378.971896,8734.430116
785.768022,1406.391290,2221.676944,9400.615463
785.768351,1184.329507,3140.991542,10214.842000
785.768681,444.123565,3753.867940,11029.068536
785.769010,-444.123565,2987.772442,11251.130318
785.769340,-1036.288319,1225.752797,11177.109724
785.769669,-1628.453072,459.657299,10658.965565
785.769998,-1924.535449,-153.219100,10584.944971
785.770328,-2368.659014,76.609550,9992.780217
785.770657,-2516.700203,153.219100,9104.533087
785.770986,-2072.576638,-459.657299,8734.430116
785.771316,-1480.411884,-459.657299,8882.471304
785.771645,-1554.432478,766.095498,10066.800811
785.771975,-2812.782580,1685.410096,10140.821405
785.772304,-3552.988522,1838.629195,9548.656652
785.772633,-3701.029710,995.924147,8586.388927
785.772963,-2442.679609,153.219100,8438.347739
785.773292,-1332.370696,-612.876398,8734.430116
785.773622,-370.102971,-766.095498,8512.368333
785.773951,592.164754,0.000000,8068.244768
785.774280,1406.391290,459.657299,8586.388927
785.774610,2146.597232,1608.800546,9548.656652
785.774939,1628.453072,3217.601092,10510.924376
785.775268,1036.288319,4136.915689,11029.068536
785.775598,592.164754,3753.867940,10732.986159
785.775927,148.041188,2834.553343,10362.883188
785.776257,-222.061783,1685.410096,10214.842000
785.776586,-1554.432478,0.000000,9252.574275
785.776915,-1924.535449,-1378.971896,9030.512492
785.777245,-1924.535449,-1608.800546,8660.409521
785.777574,-1998.556043,-1838.629195,8956.491898
785.777903,-1850.514855,-1225.752797,9030.512492
785.778233,-1702.473667,-689.485948,8882.471304
785.778562,-740.205942,0.000000,8586.388927
785.778892,444.123565,1838.629195,8808.450710
785.779221,1036.288319,2298.286494,9178.553681
785.779550,1184.329507,2298.286494,9622.677246
785.779880,740.205942,2451.505594,10362.883188
785.780209,-740.205942,2911.162892,10881.027347
785.780539,-1258.350101,2757.943793,10732.986159
785.780868,-1776.494261,1149.143247,10732.986159
785.781197,-2072.576638,0.000000,10362.883188
785.781527,-2146.597232,76.609550,9918.759623
785.781856,-2220.617826,0.000000,9326.594869
785.782185,-1998.556043,76.609550,8882.471304
785.782515,-1628.453072,689.485948,8808.450710
785.782844,-1332.370696,919.314598,9548.656652
785.783174,-1702.473667,1072.533697,10140.821405
785.783503,-2368.659014,1915.238745,9992.780217
785.783832,-3256.906145,2145.067394,9548.656652
785.784162,-3108.864956,1072.533697,9178.553681
785.784491,-2220.617826,0.000000,9178.553681
785.784820,-1036.288319,-459.657299,8660.409521
785.785150,518.144159,-536.266849,7772.162391
785.785479,1332.370696,0.000000,7550.100608
785.785809,2220.617826,766.095498,8364.327145
785.786138,2294.638420,2604.724693,9918.759623
785.786467,1554.432478,4290.134789,11029.068536
785.786797,666.185348,4749.792088,11103.089130
785.787126,-222.061783,4290.134789,10955.047942
785.787456,-1110.308913,3217.601092,10584.944971
785.787785,-1850.514855,1225.752797,9992.780217
785.788114,-2590.720797,-689.485948,9030.512492
785.788444,-3034.844362,-1455.581446,8364.327145
785.788773,-3256.906145,-2374.896044,7328.038826
785.789102,-3034.844362,-2451.505594,8216.285956
785.789432,-2886.803174,-1532.190996,8586.388927
785.789761,-2294.638420,-612.876398,8808.450710
785.790091,-1110.308913,612.876398,8956.491898
785.790420,74.020594,1685.410096,8586.388927
785.790749,1110.308913,1915.238745,9104.533087
785.791079,1258.350101,2451.505594,10214.842000
785.791408,740.205942,2528.115143,10955.047942
785.791738,-296.082377,3064.381992,11399.171507
785.792067,-1184.329507,2451.505594,10807.006753
785.792396,-1998.556043,536.266849,10362.883188
785.792726,-1776.494261,-383.047749,10510.924376
785.793055,-1850.514855,-612.876398,9992.780217
785.793384,-1850.514855,-766.095498,9252.574275
785.793714,-1258.350101,-919.314598,8586.388927
785.794043,-962.267725,536.266849,9178.553681
785.794373,-1036.288319,536.266849,10214.842000
785.794702,-1702.473667,1685.410096,10584.944971
785.795031,-2442.679609,2221.676944,9696.697840
785.795361,-2590.720797,1378.971896,9252.574275
785.795690,-1924.535449,306.438199,8808.450710
785.796019,-1258.350101,-842.705048,8734.430116
785.796349,-740.205942,-919.314598,8660.409521
785.796678,-222.061783,0.000000,8142.265362
785.797008,592.164754,306.438199,7994.224174
785.797337,1480.411884,766.095498,8660.409521
785.797666,1776.494261,2681.334243,10066.800811
785.797996,1184.329507,3294.210641,10955.047942
785.798325,74.020594,3830.477490,11251.130318
785.798655,-592.164754,3830.477490,11177.109724
785.798984,-1480.411884,2604.724693,10658.965565
785.799313,-2072.576638,689.485948,9844.739029
785.799643,-2146.597232,-766.095498,9030.512492
785.799972,-1850.514855,-1608.800546,8364.327145
785.800301,-1702.473667,-1685.410096,8290.306550
785.800631,-2146.597232,-919.314598,8438.347739
785.800960,-1924.535449,-459.657299,8290.306550
785.801290,-1184.329507,0.000000,8364.327145
785.801619,-148.041188,1608.800546,9104.533087
785.801948,444.123565,2451.505594,9030.512492
785.802278,1036.288319,2681.334243,9474.636058
785.802607,1480.411884,2451.505594,10140.821405
785.802936,148.041188,2374.896044,10362.883188
785.803266,-962.267725,3140.991542,10658.965565
785.803595,-1628.453072,2374.896044,10140.821405
785.803925,-1924.535449,689.485948,10140.821405
785.804254,-2368.659014,-306.438199,9844.739029
785.804583,-2442.679609,-306.438199,9770.718434
785.804913,-2442.679609,-229.828649,9400.615463
785.805242,-2072.576638,-306.438199,9178.553681
785.805572,-1850.514855,306.438199,9770.718434
785.805901,-2220.617826,766.095498,10066.800811
785.806230,-2516.700203,2068.457845,10362.883188
785.806560,-2886.803174,1455.581446,9474.636058
785.806889,-2960.823768,842.705048,8956.491898
785.807218,-2220.617826,-229.828649,9104.533087
785.807548,-1258.350101,-766.095498,9178.553681
785.807877,0.000000,0.000000,8142.265362
785.808207,666.185348,-459.657299,7476.080014
785.808536,1998.556043,459.657299,8068.244768
785.808865,2516.700203,1072.533697,9622.677246
785.809195,1924.535449,2757.943793,11103.089130
785.809524,740.205942,3907.087040,11769.274478
785.809853,0.000000,3983.696590,12065.356855
785.810183,-1184.329507,3064.381992,11399.171507
785.810512,-2072.576638,1838.629195,10584.944971
785.810842,-2664.741391,-306.438199,9400.615463
785.811171,-2664.741391,-1685.410096,8364.327145
785.811500,-2516.700203,-2221.676944,7994.224174
785.811830,-2664.741391,-2451.505594,7846.182985
785.812159,-3034.844362,-1762.019645,8216.285956
785.812489,-2516.700203,-536.266849,7994.224174
785.812818,-1776.494261,306.438199,8290.306550
785.813147,-148.041188,1838.629195,8438.347739
785.813477,592.164754,2451.505594,8512.368333
785.813806,1184.329507,2374.896044,9474.636058
785.814135,1110.308913,2681.334243,10436.903782
785.814465,74.020594,3064.381992,11029.068536
785.814794,-814.226536,3524.039291,11029.068536
785.815124,-1998.556043,1378.971896,10510.924376
785.815453,-2072.576638,383.047749,10732.986159
785.815782,-2294.638420,0.000000,10584.944971
785.816112,-2294.638420,-153.219100,9696.697840
785.816441,-1702.473667,-383.047749,8808.450710
785.816771,-814.226536,-459.657299,8734.430116
785.817100,-962.267725,612.876398,9178.553681
785.817429,-1406.391290,1455.581446,9844.739029
785.817759,-2146.597232,1685.410096,9844.739029
785.818088,-2664.741391,2298.286494,9326.594869
785.818417,-2294.638420,1225.752797,9104.533087
785.818747,-1998.556043,306.438199,9104.533087
785.819076,-1036.288319,-306.438199,9178.553681
785.819406,-148.041188,0.000000,8586.388927
785.819735,592.164754,383.047749,8364.327145
785.820064,1628.453072,1378.971896,8956.491898
785.820394,1702.473667,2451.505594,9992.780217
785.820723,1406.391290,3370.820191,10881.027347
785.821052,370.102971,3677.258390,11177.109724
785.821382,-444.123565,3983.696590,11029.068536
785.821711,-1110.308913,3217.601092,11029.068536
785.822041,-1628.453072,1915.238745,9844.739029
785.822370,-2294.638420,-383.047749,8586.388927
785.822699,-2072.576638,-1762.019645,8068.244768
785.823029,-1776.494261,-1991.848295,8142.265362
785.823358,-2220.617826,-1685.410096,8290.306550
785.823688,-2368.659014,-536.266849,8586.388927
785.824017,-1628.453072,153.219100,9030.512492
785.824346,-814.226536,919.314598,9252.574275
785.824676,148.041188,1838.629195,9474.636058
785.825005,962.267725,2681.334243,9622.677246
785.825334,1258.350101,2451.505594,9770.718434
785.825664,666.185348,2451.505594,10214.842000
785.825993,-370.102971,2528.115143,10584.944971
785.826323,-1554.432478,2451.505594,10732.986159
785.826652,-1702.473667,995.924147,10732.986159
785.826981,-2294.638420,0.000000,10436.903782
785.827311,-2590.720797,306.438199,9622.677246
785.827640,-1776.494261,-153.219100,8956.491898
785.827969,-1332.370696,-766.095498,8438.347739
785.828299,-1184.329507,76.609550,8660.409521
785.828628,-1036.288319,766.095498,9696.697840
785.828958,-1924.535449,2068.457845,10510.924376
785.829287,-2738.761985,1455.581446,9770.718434
785.829616,-3627.009116,1685.410096,9474.636058
785.829946,-3182.885551,306.438199,9474.636058
785.830275,-2072.576638,-459.657299,9474.636058
785.830605,-592.164754,-1149.143247,8882.471304
785.830934,518.144159,-459.657299,7920.203579
785.831263,1184.329507,-306.438199,7550.100608
785.831593,2146.597232,766.095498,9030.512492
785.831922,1924.535449,2604.724693,10658.965565
785.832251,1406.391290,3830.477490,11473.192101
785.832581,666.185348,4596.572988,11769.274478
785.832910,-222.061783,3907.087040,11473.192101
785.833240,-1036.288319,2757.943793,10955.047942
785.833569,-1850.514855,766.095498,9474.636058
785.833898,-2368.659014,-919.314598,8882.471304
785.834228,-2664.741391,-1532.190996,8142.265362
785.834557,-2664.741391,-2221.676944,8068.244768
785.834886,-3182.885551,-1838.629195,8438.347739
785.835216,-2886.803174,-842.705048,8438.347739
785.835545,-2294.638420,229.828649,8290.306550
785.835875,-888.247130,1149.143247,8512.368333
785.836204,148.041188,1838.629195,8290.306550
785.836533,1332.370696,2528.115143,9030.512492
785.836863,1110.308913,2911.162892,10214.842000
785.837192,0.000000,3753.867940,10732.986159
785.837522,-1110.308913,3524.039291,10510.924376
785.837851,-1776.494261,2298.286494,9992.780217
785.838180,-2220.617826,459.657299,10362.883188
785.838510,-2368.659014,0.000000,10288.862594
785.838839,-2442.679609,-383.047749,9992.780217
785.839168,-2516.700203,-153.219100,9030.512492
785.839498,-2072.576638,-76.609550,8734.430116
785.839827,-1110.308913,-306.438199,9252.574275
785.840157,-888.247130,919.314598,10658.965565
785.840486,-1480.411884,1991.848295,10584.944971
785.840815,-2368.659014,2298.286494,9770.718434
785.841145,-2368.659014,1302.362347,9030.512492
785.841474,-1850.514855,383.047749,9030.512492
785.841804,-1110.308913,-459.657299,9104.533087
785.842133,-222.061783,-383.047749,8512.368333
785.842462,740.205942,-383.047749,8142.265362
785.842792,1554.432478,76.609550,7994.224174
785.843121,2294.638420,1072.533697,9474.636058
785.843450,1480.411884,3064.381992,10584.944971
785.843780,814.226536,4290.134789,11399.171507
785.844109,222.061783,3907.087040,11769.274478
785.844439,-444.123565,3370.820191,10955.047942
785.844768,-1036.288319,2757.943793,10288.862594
785.845097,-1480.411884,459.657299,9104.533087
785.845427,-1850.514855,-1072.533697,8808.450710
785.845756,-2146.597232,-1455.581446,8216.285956
785.846085,-2442.679609,-1915.238745,8216.285956
785.846415,-2442.679609,-1378.971896,8734.430116
785.846744,-2442.679609,-689.485948,9030.512492
785.847074,-1480.411884,76.609550,8882.471304
785.847403,0.000000,1455.581446,8882.471304
785.847732,814.226536,1915.238745,9104.533087
785.848062,1332.370696,2298.286494,9548.656652
785.848391,1332.370696,3140.991542,10288.862594
785.848721,296.082377,3447.429741,10658.965565
785.849050,-814.226536,2987.772442,10362.883188
785.849379,-1258.350101,1532.190996,10288.862594
785.849709,-1628.453072,383.047749,10510.924376
785.850038,-1628.453072,-383.047749,10436.903782
785.850367,-1776.494261,-153.219100,9326.594869
785.850697,-1628.453072,0.000000,8734.430116
785.851026,-1258.350101,229.828649,8734.430116
785.851356,-1258.350101,842.705048,9326.594869
785.851685,-1850.514855,1072.533697,9844.739029
785.852014,-3034.844362,995.924147,10140.821405
785.852344,-3478.967927,1915.238745,10140.821405
785.852673,-3849.070898,1532.190996,9622.677246
785.853002,-3256.906145,0.000000,9474.636058
785.853332,-2146.597232,-1072.533697,8956.491898
785.853661,-1184.329507,-1378.971896,7772.162391
785.853991,148.041188,-383.047749,7476.080014
785.854320,1480.411884,0.000000,8142.265362
785.854649,1850.514855,1685.410096,9474.636058
785.854979,1480.411884,3140.991542,10881.027347
785.855308,1036.288319,3907.087040,11621.233289
785.855638,962.267725,3677.258390,11917.315666
785.855965,-296.082377,3370.820191,11399.171507
785.856294,-1184.329507,2145.067394,10584.944971
785.856624,-1480.411884,0.000000,9474.636058
785.856953,-1628.453072,-1225.752797,8512.368333
785.857282,-2072.576638,-1685.410096,8438.347739
785.857611,-2590.720797,-1915.238745,8660.409521
785.857941,-3034.844362,-1149.143247,8364.327145
785.858270,-2590.720797,-536.266849,8660.409521
785.858599,-1776.494261,689.485948,8734.430116
785.858929,-518.144159,1532.190996,8660.409521
785.859258,444.123565,1762.019645,8808.450710
785.859587,518.144159,1991.848295,9104.533087
785.859917,0.000000,2451.505594,10066.800811
785.860246,-1110.308913,3064.381992,10584.944971
785.860575,-2146.597232,2528.115143,10214.842000
785.860905,-2368.659014,1149.143247,9992.780217
785.861234,-2368.659014,0.000000,10214.842000
785.861563,-1998.556043,-536.266849,10066.800811
785.861893,-1850.514855,-383.047749,9474.636058
785.862222,-1702.473667,-383.047749,8956.491898
785.862551,-962.267725,-153.219100,8882.471304
785.862881,-592.164754,919.314598,10288.862594
785.863210,-1110.308913,1838.629195,10955.047942
785.863539,-1850.514855,2145.067394,10288.862594
785.863869,-2368.659014,1685.410096,9400.615463
785.864198,-1776.494261,919.314598,9030.512492
785.864527,-814.226536,-536.266849,9400.615463
785.864857,-370.102971,-612.876398,8808.450710
785.865186,74.020594,-153.219100,8512.368333
785.865515,814.226536,0.000000,8290.306550
785.865844,1702.473667,1532.190996,9326.594869
785.866174,1554.432478,2145.067394,9770.718434
785.866503,1110.308913,3217.601092,10881.027347
785.866832,370.102971,3907.087040,11029.068536
785.867162,-222.061783,3600.648841,10807.006753
785.867491,-1036.288319,2298.286494,10214.842000
785.867820,-1628.453072,1762.019645,9696.697840
785.868150,-2146.597232,-612.876398,8734.430116
785.868479,-2368.659014,-1532.190996,8290.306550
785.868808,-2294.638420,-1455.581446,8512.368333
785.869138,-2368.659014,-1302.362347,8586.388927
785.869467,-2368.659014,-536.266849,8512.368333
785.869796,-1924.535449,306.438199,8808.450710
785.870126,-962.267725,1455.581446,8660.409521
785.870455,148.041188,2221.676944,8956.491898
785.870784,888.247130,2221.676944,9400.615463
785.871114,1184.329507,2987.772442,9622.677246
785.871443,740.205942,2987.772442,9696.697840
785.871772,-444.123565,2681.334243,9992.780217
785.872102,-1258.350101,1685.410096,10066.800811
785.872431,-1924.535449,689.485948,10214.842000
785.872760,-2072.576638,229.828649,10288.862594
785.873089,-2368.659014,0.000000,10066.800811
785.873419,-2368.659014,0.000000,9548.656652
785.873748,-1924.535449,-229.828649,9474.636058
785.874077,-1850.514855,306.438199,9844.739029
785.874407,-2072.576638,1225.752797,10510.924376
785.874736,-2368.659014,1608.800546,10510.924376
785.875065,-3182.885551,1762.019645,9992.780217
785.875395,-3404.947333,919.314598,8882.471304
785.875724,-2590.720797,0.000000,8586.388927
785.876053,-1776.494261,-1149.143247,8586.388927
785.876383,-740.205942,-229.828649,8142.265362
785.876712,0.000000,0.000000,7772.162391
785.877041,1184.329507,0.000000,8142.265362
785.877371,1998.556043,1072.533697,9178.553681
785.877700,1924.535449,2911.162892,11029.068536
785.878029,1258.350101,3983.696590,11547.212695
785.878359,740.205942,3907.087040,11547.212695
785.878688,0.000000,3447.429741,11029.068536
785.879017,-814.226536,2145.067394,10658.965565
785.879347,-1776.494261,459.657299,9548.656652
785.879676,-2368.659014,-1072.533697,8808.450710
785.880005,-2368.659014,-1532.190996,8216.285956
785.880335,-2738.761985,-1838.629195,8660.409521
785.880664,-2738.761985,-1685.410096,8586.388927
785.880993,-2738.761985,-689.485948,8364.327145
785.881322,-1998.556043,0.000000,8290.306550
785.881652,-592.164754,1225.752797,7994.224174
785.881981,592.164754,2221.676944,8660.409521
785.882310,814.226536,1991.848295,9178.553681
785.882640,814.226536,2604.724693,10140.821405
785.882969,0.000000,2834.553343,10658.965565
785.883298,-1036.288319,2911.162892,10732.986159
785.883628,-2146.597232,1532.190996,10362.883188
785.883957,-1924.535449,76.609550,11029.068536
785.884286,-2146.597232,-306.438199,10881.027347
785.884616,-2368.659014,153.219100,10362.883188
785.884945,-1850.514855,229.828649,9178.553681
785.885274,-962.267725,-383.047749,8290.306550
785.885604,-370.102971,229.828649,9030.512492
785.885933,-592.164754,919.314598,10510.924376
785.886262,-1406.391290,2068.457845,10807.006753
785.886592,-2812.782580,2298.286494,9696.697840
785.886921,-2960.823768,1532.190996,9030.512492
785.887250,-2368.659014,76.609550,9178.553681
785.887580,-1036.288319,-995.924147,8956.491898
785.887909,-148.041188,-766.095498,8290.306550
785.888238,444.123565,-459.657299,7772.162391
785.888567,1258.350101,229.828649,8438.347739
785.888897,1554.432478,1072.533697,9474.636058
785.889226,1258.350101,3140.991542,11251.130318
785.889555,296.082377,4213.525239,11399.171507
785.889885,0.000000,3983.696590,11029.068536
785.890214,-592.164754,3064.381992,10807.006753
785.890543,-1480.411884,1455.581446,9918.759623
785.890873,-1702.473667,153.219100,9326.594869
785.891202,-1998.556043,-995.924147,8512.368333
785.891531,-2072.576638,-1532.190996,8364.327145
785.891861,-2368.659014,-1225.752797,8438.347739
785.892190,-2960.823768,-612.876398,8660.409521
785.892519,-1850.514855,0.000000,8586.388927
785.892849,-1110.308913,536.266849,8734.430116
785.893178,0.000000,1838.629195,8882.471304
785.893507,740.205942,2451.505594,8808.450710
785.893837,962.267725,2451.505594,9104.533087
785.894166,962.267725,2298.286494,9992.780217
785.894495,-370.102971,3064.381992,10362.883188
785.894825,-1258.350101,2834.553343,10436.903782
785.895154,-1628.453072,995.924147,10584.944971
785.895483,-2072.576638,0.000000,10584.944971
785.895813,-2146.597232,0.000000,10510.924376
785.896142,-1850.514855,-153.219100,9992.780217
785.896471,-1628.453072,-153.219100,9104.533087
785.896800,-1110.308913,76.609550,9252.574275
785.897130,-1110.308913,689.485948,9696.697840
785.897459,-1258.350101,1378.971896,10362.883188
785.897788,-2294.638420,2374.896044,10140.821405
785.898118,-2886.803174,1685.410096,9178.553681
785.898447,-2886.803174,766.095498,8956.491898
785.898776,-2146.597232,-459.657299,9030.512492
785.899106,-1332.370696,-766.095498,8512.368333
785.899435,-370.102971,-536.266849,7624.121203
785.899764,592.164754,-383.047749,7772.162391
785.900094,1332.370696,612.876398,9030.512492
785.900423,1406.391290,2451.505594,10510.924376
785.900752,666.185348,3677.258390,11103.089130
785.901082,148.041188,3600.648841,11399.171507
785.901411,-222.061783,3753.867940,11399.171507
785.901740,-962.267725,2911.162892,11325.150913
785.902070,-1776.494261,1149.143247,10362.883188
785.902399,-2220.617826,-612.876398,9252.574275
785.902728,-2220.617826,-1378.971896,8586.388927
785.903058,-2368.659014,-1762.019645,8660.409521
785.903387,-2516.700203,-1608.800546,9030.512492
785.903716,-2738.761985,-842.705048,8512.368333
785.904045,-2220.617826,0.000000,7994.224174
785.904375,-740.205942,766.095498,7994.224174
785.904704,666.185348,1608.800546,7994.224174
785.905033,1184.329507,2221.676944,8808.450710
785.905363,814.226536,2911.162892,9770.718434
785.905692,0.000000,3600.648841,10510.924376
785.906021,-1110.308913,3217.601092,10807.006753
785.906351,-1628.453072,2068.457845,10658.965565
785.906680,-2664.741391,459.657299,10362.883188
785.907009,-2812.782580,0.000000,10584.944971
785.907339,-2886.803174,-229.828649,10288.862594
785.907668,-2812.782580,0.000000,9326.594869
785.907997,-2146.597232,-1072.533697,8438.347739
785.908327,-1184.329507,76.609550,9030.512492
785.908656,-666.185348,612.876398,9548.656652
785.908985,-1036.288319,1685.410096,10288.862594
785.909315,-1850.514855,1838.629195,9696.697840
785.909644,-2368.659014,1378.971896,9178.553681
785.909973,-1850.514855,612.876398,9622.677246
785.910303,-962.267725,-229.828649,9844.739029
785.910632,-296.082377,-306.438199,8882.471304
785.910961,814.226536,-536.266849,7920.203579
785.911291,1998.556043,-766.095498,8290.306550
785.911620,2664.741391,842.705048,9548.656652
785.911949,2368.659014,2911.162892,10658.965565
785.912278,1480.411884,4136.915689,11251.130318
785.912608,592.164754,4060.306139,11103.089130
785.912937,-296.082377,3217.601092,10807.006753
785.913266,-1036.288319,2681.334243,10584.944971
785.913596,-2072.576638,1072.533697,9696.697840
785.913925,-2516.700203,-459.657299,8808.450710
785.914254,-2886.803174,-1455.581446,8364.327145
785.914584,-3108.864956,-1991.848295,8512.368333
785.914913,-3108.864956,-1685.410096,8808.450710
785.915242,-3108.864956,-766.095498,8956.491898
785.915572,-2072.576638,536.266849,8216.285956
785.915901,-518.144159,1378.971896,8512.368333
785.916230,592.164754,1838.629195,8956.491898
785.916560,1184.329507,2681.334243,9326.594869
785.916889,962.267725,3524.039291,9474.636058
785.917218,222.061783,3600.648841,9992.780217
785.917548,-370.102971,3217.601092,10436.903782
785.917877,-888.247130,1685.410096,10658.965565
785.918206,-1406.391290,842.705048,10584.944971
785.918536,-1406.391290,0.000000,10362.883188
785.918865,-1332.370696,0.000000,9474.636058
785.919194,-1628.453072,383.047749,9030.512492
785.919524,-1554.432478,536.266849,8956.491898
785.919853,-1110.308913,689.485948,9252.574275
785.920182,-1110.308913,995.924147,9918.759623
785.920511,-2220.617826,2145.067394,10288.862594
785.920841,-3330.926739,2068.457845,9474.636058
785.921170,-3552.988522,1149.143247,9178.553681
785.921499,-3034.844362,-229.828649,9030.512492
785.921829,-2146.597232,-919.314598,8586.388927
785.922158,-888.247130,-1455.581446,8068.244768
785.922487,74.020594,-459.657299,7920.203579
785.922817,1258.350101,76.609550,8364.327145
785.923146,1554.432478,1455.581446,9696.697840
785.923475,1628.453072,3217.601092,10584.944971
785.923805,1628.453072,4060.306139,11177.109724
785.924134,444.123565,3753.867940,11473.192101
785.924463,-222.061783,3140.991542,11547.212695
785.924793,-1480.411884,1685.410096,10881.027347
785.925122,-1998.556043,-229.828649,9770.718434
785.925451,-2368.659014,-1455.581446,8438.347739
785.925781,-2368.659014,-2451.505594,8882.471304
785.926110,-2590.720797,-2604.724693,8956.491898
785.926439,-2886.803174,-2374.896044,8660.409521
785.926769,-2516.700203,-919.314598,8512.368333
785.927098,-1406.391290,306.438199,8290.306550
785.927427,296.082377,2068.457845,8882.471304
785.927756,1332.370696,1608.800546,8734.430116
785.928086,1406.391290,2298.286494,9178.553681
785.928415,814.226536,2911.162892,10214.842000
785.928744,-444.123565,3370.820191,10658.965565
785.929074,-1258.350101,2604.724693,10658.965565
785.929403,-2368.659014,1685.410096,10584.944971
785.929732,-2442.679609,76.609550,10881.027347
785.930062,-2368.659014,-306.438199,10510.924376
785.930391,-2294.638420,0.000000,9326.594869
785.930720,-1850.514855,-383.047749,8364.327145
785.931050,-962.267725,-536.266849,8142.265362
785.931379,-814.226536,229.828649,9548.656652
785.931708,-1406.391290,1838.629195,10066.800811
785.932038,-2294.638420,2451.505594,9992.780217
785.932367,-2738.761985,2068.457845,9104.533087
785.932696,-1998.556043,766.095498,9030.512492
785.933026,-1406.391290,-536.266849,9474.636058
785.933355,-666.185348,-842.705048,9030.512492
785.933684,-222.061783,0.000000,8438.347739
785.934014,518.144159,0.000000,8438.347739
785.934343,1628.453072,1072.533697,8882.471304
785.934672,2368.659014,1762.019645,9992.780217
785.935002,1628.453072,3753.867940,11103.089130
785.935331,1036.288319,4443.353888,11325.150913
785.935660,370.102971,4213.525239,10955.047942
785.935989,-370.102971,3370.820191,10584.944971
785.936319,-1110.308913,1455.581446,9992.780217
785.936648,-1998.556043,76.609550,9178.553681
785.936977,-2516.700203,-766.095498,8438.347739
785.937307,-2368.659014,-1685.410096,8512.368333
785.937636,-2664.741391,-1455.581446,8734.430116
785.937965,-2368.659014,-1302.362347,8290.306550
785.938295,-1850.514855,0.000000,8660.409521
785.938624,-814.226536,919.314598,8660.409521
785.938953,0.000000,2145.067394,8956.491898
785.939283,592.164754,2451.505594,8956.491898
785.939612,1036.288319,2681.334243,9622.677246
785.939941,666.185348,2834.553343,9696.697840
785.940271,-148.041188,2757.943793,10214.842000
785.940600,-1332.370696,1991.848295,10214.842000
785.940929,-1776.494261,459.657299,10510.924376
785.941259,-2146.597232,76.609550,10140.821405
785.941588,-1924.535449,-306.438199,9844.739029
785.941917,-1924.535449,-153.219100,9548.656652
785.942247,-1480.411884,0.000000,9252.574275
785.942576,-962.267725,306.438199,9104.533087
785.942905,-888.247130,689.485948,9918.759623
785.943234,-1258.350101,1225.752797,10510.924376
785.943564,-2516.700203,2298.286494,9992.780217
785.943893,-3256.906145,1838.629195,9696.697840
785.944222,-3330.926739,459.657299,9474.636058
785.944552,-2368.659014,-766.095498,9400.615463
785.944881,-1628.453072,-1608.800546,8660.409521
785.945210,-370.102971,-1072.533697,7920.203579
785.945540,518.144159,-536.266849,7994.224174
785.945869,1184.329507,229.828649,9104.533087
785.946198,1258.350101,2298.286494,10510.924376
785.946528,814.226536,3524.039291,11695.253884
785.946857,444.123565,3830.477490,11769.274478
785.947186,-296.082377,3830.477490,11473.192101
785.947516,-962.267725,2451.505594,10584.944971
785.947845,-1480.411884,612.876398,9548.656652
785.948174,-1924.535449,-1072.533697,8734.430116
785.948504,-2294.638420,-1455.581446,8438.347739
785.948833,-2738.761985,-2374.896044,8438.347739
785.949162,-3034.844362,-1991.848295,8808.450710
785.949492,-3034.844362,-995.924147,8438.347739
785.949821,-2146.597232,0.000000,8142.265362
785.950150,-444.123565,689.485948,8142.265362
785.950480,518.144159,1991.848295,8364.327145
785.950809,814.226536,2451.505594,8660.409521
785.951138,740.205942,2604.724693,9622.677246
785.951467,0.000000,2834.553343,10510.924376
785.951797,-1628.453072,3600.648841,10881.027347
785.952126,-1406.391290,2145.067394,10510.924376
785.952455,-2146.597232,689.485948,10288.862594
785.952785,-2220.617826,0.000000,10362.883188
785.953114,-2294.638420,-383.047749,9696.697840
785.953443,-1998.556043,-383.047749,9104.533087
785.953773,-1258.350101,-383.047749,8142.265362
785.954102,-592.164754,383.047749,9178.553681
785.954431,-888.247130,1762.019645,9918.759623
785.954761,-1554.432478,2298.286494,10436.903782
785.955090,-2516.700203,2374.896044,10288.862594
785.955419,-2590.720797,1378.971896,9326.594869
785.955749,-2146.597232,536.266849,9178.553681
785.956078,-1110.308913,-612.876398,9400.615463
785.956407,-370.102971,-612.876398,8882.471304
785.956737,222.061783,-306.438199,8216.285956
785.957066,1406.391290,153.219100,8364.327145
785.957395,2220.617826,2221.676944,10066.800811
785.957725,1628.453072,2911.162892,10955.047942
785.958054,962.267725,3907.087040,10955.047942
785.958383,518.144159,3753.867940,11029.068536
785.958712,-148.041188,3140.991542,10658.965565
785.959041,-518.144159,2221.676944,10066.800811
785.959371,-1554.432478,689.485948,9326.594869
785.959700,-2146.597232,-842.705048,8882.471304
785.960029,-2146.597232,-1378.971896,8438.347739
785.960358,-2368.659014,-1608.800546,8512.368333
785.960687,-2590.720797,-995.924147,8808.450710
785.961016,-1998.556043,-612.876398,8808.450710
785.961346,-1406.391290,459.657299,8512.368333
785.961675,-370.102971,1608.800546,8660.409521
785.962004,370.102971,2451.505594,8734.430116
785.962333,888.247130,2145.067394,8956.491898
785.962662,592.164754,2374.896044,9252.574275
785.962992,0.000000,2681.334243,9696.697840
785.963321,-888.247130,2528.115143,10288.862594
785.963650,-1332.370696,1072.533697,10214.842000
785.963979,-1628.453072,306.438199,10436.903782
785.964308,-2072.576638,459.657299,10510.924376
785.964638,-2368.659014,153.219100,9770.718434
785.964967,-1776.494261,383.047749,9252.574275
785.965296,-1258.350101,153.219100,9622.677246
785.965625,-1258.350101,766.095498,10066.800811
785.965954,-1554.432478,1455.581446,10510.924376
785.966284,-2590.720797,1378.971896,10140.821405
785.966613,-3478.967927,1378.971896,9696.697840
785.966942,-3404.947333,612.876398,9252.574275
785.967271,-2368.659014,-459.657299,9252.574275
785.967600,-1184.329507,-1149.143247,8734.430116
785.967930,-518.144159,-459.657299,7846.182985
785.968259,740.205942,0.000000,7772.162391
785.968588,1924.535449,76.609550,8512.368333
785.968917,2294.638420,1915.238745,9696.697840
785.969246,1924.535449,3524.039291,11103.089130
785.969576,1036.288319,3983.696590,11695.253884
785.969905,370.102971,4290.134789,11325.150913
785.970234,-518.144159,3140.991542,10955.047942
785.970563,-1702.473667,1225.752797,10140.821405
785.970892,-2294.638420,-383.047749,9252.574275
785.971222,-2294.638420,-1302.362347,8290.306550
785.971551,-2738.761985,-2068.457845,8142.265362
785.971880,-2960.823768,-1991.848295,7994.224174
785.972209,-2960.823768,-1532.190996,8364.327145
785.972538,-2368.659014,-612.876398,8438.347739
785.972868,-1554.432478,919.314598,8216.285956
785.973197,0.000000,1915.238745,8290.306550
785.973526,444.123565,2145.067394,8734.430116
785.973855,666.185348,2374.896044,9474.636058
785.974184,0.000000,2604.724693,10436.903782
785.974513,-962.267725,2987.772442,10658.965565
785.974843,-1184.329507,2298.286494,10732.986159
785.975172,-1850.514855,842.705048,10955.047942
785.975501,-2146.597232,76.609550,10436.903782
785.975830,-2146.597232,0.000000,10288.862594
785.976159,-1776.494261,0.000000,9696.697840
785.976489,-1554.432478,229.828649,9178.553681
785.976818,-592.164754,-153.219100,9474.636058
785.977147,-666.185348,1225.752797,10510.924376
785.977476,-1406.391290,1762.019645,10881.027347
785.977805,-2516.700203,2145.067394,10140.821405
785.978135,-2368.659014,1532.190996,9252.574275
785.978464,-2294.638420,153.219100,9252.574275
785.978793,-1480.411884,-612.876398,9178.553681
785.979122,-962.267725,-995.924147,8586.388927
785.979451,0.000000,-536.266849,7920.203579
785.979781,518.144159,0.000000,7698.141797
785.980110,1702.473667,612.876398,8956.491898
785.980439,1924.535449,2298.286494,10362.883188
785.980768,1480.411884,4060.306139,11325.150913
785.981097,444.123565,4596.572988,11399.171507
785.981427,74.020594,3907.087040,10955.047942
785.981756,-518.144159,3064.381992,10510.924376
785.982085,-1628.453072,995.924147,9548.656652
785.982414,-1924.535449,-536.266849,8734.430116
785.982743,-1850.514855,-1455.581446,8364.327145
785.983073,-2072.576638,-1532.190996,8364.327145
785.983402,-2294.638420,-1455.581446,8512.368333
785.983731,-2516.700203,-612.876398,8438.347739
785.984060,-1554.432478,76.609550,8660.409521
785.984389,-444.123565,919.314598,8438.347739
785.984719,370.102971,1685.410096,8734.430116
785.985048,814.226536,2451.505594,9178.553681
785.985377,888.247130,2681.334243,9844.739029
785.985706,74.020594,2911.162892,10214.842000
785.986035,-666.185348,2451.505594,10436.903782
785.986365,-1406.391290,1838.629195,10658.965565
785.986694,-1998.556043,536.266849,10732.986159
785.987023,-2146.597232,459.657299,10584.944971
785.987352,-1776.494261,-229.828649,10140.821405
785.987681,-1702.473667,-153.219100,9548.656652
785.988010,-1480.411884,536.266849,9104.533087
785.988340,-1036.288319,689.485948,9474.636058
785.988669,-1184.329507,1149.143247,9696.697840
785.988998,-1850.514855,2068.457845,10288.862594
785.989327,-2960.823768,1915.238745,10140.821405
785.989656,-3478.967927,1225.752797,9844.739029
785.989986,-2960.823768,229.828649,9696.697840
785.990315,-2368.659014,-919.314598,9400.615463
785.990644,-1184.329507,-612.876398,8290.306550
785.990973,0.000000,-383.047749,7624.121203
785.991302,1258.350101,-229.828649,7920.203579
785.991632,1998.556043,995.924147,9252.574275
785.991961,1702.473667,2987.772442,10584.944971
785.992290,962.267725,4749.792088,11177.109724
785.992619,444.123565,3907.087040,11547.212695
785.992948,-740.205942,3753.867940,11177.109724
785.993278,-1480.411884,2604.724693,10214.842000
785.993607,-1776.494261,306.438199,9252.574275
785.993936,-1924.535449,-1302.362347,8290.306550
785.994265,-1850.514855,-2068.457845,7994.224174
785.994594,-2738.761985,-1762.019645,8438.347739
785.994924,-2960.823768,-1455.581446,8364.327145
785.995253,-2442.679609,-536.266849,8364.327145
785.995582,-1702.473667,383.047749,8068.244768
785.995911,-740.205942,995.924147,8142.265362
785.996240,370.102971,1838.629195,8882.471304
785.996570,1036.288319,2374.896044,9252.574275
785.996899,444.123565,2681.334243,9992.780217
785.997228,-666.185348,3294.210641,10658.965565
785.997557,-1924.535449,2374.896044,10807.006753
785.997886,-2368.659014,1378.971896,10288.862594
785.998216,-2442.679609,153.219100,10584.944971
785.998545,-2516.700203,-306.438199,10288.862594
785.998874,-2146.597232,-766.095498,10066.800811
785.999203,-1998.556043,0.000000,9326.594869
785.999532,-1554.432478,0.000000,9622.677246
785.999862,-1036.288319,1072.533697,10140.821405
786.000191,-1110.308913,1302.362347,10658.965565
786.000520,-1776.494261,2068.457845,10658.965565
786.000849,-2442.679609,1838.629195,9770.718434
786.001178,-2368.659014,1225.752797,9104.533087
786.001507,-1332.370696,-229.828649,9178.553681
786.001837,-592.164754,-689.485948,8956.491898
786.002166,-592.164754,0.000000,8216.285956
786.002495,444.123565,0.000000,7920.203579
786.002824,1628.453072,229.828649,8734.430116
786.003153,2294.638420,1532.190996,9696.697840
786.003483,1850.514855,3140.991542,10955.047942
786.003812,740.205942,3983.696590,11177.109724
786.004141,296.082377,4060.306139,10955.047942
786.004470,-148.041188,3600.648841,10288.862594
786.004799,-740.205942,1685.410096,9474.636058
786.005129,-1332.370696,-306.438199,8882.471304
786.005458,-1702.473667,-1302.362347,8512.368333
786.005787,-1998.556043,-1455.581446,8290.306550
786.006116,-2368.659014,-1532.190996,8364.327145
786.006445,-1998.556043,-536.266849,8660.409521
786.006775,-1998.556043,-229.828649,8956.491898
786.007104,-1406.391290,766.095498,8734.430116
786.007433,-222.061783,1378.971896,8808.450710
786.007762,666.185348,1915.238745,9030.512492
786.008091,888.247130,2298.286494,9252.574275
786.008421,222.061783,2451.505594,9844.739029
786.008750,-592.164754,2681.334243,10140.821405
786.009079,-1258.350101,1991.848295,10362.883188
786.009408,-1776.494261,995.924147,10584.944971
786.009737,-1924.535449,383.047749,10732.986159
786.010067,-1850.514855,306.438199,10807.006753
786.010396,-1776.494261,0.000000,9844.739029
786.010725,-1406.391290,-229.828649,9326.594869
786.011054,-1036.288319,229.828649,9474.636058
786.011383,-888.247130,1072.533697,10214.842000
786.011713,-1406.391290,1532.190996,10510.924376
786.012042,-2960.823768,1915.238745,10658.965565
786.012371,-3552.988522,1915.238745,9770.718434
786.012700,-3182.885551,766.095498,9252.574275
786.013029,-2368.659014,-459.657299,9104.533087
786.013359,-1110.308913,-766.095498,8290.306550
786.013688,-518.144159,-536.266849,7624.121203
786.014017,444.123565,0.000000,7550.100608
786.014346,1332.370696,842.705048,8068.244768
786.014675,1554.432478,2145.067394,9696.697840
786.015004,962.267725,3447.429741,10955.047942
786.015334,444.123565,3370.820191,11621.233289
786.015663,-666.185348,3753.867940,11103.089130
786.015992,-1850.514855,2911.162892,10955.047942
786.016321,-2294.638420,1302.362347,9992.780217
786.016650,-2368.659014,-1225.752797,9252.574275
786.016980,-2220.617826,-1915.238745,8216.285956
786.017309,-2146.597232,-1991.848295,7994.224174
786.017638,-2442.679609,-1762.019645,8142.265362
786.017967,-2368.659014,-1149.143247,8142.265362
786.018296,-1628.453072,0.000000,8364.327145
786.018626,-666.185348,1378.971896,8216.285956
786.018955,444.123565,1991.848295,8586.388927
786.019284,1036.288319,2145.067394,9252.574275
786.019613,740.205942,2374.896044,9770.718434
786.019942,-148.041188,2604.724693,10658.965565
786.020272,-1110.308913,2604.724693,10807.006753
786.020601,-1850.514855,1762.019645,11399.171507
786.020930,-2664.741391,229.828649,10955.047942
786.021259,-2590.720797,-229.828649,11103.089130
786.021588,-2664.741391,-536.266849,10584.944971
786.021918,-2368.659014,-459.657299,9548.656652
786.022247,-1702.473667,-306.438199,8734.430116
786.022576,-1184.329507,459.657299,8956.491898
786.022905,-518.144159,612.876398,10140.821405
786.023234,-1036.288319,1762.019645,10510.924376
786.023564,-2146.597232,2298.286494,9992.780217
786.023893,-2590.720797,1685.410096,9252.574275
786.024222,-1924.535449,612.876398,9178.553681
786.024551,-1258.350101,-383.047749,9400.615463
786.024880,-592.164754,-383.047749,9030.512492
786.025210,74.020594,0.000000,8142.265362
786.025539,1184.329507,536.266849,7846.182985
786.025868,1702.473667,1149.143247,9178.553681
786.026197,1702.473667,2528.115143,10214.842000
786.026526,1184.329507,3983.696590,10881.027347
786.026856,444.123565,4366.744339,10584.944971
786.027185,0.000000,3447.429741,9992.780217
786.027514,-740.205942,2451.505594,9770.718434
786.027843,-1998.556043,842.705048,8882.471304
786.028172,-1998.556043,-919.314598,8586.388927
786.028501,-2072.576638,-1455.581446,8290.306550
786.028831,-2220.617826,-1302.362347,8364.327145
786.029160,-2738.761985,-1685.410096,8216.285956
786.029489,-2146.597232,-229.828649,8660.409521
786.029818,-1406.391290,536.266849,8660.409521
786.030147,0.000000,1378.971896,9104.533087
786.030477,518.144159,2145.067394,8956.491898
786.030806,814.226536,2451.505594,9400.615463
786.031135,1036.288319,2374.896044,10362.883188
786.031464,0.000000,2451.505594,10288.862594
786.031793,-888.247130,2451.505594,10732.986159
786.032123,-1406.391290,1532.190996,10732.986159
786.032452,-1998.556043,306.438199,10807.006753
786.032781,-1924.535449,0.000000,10214.842000
786.033110,-2072.576638,-459.657299,9844.739029
786.033439,-1628.453072,-153.219100,9548.656652
786.033769,-1554.432478,306.438199,9104.533087
786.034098,-1332.370696,536.266849,9770.718434
786.034427,-1554.432478,1149.143247,10732.986159
786.034756,-2516.700203,1685.410096,11029.068536
786.035085,-3478.967927,1991.848295,10362.883188
786.035415,-3775.050304,919.314598,9622.677246
786.035744,-2812.782580,-229.828649,9252.574275
786.036073,-1628.453072,-1149.143247,8808.450710
786.036402,-518.144159,-1455.581446,7994.224174
786.036731,296.082377,-383.047749,7254.018232
786.037061,1776.494261,459.657299,8068.244768
786.037390,2516.700203,1838.629195,9474.636058
786.037719,1998.556043,3677.258390,10732.986159
786.038048,1406.391290,4290.134789,10955.047942
786.038377,222.061783,4060.306139,10807.006753
786.038707,-370.102971,3447.429741,10658.965565
786.039036,-1332.370696,1838.629195,10066.800811
786.039365,-2368.659014,0.000000,9178.553681
786.039694,-2960.823768,-995.924147,8438.347739
786.040023,-2960.823768,-1225.752797,7550.100608
786.040352,-3404.947333,-2451.505594,7920.203579
786.040682,-3182.885551,-1991.848295,8364.327145
786.041011,-2590.720797,-766.095498,8364.327145
786.041340,-1554.432478,0.000000,8586.388927
786.041669,-518.144159,1455.581446,8734.430116
786.041998,296.082377,2068.457845,9104.533087
786.042328,814.226536,2374.896044,9696.697840
786.042657,740.205942,2298.286494,10658.965565
786.042986,-296.082377,3140.991542,11103.089130
786.043315,-1258.350101,2298.286494,10807.006753
786.043644,-1184.329507,842.705048,10584.944971
786.043974,-1850.514855,-153.219100,10658.965565
786.044303,-1776.494261,-229.828649,10584.944971
786.044632,-1702.473667,0.000000,9918.759623
786.044961,-1258.350101,306.438199,9178.553681
786.045290,-666.185348,-229.828649,8808.450710
786.045620,-222.061783,536.266849,9548.656652
786.045949,-888.247130,1225.752797,10362.883188
786.046278,-1998.556043,1991.848295,10436.903782
786.046607,-2812.782580,1991.848295,10140.821405
786.046936,-3478.967927,1532.190996,9474.636058
786.047266,-2738.761985,229.828649,9326.594869
786.047595,-1776.494261,-919.314598,9104.533087
786.047924,-1036.288319,-612.876398,8290.306550
786.048253,0.000000,-153.219100,7920.203579
786.048582,962.267725,536.266849,7994.224174
786.048912,1702.473667,1225.752797,9400.615463
786.049241,1110.308913,3677.258390,10214.842000
786.049570,222.061783,4213.525239,10732.986159
786.049899,0.000000,4213.525239,10584.944971
786.050228,-444.123565,3524.039291,9696.697840
786.050558,-888.247130,1608.800546,9326.594869
786.050887,-1184.329507,0.000000,9030.512492
786.051216,-1406.391290,-766.095498,8438.347739
786.051545,-1554.432478,-1225.752797,8364.327145
786.051874,-1776.494261,-766.095498,8660.409521
786.052204,-2072.576638,-689.485948,8438.347739
786.052533,-1554.432478,153.219100,8660.409521
786.052862,-296.082377,1072.533697,9030.512492
786.053191,518.144159,1838.629195,8882.471304
786.053520,1110.308913,2834.553343,9178.553681
786.053849,1110.308913,2451.505594,9252.574275
786.054179,814.226536,2298.286494,10140.821405
786.054508,-518.144159,2451.505594,10436.903782
786.054837,-1332.370696,1838.629195,10732.986159
786.055166,-1998.556043,766.095498,10658.965565
786.055495,-1776.494261,306.438199,10955.047942
786.055825,-2294.638420,-229.828649,9770.718434
786.056154,-1924.535449,-229.828649,9696.697840
786.056483,-1406.391290,383.047749,9474.636058
786.056812,-740.205942,689.485948,9474.636058
786.057141,-814.226536,1302.362347,9992.780217
786.057471,-1406.391290,1302.362347,10807.006753
786.057800,-2590.720797,1455.581446,10510.924376
786.058129,-3108.864956,1685.410096,9992.780217
786.058458,-2960.823768,766.095498,9474.636058
786.058787,-1998.556043,-766.095498,8956.491898
786.059117,-592.164754,-1378.971896,8216.285956
786.059446,148.041188,-1302.362347,7624.121203
786.059775,888.247130,-383.047749,7994.224174
786.060104,1406.391290,1072.533697,9104.533087
786.060434,1110.308913,2911.162892,10214.842000
786.060763,962.267725,4290.134789,11177.109724
786.061092,74.020594,3677.258390,11103.089130
786.061421,-666.185348,3140.991542,10881.027347
786.061751,-1480.411884,2451.505594,10140.821405
786.062080,-2294.638420,229.828649,9178.553681
786.062409,-2146.597232,-1378.971896,8660.409521
786.062739,-2368.659014,-1991.848295,8068.244768
786.063068,-2738.761985,-1915.238745,8438.347739
786.063397,-2960.823768,-1302.362347,8216.285956
786.063726,-2146.597232,-842.705048,8290.306550
786.064056,-1258.350101,0.000000,8364.327145
786.064385,-222.061783,1762.019645,9030.512492
786.064714,592.164754,2451.505594,8364.327145
786.065044,814.226536,2451.505594,9326.594869
786.065373,592.164754,2757.943793,9992.780217
786.065702,-666.185348,2911.162892,10436.903782
786.066031,-1554.432478,2451.505594,10658.965565
786.066361,-2072.576638,1072.533697,10510.924376
786.066690,-2590.720797,153.219100,10658.965565
786.067019,-2812.782580,-383.047749,10436.903782
786.067349,-2590.720797,-612.876398,10362.883188
786.067678,-2294.638420,-459.657299,9918.759623
786.068007,-1924.535449,0.000000,9474.636058
786.068336,-1110.308913,766.095498,9918.759623
786.068666,-592.164754,1302.362347,10436.903782
786.068995,-962.267725,1838.629195,10658.965565
786.069324,-1850.514855,2374.896044,9696.697840
786.069654,-2368.659014,1608.800546,9030.512492
786.069983,-1480.411884,153.219100,9326.594869
786.070312,-666.185348,-383.047749,9030.512492
786.070641,-148.041188,-306.438199,8512.368333
786.070971,518.144159,-153.219100,7920.203579
786.071300,1480.411884,536.266849,8068.244768
786.071629,2072.576638,2374.896044,9400.615463
786.071959,1406.391290,3294.210641,10140.821405
786.072288,888.247130,4213.525239,10807.006753
786.072617,148.041188,3830.477490,10732.986159
786.072946,-518.144159,3140.991542,10066.800811
786.073276,-1110.308913,2604.724693,9474.636058
786.073605,-1406.391290,153.219100,8808.450710
786.073934,-1628.453072,-1302.362347,8216.285956
786.074264,-2220.617826,-1532.190996,8216.285956
786.074593,-2368.659014,-1532.190996,8364.327145
786.074922,-2368.659014,-689.485948,8438.347739
786.075251,-1850.514855,153.219100,8808.450710
786.075581,-1110.308913,995.924147,9104.533087
786.075910,0.000000,1455.581446,9400.615463
786.076239,592.164754,1991.848295,9104.533087
786.076568,962.267725,2834.553343,9474.636058
786.076898,518.144159,2374.896044,9844.739029
786.077227,-370.102971,2374.896044,10584.944971
786.077556,-1036.288319,1838.629195,10807.006753
786.077886,-1776.494261,842.705048,10732.986159
786.078215,-1628.453072,153.219100,10955.047942
786.078544,-1776.494261,-229.828649,10288.862594
786.078873,-1406.391290,153.219100,9844.739029
786.079203,-1110.308913,306.438199,9400.615463
786.079532,-814.226536,766.095498,9252.574275
786.079861,-740.205942,1532.190996,9548.656652
786.080191,-1036.288319,1455.581446,10066.800811
786.080520,-2220.617826,1532.190996,10510.924376
786.080849,-3775.050304,1608.800546,10436.903782
786.081178,-3923.091493,995.924147,9696.697840
786.081508,-3182.885551,-383.047749,9326.594869
786.081837,-2368.659014,-1378.971896,8438.347739
786.082166,-740.205942,-1455.581446,7698.141797
786.082496,74.020594,-919.314598,7772.162391
786.082825,1184.329507,153.219100,8364.327145
786.083154,1332.370696,2374.896044,9474.636058
786.083483,962.267725,3524.039291,10214.842000
786.083813,666.185348,3294.210641,10436.903782
786.084142,296.082377,4060.306139,10807.006753
786.084471,-296.082377,3524.039291,10140.821405
786.084801,-962.267725,1608.800546,9326.594869
786.085130,-1406.391290,0.000000,8808.450710
786.085459,-1924.535449,-1838.629195,8290.306550
786.085788,-2368.659014,-1455.581446,8586.388927
786.086118,-3034.844362,-1532.190996,8364.327145
786.086447,-2812.782580,-1072.533697,8586.388927
786.086776,-2368.659014,-459.657299,8734.430116
786.087106,-1036.288319,459.657299,8956.491898
786.087435,0.000000,1838.629195,8734.430116
786.087764,74.020594,2145.067394,8734.430116
786.088093,370.102971,2145.067394,9400.615463
786.088423,-296.082377,2374.896044,10362.883188
786.088752,-962.267725,2374.896044,10732.986159
786.089081,-1850.514855,1762.019645,10955.047942
786.089411,-2146.597232,612.876398,10807.006753
786.089740,-2146.597232,-229.828649,10732.986159
786.090069,-2072.576638,-689.485948,10584.944971
786.090398,-1480.411884,-306.438199,10066.800811
786.090728,-814.226536,0.000000,9770.718434
786.091057,-370.102971,919.314598,9104.533087
786.091386,-148.041188,1302.362347,9918.759623
786.091716,-814.226536,1762.019645,10140.821405
786.092045,-1628.453072,2068.457845,9918.759623
786.092374,-2368.659014,1455.581446,9252.574275
786.092703,-2738.761985,1072.533697,9178.553681
786.093033,-1850.514855,0.000000,8882.471304
786.093362,-1110.308913,-766.095498,8660.409521
786.093691,-740.205942,-995.924147,8142.265362
786.094021,148.041188,-459.657299,8290.306550
786.094350,1036.288319,536.266849,8586.388927
786.094679,814.226536,2298.286494,9622.677246
786.095008,592.164754,3677.258390,10584.944971
786.095338,148.041188,3907.087040,10658.965565
786.095667,0.000000,3370.820191,10214.842000
786.095996,-370.102971,1838.629195,9918.759623
786.096326,-1036.288319,919.314598,9326.594869
786.096655,-1184.329507,-536.266849,8586.388927
786.096984,-1406.391290,-1225.752797,8586.388927
786.097313,-1776.494261,-1302.362347,9030.512492
786.097643,-1850.514855,-842.705048,9030.512492
786.097972,-1702.473667,0.000000,8808.450710
786.098301,-1406.391290,229.828649,8808.450710
786.098631,-296.082377,919.314598,9178.553681
786.098960,518.144159,1685.410096,9326.594869
786.099289,814.226536,2374.896044,9474.636058
786.099618,888.247130,2451.505594,10140.821405
786.099948,-148.041188,2298.286494,10288.862594
786.100277,-962.267725,2145.067394,10436.903782
786.100606,-1850.514855,1302.362347,10732.986159
786.100936,-2072.576638,229.828649,10510.924376
786.101265,-2072.576638,0.000000,10510.924376
786.101594,-2220.617826,-306.438199,9844.739029
786.101923,-2146.597232,153.219100,9474.636058
786.102253,-1554.432478,0.000000,9030.512492
786.102582,-1110.308913,766.095498,9252.574275
786.102911,-962.267725,1225.752797,9622.677246
786.103241,-1924.535449,2298.286494,9844.739029
786.103570,-2590.720797,1685.410096,10140.821405
786.103899,-3256.906145,1149.143247,9548.656652
786.104228,-2960.823768,536.266849,9474.636058
786.104558,-2368.659014,-229.828649,8956.491898
786.104887,-1184.329507,-1072.533697,8068.244768
786.105216,-222.061783,-612.876398,7624.121203
786.105545,962.267725,0.000000,8216.285956
786.105875,1554.432478,1455.581446,9252.574275
786.106204,1480.411884,2911.162892,10140.821405
786.106533,1110.308913,4136.915689,10658.965565
786.106863,666.185348,3753.867940,11029.068536
786.107192,0.000000,3524.039291,10807.006753
786.107521,-666.185348,2451.505594,10214.842000
786.107850,-1332.370696,229.828649,9400.615463
786.108180,-1702.473667,-1302.362347,9030.512492
786.108509,-2442.679609,-1838.629195,8586.388927
786.108838,-3034.844362,-1838.629195,8882.471304
786.109168,-3404.947333,-1149.143247,8956.491898
786.109497,-3108.864956,-612.876398,8808.450710
786.109826,-1998.556043,-153.219100,8660.409521
786.110155,-592.164754,612.876398,8586.388927
786.110485,74.020594,1685.410096,8660.409521
786.110814,592.164754,2221.676944,9178.553681
786.111143,222.061783,2298.286494,9992.780217
786.111473,-592.164754,2911.162892,10584.944971
786.111802,-1332.370696,2604.724693,10658.965565
786.112131,-1998.556043,1455.581446,10658.965565
786.112460,-1924.535449,229.828649,10807.006753
786.112790,-1998.556043,0.000000,10362.883188
786.113119,-1776.494261,0.000000,9770.718434
786.113448,-1258.350101,0.000000,8660.409521
786.113778,-666.185348,383.047749,8808.450710
786.114107,-222.061783,689.485948,9400.615463
786.114436,-222.061783,1608.800546,10288.862594
786.114765,-1406.391290,2068.457845,10510.924376
786.115095,-2516.700203,1991.848295,9770.718434
786.115424,-2590.720797,1455.581446,9400.615463
786.115753,-2294.638420,306.438199,9104.533087
786.116083,-1480.411884,-766.095498,9104.533087
786.116412,-962.267725,-689.485948,8216.285956
786.116741,-296.082377,-612.876398,7846.182985
786.117070,888.247130,153.219100,8216.285956
786.117400,1258.350101,1532.190996,9326.594869
786.117729,1036.288319,2987.772442,10214.842000
786.118058,518.144159,3830.477490,10807.006753
786.118388,74.020594,3907.087040,10584.944971
786.118717,0.000000,2987.772442,9992.780217
786.119046,-962.267725,1608.800546,9326.594869
786.119375,-1332.370696,76.609550,9178.553681
786.119705,-1850.514855,-919.314598,8660.409521
786.120034,-2146.597232,-995.924147,8808.450710
786.120363,-2072.576638,-1225.752797,8660.409521
786.120693,-2294.638420,-766.095498,8956.491898
786.121022,-1776.494261,0.000000,9030.512492
786.121351,-962.267725,612.876398,9030.512492
786.121680,148.041188,1762.019645,9326.594869
786.122010,740.205942,2451.505594,9104.533087
786.122339,1258.350101,2834.553343,9474.636058
786.122668,370.102971,2451.505594,9770.718434
786.122998,-444.123565,2374.896044,10214.842000
786.123327,-1406.391290,1915.238745,10214.842000
786.123656,-1850.514855,842.705048,10288.862594
786.123985,-2072.576638,76.609550,9992.780217
786.124315,-2368.659014,-229.828649,9992.780217
786.124644,-1850.514855,0.000000,9992.780217
786.124973,-1702.473667,153.219100,9400.615463
786.125303,-1036.288319,842.705048,9400.615463
786.125632,-814.226536,1532.190996,9474.636058
786.125961,-814.226536,1685.410096,9918.759623
786.126290,-1998.556043,1608.800546,10362.883188
786.126620,-3256.906145,1762.019645,9992.780217
786.126949,-3552.988522,919.314598,9474.636058
786.127278,-2738.761985,-383.047749,9030.512492
786.127608,-1554.432478,-1072.533697,8216.285956
786.127937,-666.185348,-1225.752797,7698.141797
786.128266,518.144159,-919.314598,7624.121203
786.128595,1406.391290,459.657299,8586.388927
786.128925,1628.453072,2451.505594,9770.718434
786.129254,962.267725,3677.258390,10807.006753
786.129583,962.267725,4519.963438,10807.006753
786.129913,148.041188,4213.525239,11325.150913
786.130242,-592.164754,3140.991542,10658.965565
786.130571,-1184.329507,1302.362347,10066.800811
786.130900,-1776.494261,-689.485948,9474.636058
786.131230,-2368.659014,-1838.629195,8734.430116
786.131559,-2516.700203,-1838.629195,8956.491898
786.131888,-2960.823768,-1608.800546,8660.409521
786.132217,-2516.700203,-1149.143247,8808.450710
786.132547,-1924.535449,-306.438199,8660.409521
786.132876,-1110.308913,1072.533697,8808.450710
786.133205,-148.041188,1838.629195,8586.388927
786.133535,370.102971,2451.505594,9030.512492
786.133864,222.061783,2451.505594,9474.636058
786.134193,-444.123565,2834.553343,10214.842000
786.134522,-1554.432478,1685.410096,10436.903782
786.134852,-1850.514855,2145.067394,10584.944971
786.135181,-2442.679609,383.047749,10510.924376
786.135510,-2516.700203,-153.219100,10214.842000
786.135840,-2294.638420,-459.657299,9770.718434
786.136169,-1628.453072,-459.657299,9400.615463
786.136498,-888.247130,229.828649,9178.553681
786.136827,-518.144159,1378.971896,9622.677246
786.137157,-666.185348,1838.629195,10066.800811
786.137486,-962.267725,1915.238745,10732.986159
786.137815,-2072.576638,2145.067394,10436.903782
786.138145,-2516.700203,1608.800546,9770.718434
786.138474,-2664.741391,306.438199,9030.512492
786.138803,-1702.473667,-1149.143247,8882.471304
786.139132,-814.226536,-1455.581446,8216.285956
786.139462,74.020594,-1149.143247,7920.203579
786.139791,962.267725,-995.924147,7920.203579
786.140120,1480.411884,995.924147,9178.553681
786.140450,1406.391290,2987.772442,10140.821405
786.140779,814.226536,4136.915689,10955.047942
786.141108,444.123565,3907.087040,11325.150913
786.141437,-296.082377,3907.087040,10732.986159
786.141767,-888.247130,2987.772442,9548.656652
786.142096,-962.267725,459.657299,9326.594869
786.142425,-1332.370696,-1378.971896,9252.574275
786.142755,-1998.556043,-1838.629195,9030.512492
786.143084,-2516.700203,-1378.971896,8734.430116
786.143413,-2368.659014,-306.438199,8734.430116
786.143742,-1702.473667,-459.657299,8586.388927
786.144072,-814.226536,612.876398,8438.347739
786.144401,74.020594,1685.410096,8364.327145
786.144730,962.267725,2298.286494,8438.347739
786.145060,1628.453072,2681.334243,8586.388927
786.145389,666.185348,2681.334243,9400.615463
786.145718,0.000000,2987.772442,10584.944971
786.146047,-1332.370696,2221.676944,10658.965565
786.146377,-1998.556043,1378.971896,10658.965565
786.146706,-1998.556043,612.876398,10288.862594
786.147035,-1850.514855,-689.485948,10214.842000
786.147365,-1332.370696,-612.876398,10362.883188
786.147694,-1406.391290,-459.657299,9474.636058
786.148023,-1110.308913,229.828649,9178.553681
786.148352,-740.205942,995.924147,9844.739029
786.148682,-666.185348,2068.457845,9918.759623
786.149011,-1924.535449,2068.457845,10436.903782
786.149340,-2812.782580,1838.629195,9992.780217
786.149670,-3182.885551,1072.533697,9252.574275
786.149999,-2664.741391,0.000000,8882.471304
786.150328,-2072.576638,-1302.362347,8438.347739
786.150657,-1406.391290,-1378.971896,7920.203579
786.150987,-296.082377,-919.314598,8068.244768
786.151316,814.226536,-229.828649,8586.388927
786.151645,1110.308913,1838.629195,9696.697840
786.151975,962.267725,3677.258390,10658.965565
786.152304,666.185348,3830.477490,11325.150913
786.152633,0.000000,3677.258390,11843.295072
786.152962,-740.205942,2987.772442,11103.089130
786.153292,-1554.432478,1915.238745,10066.800811
786.153621,-1924.535449,-766.095498,9326.594869
786.153950,-2220.617826,-2221.676944,8956.491898
786.154280,-2368.659014,-2145.067394,8882.471304
786.154609,-2516.700203,-1991.848295,8734.430116
786.154938,-2664.741391,-1378.971896,8216.285956
786.155267,-2146.597232,0.000000,8142.265362
786.155597,-740.205942,1149.143247,8216.285956
786.155926,370.102971,1991.848295,8364.327145
786.156255,962.267725,2528.115143,8734.430116
786.156585,740.205942,3294.210641,9252.574275
786.156914,-222.061783,3217.601092,10066.800811
786.157243,-1258.350101,2145.067394,10658.965565
786.157572,-2442.679609,1838.629195,11029.068536
786.157902,-2812.782580,766.095498,10732.986159
786.158231,-2960.823768,-229.828649,10584.944971
786.158560,-3108.864956,-536.266849,10214.842000
786.158890,-2368.659014,-459.657299,9918.759623
786.159219,-1850.514855,-153.219100,9030.512492
786.159548,-814.226536,536.266849,8882.471304
786.159877,0.000000,1072.533697,9474.636058
786.160207,-666.185348,1838.629195,9992.780217
786.160536,-1628.453072,2451.505594,10214.842000
786.160865,-2072.576638,1991.848295,9252.574275
786.161195,-2294.638420,842.705048,8808.450710
786.161524,-1480.411884,76.609550,9178.553681
786.161853,-592.164754,-766.095498,9030.512492
786.162182,0.000000,-766.095498,8364.327145
786.162512,518.144159,-383.047749,8364.327145
786.162841,1702.473667,689.485948,8808.450710
786.163170,1776.494261,2221.676944,10362.883188
786.163500,1184.329507,4060.306139,11473.192101
786.163829,296.082377,4443.353888,11473.192101
786.164158,0.000000,3753.867940,10807.006753
786.164487,-740.205942,2911.162892,9918.759623
786.164817,-1406.391290,1072.533697,9104.533087
786.165146,-1628.453072,-689.485948,8956.491898
786.165475,-2072.576638,-1532.190996,8512.368333
786.165805,-2368.659014,-1685.410096,8586.388927
786.166134,-2294.638420,-1608.800546,8216.285956
786.166463,-1998.556043,-689.485948,8586.388927
786.166792,-1628.453072,76.609550,8586.388927
786.167122,-444.123565,1149.143247,8956.491898
786.167451,222.061783,2298.286494,9030.512492
786.167780,666.185348,2604.724693,9030.512492
786.168110,740.205942,2757.943793,9252.574275
786.168439,0.000000,2451.505594,10288.862594
786.168768,-666.185348,2451.505594,10584.944971
786.169098,-1480.411884,1915.238745,10510.924376
786.169427,-1776.494261,459.657299,10288.862594
786.169756,-1998.556043,0.000000,9918.759623
786.170085,-1702.473667,0.000000,9770.718434
786.170415,-1554.432478,0.000000,9400.615463
786.170744,-1480.411884,0.000000,8734.430116
786.171073,-1184.329507,689.485948,9400.615463
786.171403,-1036.288319,1378.971896,10288.862594
786.171732,-1998.556043,1915.238745,10658.965565
786.172061,-2738.761985,1915.238745,10436.903782
786.172390,-3330.926739,1302.362347,9696.697840
786.172720,-3182.885551,229.828649,9178.553681
786.173049,-2072.576638,-995.924147,8956.491898
786.173378,-1110.308913,-1072.533697,8512.368333
786.173708,-370.102971,-459.657299,8216.285956
786.174037,444.123565,0.000000,8216.285956
786.174366,1184.329507,1302.362347,9104.533087
786.174695,1332.370696,2604.724693,10066.800811
786.175025,962.267725,3753.867940,10881.027347
786.175354,296.082377,4366.744339,11177.109724
786.175683,-444.123565,3524.039291,10955.047942
786.176013,-1184.329507,2374.896044,10658.965565
786.176342,-2072.576638,229.828649,10066.800811
786.176671,-2220.617826,-1149.143247,9474.636058
786.177000,-2812.782580,-2068.457845,8660.409521
786.177330,-2516.700203,-2145.067394,8438.347739
786.177659,-2590.720797,-2068.457845,8364.327145
786.177988,-2072.576638,-1149.143247,8142.265362
786.178318,-1036.288319,153.219100,8142.265362
786.178647,518.144159,1455.581446,8660.409521
786.178976,1110.308913,2374.896044,8586.388927
786.179306,1258.350101,2987.772442,9178.553681
786.179635,666.185348,2681.334243,9918.759623
786.179964,0.000000,2834.553343,10510.924376
786.180293,-1110.308913,2757.943793,10658.965565
786.180623,-1776.494261,1762.019645,10881.027347
786.180952,-2368.659014,306.438199,10732.986159
786.181281,-2516.700203,-306.438199,10510.924376
786.181611,-2368.659014,-383.047749,10214.842000
786.181940,-2146.597232,0.000000,9400.615463
786.182269,-1406.391290,153.219100,8660.409521
786.182598,-814.226536,536.266849,8882.471304
786.182928,-814.226536,995.924147,9844.739029
786.183257,-1554.432478,1762.019645,10066.800811
786.183586,-2664.741391,2068.457845,9474.636058
786.183916,-3404.947333,1532.190996,9178.553681
786.184245,-2738.761985,459.657299,9178.553681
786.184574,-1628.453072,-766.095498,9474.636058
786.184903,-814.226536,-766.095498,9030.512492
786.185233,0.000000,-153.219100,8216.285956
786.185562,814.226536,689.485948,8586.388927
786.185891,1924.535449,1302.362347,9696.697840
786.186221,1702.473667,3447.429741,10658.965565
786.186550,1036.288319,4290.134789,11103.089130
786.186879,666.185348,4596.572988,11029.068536
786.187209,74.020594,3217.601092,10288.862594
786.187538,-666.185348,2068.457845,9622.677246
786.187867,-1406.391290,153.219100,9178.553681
786.188196,-1998.556043,-1378.971896,8734.430116
786.188526,-2368.659014,-1762.019645,8586.388927
786.188855,-2368.659014,-1685.410096,8882.471304
786.189184,-2812.782580,-459.657299,8216.285956
786.189514,-2368.659014,-306.438199,8660.409521
786.189843,-1184.329507,306.438199,8586.388927
786.190172,0.000000,1302.362347,8808.450710
786.190501,740.205942,2298.286494,8956.491898
786.190831,1554.432478,2451.505594,9252.574275
786.191160,222.061783,2451.505594,9400.615463
786.191489,-222.061783,2528.115143,10362.883188
786.191819,-1110.308913,2374.896044,10510.924376
786.192148,-1628.453072,1072.533697,10436.903782
786.192477,-1702.473667,153.219100,10288.862594
786.192806,-1776.494261,-153.219100,10658.965565
786.193136,-1776.494261,0.000000,9548.656652
786.193465,-1258.350101,0.000000,9474.636058
786.193794,-962.267725,536.266849,9252.574275
786.194124,-888.247130,1072.533697,9770.718434
786.194453,-1036.288319,1455.581446,10140.821405
786.194782,-2072.576638,1455.581446,10510.924376
786.195111,-3108.864956,1149.143247,9844.739029
786.195441,-3330.926739,536.266849,9400.615463
786.195770,-2738.761985,-459.657299,9178.553681
786.196099,-1776.494261,-995.924147,8808.450710
786.196429,-592.164754,-1608.800546,8290.306550
786.196758,148.041188,-689.485948,8068.244768
786.197087,1258.350101,153.219100,8882.471304
786.197417,1628.453072,2374.896044,9992.780217
786.197746,1406.391290,3830.477490,10658.965565
786.198075,740.205942,4519.963438,10881.027347
786.198404,148.041188,4136.915689,11325.150913
786.198734,-666.185348,3294.210641,10807.006753
786.199063,-1406.391290,1532.190996,10362.883188
786.199392,-1998.556043,0.000000,9770.718434
786.199722,-2442.679609,-1302.362347,8882.471304
786.200051,-2886.803174,-1608.800546,8882.471304
786.200380,-3034.844362,-1838.629195,8290.306550
786.200709,-2812.782580,-1378.971896,8068.244768
786.201039,-1998.556043,-612.876398,8142.265362
786.201368,-518.144159,995.924147,8216.285956
786.201697,0.000000,1915.238745,8438.347739
786.202027,518.144159,2528.115143,8734.430116
786.202356,444.123565,2911.162892,9252.574275
786.202685,148.041188,2911.162892,9992.780217
786.203014,-888.247130,3294.210641,10732.986159
786.203344,-1554.432478,2145.067394,10658.965565
786.203673,-2368.659014,842.705048,10510.924376
786.204002,-2590.720797,0.000000,10362.883188
786.204332,-2368.659014,-536.266849,9992.780217
786.204661,-2146.597232,0.000000,9326.594869
786.204990,-1480.411884,0.000000,8808.450710
786.205319,-814.226536,459.657299,9104.533087
786.205649,-370.102971,919.314598,9326.594869
786.205978,-370.102971,1915.238745,9992.780217
786.206307,-1702.473667,2221.676944,9918.759623
786.206637,-2294.638420,2145.067394,9400.615463
786.206966,-2664.741391,459.657299,9104.533087
786.207295,-1850.514855,-689.485948,9474.636058
786.207625,-1258.350101,-1225.752797,9030.512492
786.207954,-666.185348,-766.095498,8290.306550
786.208283,518.144159,-229.828649,8438.347739
786.208612,1554.432478,0.000000,9178.553681
786.208942,1776.494261,1915.238745,10140.821405
786.209271,1258.350101,3677.258390,11029.068536
786.209600,666.185348,4060.306139,11177.109724
786.209930,74.020594,3447.429741,10881.027347
786.210259,-148.041188,2757.943793,9992.780217
786.210588,-1036.288319,842.705048,9548.656652
786.210917,-1258.350101,-995.924147,9400.615463
786.211247,-1998.556043,-1608.800546,9104.533087
786.211576,-2442.679609,-1532.190996,9030.512492
786.211905,-2590.720797,-1838.629195,9030.512492
786.212235,-2664.741391,-612.876398,8956.491898
786.212564,-1702.473667,0.000000,8660.409521
786.212893,-148.041188,842.705048,8660.409521
786.213222,518.144159,1838.629195,8660.409521
786.213552,1184.329507,2528.115143,8808.450710
786.213881,888.247130,3064.381992,9252.574275
786.214210,-296.082377,2757.943793,9844.739029
786.214540,-888.247130,2451.505594,10214.842000
786.214869,-1406.391290,1532.190996,10214.842000
786.215198,-1924.535449,306.438199,10140.821405
786.215528,-2220.617826,76.609550,10066.800811
786.215857,-1998.556043,-383.047749,9844.739029
786.216186,-1776.494261,76.609550,9474.636058
786.216515,-1406.391290,306.438199,9252.574275
786.216845,-1110.308913,995.924147,9548.656652
786.217174,-962.267725,1455.581446,10066.800811
786.217503,-1480.411884,1455.581446,10288.862594
786.217833,-2664.741391,1762.019645,9992.780217
786.218162,-2960.823768,1378.971896,9474.636058
786.218491,-2442.679609,0.000000,9178.553681
786.218820,-1850.514855,-766.095498,8808.450710
786.219150,-1184.329507,-1302.362347,7698.141797
786.219479,0.000000,-459.657299,7920.203579
786.219808,1036.288319,153.219100,8586.388927
786.220138,1554.432478,1532.190996,9474.636058
786.220467,1184.329507,3370.820191,10362.883188
786.220796,814.226536,3983.696590,11103.089130
786.221125,74.020594,4213.525239,11399.171507
786.221455,-444.123565,3600.648841,11473.192101
786.221784,-1480.411884,2145.067394,10658.965565
786.222113,-2072.576638,76.609550,9770.718434
786.222443,-2368.659014,-1762.019645,9400.615463
786.222772,-2368.659014,-2068.457845,8956.491898
786.223101,-2664.741391,-2145.067394,8660.409521
786.223430,-2516.700203,-1685.410096,8290.306550
786.223760,-1776.494261,-612.876398,8142.265362
786.224089,-1036.288319,612.876398,8438.347739
786.224418,518.144159,1608.800546,8364.327145
786.224748,888.247130,2374.896044,8734.430116
786.225077,1036.288319,2987.772442,8882.471304
786.225406,518.144159,2681.334243,9770.718434
786.225736,-222.061783,3064.381992,10658.965565
786.226065,-1702.473667,2604.724693,10658.965565
786.226394,-2442.679609,995.924147,10807.006753
786.226723,-2664.741391,76.609550,10436.903782
786.227053,-2664.741391,-612.876398,10214.842000
786.227382,-2368.659014,-536.266849,9770.718434
786.227711,-1924.535449,-153.219100,8660.409521
786.228041,-1184.329507,383.047749,8586.388927
786.228370,-444.123565,612.876398,9104.533087
786.228699,-592.164754,1149.143247,9844.739029
786.229028,-1702.473667,1532.190996,10140.821405
786.229358,-2664.741391,1991.848295,9622.677246
786.229687,-3182.885551,1149.143247,9400.615463
786.230016,-2442.679609,0.000000,9400.615463
786.230346,-1554.432478,-1225.752797,9326.594869
786.230675,-666.185348,-1149.143247,8808.450710
786.231004,0.000000,-459.657299,8364.327145
786.231333,1110.308913,-612.876398,8882.471304
786.231663,1702.473667,1838.629195,10066.800811
786.231992,1480.411884,3370.820191,11177.109724
786.232321,962.267725,4290.134789,11473.192101
786.232651,518.144159,3983.696590,11029.068536
786.232980,-148.041188,3217.601092,10288.862594
786.233309,-740.205942,1838.629195,9548.656652
786.233638,-1332.370696,-306.438199,9252.574275
786.233968,-1924.535449,-1455.581446,8734.430116
786.234297,-2442.679609,-1455.581446,8512.368333
786.234626,-2516.700203,-1149.143247,8438.347739
786.234956,-2368.659014,-1455.581446,7994.224174
786.235285,-1924.535449,0.000000,8142.265362
786.235614,-814.226536,919.314598,8586.388927
786.235944,0.000000,1838.629195,8808.450710
786.236273,592.164754,2987.772442,8882.471304
786.236602,518.144159,2911.162892,9030.512492
786.236931,0.000000,2757.943793,9622.677246
786.237261,-666.185348,2604.724693,10288.862594
786.237590,-1480.411884,1838.629195,10584.944971
786.237919,-2146.597232,842.705048,10066.800811
786.238249,-2294.638420,229.828649,9770.718434
786.238578,-2072.576638,-612.876398,9992.780217
786.238907,-1628.453072,153.219100,9474.636058
786.239236,-1110.308913,76.609550,9400.615463
786.239566,-518.144159,766.095498,9178.553681
786.239895,0.000000,1378.971896,9696.697840
786.240224,-518.144159,2528.115143,10436.903782
786.240554,-2072.576638,2374.896044,10436.903782
786.240883,-2812.782580,1685.410096,9844.739029
786.241212,-2960.823768,842.705048,9326.594869
786.241541,-2368.659014,-612.876398,9252.574275
786.241871,-1184.329507,-1225.752797,8734.430116
786.242200,-666.185348,-1225.752797,8586.388927
786.242529,222.061783,-612.876398,8364.327145
786.242859,1036.288319,536.266849,9474.636058
786.243188,1036.288319,2451.505594,10140.821405
786.243517,666.185348,2911.162892,10881.027347
786.243847,222.061783,3907.087040,11251.130318
786.244176,0.000000,3677.258390,10955.047942
786.244505,-962.267725,2757.943793,10066.800811
786.244834,-1406.391290,766.095498,9696.697840
786.245164,-2072.576638,-995.924147,9104.533087
786.245493,-2368.659014,-1762.019645,8956.491898
786.245822,-2960.823768,-1762.019645,8438.347739
786.246152,-3256.906145,-1685.410096,8586.388927
786.246481,-2812.782580,-1225.752797,8216.285956
786.246810,-1850.514855,-459.657299,8290.306550
786.247139,0.000000,306.438199,8364.327145
786.247469,296.082377,1991.848295,8882.471304
786.247798,814.226536,2528.115143,8808.450710
786.248127,592.164754,2604.724693,9474.636058
786.248457,0.000000,2604.724693,10436.903782
786.248786,-740.205942,2068.457845,10955.047942
786.249115,-1406.391290,2145.067394,10658.965565
786.249444,-2146.597232,919.314598,10510.924376
786.249774,-2072.576638,0.000000,10288.862594
786.250103,-1998.556043,-229.828649,9992.780217
786.250432,-1628.453072,0.000000,9474.636058
786.250762,-1554.432478,0.000000,8808.450710
786.251091,-666.185348,536.266849,9030.512492
786.251420,-814.226536,995.924147,9696.697840
786.251749,-1332.370696,1915.238745,10214.842000
786.252079,-2516.700203,2374.896044,10066.800811
786.252408,-3034.844362,1378.971896,9252.574275
786.252737,-2590.720797,536.266849,9104.533087
786.253067,-1924.535449,-536.266849,9252.574275
786.253396,-1110.308913,-919.314598,9178.553681
786.253725,-222.061783,-229.828649,8586.388927
786.254055,740.205942,0.000000,8290.306550
786.254384,1628.453072,1532.190996,9400.615463
786.254713,1480.411884,2987.772442,10288.862594
786.255042,1184.329507,3907.087040,11177.109724
786.255372,518.144159,4213.525239,10881.027347
786.255701,222.061783,3907.087040,10214.842000
786.256030,-222.061783,2604.724693,9474.636058
786.256360,-666.185348,306.438199,9178.553681
786.256689,-1110.308913,-995.924147,8882.471304
786.257018,-1850.514855,-1302.362347,8882.471304
786.257347,-2146.597232,-1072.533697,8586.388927
786.257677,-1998.556043,-153.219100,8586.388927
786.258006,-1924.535449,0.000000,8660.409521
786.258335,-1036.288319,689.485948,8734.430116
786.258665,-296.082377,1149.143247,8660.409521
786.258994,444.123565,2374.896044,8734.430116
786.259323,666.185348,2528.115143,9030.512492
786.259652,222.061783,2451.505594,9770.718434
786.259982,-666.185348,2145.067394,10362.883188
786.260311,-1480.411884,2145.067394,10362.883188
786.260640,-2294.638420,1149.143247,10288.862594
786.260970,-2294.638420,-153.219100,9844.739029
786.261299,-2368.659014,0.000000,9992.780217
786.261628,-2072.576638,-383.047749,9918.759623
786.261958,-1628.453072,0.000000,9474.636058
786.262287,-1258.350101,536.266849,9178.553681
786.262616,-814.226536,1302.362347,9548.656652
786.262946,-1036.288319,1915.238745,9992.780217
786.263275,-1480.411884,1915.238745,10955.047942
786.263604,-2664.741391,1991.848295,10140.821405
786.263934,-2886.803174,1149.143247,9400.615463
786.264263,-2368.659014,0.000000,9474.636058
786.264592,-1258.350101,-1149.143247,9104.533087
786.264922,-962.267725,-995.924147,8290.306550
786.265251,-222.061783,-689.485948,8216.285956
786.265581,888.247130,0.000000,8660.409521
786.265910,1332.370696,1455.581446,9474.636058
786.266239,1184.329507,2681.334243,10436.903782
786.266569,518.144159,4443.353888,11251.130318
786.266898,148.041188,4060.306139,10807.006753
786.267227,-370.102971,3217.601092,10140.821405
786.267557,-1184.329507,2145.067394,9622.677246
786.267886,-1924.535449,76.609550,9326.594869
786.268215,-1924.535449,-1072.533697,9178.553681
786.268545,-3034.844362,-1838.629195,8290.306550
786.268874,-2886.803174,-1838.629195,8586.388927
786.269203,-3108.864956,-1302.362347,8438.347739
786.269533,-2516.700203,-612.876398,8586.388927
786.269862,-1184.329507,536.266849,8586.388927
786.270191,-592.164754,1455.581446,8734.430116
786.270521,296.082377,1991.848295,9030.512492
786.270850,740.205942,2451.505594,9252.574275
786.271179,222.061783,2374.896044,9918.759623
786.271509,-962.267725,2528.115143,9992.780217
786.271838,-1480.411884,2374.896044,10807.006753
786.272167,-1998.556043,1149.143247,10658.965565
786.272497,-2146.597232,383.047749,10510.924376
786.272826,-2146.597232,-229.828649,10288.862594
786.273155,-1850.514855,-459.657299,9992.780217
786.273485,-1480.411884,0.000000,8882.471304
786.273814,-518.144159,459.657299,9104.533087
786.274143,-222.061783,995.924147,9474.636058
786.274473,-444.123565,1685.410096,10584.944971
786.274802,-1702.473667,1991.848295,10510.924376
786.275132,-2738.761985,2374.896044,9696.697840
786.275461,-2960.823768,919.314598,9844.739029
786.275790,-2442.679609,0.000000,9696.697840
786.276120,-1776.494261,-995.924147,9178.553681
786.276449,-888.247130,-995.924147,8068.244768
786.276778,296.082377,-766.095498,7402.059420
786.277108,1406.391290,153.219100,8216.285956
786.277437,1628.453072,1685.410096,9474.636058
786.277766,1036.288319,3753.867940,10658.965565
786.278096,444.123565,4213.525239,10881.027347
786.278425,222.061783,3830.477490,10362.883188
786.278754,0.000000,2987.772442,10066.800811
786.279084,-518.144159,1378.971896,9696.697840
786.279413,-740.205942,-459.657299,9326.594869
786.279742,-1184.329507,-842.705048,8882.471304
786.280072,-1406.391290,-1225.752797,8364.327145
786.280401,-1776.494261,-1225.752797,8216.285956
786.280730,-1258.350101,-689.485948,8068.244768
786.281060,-814.226536,536.266849,8364.327145
786.281389,-296.082377,1225.752797,8586.388927
786.281718,296.082377,2145.067394,8660.409521
786.282048,518.144159,2681.334243,9030.512492
786.282377,222.061783,2068.457845,9178.553681
786.282706,-888.247130,2298.286494,10436.903782
786.283036,-1628.453072,2145.067394,10732.986159
786.283365,-2442.679609,1072.533697,10584.944971
786.283694,-2664.741391,-306.438199,10658.965565
786.284024,-2738.761985,-689.485948,10436.903782
786.284353,-2812.782580,-995.924147,10362.883188
786.284683,-2072.576638,-383.047749,10066.800811
786.285012,-1184.329507,459.657299,9622.677246
786.285341,-370.102971,766.095498,9474.636058
786.285671,-296.082377,1455.581446,10140.821405
786.286000,-444.123565,1915.238745,10807.006753
786.286329,-1924.535449,2068.457845,10436.903782
786.286659,-2516.700203,1762.019645,9622.677246
786.286988,-2516.700203,612.876398,9474.636058
786.287317,-1258.350101,-383.047749,9252.574275
786.287647,-1036.288319,-1378.971896,8364.327145
786.287976,-592.164754,-842.705048,8068.244768
786.288305,518.144159,-536.266849,8068.244768
786.288635,1036.288319,995.924147,9326.594869
786.288964,592.164754,2681.334243,9992.780217
786.289293,0.000000,4290.134789,10732.986159
786.289623,-370.102971,3983.696590,10584.944971
786.289952,-444.123565,3217.601092,10436.903782
786.290281,-1036.288319,1991.848295,9844.739029
786.290611,-1554.432478,229.828649,9474.636058
786.290940,-2146.597232,-1302.362347,8808.450710
786.291269,-2664.741391,-1302.362347,8734.430116
786.291599,-2738.761985,-919.314598,8438.347739
786.291928,-2368.659014,-1072.533697,8068.244768
786.292257,-1850.514855,-842.705048,7846.182985
786.292587,-444.123565,383.047749,7994.224174
786.292916,222.061783,1685.410096,8216.285956
786.293245,962.267725,2681.334243,8660.409521
786.293575,814.226536,3217.601092,9252.574275
786.293904,296.082377,2987.772442,10066.800811
786.294234,-370.102971,3217.601092,10807.006753
786.294563,-1924.535449,2451.505594,11103.089130
786.294892,-2368.659014,1378.971896,11103.089130
786.295222,-2812.782580,0.000000,10881.027347
786.295551,-3034.844362,-766.095498,10658.965565
786.295880,-2368.659014,-689.485948,10214.842000
786.296210,-1850.514855,-306.438199,9104.533087
786.296539,-962.267725,0.000000,8512.368333
786.296868,-444.123565,459.657299,9030.512492
786.297198,0.000000,1149.143247,9918.759623
786.297527,-888.247130,2221.676944,10436.903782
786.297856,-2294.638420,2681.334243,10066.800811
786.298186,-2590.720797,1991.848295,9326.594869
786.298515,-2220.617826,842.705048,9326.594869
786.298844,-1332.370696,-306.438199,9326.594869
786.299174,-666.185348,-919.314598,8808.450710
786.299503,0.000000,-459.657299,7994.224174
786.299832,592.164754,0.000000,8364.327145
786.300162,1258.350101,1455.581446,9474.636058
786.300491,740.205942,2987.772442,10510.924376
786.300820,222.061783,3677.258390,10881.027347
786.301150,-296.082377,3447.429741,10584.944971
786.301479,-444.123565,3064.381992,9918.759623
786.301808,-888.247130,1532.190996,9844.739029
786.302138,-1480.411884,-229.828649,9326.594869
786.302467,-1776.494261,-1302.362347,8882.471304
786.302796,-1850.514855,-1302.362347,8808.450710
786.303126,-1628.453072,-766.095498,9104.533087
786.303455,-1628.453072,-995.924147,8438.347739
786.303785,-814.226536,0.000000,8438.347739
786.304114,-222.061783,1072.533697,8438.347739
786.304443,740.205942,1991.848295,9030.512492
786.304773,1628.453072,3140.991542,9548.656652
786.305102,1110.308913,3524.039291,9326.594869
786.305431,148.041188,2757.943793,10140.821405
786.305761,-888.247130,2604.724693,10510.924376
786.306090,-2220.617826,2145.067394,10658.965565
786.306419,-2590.720797,612.876398,10658.965565
786.306749,-2664.741391,-306.438199,10214.842000
786.307078,-2812.782580,-1072.533697,10066.800811
786.307407,-2812.782580,-919.314598,9696.697840
786.307737,-2368.659014,-459.657299,9030.512492
786.308066,-1702.473667,0.000000,9104.533087
786.308395,-888.247130,612.876398,9770.718434
786.308725,-962.267725,1302.362347,10584.944971
786.309054,-2072.576638,2145.067394,10584.944971
786.309383,-2664.741391,1685.410096,9844.739029
786.309713,-2664.741391,919.314598,9326.594869
786.310042,-1998.556043,-153.219100,9400.615463
786.310371,-962.267725,-842.705048,8882.471304
786.310701,-370.102971,-689.485948,8586.388927
786.311030,296.082377,0.000000,8142.265362
786.311359,1406.391290,459.657299,9104.533087
786.311689,1480.411884,2068.457845,10140.821405
786.312018,1110.308913,3753.867940,10584.944971
786.312347,518.144159,3524.039291,10955.047942
786.312677,0.000000,2911.162892,10658.965565
786.313006,-740.205942,1991.848295,10510.924376
786.313336,-1480.411884,766.095498,9844.739029
786.313665,-2368.659014,-766.095498,9474.636058
786.313994,-2516.700203,-2221.676944,8660.409521
786.314324,-2960.823768,-1762.019645,8216.285956
786.314653,-2738.761985,-1302.362347,8142.265362
786.314982,-2442.679609,-919.314598,7846.182985
786.315312,-1480.411884,76.609550,8068.244768
786.315641,-592.164754,919.314598,7698.141797
786.315970,74.020594,2298.286494,8660.409521
786.316300,518.144159,2834.553343,9178.553681
786.316629,222.061783,3140.991542,10066.800811
786.316958,-814.226536,3140.991542,10807.006753
786.317288,-962.267725,2451.505594,11325.150913
786.317617,-2220.617826,1838.629195,10955.047942
786.317946,-2590.720797,612.876398,10658.965565
786.318276,-2738.761985,-459.657299,10510.924376
786.318605,-2368.659014,-383.047749,10066.800811
786.318934,-1924.535449,229.828649,9474.636058
786.319264,-888.247130,0.000000,8438.347739
786.319593,-148.041188,536.266849,8956.491898
786.319922,148.041188,1225.752797,9252.574275
786.320252,0.000000,1915.238745,10140.821405
786.320581,-1332.370696,2374.896044,10362.883188
786.320910,-2220.617826,2528.115143,9474.636058
786.321240,-2442.679609,1685.410096,9474.636058
786.321569,-1850.514855,229.828649,9400.615463
