#time,accel_x,accel_y,accel_z
884.782353,-1258.350101,689.485948,9548.656652
884.782683,-1184.329507,766.095498,9474.636058
884.783012,-1110.308913,766.095498,9548.656652
884.783342,-962.267725,1225.752797,9030.512492
884.783671,-888.247130,229.828649,8956.491898
884.784001,-888.247130,766.095498,9548.656652
884.784330,-1036.288319,766.095498,9474.636058
884.784660,-888.247130,1072.533697,9474.636058
884.784989,-1110.308913,1072.533697,9622.677246
884.785319,-888.247130,919.314598,9548.656652
884.785649,-888.247130,842.705048,9474.636058
884.785978,-962.267725,689.485948,9622.677246
884.786308,-1036.288319,842.705048,9474.636058
884.786637,-1110.308913,842.705048,9474.636058
884.786967,-962.267725,1302.362347,9252.574275
884.787296,-1036.288319,766.095498,9400.615463
884.787626,-962.267725,995.924147,9696.697840
884.787955,-962.267725,842.705048,9474.636058
884.788285,-962.267725,995.924147,9474.636058
884.788614,-888.247130,1378.971896,9548.656652
884.788944,-962.267725,536.266849,9400.615463
884.789273,-962.267725,766.095498,9326.594869
884.789603,-1036.288319,612.876398,9474.636058
884.789932,-1110.308913,842.705048,9474.636058
884.790262,-1110.308913,919.314598,9474.636058
884.790591,-740.205942,306.438199,9474.636058
884.790921,-962.267725,1072.533697,9622.677246
884.791250,-1036.288319,919.314598,9474.636058
884.791580,-1036.288319,919.314598,9548.656652
884.791909,-1110.308913,919.314598,9696.697840
884.792239,-962.267725,766.095498,9178.553681
884.792568,-1036.288319,1225.752797,9696.697840
884.792898,-1036.288319,842.705048,9474.636058
884.793227,-1110.308913,612.876398,9474.636058
884.793557,-962.267725,1072.533697,9622.677246
884.793887,-1110.308913,689.485948,9548.656652
884.794216,-1406.391290,1532.190996,9178.553681
884.794546,-1110.308913,919.314598,9548.656652
884.794875,-740.205942,919.314598,9622.677246
884.795205,-1184.329507,842.705048,9622.677246
884.795534,-888.247130,995.924147,9252.574275
884.795864,-814.226536,1225.752797,9400.615463
884.796193,-962.267725,766.095498,9474.636058
884.796523,-1110.308913,689.485948,9326.594869
884.796852,-962.267725,766.095498,9548.656652
884.797182,-1036.288319,919.314598,9474.636058
884.797511,-740.205942,1072.533697,9548.656652
884.797841,-1036.288319,689.485948,9474.636058
884.798170,-1184.329507,1072.533697,9474.636058
884.798500,-1184.329507,919.314598,9548.656652
884.798829,-1184.329507,842.705048,9400.615463
884.799159,-814.226536,459.657299,9474.636058
884.799488,-592.164754,612.876398,9326.594869
884.799818,-888.247130,995.924147,9474.636058
884.800147,-1110.308913,842.705048,9474.636058
884.800477,-1258.350101,919.314598,9326.594869
884.800806,-1406.391290,995.924147,9844.739029
884.801136,-740.205942,919.314598,9548.656652
884.801465,-1110.308913,919.314598,9400.615463
884.801795,-1258.350101,919.314598,9474.636058
884.802125,-1184.329507,919.314598,9622.677246
884.802454,-1036.288319,612.876398,9400.615463
884.802784,-518.144159,1225.752797,8734.430116
884.803113,296.082377,459.657299,9030.512492
884.803443,962.267725,459.657299,9326.594869
884.803772,962.267725,689.485948,9252.574275
884.804102,740.205942,766.095498,9548.656652
884.804431,0.000000,383.047749,9696.697840
884.804761,-296.082377,1072.533697,10881.027347
884.805090,-888.247130,995.924147,10732.986159
884.805420,-814.226536,229.828649,10214.842000
884.805749,-444.123565,76.609550,9622.677246
884.806079,592.164754,-459.657299,9104.533087
884.806408,1480.411884,0.000000,9030.512492
884.806738,2368.659014,459.657299,8660.409521
884.807067,3256.906145,689.485948,8734.430116
884.807397,3775.050304,1378.971896,9252.574275
884.807726,3849.070898,1915.238745,9400.615463
884.808056,3627.009116,2604.724693,9474.636058
884.808385,2738.761985,1378.971896,9844.739029
884.808715,2294.638420,1072.533697,10362.883188
884.809044,1258.350101,766.095498,10658.965565
884.809374,962.267725,229.828649,10732.986159
884.809703,1554.432478,-459.657299,10140.821405
884.810033,2146.597232,0.000000,9474.636058
884.810362,2738.761985,-383.047749,9178.553681
884.810692,3849.070898,0.000000,8882.471304
884.811022,4293.194464,995.924147,8882.471304
884.811351,4219.173869,2451.505594,9252.574275
884.811681,3552.988522,3140.991542,9622.677246
884.812010,2442.679609,3064.381992,10362.883188
884.812340,518.144159,2987.772442,10436.903782
884.812669,-1554.432478,2604.724693,10140.821405
884.812999,-1998.556043,1225.752797,9252.574275
884.813328,-814.226536,-459.657299,8586.388927
884.813658,444.123565,-1532.190996,7254.018232
884.813987,1998.556043,-1608.800546,6809.894666
884.814317,3182.885551,-536.266849,6809.894666
884.814646,3849.070898,306.438199,7402.059420
884.814976,3552.988522,2451.505594,8956.491898
884.815305,2664.741391,3907.087040,11029.068536
884.815635,1406.391290,4290.134789,12213.398043
884.815964,222.061783,3370.820191,12657.521608
884.816294,-814.226536,1915.238745,12213.398043
884.816623,-1184.329507,-383.047749,11917.315666
884.816953,-740.205942,-2374.896044,10955.047942
884.817282,-518.144159,-2451.505594,9622.677246
884.817612,444.123565,-2221.676944,8438.347739
884.817941,2294.638420,-1532.190996,7846.182985
884.818271,3775.050304,-383.047749,7550.100608
884.818600,4367.215058,536.266849,7550.100608
884.818930,3997.112087,2374.896044,7994.224174
884.819260,3182.885551,3677.258390,8956.491898
884.819589,2516.700203,4060.306139,9992.780217
884.819919,1554.432478,3600.648841,10955.047942
884.820248,444.123565,2757.943793,11473.192101
884.820578,-444.123565,153.219100,11177.109724
884.820907,-1110.308913,-1149.143247,10807.006753
884.821237,-1998.556043,-1378.971896,10288.862594
884.821566,-2220.617826,-1302.362347,10288.862594
884.821896,-1850.514855,-1072.533697,10066.800811
884.822225,-888.247130,-919.314598,9548.656652
884.822555,-370.102971,536.266849,9030.512492
884.822884,888.247130,1149.143247,8290.306550
884.823214,1998.556043,919.314598,7624.121203
884.823543,3256.906145,842.705048,8068.244768
884.823873,3404.947333,1072.533697,8068.244768
884.824202,2812.782580,1149.143247,8586.388927
884.824532,2220.617826,919.314598,9474.636058
884.824861,1332.370696,1072.533697,10584.944971
884.825191,0.000000,1608.800546,10955.047942
884.825520,-962.267725,1455.581446,11177.109724
884.825850,-1332.370696,1532.190996,11103.089130
884.826179,-1332.370696,1455.581446,10362.883188
884.826509,-962.267725,995.924147,9474.636058
884.826838,-592.164754,459.657299,9178.553681
884.827168,-592.164754,459.657299,8438.347739
884.827498,-1776.494261,229.828649,7698.141797
884.827827,-1924.535449,995.924147,7772.162391
884.828157,-1332.370696,995.924147,8216.285956
884.828486,-1332.370696,612.876398,8364.327145
884.828816,-1628.453072,536.266849,8882.471304
884.829145,-2146.597232,919.314598,9622.677246
884.829475,-2368.659014,1072.533697,10510.924376
884.829804,-2294.638420,1455.581446,11325.150913
884.830134,-1776.494261,1532.190996,11547.212695
884.830463,-1110.308913,919.314598,10955.047942
884.830793,-444.123565,842.705048,10140.821405
884.831122,-148.041188,536.266849,9918.759623
884.831452,-296.082377,1225.752797,9622.677246
884.831781,-518.144159,1685.410096,9770.718434
884.832111,-296.082377,1608.800546,9548.656652
884.832440,0.000000,2298.286494,9548.656652
884.832770,814.226536,2298.286494,8956.491898
884.833099,1406.391290,1762.019645,8068.244768
884.833429,1554.432478,995.924147,7402.059420
884.833758,1406.391290,1225.752797,8216.285956
884.834088,222.061783,1532.190996,9030.512492
884.834417,-1110.308913,1685.410096,9474.636058
884.834747,-2072.576638,1762.019645,9844.739029
884.835076,-2886.803174,995.924147,9696.697840
884.835406,-3182.885551,229.828649,9770.718434
884.835736,-2960.823768,306.438199,10288.862594
884.836065,-3108.864956,0.000000,9992.780217
884.836395,-3330.926739,536.266849,9844.739029
884.836724,-2960.823768,842.705048,9918.759623
884.837054,-2960.823768,766.095498,9770.718434
884.837383,-2590.720797,995.924147,9030.512492
884.837713,-1554.432478,919.314598,8216.285956
884.838042,-370.102971,1378.971896,7846.182985
884.838372,740.205942,919.314598,7920.203579
884.838701,962.267725,612.876398,7994.224174
884.839031,1110.308913,842.705048,8290.306550
884.839360,666.185348,1685.410096,8882.471304
884.839690,666.185348,1685.410096,9918.759623
884.840019,0.000000,1608.800546,11399.171507
884.840349,-1036.288319,1915.238745,12139.377449
884.840678,-1850.514855,919.314598,11843.295072
884.841008,-2368.659014,612.876398,11621.233289
884.841337,-2516.700203,383.047749,10807.006753
884.841667,-2442.679609,-383.047749,10436.903782
884.841996,-2368.659014,-1072.533697,9696.697840
884.842326,-1998.556043,-1149.143247,9400.615463
884.842655,-1554.432478,-459.657299,8956.491898
884.842985,-1628.453072,0.000000,8438.347739
884.843314,-1184.329507,1072.533697,7994.224174
884.843644,-666.185348,459.657299,8290.306550
884.843974,0.000000,1225.752797,8808.450710
884.844303,518.144159,2145.067394,8734.430116
884.844633,814.226536,2068.457845,8290.306550
884.844962,1332.370696,1455.581446,8808.450710
884.845292,1406.391290,1302.362347,9696.697840
884.845621,1036.288319,1455.581446,10584.944971
884.845951,370.102971,1838.629195,11177.109724
884.846280,-370.102971,2068.457845,11103.089130
884.846610,-888.247130,1685.410096,10066.800811
884.846939,-1110.308913,1455.581446,9474.636058
884.847269,-666.185348,229.828649,9178.553681
884.847598,-666.185348,-306.438199,8882.471304
884.847928,-1036.288319,-229.828649,8956.491898
884.848257,-2072.576638,153.219100,8882.471304
884.848587,-2812.782580,76.609550,8364.327145
884.848916,-3034.844362,0.000000,8364.327145
884.849246,-1924.535449,-229.828649,8216.285956
884.849575,-592.164754,0.000000,8660.409521
884.849905,296.082377,766.095498,9252.574275
884.850234,592.164754,1455.581446,9474.636058
884.850564,0.000000,2451.505594,8808.450710
884.850893,-148.041188,2757.943793,9030.512492
884.851223,74.020594,2528.115143,10214.842000
884.851552,-518.144159,2221.676944,11399.171507
884.851882,-1554.432478,1838.629195,11621.233289
884.852212,-3182.885551,766.095498,11251.130318
884.852541,-3849.070898,689.485948,11473.192101
884.852871,-3923.091493,229.828649,11029.068536
884.853200,-3108.864956,-689.485948,10066.800811
884.853530,-1924.535449,-1532.190996,8956.491898
884.853859,-962.267725,-1685.410096,8290.306550
884.854189,-444.123565,-1072.533697,8142.265362
884.854518,0.000000,0.000000,8512.368333
884.854848,0.000000,919.314598,8882.471304
884.855177,74.020594,1838.629195,9030.512492
884.855506,518.144159,2834.553343,9918.759623
884.855836,592.164754,2451.505594,9622.677246
884.856165,666.185348,2145.067394,9178.553681
884.856495,740.205942,1149.143247,9030.512492
884.856824,962.267725,919.314598,9844.739029
884.857153,518.144159,919.314598,11103.089130
884.857483,-740.205942,1608.800546,10881.027347
884.857812,-1850.514855,1838.629195,10732.986159
884.858142,-2368.659014,1225.752797,9844.739029
884.858471,-2146.597232,766.095498,9844.739029
884.858800,-1702.473667,76.609550,8956.491898
884.859130,-1924.535449,-153.219100,8882.471304
884.859459,-2294.638420,-536.266849,8364.327145
884.859789,-2664.741391,0.000000,7772.162391
884.860118,-2368.659014,-229.828649,7698.141797
884.860447,-1628.453072,-306.438199,7920.203579
884.860777,-1036.288319,-459.657299,8438.347739
884.861106,148.041188,1149.143247,8586.388927
884.861436,1036.288319,1532.190996,9030.512492
884.861765,1332.370696,2221.676944,9474.636058
884.862095,888.247130,3370.820191,9992.780217
884.862424,370.102971,2374.896044,11473.192101
884.862753,-370.102971,2834.553343,12657.521608
884.863083,-2072.576638,3447.429741,12805.562797
884.863412,-3108.864956,1685.410096,11843.295072
884.863742,-3627.009116,0.000000,11177.109724
884.864071,-3404.947333,-536.266849,10288.862594
884.864400,-2516.700203,-995.924147,9178.553681
884.864730,-1554.432478,-1532.190996,8068.244768
884.865059,-740.205942,-1149.143247,7402.059420
884.865389,-296.082377,0.000000,7476.080014
884.865718,0.000000,842.705048,7920.203579
884.866047,0.000000,2068.457845,8586.388927
884.866377,0.000000,3064.381992,8734.430116
884.866706,370.102971,2681.334243,9474.636058
884.867036,74.020594,2374.896044,9992.780217
884.867365,0.000000,2298.286494,9696.697840
884.867694,0.000000,1915.238745,9326.594869
884.868024,222.061783,1225.752797,9696.697840
884.868353,-370.102971,1225.752797,10436.903782
884.868683,-1110.308913,1762.019645,10881.027347
884.869012,-1776.494261,1838.629195,10510.924376
884.869341,-1924.535449,1149.143247,9548.656652
884.869671,-1702.473667,919.314598,9178.553681
884.870000,-1776.494261,1072.533697,9326.594869
884.870330,-1554.432478,229.828649,8438.347739
884.870659,-1628.453072,-383.047749,7846.182985
884.870989,-1850.514855,-306.438199,8068.244768
884.871318,-2220.617826,0.000000,8290.306550
884.871647,-2664.741391,-153.219100,8660.409521
884.871977,-2146.597232,-153.219100,8956.491898
884.872306,-1036.288319,306.438199,9474.636058
884.872636,-148.041188,919.314598,9844.739029
884.872965,962.267725,1072.533697,9696.697840
884.873294,592.164754,1838.629195,9474.636058
884.873624,740.205942,2757.943793,9770.718434
884.873953,592.164754,3064.381992,10584.944971
884.874283,0.000000,2528.115143,11695.253884
884.874612,-1332.370696,1991.848295,11473.192101
884.874941,-2664.741391,1608.800546,10658.965565
884.875271,-3330.926739,0.000000,10584.944971
884.875600,-3182.885551,-1072.533697,10658.965565
884.875930,-2886.803174,-1378.971896,10066.800811
884.876259,-2886.803174,-689.485948,9252.574275
884.876588,-2368.659014,-536.266849,8660.409521
884.876918,-1110.308913,-536.266849,8364.327145
884.877247,-370.102971,-153.219100,8512.368333
884.877577,0.000000,1072.533697,8956.491898
884.877906,444.123565,1762.019645,8882.471304
884.878236,962.267725,2681.334243,9400.615463
884.878565,666.185348,2681.334243,9696.697840
884.878894,518.144159,1915.238745,9548.656652
884.879224,148.041188,1532.190996,9326.594869
884.879553,0.000000,1532.190996,9474.636058
884.879883,0.000000,1455.581446,10066.800811
884.880212,-592.164754,1149.143247,10214.842000
884.880541,-1850.514855,919.314598,9770.718434
884.880871,-2294.638420,229.828649,9696.697840
884.881200,-2146.597232,383.047749,9992.780217
884.881530,-1776.494261,766.095498,9474.636058
884.881859,-222.061783,536.266849,9252.574275
884.882188,-444.123565,76.609550,8438.347739
884.882518,-592.164754,0.000000,8290.306550
884.882847,-666.185348,0.000000,8438.347739
884.883177,-814.226536,153.219100,8512.368333
884.883506,-1110.308913,-229.828649,9030.512492
884.883835,-740.205942,459.657299,9770.718434
884.884165,-370.102971,919.314598,10214.842000
884.884494,-222.061783,612.876398,10214.842000
884.884824,0.000000,919.314598,9918.759623
884.885153,-370.102971,1532.190996,9992.780217
884.885482,-444.123565,2604.724693,10510.924376
884.885812,-222.061783,1685.410096,10881.027347
884.886141,-666.185348,1302.362347,10436.903782
884.886471,-1554.432478,1378.971896,9918.759623
884.886800,-2442.679609,919.314598,10362.883188
884.887130,-2960.823768,229.828649,9992.780217
884.887459,-3182.885551,0.000000,10066.800811
884.887788,-2960.823768,-536.266849,9622.677246
884.888118,-2442.679609,-995.924147,9400.615463
884.888447,-2368.659014,-995.924147,9030.512492
884.888777,-2072.576638,76.609550,8512.368333
884.889106,-1110.308913,0.000000,8734.430116
884.889435,-222.061783,766.095498,9178.553681
884.889765,888.247130,1762.019645,9548.656652
884.890094,666.185348,2221.676944,9326.594869
884.890424,1184.329507,2528.115143,8956.491898
884.890753,1554.432478,2068.457845,8586.388927
884.891082,1554.432478,1838.629195,9104.533087
884.891412,1184.329507,2374.896044,10066.800811
884.891741,0.000000,2068.457845,10288.862594
884.892071,-1332.370696,1225.752797,10066.800811
884.892400,-2294.638420,995.924147,10214.842000
884.892729,-2886.803174,1149.143247,10288.862594
884.893059,-2960.823768,459.657299,9770.718434
884.893388,-2516.700203,-153.219100,9252.574275
884.893718,-2220.617826,-689.485948,8734.430116
884.894047,-2294.638420,-459.657299,8142.265362
884.894377,-3034.844362,0.000000,8364.327145
884.894706,-3034.844362,306.438199,8438.347739
884.895035,-2516.700203,919.314598,8512.368333
884.895365,-1554.432478,766.095498,8734.430116
884.895694,-518.144159,1302.362347,9178.553681
884.896024,-222.061783,1378.971896,8882.471304
884.896353,0.000000,1608.800546,9252.574275
884.896682,0.000000,1762.019645,10362.883188
884.897012,0.000000,1991.848295,11917.315666
884.897341,-1036.288319,2451.505594,12435.459826
884.897671,-2072.576638,2221.676944,11843.295072
884.898000,-2220.617826,1072.533697,11473.192101
884.898329,-1998.556043,536.266849,11103.089130
884.898659,-1480.411884,536.266849,9696.697840
884.898988,-962.267725,-229.828649,8660.409521
884.899318,-518.144159,-689.485948,7846.182985
884.899647,0.000000,-766.095498,7994.224174
884.899976,-444.123565,229.828649,8290.306550
884.900306,-814.226536,1149.143247,8512.368333
884.900635,-518.144159,1685.410096,8734.430116
884.900965,-296.082377,1378.971896,8956.491898
884.901294,222.061783,2451.505594,9992.780217
884.901623,-148.041188,2528.115143,9622.677246
884.901953,-370.102971,2068.457845,8660.409521
884.902282,-148.041188,1455.581446,9178.553681
884.902612,-222.061783,1072.533697,9696.697840
884.902941,-740.205942,1302.362347,10436.903782
884.903271,-1184.329507,1455.581446,10362.883188
884.903600,-1924.535449,1378.971896,9622.677246
884.903929,-2220.617826,1225.752797,9548.656652
884.904259,-1998.556043,995.924147,9696.697840
884.904588,-1406.391290,0.000000,9104.533087
884.904918,-1036.288319,76.609550,8734.430116
884.905247,-1184.329507,0.000000,8734.430116
884.905576,-1480.411884,-153.219100,8660.409521
884.905906,-1776.494261,76.609550,9178.553681
884.906235,-1554.432478,153.219100,9400.615463
884.906565,-1184.329507,306.438199,9400.615463
884.906894,-296.082377,1378.971896,10066.800811
884.907223,148.041188,1532.190996,9770.718434
884.907553,296.082377,2068.457845,8956.491898
884.907882,666.185348,2145.067394,8808.450710
884.908212,444.123565,1838.629195,9770.718434
884.908541,-296.082377,2298.286494,11251.130318
884.908870,-1924.535449,2451.505594,11769.274478
884.909200,-3627.009116,1762.019645,11251.130318
884.909529,-4589.276840,689.485948,10881.027347
884.909859,-3849.070898,-153.219100,10658.965565
884.910188,-3182.885551,-995.924147,10140.821405
884.910517,-2368.659014,-1378.971896,8660.409521
884.910847,-1628.453072,-1378.971896,8068.244768
884.911176,-740.205942,-1225.752797,7994.224174
884.911506,-370.102971,689.485948,8586.388927
884.911835,222.061783,1532.190996,8808.450710
884.912165,74.020594,1838.629195,9400.615463
884.912494,518.144159,2757.943793,9622.677246
884.912823,1110.308913,2757.943793,10066.800811
884.913153,1406.391290,2145.067394,9326.594869
884.913482,1406.391290,1762.019645,9548.656652
884.913812,888.247130,1225.752797,9474.636058
884.914141,222.061783,1225.752797,10066.800811
884.914470,-296.082377,1149.143247,10214.842000
884.914800,-1110.308913,842.705048,9992.780217
884.915129,-1258.350101,1302.362347,9326.594869
884.915459,-1628.453072,1149.143247,9844.739029
884.915788,-1480.411884,1532.190996,9474.636058
884.916117,-1406.391290,995.924147,8882.471304
884.916447,-1776.494261,76.609550,8364.327145
884.916776,-2072.576638,-919.314598,8364.327145
884.917106,-2590.720797,-459.657299,8586.388927
884.917435,-2442.679609,-153.219100,9030.512492
884.917764,-2368.659014,-153.219100,8956.491898
884.918094,-1332.370696,0.000000,9400.615463
884.918423,-296.082377,0.000000,10362.883188
884.918753,148.041188,1072.533697,9992.780217
884.919082,222.061783,2451.505594,9622.677246
884.919412,444.123565,2681.334243,9622.677246
884.919741,962.267725,2757.943793,10140.821405
884.920070,296.082377,2681.334243,10881.027347
884.920400,-888.247130,1915.238745,10732.986159
884.920729,-1924.535449,1302.362347,10362.883188
884.921059,-3108.864956,536.266849,10584.944971
884.921388,-3108.864956,-229.828649,10510.924376
884.921717,-2886.803174,-1149.143247,9474.636058
884.922047,-1998.556043,-2374.896044,8734.430116
884.922376,-1480.411884,-1991.848295,8068.244768
884.922706,-962.267725,-536.266849,8364.327145
884.923035,-814.226536,229.828649,8956.491898
884.923364,-814.226536,1225.752797,9326.594869
884.923694,-444.123565,1991.848295,9844.739029
884.924023,0.000000,3064.381992,10362.883188
884.924353,0.000000,3217.601092,10510.924376
884.924682,74.020594,2298.286494,9252.574275
884.925011,222.061783,995.924147,8512.368333
884.925341,148.041188,76.609550,8734.430116
884.925670,0.000000,842.705048,10214.842000
884.926000,-1406.391290,1225.752797,10362.883188
884.926329,-2738.761985,1838.629195,9696.697840
884.926658,-3182.885551,766.095498,9622.677246
884.926988,-2442.679609,383.047749,10362.883188
884.927317,-2294.638420,919.314598,9474.636058
884.927647,-1924.535449,612.876398,9400.615463
884.927976,-2072.576638,229.828649,8586.388927
884.928306,-1998.556043,-459.657299,8142.265362
884.928635,-2146.597232,-536.266849,8364.327145
884.928964,-1702.473667,0.000000,9400.615463
884.929294,-962.267725,459.657299,9252.574275
884.929623,-740.205942,1302.362347,9474.636058
884.929953,-370.102971,995.924147,9622.677246
884.930282,0.000000,1532.190996,9696.697840
884.930611,-222.061783,1838.629195,9474.636058
884.930941,-296.082377,2068.457845,10732.986159
884.931270,-666.185348,2604.724693,11621.233289
884.931600,-1406.391290,2834.553343,11621.233289
884.931929,-2294.638420,1608.800546,11029.068536
884.932258,-2590.720797,536.266849,10066.800811
884.932588,-2590.720797,842.705048,9548.656652
884.932917,-2072.576638,306.438199,9178.553681
884.933247,-1184.329507,-612.876398,7994.224174
884.933576,-740.205942,-1072.533697,7328.038826
884.933905,-296.082377,-536.266849,7846.182985
884.934235,-518.144159,153.219100,8216.285956
884.934564,-370.102971,1608.800546,9252.574275
884.934894,-592.164754,1991.848295,9844.739029
884.935223,-666.185348,2298.286494,10214.842000
884.935552,-148.041188,2451.505594,10658.965565
884.935882,74.020594,2221.676944,10066.800811
884.936211,444.123565,2068.457845,9326.594869
884.936541,222.061783,1608.800546,8956.491898
884.936870,592.164754,1225.752797,9548.656652
884.937200,148.041188,1149.143247,10066.800811
884.937529,-666.185348,1915.238745,9992.780217
884.937858,-1924.535449,1915.238745,9178.553681
884.938188,-1776.494261,919.314598,9104.533087
884.938517,-1776.494261,842.705048,9400.615463
884.938847,-1776.494261,536.266849,9252.574275
884.939176,-1554.432478,0.000000,8956.491898
884.939505,-1406.391290,-229.828649,9104.533087
884.939835,-2072.576638,-1302.362347,9252.574275
884.940164,-2146.597232,306.438199,9622.677246
884.940494,-2072.576638,306.438199,9622.677246
884.940823,-1184.329507,536.266849,9474.636058
884.941152,74.020594,842.705048,9696.697840
884.941482,666.185348,919.314598,10214.842000
884.941811,370.102971,1608.800546,9992.780217
884.942141,0.000000,2451.505594,9770.718434
884.942470,-148.041188,2451.505594,9622.677246
884.942799,-222.061783,2528.115143,10066.800811
884.943129,-740.205942,1762.019645,9992.780217
884.943458,-1554.432478,1455.581446,10436.903782
884.943788,-2368.659014,842.705048,9992.780217
884.944117,-2590.720797,229.828649,10214.842000
884.944447,-2738.761985,-153.219100,10066.800811
884.944776,-2886.803174,0.000000,9104.533087
884.945105,-2368.659014,0.000000,8808.450710
884.945435,-1998.556043,-842.705048,8660.409521
884.945764,-1776.494261,76.609550,8586.388927
884.946094,-1924.535449,459.657299,8734.430116
884.946423,-1702.473667,919.314598,9326.594869
884.946752,-1258.350101,1608.800546,9548.656652
884.947082,-1184.329507,2221.676944,10362.883188
884.947411,-296.082377,1455.581446,10066.800811
884.947741,148.041188,1455.581446,9622.677246
884.948070,888.247130,1455.581446,9178.553681
884.948399,1776.494261,1072.533697,9474.636058
884.948729,1776.494261,1302.362347,9548.656652
884.949058,1628.453072,1915.238745,9548.656652
884.949388,814.226536,1378.971896,9400.615463
884.949717,0.000000,1378.971896,9252.574275
884.950046,0.000000,1532.190996,9326.594869
884.950376,0.000000,919.314598,9622.677246
884.950705,-592.164754,153.219100,9474.636058
884.951035,-1406.391290,0.000000,9400.615463
884.951364,-2294.638420,-306.438199,9252.574275
884.951693,-2738.761985,-1072.533697,9474.636058
884.952023,-3034.844362,-76.609550,9178.553681
884.952352,-2812.782580,153.219100,9252.574275
884.952682,-1850.514855,229.828649,9696.697840
884.953011,-1332.370696,919.314598,9474.636058
884.953341,-666.185348,1225.752797,9104.533087
884.953670,0.000000,1378.971896,8808.450710
884.953999,296.082377,2221.676944,9770.718434
884.954329,0.000000,2451.505594,10658.965565
884.954658,-1110.308913,2221.676944,10510.924376
884.954988,-1702.473667,1532.190996,10140.821405
884.955317,-1850.514855,766.095498,9992.780217
884.955646,-1554.432478,1302.362347,10510.924376
884.955976,-1332.370696,0.000000,9992.780217
884.956305,-888.247130,0.000000,9252.574275
884.956635,-296.082377,-536.266849,9030.512492
884.956975,148.041188,229.828649,8956.491898
884.957305,-444.123565,459.657299,9474.636058
884.957634,-666.185348,1378.971896,9474.636058
884.957963,-518.144159,1991.848295,9400.615463
884.958293,-444.123565,2221.676944,9770.718434
884.958622,-370.102971,1762.019645,9992.780217
884.958952,-444.123565,1378.971896,9474.636058
884.959281,-1110.308913,1072.533697,8586.388927
884.959610,-1258.350101,995.924147,8660.409521
884.959940,-1110.308913,842.705048,9104.533087
884.960269,-1480.411884,689.485948,9326.594869
884.960598,-2072.576638,1149.143247,8956.491898
884.960928,-2146.597232,612.876398,9104.533087
884.961257,-2146.597232,1225.752797,9696.697840
884.961586,-1850.514855,995.924147,9918.759623
884.961916,-1480.411884,76.609550,9474.636058
884.962245,-1850.514855,-612.876398,9326.594869
884.962574,-2146.597232,459.657299,9326.594869
884.962904,-2294.638420,0.000000,9622.677246
884.963233,-2368.659014,0.000000,9696.697840
884.963563,-1850.514855,0.000000,9622.677246
884.963892,-1036.288319,689.485948,9474.636058
884.964221,0.000000,842.705048,9548.656652
884.964551,518.144159,995.924147,8364.327145
884.964880,814.226536,1378.971896,8290.306550
884.965209,592.164754,1762.019645,9104.533087
884.965539,74.020594,2145.067394,10288.862594
884.965868,-1110.308913,2374.896044,11399.171507
884.966197,-2516.700203,1915.238745,10955.047942
884.966527,-3923.091493,1149.143247,10955.047942
884.966856,-4293.194464,0.000000,11103.089130
884.967185,-3552.988522,-459.657299,10510.924376
884.967515,-2368.659014,-1532.190996,9548.656652
884.967844,-1628.453072,-1455.581446,8216.285956
884.968174,-888.247130,-995.924147,8290.306550
884.968503,-222.061783,-536.266849,8808.450710
884.968832,-148.041188,1608.800546,9474.636058
884.969162,0.000000,2374.896044,9548.656652
884.969491,444.123565,2911.162892,9622.677246
884.969820,1110.308913,2911.162892,9918.759623
884.970150,1332.370696,2374.896044,9622.677246
884.970479,1110.308913,1838.629195,9104.533087
884.970808,888.247130,1455.581446,8734.430116
884.971138,666.185348,1532.190996,8808.450710
884.971467,444.123565,1225.752797,9178.553681
884.971797,-370.102971,1302.362347,9918.759623
884.972126,-1036.288319,1762.019645,9622.677246
884.972455,-1258.350101,1378.971896,9326.594869
884.972785,-888.247130,2145.067394,9400.615463
884.973114,-962.267725,1991.848295,9104.533087
884.973443,-1628.453072,842.705048,8882.471304
884.973773,-1924.535449,153.219100,9104.533087
884.974102,-2516.700203,229.828649,9474.636058
884.974431,-3108.864956,612.876398,9474.636058
884.974761,-2812.782580,383.047749,9474.636058
884.975090,-2072.576638,-153.219100,9104.533087
884.975419,-962.267725,0.000000,8956.491898
884.975749,74.020594,383.047749,9104.533087
884.976078,592.164754,1378.971896,9030.512492
884.976408,370.102971,1225.752797,9030.512492
884.976737,592.164754,2911.162892,9696.697840
884.977066,592.164754,2987.772442,10732.986159
884.977396,0.000000,2757.943793,11029.068536
884.977725,-962.267725,1838.629195,10214.842000
884.978054,-1702.473667,995.924147,9844.739029
884.978384,-2368.659014,612.876398,10140.821405
884.978713,-2442.679609,-306.438199,10066.800811
884.979042,-2368.659014,-1149.143247,9696.697840
884.979372,-2294.638420,-995.924147,9474.636058
884.979701,-2072.576638,-919.314598,9474.636058
884.980031,-1554.432478,-842.705048,9622.677246
884.980360,-1628.453072,536.266849,9918.759623
884.980689,-1554.432478,1608.800546,9474.636058
884.981019,-814.226536,1762.019645,9548.656652
884.981348,0.000000,1302.362347,9770.718434
884.981677,148.041188,1608.800546,9474.636058
884.982007,444.123565,1149.143247,8660.409521
884.982336,222.061783,919.314598,8512.368333
884.982665,518.144159,919.314598,8808.450710
884.982995,592.164754,919.314598,9696.697840
884.983324,0.000000,1455.581446,9992.780217
884.983653,-370.102971,1532.190996,9622.677246
884.983983,-1184.329507,1149.143247,9770.718434
884.984312,-1036.288319,1302.362347,10066.800811
884.984642,-1110.308913,1072.533697,9770.718434
884.984971,-1036.288319,0.000000,9474.636058
884.985300,-1702.473667,76.609550,9548.656652
884.985630,-2146.597232,76.609550,9400.615463
884.985959,-2368.659014,-153.219100,8956.491898
884.986288,-2294.638420,-459.657299,8660.409521
884.986618,-1554.432478,-153.219100,8882.471304
884.986947,-888.247130,0.000000,8734.430116
884.987276,74.020594,919.314598,9178.553681
884.987606,148.041188,1225.752797,9178.553681
884.987935,0.000000,1838.629195,9178.553681
884.988264,0.000000,1838.629195,9844.739029
884.988594,-222.061783,2528.115143,10362.883188
884.988923,-814.226536,2374.896044,10584.944971
884.989253,-1258.350101,1455.581446,10658.965565
884.989582,-1776.494261,689.485948,10881.027347
884.989911,-1998.556043,536.266849,10732.986159
884.990241,-1628.453072,0.000000,10288.862594
884.990570,-666.185348,-229.828649,9548.656652
884.990899,-740.205942,0.000000,9548.656652
884.991229,-444.123565,153.219100,9770.718434
884.991558,-888.247130,766.095498,9400.615463
884.991887,-1184.329507,1072.533697,9030.512492
884.992217,-962.267725,1762.019645,9474.636058
884.992546,-296.082377,1838.629195,9844.739029
884.992876,-518.144159,1532.190996,9548.656652
884.993205,-518.144159,1072.533697,8956.491898
884.993534,-666.185348,536.266849,8068.244768
884.993864,-296.082377,995.924147,7920.203579
884.994193,0.000000,1072.533697,9326.594869
884.994522,-814.226536,1072.533697,9992.780217
884.994852,-1628.453072,1608.800546,9770.718434
884.995181,-1998.556043,1532.190996,9696.697840
884.995510,-1924.535449,1608.800546,10214.842000
884.995840,-1554.432478,1455.581446,10510.924376
884.996169,-1702.473667,536.266849,9770.718434
884.996498,-2220.617826,153.219100,9474.636058
884.996828,-2368.659014,-229.828649,9252.574275
884.997157,-2738.761985,0.000000,9252.574275
884.997487,-2738.761985,536.266849,9178.553681
884.997816,-2146.597232,-842.705048,8734.430116
884.998145,-1406.391290,0.000000,8956.491898
884.998475,-666.185348,766.095498,8808.450710
884.998804,0.000000,1072.533697,8438.347739
884.999133,296.082377,1685.410096,8142.265362
884.999463,518.144159,2068.457845,8660.409521
884.999792,444.123565,2451.505594,10362.883188
885.000121,-296.082377,2528.115143,11177.109724
885.000451,-1406.391290,1838.629195,11177.109724
885.000780,-2368.659014,1378.971896,11029.068536
885.001110,-2368.659014,306.438199,11547.212695
885.001439,-2368.659014,76.609550,11325.150913
885.001768,-2220.617826,-689.485948,10362.883188
885.002098,-1850.514855,-1455.581446,9326.594869
885.002427,-1480.411884,-612.876398,9326.594869
885.002756,-814.226536,229.828649,9400.615463
885.003086,-148.041188,1378.971896,8882.471304
885.003415,-518.144159,1608.800546,8956.491898
885.003744,-296.082377,2145.067394,8808.450710
885.004074,370.102971,2145.067394,9400.615463
885.004403,666.185348,1762.019645,9104.533087
885.004732,888.247130,2451.505594,8512.368333
885.005062,444.123565,1532.190996,8290.306550
885.005391,370.102971,766.095498,9178.553681
885.005721,0.000000,1072.533697,9918.759623
885.006050,-592.164754,1302.362347,10362.883188
885.006379,-888.247130,1532.190996,9844.739029
885.006709,-1258.350101,1838.629195,10066.800811
885.007038,-1110.308913,2068.457845,10140.821405
885.007367,-814.226536,1378.971896,9770.718434
885.007697,-814.226536,842.705048,9178.553681
885.008026,-1110.308913,689.485948,8512.368333
885.008355,-1850.514855,995.924147,8438.347739
885.008685,-2146.597232,306.438199,8512.368333
885.009014,-2294.638420,153.219100,8364.327145
885.009343,-1998.556043,-153.219100,8216.285956
885.009673,-1258.350101,536.266849,8512.368333
885.010002,-370.102971,536.266849,9030.512492
885.010332,74.020594,1685.410096,9400.615463
885.010661,-148.041188,2681.334243,9030.512492
885.010990,-222.061783,2757.943793,9548.656652
885.011320,-296.082377,2834.553343,10955.047942
885.011649,-1184.329507,2911.162892,11251.130318
885.011978,-2368.659014,2221.676944,11177.109724
885.012308,-3552.988522,1225.752797,10732.986159
885.012637,-4071.132681,0.000000,10436.903782
885.012966,-3701.029710,-919.314598,10066.800811
885.013296,-2812.782580,-1762.019645,9474.636058
885.013625,-2442.679609,-1991.848295,9622.677246
885.013955,-1480.411884,-1072.533697,9844.739029
885.014284,-888.247130,-229.828649,9770.718434
885.014613,-222.061783,689.485948,9474.636058
885.014943,666.185348,1378.971896,8882.471304
885.015272,2146.597232,2374.896044,9178.553681
885.015601,2368.659014,2451.505594,10066.800811
885.015931,1850.514855,2757.943793,9770.718434
885.016260,1406.391290,2528.115143,9030.512492
885.016589,888.247130,1378.971896,8660.409521
885.016919,1036.288319,919.314598,9030.512492
885.017248,518.144159,536.266849,9770.718434
885.017577,-592.164754,995.924147,9770.718434
885.017907,-2146.597232,1225.752797,9252.574275
885.018236,-2812.782580,919.314598,9326.594869
885.018566,-2738.761985,919.314598,9844.739029
885.018895,-2368.659014,1302.362347,10066.800811
885.019224,-2738.761985,842.705048,9178.553681
885.019554,-2886.803174,229.828649,8512.368333
885.019883,-2738.761985,-153.219100,8290.306550
885.020212,-2590.720797,-612.876398,8586.388927
885.020542,-2960.823768,-689.485948,8364.327145
885.020871,-1850.514855,-229.828649,8512.368333
885.021200,-1036.288319,689.485948,8956.491898
885.021530,74.020594,919.314598,9252.574275
885.021859,814.226536,1225.752797,9326.594869
885.022189,1406.391290,2374.896044,9400.615463
885.022518,1628.453072,2834.553343,10362.883188
885.022847,1110.308913,2911.162892,11325.150913
885.023177,518.144159,2451.505594,11769.274478
885.023506,-666.185348,2068.457845,11473.192101
885.023835,-1332.370696,1608.800546,10881.027347
885.024165,-1480.411884,306.438199,10510.924376
885.024494,-1184.329507,-459.657299,9918.759623
885.024823,-1110.308913,-1149.143247,9030.512492
885.025153,-1332.370696,-1149.143247,9104.533087
885.025482,-1554.432478,-383.047749,9104.533087
885.025811,-1850.514855,0.000000,9178.553681
885.026141,-2072.576638,1455.581446,9400.615463
885.026470,-1776.494261,1378.971896,9400.615463
885.026800,-1184.329507,1991.848295,9696.697840
885.027129,-1036.288319,1915.238745,9548.656652
885.027458,-740.205942,1991.848295,8808.450710
885.027788,-592.164754,842.705048,7994.224174
885.028117,-592.164754,919.314598,8438.347739
885.028446,-370.102971,842.705048,9474.636058
885.028776,-370.102971,1532.190996,9622.677246
885.029105,-296.082377,1991.848295,9400.615463
885.029434,-296.082377,1532.190996,9474.636058
885.029764,-518.144159,1838.629195,9696.697840
885.030093,-814.226536,1915.238745,9548.656652
885.030422,-962.267725,995.924147,9104.533087
885.030752,-1332.370696,612.876398,9030.512492
885.031081,-2220.617826,842.705048,8660.409521
885.031411,-2812.782580,-306.438199,8956.491898
885.031740,-3404.947333,-689.485948,8660.409521
885.032069,-3330.926739,-1072.533697,8290.306550
885.032399,-2516.700203,-612.876398,8734.430116
885.032728,-1776.494261,-459.657299,8734.430116
885.033057,-962.267725,612.876398,8808.450710
885.033387,-962.267725,1762.019645,8512.368333
885.033716,-222.061783,2068.457845,9104.533087
885.034045,0.000000,2068.457845,10658.965565
885.034375,-814.226536,2221.676944,11251.130318
885.034704,-1850.514855,1378.971896,11621.233289
885.035034,-2886.803174,842.705048,11547.212695
885.035363,-3108.864956,0.000000,11695.253884
885.035692,-2738.761985,-612.876398,11621.233289
885.036022,-2220.617826,-1378.971896,10362.883188
885.036351,-1184.329507,-1225.752797,9400.615463
885.036680,-296.082377,-1149.143247,9474.636058
885.037010,0.000000,0.000000,9252.574275
885.037339,-296.082377,919.314598,9104.533087
885.037668,-444.123565,1838.629195,8956.491898
885.037998,148.041188,2145.067394,9474.636058
885.038327,222.061783,2604.724693,9844.739029
885.038656,74.020594,2298.286494,9474.636058
885.038986,148.041188,1378.971896,8660.409521
885.039315,0.000000,766.095498,8364.327145
885.039645,222.061783,1378.971896,8586.388927
885.039974,-148.041188,1149.143247,9474.636058
885.040303,-592.164754,1302.362347,9548.656652
885.040633,-1036.288319,1838.629195,9400.615463
885.040962,-962.267725,1991.848295,9474.636058
885.041291,-888.247130,2451.505594,9474.636058
885.041621,-962.267725,2221.676944,9178.553681
885.041950,-1258.350101,1532.190996,8660.409521
885.042279,-1776.494261,842.705048,8808.450710
885.042609,-2220.617826,76.609550,8734.430116
885.042938,-2516.700203,0.000000,8512.368333
885.043268,-2442.679609,153.219100,8290.306550
885.043597,-2220.617826,-459.657299,8068.244768
885.043926,-1184.329507,383.047749,8808.450710
885.044256,0.000000,689.485948,9326.594869
885.044585,222.061783,1685.410096,9474.636058
885.044914,74.020594,3140.991542,9844.739029
885.045244,518.144159,3140.991542,10140.821405
885.045573,370.102971,3140.991542,10881.027347
885.045902,148.041188,2834.553343,11325.150913
885.046232,-1036.288319,2374.896044,10881.027347
885.046561,-1776.494261,1455.581446,10658.965565
885.046890,-2146.597232,0.000000,10807.006753
885.047220,-2664.741391,-459.657299,10881.027347
885.047549,-2738.761985,-689.485948,10140.821405
885.047879,-2590.720797,-995.924147,9622.677246
885.048208,-1924.535449,-919.314598,9770.718434
885.048537,-2072.576638,-459.657299,9178.553681
885.048867,-1332.370696,919.314598,9400.615463
885.049196,-1406.391290,1455.581446,9252.574275
885.049525,-518.144159,1608.800546,9548.656652
885.049855,-518.144159,2068.457845,9548.656652
885.050184,0.000000,1991.848295,8956.491898
885.050513,148.041188,1532.190996,8512.368333
885.050843,296.082377,919.314598,7994.224174
885.051172,296.082377,612.876398,8734.430116
885.051501,74.020594,842.705048,10066.800811
885.051831,-666.185348,1455.581446,9844.739029
885.052160,-1110.308913,2068.457845,9992.780217
885.052490,-1258.350101,1378.971896,9770.718434
885.052819,-1184.329507,1685.410096,9844.739029
885.053148,-1110.308913,1072.533697,9400.615463
885.053478,-814.226536,612.876398,9030.512492
885.053807,-1184.329507,0.000000,8882.471304
885.054136,-2146.597232,0.000000,8660.409521
885.054466,-2738.761985,-306.438199,8586.388927
885.054795,-2590.720797,-766.095498,8438.347739
885.055124,-2294.638420,-689.485948,8808.450710
885.055454,-1110.308913,0.000000,9178.553681
885.055783,-962.267725,229.828649,9474.636058
885.056113,-740.205942,1149.143247,9622.677246
885.056442,-518.144159,2068.457845,9474.636058
885.056772,-222.061783,2604.724693,9770.718434
885.057101,296.082377,2451.505594,10510.924376
885.057431,148.041188,2298.286494,11177.109724
885.057760,-740.205942,1915.238745,10732.986159
885.058090,-1776.494261,919.314598,10807.006753
885.058419,-2146.597232,459.657299,10881.027347
885.058749,-2220.617826,0.000000,10955.047942
885.059078,-2072.576638,-612.876398,9844.739029
885.059408,-1406.391290,-1149.143247,9252.574275
885.059737,-740.205942,-995.924147,9252.574275
885.060066,-518.144159,0.000000,9252.574275
885.060396,-444.123565,766.095498,9326.594869
885.060725,-444.123565,1838.629195,9622.677246
885.061055,0.000000,2145.067394,9844.739029
885.061384,-296.082377,2911.162892,9548.656652
885.061714,74.020594,2068.457845,9030.512492
885.062043,222.061783,1225.752797,8290.306550
885.062373,0.000000,1072.533697,8290.306550
885.062702,-962.267725,766.095498,8734.430116
885.063032,-1480.411884,1072.533697,9770.718434
885.063361,-2072.576638,1455.581446,9770.718434
885.063691,-2368.659014,1532.190996,9474.636058
885.064020,-1998.556043,1608.800546,9474.636058
885.064350,-1036.288319,1149.143247,9252.574275
885.064679,-592.164754,459.657299,9104.533087
885.065009,-888.247130,689.485948,8438.347739
885.065338,-1406.391290,536.266849,8586.388927
885.065668,-1924.535449,229.828649,9030.512492
885.065997,-2294.638420,383.047749,8882.471304
885.066327,-2590.720797,-306.438199,8438.347739
885.066656,-1702.473667,-689.485948,8586.388927
885.066986,-962.267725,-153.219100,9178.553681
885.067315,-1036.288319,536.266849,9178.553681
885.067645,-444.123565,1838.629195,8586.388927
885.067974,-74.020594,1762.019645,9104.533087
885.068303,-148.041188,2298.286494,10362.883188
885.068633,-1110.308913,2681.334243,11547.212695
885.068962,-2220.617826,1915.238745,11769.274478
885.069292,-2886.803174,1225.752797,11769.274478
885.069621,-3478.967927,0.000000,11769.274478
885.069951,-3552.988522,-459.657299,11103.089130
885.070280,-2812.782580,-1991.848295,9918.759623
885.070610,-1850.514855,-2604.724693,9326.594869
885.070939,-1110.308913,-2145.067394,9030.512492
885.071269,-444.123565,-1072.533697,9030.512492
885.071598,-370.102971,229.828649,9400.615463
885.071928,-148.041188,1225.752797,9548.656652
885.072257,518.144159,1608.800546,9992.780217
885.072587,888.247130,2298.286494,10288.862594
885.072916,1258.350101,2528.115143,9918.759623
885.073246,814.226536,2451.505594,9178.553681
885.073575,370.102971,1378.971896,8364.327145
885.073905,370.102971,842.705048,9030.512492
885.074234,74.020594,689.485948,9400.615463
885.074564,-666.185348,766.095498,9252.574275
885.074893,-1258.350101,1455.581446,8956.491898
885.075223,-1480.411884,1225.752797,8956.491898
885.075552,-962.267725,1762.019645,9400.615463
885.075881,-814.226536,2145.067394,9178.553681
885.076211,-518.144159,1838.629195,8808.450710
885.076540,-518.144159,2068.457845,8512.368333
885.076870,-1258.350101,995.924147,8734.430116
885.077199,-2368.659014,612.876398,8808.450710
885.077529,-3182.885551,459.657299,8586.388927
885.077858,-3256.906145,-229.828649,8364.327145
885.078188,-2146.597232,-153.219100,8882.471304
885.078517,-1554.432478,153.219100,8956.491898
885.078847,-1036.288319,842.705048,9104.533087
885.079176,-962.267725,1302.362347,8956.491898
885.079506,-592.164754,2145.067394,9696.697840
885.079835,-296.082377,3294.210641,10881.027347
885.080165,-518.144159,3217.601092,11251.130318
885.080494,-962.267725,2298.286494,11325.150913
885.080824,-1258.350101,1685.410096,10584.944971
885.081153,-1184.329507,689.485948,10584.944971
885.081483,-740.205942,-229.828649,10362.883188
885.081812,-444.123565,-919.314598,9770.718434
885.082142,-370.102971,-383.047749,9326.594869
885.082471,-444.123565,-229.828649,9326.594869
885.082801,-518.144159,0.000000,9992.780217
885.083130,-1036.288319,1608.800546,9696.697840
885.083459,-962.267725,1838.629195,9918.759623
885.083789,-814.226536,1915.238745,9992.780217
885.084118,-962.267725,1762.019645,10066.800811
885.084448,-1332.370696,1532.190996,9326.594869
885.084777,-1554.432478,995.924147,8364.327145
885.085107,-1258.350101,0.000000,8290.306550
885.085436,-592.164754,229.828649,8882.471304
885.085766,-592.164754,612.876398,9252.574275
885.086095,-1184.329507,995.924147,9252.574275
885.086425,-1184.329507,1608.800546,9030.512492
885.086754,-1184.329507,1532.190996,9326.594869
885.087084,-888.247130,1915.238745,9770.718434
885.087413,-1036.288319,2374.896044,9770.718434
885.087743,-888.247130,1455.581446,9548.656652
885.088072,-1110.308913,612.876398,9030.512492
885.088402,-1628.453072,0.000000,8882.471304
885.088731,-1776.494261,-689.485948,9104.533087
885.089061,-1258.350101,-1378.971896,9030.512492
885.089390,-1554.432478,-383.047749,8660.409521
885.089720,-740.205942,383.047749,8956.491898
885.090049,74.020594,459.657299,9326.594869
885.090379,0.000000,1455.581446,9252.574275
885.090708,370.102971,2911.162892,9770.718434
885.091038,370.102971,2757.943793,10214.842000
885.091367,0.000000,2987.772442,10955.047942
885.091696,-1184.329507,2528.115143,10881.027347
885.092026,-2368.659014,1302.362347,10658.965565
885.092355,-2738.761985,76.609550,10362.883188
885.092685,-2664.741391,-383.047749,10658.965565
885.093014,-2368.659014,-612.876398,10584.944971
885.093344,-1776.494261,-995.924147,9548.656652
885.093673,-1184.329507,-1225.752797,9622.677246
885.094003,-296.082377,-383.047749,10140.821405
885.094332,-518.144159,1532.190996,10066.800811
885.094662,-592.164754,2145.067394,9622.677246
885.094991,0.000000,1991.848295,9622.677246
885.095321,370.102971,2068.457845,9992.780217
885.095650,296.082377,2221.676944,9622.677246
885.095980,222.061783,2298.286494,9178.553681
885.096309,0.000000,919.314598,8142.265362
885.096639,0.000000,229.828649,7846.182985
885.096968,74.020594,76.609550,8660.409521
885.097298,-74.020594,459.657299,9326.594869
885.097627,-666.185348,1302.362347,8956.491898
885.097957,-1258.350101,1302.362347,9104.533087
885.098286,-1628.453072,1915.238745,9548.656652
885.098616,-1480.411884,2374.896044,9992.780217
885.098945,-1480.411884,1455.581446,9696.697840
885.099274,-2220.617826,842.705048,9030.512492
885.099604,-2368.659014,306.438199,9178.553681
885.099933,-2812.782580,-153.219100,8882.471304
885.100263,-3034.844362,-536.266849,8808.450710
885.100592,-2886.803174,-919.314598,8734.430116
885.100922,-2220.617826,-536.266849,8734.430116
885.101251,-1702.473667,-459.657299,8882.471304
885.101581,-814.226536,919.314598,9326.594869
885.101910,-444.123565,1685.410096,9252.574275
885.102240,-222.061783,1838.629195,9622.677246
885.102569,74.020594,2374.896044,10066.800811
885.102899,-518.144159,2221.676944,10658.965565
885.103228,-1480.411884,2068.457845,10807.006753
885.103558,-2146.597232,1072.533697,10658.965565
885.103887,-2368.659014,306.438199,11103.089130
885.104217,-2368.659014,0.000000,11029.068536
885.104546,-1702.473667,-842.705048,10214.842000
885.104876,-1184.329507,-1072.533697,9992.780217
885.105205,-1110.308913,-842.705048,9696.697840
885.105535,-370.102971,-383.047749,9844.739029
885.105864,0.000000,919.314598,9696.697840
885.106194,-814.226536,1302.362347,9474.636058
885.106523,-296.082377,1532.190996,9622.677246
885.106852,-296.082377,1685.410096,10140.821405
885.107182,-518.144159,1685.410096,9548.656652
885.107511,-444.123565,1225.752797,8586.388927
885.107841,-370.102971,612.876398,7994.224174
885.108170,148.041188,76.609550,8364.327145
885.108500,222.061783,766.095498,9252.574275
885.108829,-370.102971,995.924147,9326.594869
885.109159,-814.226536,1302.362347,9030.512492
885.109488,-1036.288319,1915.238745,9326.594869
885.109818,-1258.350101,1915.238745,10066.800811
885.110147,-1036.288319,2451.505594,9992.780217
885.110477,-888.247130,1149.143247,9400.615463
885.110806,-962.267725,612.876398,8734.430116
885.111136,-1332.370696,153.219100,8734.430116
885.111465,-1850.514855,0.000000,8956.491898
885.111795,-1924.535449,0.000000,8512.368333
885.112124,-1776.494261,-229.828649,8660.409521
885.112454,-1184.329507,689.485948,9178.553681
885.112783,-592.164754,919.314598,9326.594869
885.113113,-222.061783,919.314598,9252.574275
885.113442,222.061783,1608.800546,9252.574275
885.113772,148.041188,2374.896044,9770.718434
885.114101,222.061783,2987.772442,10288.862594
885.114430,-592.164754,2221.676944,10955.047942
885.114760,-1332.370696,1762.019645,11029.068536
885.115089,-2368.659014,1302.362347,10955.047942
885.115419,-2590.720797,919.314598,11177.109724
885.115748,-2294.638420,459.657299,10955.047942
885.116078,-1924.535449,0.000000,10288.862594
885.116407,-1406.391290,0.000000,9622.677246
885.116737,-888.247130,-536.266849,9474.636058
885.117066,-1036.288319,612.876398,9400.615463
885.117396,-1036.288319,1915.238745,9622.677246
885.117725,-1332.370696,2068.457845,9252.574275
885.118055,-740.205942,1608.800546,9474.636058
885.118384,-518.144159,1685.410096,9178.553681
885.118714,-296.082377,1378.971896,8660.409521
885.119043,0.000000,1225.752797,8216.285956
885.119373,74.020594,842.705048,8438.347739
885.119702,222.061783,766.095498,8882.471304
885.120032,0.000000,1149.143247,9622.677246
885.120361,0.000000,1762.019645,9474.636058
885.120691,-370.102971,1838.629195,9548.656652
885.121020,-888.247130,2068.457845,9622.677246
885.121350,-666.185348,1915.238745,9770.718434
885.121679,-666.185348,1225.752797,9400.615463
885.122009,-1036.288319,1225.752797,8660.409521
885.122338,-1776.494261,229.828649,8882.471304
885.122667,-2072.576638,0.000000,8882.471304
885.122997,-2442.679609,-536.266849,8808.450710
885.123326,-2738.761985,-919.314598,8956.491898
885.123656,-2516.700203,-459.657299,8956.491898
885.123985,-1702.473667,689.485948,9474.636058
885.124315,-666.185348,459.657299,9252.574275
885.124644,-148.041188,689.485948,8956.491898
885.124974,0.000000,1455.581446,9400.615463
885.125303,296.082377,1915.238745,10140.821405
885.125633,370.102971,2374.896044,10732.986159
885.125962,-296.082377,1838.629195,11251.130318
885.126292,-1554.432478,1685.410096,10658.965565
885.126621,-1776.494261,306.438199,10510.924376
885.126951,-2072.576638,0.000000,11029.068536
885.127280,-1702.473667,0.000000,11103.089130
885.127610,-1702.473667,-383.047749,10214.842000
885.127939,-1480.411884,-459.657299,10066.800811
885.128269,-1036.288319,-229.828649,9918.759623
885.128598,-592.164754,459.657299,9844.739029
885.128928,-592.164754,1378.971896,9474.636058
885.129257,-666.185348,1149.143247,9326.594869
885.129587,-592.164754,1991.848295,9326.594869
885.129916,-888.247130,2068.457845,9326.594869
885.130245,-888.247130,1072.533697,8882.471304
885.130575,-592.164754,612.876398,8068.244768
885.130904,0.000000,766.095498,8142.265362
885.131234,222.061783,-306.438199,8216.285956
885.131563,222.061783,612.876398,8734.430116
885.131893,-296.082377,1072.533697,8956.491898
885.132222,-444.123565,1915.238745,9548.656652
885.132552,0.000000,2757.943793,9918.759623
885.132881,-296.082377,3064.381992,10436.903782
885.133211,-592.164754,2374.896044,9178.553681
885.133540,-444.123565,1072.533697,8290.306550
885.133870,-666.185348,536.266849,8068.244768
885.134199,-1332.370696,229.828649,8512.368333
885.134529,-2220.617826,0.000000,8512.368333
885.134858,-2960.823768,0.000000,8512.368333
885.135188,-3034.844362,76.609550,8734.430116
885.135517,-2220.617826,306.438199,9252.574275
885.135847,-1332.370696,306.438199,9844.739029
885.136176,-1184.329507,919.314598,9844.739029
885.136506,-1036.288319,1762.019645,9474.636058
885.136835,-1036.288319,1838.629195,10214.842000
885.137165,-1184.329507,2068.457845,11251.130318
885.137494,-1924.535449,1225.752797,11547.212695
885.137823,-2516.700203,919.314598,11695.253884
885.138153,-2738.761985,76.609550,11325.150913
885.138482,-2516.700203,-153.219100,11103.089130
885.138812,-1554.432478,-766.095498,10436.903782
885.139141,-740.205942,-1378.971896,9844.739029
885.139471,0.000000,-995.924147,9696.697840
885.139800,74.020594,536.266849,9548.656652
885.140130,-370.102971,1149.143247,9696.697840
885.140459,-666.185348,2221.676944,9474.636058
885.140789,-666.185348,2068.457845,9474.636058
885.141118,-814.226536,2068.457845,9548.656652
885.141448,-1036.288319,1915.238745,9252.574275
885.141777,-1110.308913,1149.143247,8734.430116
885.142107,-1332.370696,153.219100,7994.224174
885.142436,-888.247130,0.000000,7994.224174
885.142766,-444.123565,0.000000,8808.450710
885.143095,-666.185348,1225.752797,9400.615463
885.143425,-814.226536,1762.019645,9030.512492
885.143754,-444.123565,2145.067394,9252.574275
885.144084,-666.185348,2451.505594,9696.697840
885.144413,-1036.288319,2221.676944,9918.759623
885.144743,-1406.391290,1532.190996,9474.636058
885.145072,-2072.576638,1149.143247,8956.491898
885.145402,-2590.720797,459.657299,9030.512492
885.145731,-2886.803174,-919.314598,8956.491898
885.146060,-3182.885551,-1455.581446,8734.430116
885.146390,-2590.720797,-1455.581446,8808.450710
885.146719,-1258.350101,-459.657299,8808.450710
885.147049,0.000000,842.705048,9696.697840
885.147378,888.247130,1762.019645,9696.697840
885.147708,1554.432478,2145.067394,9474.636058
885.148037,2072.576638,3064.381992,9844.739029
885.148367,2072.576638,3370.820191,10807.006753
885.148696,1406.391290,3830.477490,11251.130318
885.149026,-222.061783,2604.724693,11325.150913
885.149355,-1998.556043,1455.581446,10881.027347
885.149685,-2516.700203,76.609550,10732.986159
885.150014,-2146.597232,-842.705048,10732.986159
885.150344,-2146.597232,-1225.752797,10140.821405
885.150673,-2294.638420,-1838.629195,9326.594869
885.151003,-1628.453072,-766.095498,9400.615463
885.151332,-1332.370696,459.657299,9474.636058
885.151662,-1628.453072,1608.800546,9326.594869
885.151991,-1406.391290,2298.286494,9178.553681
885.152321,-1554.432478,2451.505594,8882.471304
885.152650,-518.144159,2068.457845,9252.574275
885.152980,-296.082377,1685.410096,8882.471304
885.153309,-222.061783,1455.581446,7698.141797
885.153638,0.000000,766.095498,7402.059420
885.153968,74.020594,0.000000,8660.409521
885.154297,444.123565,1225.752797,9474.636058
885.154627,74.020594,1838.629195,9770.718434
885.154956,-296.082377,2298.286494,9844.739029
885.155286,-370.102971,2451.505594,10214.842000
885.155615,-740.205942,2145.067394,10214.842000
885.155945,-666.185348,2068.457845,10214.842000
885.156274,-1258.350101,1149.143247,9474.636058
885.156604,-1776.494261,153.219100,9030.512492
885.156933,-2294.638420,-689.485948,9104.533087
885.157263,-2664.741391,-995.924147,8882.471304
885.157592,-2812.782580,-1149.143247,8734.430116
885.157922,-2368.659014,-919.314598,8512.368333
885.158251,-1628.453072,0.000000,9030.512492
885.158581,-666.185348,766.095498,9400.615463
885.158910,-666.185348,2145.067394,9400.615463
885.159240,0.000000,2834.553343,9474.636058
885.159569,0.000000,2911.162892,10510.924376
885.159899,-222.061783,3294.210641,11325.150913
885.160228,-814.226536,2451.505594,11399.171507
885.160558,-1776.494261,1225.752797,11029.068536
885.160887,-2294.638420,459.657299,10214.842000
885.161217,-2368.659014,0.000000,10510.924376
885.161546,-2072.576638,-689.485948,10436.903782
885.161876,-1924.535449,-995.924147,9770.718434
885.162205,-1554.432478,-1072.533697,9400.615463
885.162535,-740.205942,-459.657299,9622.677246
885.162864,-592.164754,919.314598,9696.697840
885.163194,-888.247130,1378.971896,9252.574275
885.163523,-740.205942,1455.581446,8734.430116
885.163853,-370.102971,1302.362347,9030.512492
885.164182,-148.041188,1532.190996,8956.491898
885.164512,74.020594,1762.019645,9030.512492
885.164841,0.000000,536.266849,8290.306550
885.165171,148.041188,153.219100,8438.347739
885.165500,222.061783,842.705048,9178.553681
885.165830,0.000000,995.924147,9622.677246
885.166159,-444.123565,1608.800546,9178.553681
885.166489,-962.267725,2145.067394,9696.697840
885.166819,-962.267725,2298.286494,10214.842000
885.167148,-888.247130,2298.286494,10584.944971
885.167478,-962.267725,1378.971896,9844.739029
885.167807,-962.267725,229.828649,8956.491898
885.168137,-1554.432478,-153.219100,8216.285956
885.168466,-1850.514855,-612.876398,8660.409521
885.168796,-1998.556043,-459.657299,8512.368333
885.169125,-2072.576638,-459.657299,8068.244768
885.169455,-1554.432478,-153.219100,8290.306550
885.169784,-666.185348,612.876398,9252.574275
885.170114,-370.102971,1302.362347,9622.677246
885.170443,-296.082377,2221.676944,9844.739029
885.170773,-518.144159,2528.115143,10436.903782
885.171102,-296.082377,2834.553343,11251.130318
885.171432,-814.226536,2298.286494,11251.130318
885.171761,-1406.391290,1991.848295,11547.212695
885.172091,-2146.597232,766.095498,11103.089130
885.172420,-2368.659014,383.047749,10732.986159
885.172750,-2516.700203,-306.438199,10362.883188
885.173079,-2590.720797,0.000000,9696.697840
885.173409,-1702.473667,-1072.533697,8956.491898
885.173738,-1258.350101,-995.924147,8882.471304
885.174068,-1036.288319,0.000000,8956.491898
885.174397,-1036.288319,689.485948,8882.471304
885.174727,-814.226536,1072.533697,8882.471304
885.175056,-1332.370696,1915.238745,9030.512492
885.175386,-1036.288319,2145.067394,9474.636058
885.175715,-888.247130,1762.019645,9326.594869
885.176045,-814.226536,1072.533697,8956.491898
885.176374,-666.185348,536.266849,8512.368333
885.176704,0.000000,76.609550,9178.553681
885.177033,-296.082377,459.657299,9696.697840
885.177363,-740.205942,1455.581446,9844.739029
885.177692,-1036.288319,1685.410096,9696.697840
885.178022,-1332.370696,1762.019645,9770.718434
885.178351,-1480.411884,2298.286494,9992.780217
885.178681,-962.267725,1762.019645,9770.718434
885.179010,-1628.453072,995.924147,9252.574275
885.179340,-1850.514855,306.438199,8660.409521
885.179669,-2072.576638,-536.266849,8882.471304
885.179999,-2664.741391,-1072.533697,9178.553681
885.180328,-2664.741391,-536.266849,8808.450710
885.180658,-2442.679609,-612.876398,8734.430116
885.180987,-1480.411884,383.047749,9252.574275
885.181317,0.000000,612.876398,9844.739029
885.181646,592.164754,1302.362347,9918.759623
885.181976,1258.350101,2298.286494,9622.677246
885.182305,1184.329507,2681.334243,9696.697840
885.182635,1036.288319,3064.381992,10807.006753
885.182964,370.102971,2911.162892,11621.233289
885.183294,-1258.350101,2221.676944,11325.150913
885.183623,-2294.638420,1685.410096,10658.965565
885.183953,-2812.782580,689.485948,10214.842000
885.184282,-2664.741391,229.828649,10362.883188
885.184612,-2294.638420,-689.485948,9474.636058
885.184941,-1776.494261,-1455.581446,8586.388927
885.185271,-1184.329507,-1149.143247,8068.244768
885.185600,-592.164754,0.000000,8512.368333
885.185930,-666.185348,1762.019645,9104.533087
885.186259,-1036.288319,2068.457845,9104.533087
885.186589,-592.164754,2451.505594,9178.553681
885.186918,0.000000,2604.724693,9326.594869
885.187248,666.185348,2681.334243,9326.594869
885.187577,222.061783,1762.019645,8290.306550
885.187907,74.020594,1225.752797,7994.224174
885.188236,370.102971,536.266849,8660.409521
885.188566,370.102971,995.924147,9696.697840
885.188895,222.061783,1838.629195,10140.821405
885.189225,-740.205942,2068.457845,9844.739029
885.189554,-1110.308913,2528.115143,9918.759623
885.189884,-518.144159,2374.896044,10214.842000
885.190213,-296.082377,1608.800546,10066.800811
885.190543,-814.226536,1072.533697,9622.677246
885.190872,-2146.597232,995.924147,8660.409521
885.191202,-2738.761985,-383.047749,9030.512492
885.191531,-3478.967927,-612.876398,9030.512492
885.191861,-3627.009116,-1072.533697,8660.409521
885.192190,-2960.823768,-842.705048,8364.327145
885.192520,-1924.535449,-766.095498,8142.265362
885.192849,-222.061783,0.000000,9474.636058
885.193179,-148.041188,995.924147,9548.656652
885.193508,0.000000,2374.896044,9548.656652
885.193838,-222.061783,3064.381992,10214.842000
885.194167,222.061783,3907.087040,11473.192101
885.194497,-592.164754,3140.991542,11621.233289
885.194826,-1184.329507,2298.286494,11325.150913
885.195156,-2294.638420,766.095498,10436.903782
885.195485,-2590.720797,-153.219100,9992.780217
885.195815,-2442.679609,-612.876398,10214.842000
885.196144,-2146.597232,-919.314598,9696.697840
885.196474,-2072.576638,-1378.971896,9178.553681
885.196803,-1554.432478,-1072.533697,9400.615463
885.197133,-1332.370696,0.000000,9178.553681
885.197462,-1184.329507,1149.143247,9252.574275
885.197792,-518.144159,1225.752797,9400.615463
885.198121,-592.164754,1532.190996,9548.656652
885.198451,-592.164754,1991.848295,9770.718434
885.198780,-222.061783,1762.019645,8956.491898
885.199110,74.020594,689.485948,8216.285956
885.199439,888.247130,383.047749,7624.121203
885.199769,1036.288319,459.657299,8290.306550
885.200098,1036.288319,842.705048,9104.533087
885.200428,370.102971,2145.067394,9400.615463
885.200757,-222.061783,2451.505594,9326.594869
885.201087,-666.185348,2374.896044,9770.718434
885.201416,-740.205942,2298.286494,10288.862594
885.201746,-740.205942,2145.067394,10214.842000
885.202075,-1258.350101,995.924147,9474.636058
885.202405,-1776.494261,76.609550,9252.574275
885.202734,-2220.617826,-306.438199,8956.491898
885.203064,-2368.659014,-919.314598,8290.306550
885.203393,-2442.679609,-1072.533697,8142.265362
885.203723,-1850.514855,-153.219100,8364.327145
885.204052,-1036.288319,536.266849,9178.553681
885.204382,-370.102971,1225.752797,9622.677246
885.204711,0.000000,2451.505594,9770.718434
885.205041,-296.082377,2451.505594,10214.842000
885.205370,-370.102971,2681.334243,11103.089130
885.205700,-592.164754,2604.724693,11769.274478
885.206029,-1480.411884,2221.676944,11621.233289
885.206359,-1924.535449,612.876398,10732.986159
885.206688,-2220.617826,0.000000,10362.883188
885.207018,-1776.494261,-383.047749,10362.883188
885.207347,-1480.411884,-306.438199,9918.759623
885.207677,-1036.288319,-689.485948,9326.594869
885.208006,-740.205942,-766.095498,8734.430116
885.208336,0.000000,383.047749,9030.512492
885.208665,-222.061783,1378.971896,9252.574275
885.208995,-296.082377,1608.800546,9104.533087
885.209324,-518.144159,1762.019645,9104.533087
885.209654,-666.185348,1915.238745,9030.512492
885.209983,-888.247130,1991.848295,8882.471304
885.210313,-1406.391290,1915.238745,8808.450710
885.210642,-1776.494261,1302.362347,8290.306550
885.210972,-1554.432478,536.266849,8438.347739
885.211301,-1480.411884,306.438199,9252.574275
885.211631,-2072.576638,612.876398,8956.491898
885.211960,-2812.782580,536.266849,9326.594869
885.212290,-3108.864956,459.657299,9178.553681
885.212619,-2960.823768,612.876398,9992.780217
885.212949,-2516.700203,306.438199,10214.842000
885.213278,-2072.576638,-306.438199,9918.759623
885.213608,-1480.411884,-229.828649,9696.697840
885.213937,-1036.288319,-995.924147,9400.615463
885.214267,-444.123565,-306.438199,9474.636058
885.214596,0.000000,0.000000,8956.491898
885.214926,666.185348,383.047749,8882.471304
885.215255,1702.473667,1455.581446,9030.512492
885.215585,1554.432478,1838.629195,9474.636058
885.215914,1258.350101,1991.848295,10436.903782
885.216244,148.041188,2374.896044,10066.800811
885.216573,-740.205942,2068.457845,10362.883188
885.216903,-1332.370696,1991.848295,11029.068536
885.217232,-2590.720797,2145.067394,11473.192101
885.217562,-3404.947333,612.876398,10732.986159
885.217891,-4293.194464,76.609550,10140.821405
885.218221,-3923.091493,-383.047749,10288.862594
885.218550,-3330.926739,-459.657299,9844.739029
885.218880,-2368.659014,-459.657299,9696.697840
885.219209,-1850.514855,-612.876398,8882.471304
885.219539,-1036.288319,229.828649,9252.574275
885.219868,-592.164754,919.314598,9178.553681
885.220198,-296.082377,1915.238745,9104.533087
885.220527,-444.123565,2068.457845,8660.409521
885.220857,74.020594,1762.019645,8882.471304
885.221186,814.226536,2374.896044,9400.615463
885.221516,1036.288319,1991.848295,9104.533087
885.221845,1332.370696,1838.629195,8512.368333
885.222175,1184.329507,2145.067394,8216.285956
885.222504,1480.411884,2221.676944,9104.533087
885.222834,1110.308913,2451.505594,9622.677246
885.223163,592.164754,2757.943793,9844.739029
885.223493,148.041188,2451.505594,9548.656652
885.223822,-814.226536,1915.238745,9696.697840
885.224152,-1406.391290,1838.629195,9992.780217
885.224481,-2146.597232,1149.143247,9770.718434
885.224811,-2442.679609,0.000000,9326.594869
885.225140,-2738.761985,-383.047749,8660.409521
885.225470,-2812.782580,-612.876398,8512.368333
885.225799,-2664.741391,-612.876398,7994.224174
885.226129,-2294.638420,-612.876398,7994.224174
885.226458,-1776.494261,306.438199,8586.388927
885.226788,-962.267725,919.314598,9474.636058
885.227117,-518.144159,1685.410096,10214.842000
885.227447,-592.164754,2604.724693,10066.800811
885.227776,-296.082377,2451.505594,10362.883188
885.228106,-222.061783,2528.115143,10510.924376
885.228435,-370.102971,2068.457845,10881.027347
885.228765,-888.247130,1225.752797,10881.027347
885.229094,-1776.494261,536.266849,10436.903782
885.229424,-1628.453072,0.000000,10510.924376
885.229753,-2072.576638,0.000000,10510.924376
885.230083,-1924.535449,-689.485948,10140.821405
885.230412,-1776.494261,-612.876398,9474.636058
885.230742,-962.267725,-459.657299,9178.553681
885.231071,0.000000,-689.485948,9178.553681
885.231401,74.020594,0.000000,9474.636058
885.231730,-962.267725,842.705048,10066.800811
885.232060,-1776.494261,1225.752797,9770.718434
885.232389,-1480.411884,1225.752797,9474.636058
885.232719,-740.205942,842.705048,9178.553681
885.233048,-444.123565,383.047749,8512.368333
885.233378,-148.041188,383.047749,7772.162391
885.233707,0.000000,306.438199,7846.182985
885.234037,0.000000,1455.581446,8512.368333
885.234366,-296.082377,1915.238745,9252.574275
885.234696,-444.123565,2374.896044,9178.553681
885.235025,-814.226536,1991.848295,9326.594869
885.235355,-888.247130,1532.190996,9696.697840
885.235684,-740.205942,766.095498,9992.780217
885.236014,-444.123565,689.485948,9622.677246
885.236343,-814.226536,306.438199,9474.636058
885.236673,-1258.350101,-383.047749,8660.409521
885.237002,-1258.350101,-306.438199,8734.430116
885.237332,-1110.308913,0.000000,8734.430116
885.237661,-888.247130,153.219100,8512.368333
885.237991,-444.123565,1225.752797,9104.533087
885.238320,222.061783,1532.190996,9918.759623
885.238650,296.082377,1915.238745,10288.862594
885.238979,-296.082377,2528.115143,10066.800811
885.239309,-740.205942,2451.505594,9992.780217
885.239638,-740.205942,1915.238745,10436.903782
885.239968,-740.205942,1302.362347,11103.089130
885.240297,-1480.411884,919.314598,10881.027347
885.240627,-2294.638420,0.000000,10214.842000
885.240956,-2738.761985,-459.657299,10362.883188
885.241286,-2886.803174,-306.438199,10658.965565
885.241615,-2590.720797,0.000000,10510.924376
885.241945,-1850.514855,-306.438199,9844.739029
885.242274,-666.185348,0.000000,9252.574275
885.242604,296.082377,612.876398,9030.512492
885.242933,518.144159,1072.533697,8882.471304
885.243263,666.185348,1608.800546,8512.368333
885.243592,518.144159,2068.457845,8660.409521
885.243922,0.000000,2604.724693,9178.553681
885.244251,-222.061783,2451.505594,9622.677246
885.244581,-592.164754,1532.190996,9104.533087
885.244910,-814.226536,919.314598,8808.450710
885.245240,-888.247130,766.095498,8956.491898
885.245569,-1406.391290,842.705048,9252.574275
885.245899,-1850.514855,1378.971896,9474.636058
885.246228,-2294.638420,766.095498,9030.512492
885.246558,-2590.720797,689.485948,8882.471304
885.246887,-2590.720797,0.000000,8734.430116
885.247217,-2368.659014,689.485948,9622.677246
885.247546,-1924.535449,383.047749,9400.615463
885.247876,-1998.556043,-383.047749,9326.594869
885.248205,-2072.576638,-153.219100,9400.615463
885.248535,-1924.535449,0.000000,9326.594869
885.248864,-1998.556043,0.000000,8882.471304
885.249194,-1406.391290,0.000000,9178.553681
885.249523,-444.123565,153.219100,9622.677246
885.249853,0.000000,766.095498,10436.903782
885.250182,0.000000,1455.581446,10436.903782
885.250512,148.041188,1991.848295,10140.821405
885.250841,-370.102971,2298.286494,10436.903782
885.251171,-370.102971,2451.505594,10807.006753
885.251500,-592.164754,1608.800546,10807.006753
885.251830,-1184.329507,842.705048,10436.903782
885.252159,-1924.535449,842.705048,9770.718434
885.252489,-2590.720797,0.000000,9622.677246
885.252818,-2442.679609,0.000000,9844.739029
885.253148,-2072.576638,-536.266849,9474.636058
885.253477,-1628.453072,-842.705048,9474.636058
885.253807,-1110.308913,-536.266849,9326.594869
885.254136,-962.267725,229.828649,9918.759623
885.254466,-888.247130,919.314598,10140.821405
885.254795,-1110.308913,1838.629195,9622.677246
885.255125,-518.144159,2221.676944,9326.594869
885.255454,370.102971,2221.676944,9252.574275
885.255784,1554.432478,2451.505594,8512.368333
885.256113,1406.391290,1685.410096,7254.018232
885.256443,1924.535449,1378.971896,7105.977043
885.256772,1776.494261,1378.971896,8216.285956
885.257102,1036.288319,2298.286494,9400.615463
885.257431,0.000000,2987.772442,9548.656652
885.257761,-1406.391290,2451.505594,9622.677246
885.258090,-1628.453072,1685.410096,9770.718434
885.258420,-1628.453072,1455.581446,10288.862594
885.258749,-1776.494261,689.485948,10288.862594
885.259079,-2146.597232,0.000000,9622.677246
885.259408,-2886.803174,-383.047749,8734.430116
885.259738,-2812.782580,-459.657299,8734.430116
885.260067,-2664.741391,0.000000,8290.306550
885.260397,-1850.514855,0.000000,8068.244768
885.260726,-740.205942,153.219100,7698.141797
885.261056,222.061783,919.314598,8512.368333
885.261385,222.061783,1302.362347,9474.636058
885.261715,0.000000,2374.896044,10362.883188
885.262044,-962.267725,2757.943793,10510.924376
885.262374,-1036.288319,2987.772442,11029.068536
885.262703,-1036.288319,3140.991542,11473.192101
885.263033,-1776.494261,1072.533697,11029.068536
885.263362,-2146.597232,536.266849,10807.006753
885.263692,-2664.741391,0.000000,10584.944971
885.264021,-2738.761985,0.000000,10362.883188
885.264351,-2368.659014,153.219100,10066.800811
885.264680,-1924.535449,-1532.190996,9696.697840
885.265009,-1480.411884,-1302.362347,10214.842000
885.265339,-1406.391290,-153.219100,10362.883188
885.265668,-1628.453072,612.876398,9992.780217
885.265998,-1406.391290,1455.581446,9178.553681
885.266327,-814.226536,1225.752797,8216.285956
885.266657,148.041188,689.485948,8216.285956
885.266986,962.267725,1225.752797,7846.182985
885.267316,1184.329507,1838.629195,7550.100608
885.267645,1258.350101,1685.410096,7624.121203
885.267975,1480.411884,1225.752797,8216.285956
885.268304,740.205942,2298.286494,9326.594869
885.268634,0.000000,2145.067394,9918.759623
885.268963,-1036.288319,2298.286494,10066.800811
885.269293,-1628.453072,1838.629195,9992.780217
885.269622,-2368.659014,459.657299,10436.903782
885.269952,-2146.597232,689.485948,10807.006753
885.270281,-2516.700203,-689.485948,10214.842000
885.270611,-2664.741391,-306.438199,9252.574275
885.270940,-2294.638420,-536.266849,8882.471304
885.271270,-1702.473667,-306.438199,8216.285956
885.271599,-962.267725,-229.828649,7994.224174
885.271929,-518.144159,0.000000,7994.224174
885.272258,592.164754,1072.533697,8142.265362
885.272587,1184.329507,2145.067394,9326.594869
885.272917,1258.350101,2374.896044,10140.821405
885.273246,370.102971,2757.943793,10288.862594
885.273576,-296.082377,2374.896044,11029.068536
885.273905,-518.144159,2221.676944,11695.253884
885.274235,-1110.308913,1608.800546,12139.377449
885.274564,-1554.432478,689.485948,12287.418637
885.274894,-2442.679609,0.000000,11325.150913
885.275223,-2442.679609,-919.314598,10584.944971
885.275553,-2294.638420,-229.828649,10140.821405
885.275882,-1924.535449,76.609550,8956.491898
885.276212,-1184.329507,76.609550,7772.162391
885.276541,-444.123565,76.609550,7328.038826
885.276871,0.000000,995.924147,7698.141797
885.277200,-740.205942,1608.800546,7994.224174
885.277530,-1850.514855,1915.238745,8438.347739
885.277859,-2294.638420,1455.581446,8882.471304
885.278189,-2442.679609,1225.752797,9770.718434
885.278518,-1850.514855,1302.362347,10584.944971
885.278848,-1258.350101,383.047749,9918.759623
885.279177,-962.267725,383.047749,9104.533087
885.279507,-370.102971,0.000000,9252.574275
885.279836,0.000000,689.485948,9992.780217
885.280166,370.102971,1608.800546,10510.924376
885.280495,-370.102971,1762.019645,9548.656652
885.280824,-740.205942,1838.629195,9252.574275
885.281154,-518.144159,1685.410096,9770.718434
885.281483,-222.061783,1149.143247,9474.636058
885.281813,-740.205942,0.000000,8586.388927
885.282142,-592.164754,-459.657299,8438.347739
885.282472,-1924.535449,-383.047749,8586.388927
885.282801,-2516.700203,-612.876398,9252.574275
885.283131,-2664.741391,-229.828649,9474.636058
885.283460,-2442.679609,153.219100,9252.574275
885.283790,-1480.411884,612.876398,9844.739029
885.284119,-1628.453072,1149.143247,10140.821405
885.284449,-1480.411884,1762.019645,10658.965565
885.284778,-1776.494261,1838.629195,10288.862594
885.285108,-1554.432478,2145.067394,10362.883188
885.285437,-1258.350101,1455.581446,10362.883188
885.285767,-1036.288319,919.314598,10955.047942
885.286096,-1702.473667,612.876398,10140.821405
885.286426,-1776.494261,0.000000,9696.697840
885.286755,-1702.473667,-536.266849,9992.780217
885.287085,-1480.411884,-383.047749,10066.800811
885.287414,-1036.288319,383.047749,9918.759623
885.287744,-740.205942,459.657299,9104.533087
885.288073,296.082377,306.438199,8808.450710
885.288403,1110.308913,995.924147,8660.409521
885.288732,1628.453072,1762.019645,8808.450710
885.289061,1258.350101,2374.896044,8734.430116
885.289391,814.226536,2374.896044,8512.368333
885.289720,518.144159,2834.553343,9400.615463
885.290050,222.061783,2451.505594,9622.677246
885.290379,-148.041188,2221.676944,9104.533087
885.290709,-370.102971,1685.410096,8882.471304
885.291038,-740.205942,995.924147,9104.533087
885.291368,-1184.329507,842.705048,9992.780217
885.291697,-1924.535449,1225.752797,10362.883188
885.292027,-2516.700203,1072.533697,10140.821405
885.292356,-2664.741391,1225.752797,9548.656652
885.292686,-2516.700203,1225.752797,9030.512492
885.293015,-1702.473667,766.095498,8882.471304
885.293345,-814.226536,0.000000,8512.368333
885.293674,-444.123565,0.000000,8216.285956
885.294004,-518.144159,842.705048,8438.347739
885.294333,-444.123565,766.095498,8290.306550
885.294663,-740.205942,995.924147,8734.430116
885.294992,-444.123565,1302.362347,9474.636058
885.295322,0.000000,1838.629195,10066.800811
885.295651,0.000000,1915.238745,10732.986159
885.295981,-370.102971,1915.238745,10584.944971
885.296310,-814.226536,1838.629195,10362.883188
885.296640,-1406.391290,2145.067394,10807.006753
885.296969,-1924.535449,1838.629195,11029.068536
885.297298,-2294.638420,1378.971896,10658.965565
885.297628,-2664.741391,459.657299,10140.821405
885.297957,-3034.844362,-536.266849,9326.594869
885.298287,-3404.947333,-1225.752797,9918.759623
885.298616,-2960.823768,-995.924147,10288.862594
885.298946,-2442.679609,-536.266849,9844.739029
885.299275,-2146.597232,0.000000,9104.533087
885.299605,-1332.370696,383.047749,8808.450710
885.299934,-444.123565,842.705048,8734.430116
885.300264,0.000000,766.095498,8808.450710
885.300593,370.102971,1532.190996,9030.512492
885.300923,444.123565,2451.505594,9400.615463
885.301252,370.102971,2757.943793,9326.594869
885.301582,518.144159,2298.286494,9178.553681
885.301911,74.020594,1762.019645,9104.533087
885.302241,296.082377,1455.581446,8956.491898
885.302570,518.144159,919.314598,9400.615463
885.302900,0.000000,995.924147,9474.636058
885.303229,-814.226536,1302.362347,9548.656652
885.303559,-1628.453072,383.047749,9474.636058
885.303888,-1480.411884,459.657299,9770.718434
885.304218,-1702.473667,1149.143247,9844.739029
885.304547,-1924.535449,919.314598,9030.512492
885.304876,-1998.556043,0.000000,8586.388927
885.305206,-1258.350101,-153.219100,8882.471304
885.305535,-1628.453072,229.828649,9030.512492
885.305865,-1924.535449,995.924147,8586.388927
885.306194,-2072.576638,842.705048,8438.347739
885.306524,-666.185348,383.047749,9252.574275
885.306853,-148.041188,919.314598,9696.697840
885.307183,222.061783,1532.190996,10066.800811
885.307512,-148.041188,1915.238745,9992.780217
885.307842,-518.144159,2451.505594,10288.862594
885.308171,-1036.288319,2681.334243,10510.924376
885.308501,-1184.329507,1532.190996,10807.006753
885.308830,-1628.453072,612.876398,11103.089130
885.309160,-2590.720797,76.609550,10807.006753
885.309489,-2812.782580,76.609550,10658.965565
885.309819,-2368.659014,-612.876398,10436.903782
885.310148,-1850.514855,-1378.971896,9622.677246
885.310478,-740.205942,-536.266849,8660.409521
885.310807,0.000000,-459.657299,8216.285956
885.311137,740.205942,383.047749,8364.327145
885.311466,592.164754,1838.629195,8586.388927
885.311796,222.061783,2834.553343,9104.533087
885.312125,-518.144159,2681.334243,9252.574275
885.312455,-740.205942,2834.553343,9844.739029
885.312784,-888.247130,1991.848295,10362.883188
885.313113,-1480.411884,1149.143247,9844.739029
885.313443,-1850.514855,919.314598,9030.512492
885.313772,-1406.391290,229.828649,9252.574275
885.314102,-1036.288319,-306.438199,9326.594869
885.314431,-1332.370696,306.438199,10140.821405
885.314761,-1776.494261,536.266849,9918.759623
885.315090,-2072.576638,995.924147,9844.739029
885.315420,-1924.535449,995.924147,9548.656652
885.315749,-1702.473667,1149.143247,9474.636058
885.316079,-1184.329507,459.657299,8808.450710
885.316408,-1184.329507,-229.828649,8068.244768
885.316738,-1110.308913,-536.266849,7994.224174
885.317067,-1184.329507,76.609550,7846.182985
885.317397,-1702.473667,536.266849,8438.347739
885.317726,-1258.350101,536.266849,9030.512492
885.318056,-740.205942,766.095498,9622.677246
885.318385,-370.102971,1378.971896,10510.924376
885.318715,0.000000,1915.238745,10510.924376
885.319044,-592.164754,2145.067394,10288.862594
885.319374,-1184.329507,2374.896044,10288.862594
885.319703,-1702.473667,1915.238745,10362.883188
885.320033,-2146.597232,1149.143247,10732.986159
885.320362,-3108.864956,0.000000,10288.862594
885.320692,-3775.050304,-229.828649,9622.677246
885.321021,-3701.029710,-1532.190996,9844.739029
885.321350,-2812.782580,-1762.019645,10140.821405
885.321680,-2220.617826,-1608.800546,10140.821405
885.322009,-1554.432478,-689.485948,9474.636058
885.322339,-296.082377,-383.047749,9770.718434
885.322668,518.144159,1302.362347,9992.780217
885.322998,1036.288319,2221.676944,9474.636058
885.323327,1332.370696,2145.067394,9178.553681
885.323657,1480.411884,2298.286494,8956.491898
885.323986,1480.411884,2911.162892,9400.615463
885.324316,740.205942,2068.457845,9474.636058
885.324645,148.041188,2221.676944,9178.553681
885.324975,0.000000,1455.581446,8586.388927
885.325304,0.000000,1072.533697,9030.512492
885.325634,-296.082377,766.095498,9696.697840
885.325963,-1110.308913,1608.800546,10288.862594
885.326293,-2294.638420,1455.581446,9844.739029
885.326622,-2516.700203,995.924147,9622.677246
885.326952,-2442.679609,842.705048,9474.636058
885.327281,-2072.576638,459.657299,9326.594869
885.327611,-1406.391290,229.828649,8216.285956
885.327940,-1480.411884,0.000000,7402.059420
885.328270,-1184.329507,229.828649,7328.038826
885.328599,-962.267725,766.095498,7402.059420
885.328929,-814.226536,766.095498,8142.265362
885.329258,-370.102971,1225.752797,8882.471304
885.329587,0.000000,2681.334243,9992.780217
885.329917,0.000000,2757.943793,10807.006753
885.330246,-370.102971,2757.943793,10584.944971
885.330576,-592.164754,2451.505594,10584.944971
885.330905,-1036.288319,2911.162892,10732.986159
885.331235,-1554.432478,2068.457845,10881.027347
885.331564,-2220.617826,1225.752797,10807.006753
885.331894,-3182.885551,76.609550,10214.842000
885.332223,-3627.009116,-842.705048,10436.903782
885.332553,-3923.091493,-842.705048,10658.965565
885.332882,-3701.029710,-689.485948,10214.842000
885.333212,-2368.659014,-1225.752797,9474.636058
885.333541,-1332.370696,-459.657299,9252.574275
885.333871,-370.102971,306.438199,9252.574275
885.334200,0.000000,995.924147,9178.553681
885.334530,592.164754,1608.800546,8734.430116
885.334859,962.267725,2604.724693,8956.491898
885.335189,1184.329507,3064.381992,9622.677246
885.335518,1036.288319,2911.162892,9770.718434
885.335848,1036.288319,2221.676944,9326.594869
885.336177,296.082377,1762.019645,8808.450710
885.336507,-222.061783,1149.143247,8512.368333
885.336836,-888.247130,1302.362347,9252.574275
885.337165,-1184.329507,1072.533697,9844.739029
885.337495,-1850.514855,383.047749,9622.677246
885.337824,-2442.679609,-153.219100,9622.677246
885.338154,-2442.679609,0.000000,9844.739029
885.338483,-2664.741391,0.000000,9844.739029
885.338813,-2590.720797,76.609550,9178.553681
885.339142,-2072.576638,-306.438199,8364.327145
885.339472,-1036.288319,-689.485948,8364.327145
885.339801,-592.164754,-306.438199,7846.182985
885.340131,-592.164754,612.876398,7698.141797
885.340460,-370.102971,842.705048,8068.244768
885.340790,74.020594,1532.190996,9030.512492
885.341119,444.123565,1915.238745,10214.842000
885.341449,814.226536,2451.505594,11029.068536
885.341778,592.164754,2987.772442,11029.068536
885.342108,0.000000,1838.629195,10881.027347
885.342437,-666.185348,1762.019645,11029.068536
885.342767,-1184.329507,1302.362347,11621.233289
885.343096,-2146.597232,612.876398,10955.047942
885.343426,-2886.803174,76.609550,10066.800811
885.343755,-3182.885551,76.609550,9474.636058
885.344085,-3034.844362,-995.924147,8956.491898
885.344414,-2590.720797,-1455.581446,8660.409521
885.344744,-2368.659014,-1072.533697,8438.347739
885.345073,-2368.659014,-306.438199,8586.388927
885.345402,-1776.494261,-383.047749,9696.697840
885.345732,-1258.350101,1225.752797,10140.821405
885.346061,-888.247130,1072.533697,9918.759623
885.346391,0.000000,1685.410096,9696.697840
885.346720,888.247130,1915.238745,10066.800811
885.347050,1332.370696,1991.848295,10140.821405
885.347379,1258.350101,2145.067394,9474.636058
885.347709,1184.329507,2068.457845,8734.430116
885.348038,962.267725,1915.238745,8956.491898
885.348368,444.123565,1915.238745,9474.636058
885.348697,-296.082377,1915.238745,9474.636058
885.349027,-1184.329507,1302.362347,9104.533087
885.349356,-2220.617826,459.657299,9104.533087
885.349686,-2590.720797,459.657299,9622.677246
885.350015,-3256.906145,383.047749,9326.594869
885.350345,-3182.885551,-383.047749,8808.450710
885.350674,-3034.844362,-383.047749,8364.327145
885.351004,-3034.844362,-459.657299,8438.347739
885.351333,-2664.741391,76.609550,8882.471304
885.351663,-2442.679609,689.485948,9178.553681
885.351992,-2146.597232,1072.533697,8808.450710
885.352322,-1258.350101,1455.581446,9104.533087
885.352651,-444.123565,1762.019645,9992.780217
885.352981,0.000000,1991.848295,10510.924376
885.353310,-148.041188,2298.286494,10214.842000
885.353639,-296.082377,2298.286494,9992.780217
885.353969,74.020594,1302.362347,10288.862594
885.354298,-148.041188,612.876398,10584.944971
885.354628,-1036.288319,0.000000,10362.883188
885.354957,-2072.576638,-306.438199,10584.944971
885.355287,-2368.659014,-383.047749,10955.047942
885.355616,-2442.679609,-306.438199,10881.027347
885.355946,-1924.535449,-689.485948,10362.883188
885.356275,-1036.288319,-536.266849,9474.636058
885.356605,0.000000,-689.485948,8660.409521
885.356934,740.205942,0.000000,8734.430116
885.357264,592.164754,842.705048,8586.388927
885.357593,296.082377,1685.410096,8956.491898
885.357923,222.061783,1915.238745,9622.677246
885.358252,0.000000,2528.115143,10288.862594
885.358582,222.061783,2681.334243,10066.800811
885.358911,0.000000,1608.800546,9252.574275
885.359240,-222.061783,1302.362347,8660.409521
885.359570,-148.041188,0.000000,9252.574275
885.359899,-666.185348,536.266849,9992.780217
885.360229,-1258.350101,919.314598,9844.739029
885.360558,-2368.659014,1072.533697,9252.574275
885.360887,-1850.514855,306.438199,9252.574275
885.361217,-1554.432478,76.609550,9030.512492
885.361546,-740.205942,766.095498,9104.533087
885.361876,-444.123565,612.876398,8512.368333
885.362205,-592.164754,459.657299,8216.285956
885.362534,-666.185348,766.095498,8142.265362
885.362864,-444.123565,1149.143247,8660.409521
885.363193,-1036.288319,1455.581446,8882.471304
885.363523,-888.247130,1532.190996,9400.615463
885.363852,-814.226536,1915.238745,10140.821405
885.364181,-888.247130,1838.629195,10584.944971
885.364511,-962.267725,2068.457845,10288.862594
885.364840,-962.267725,1455.581446,10140.821405
885.365170,-1480.411884,1915.238745,10066.800811
885.365499,-1850.514855,2221.676944,10584.944971
885.365828,-2442.679609,1532.190996,10140.821405
885.366158,-3256.906145,536.266849,10066.800811
885.366487,-3478.967927,-153.219100,10288.862594
885.366817,-3478.967927,229.828649,10584.944971
885.367146,-3330.926739,0.000000,10436.903782
885.367475,-2442.679609,-383.047749,9400.615463
885.367805,-1110.308913,-229.828649,8734.430116
885.368134,370.102971,0.000000,8734.430116
885.368463,962.267725,842.705048,9252.574275
885.368793,814.226536,1915.238745,9326.594869
885.369122,592.164754,2528.115143,9474.636058
885.369452,370.102971,3294.210641,9622.677246
885.369781,1110.308913,2834.553343,9696.697840
885.370110,666.185348,2221.676944,9770.718434
885.370440,296.082377,1838.629195,9030.512492
885.370769,222.061783,1225.752797,8956.491898
885.371099,148.041188,536.266849,9326.594869
885.371428,-444.123565,612.876398,9252.574275
885.371757,-1406.391290,1072.533697,9178.553681
885.372087,-2220.617826,612.876398,9178.553681
885.372416,-2072.576638,383.047749,9400.615463
885.372746,-2072.576638,612.876398,9770.718434
885.373075,-1702.473667,229.828649,9252.574275
885.373404,-1554.432478,0.000000,9178.553681
885.373734,-1110.308913,0.000000,9178.553681
885.374063,-962.267725,306.438199,9474.636058
885.374393,-1184.329507,995.924147,9252.574275
885.374722,-888.247130,536.266849,8956.491898
885.375051,0.000000,1072.533697,9326.594869
885.375381,148.041188,1608.800546,9622.677246
885.375710,666.185348,1915.238745,10214.842000
885.376040,296.082377,1915.238745,10066.800811
885.376369,-222.061783,2221.676944,9992.780217
885.376698,-296.082377,2145.067394,9844.739029
885.377028,-444.123565,1455.581446,9918.759623
885.377357,-1332.370696,0.000000,10881.027347
885.377687,-2072.576638,-306.438199,10807.006753
885.378016,-3108.864956,-842.705048,10584.944971
885.378345,-3404.947333,-766.095498,10510.924376
885.378675,-2516.700203,-612.876398,9992.780217
885.379004,-1554.432478,-842.705048,9178.553681
885.379333,-592.164754,-459.657299,8734.430116
885.379663,148.041188,229.828649,8956.491898
885.379992,148.041188,1455.581446,8956.491898
885.380322,-370.102971,2451.505594,8882.471304
885.380651,-296.082377,2451.505594,9918.759623
885.380980,-444.123565,3140.991542,10288.862594
885.381310,-370.102971,2298.286494,10288.862594
885.381639,-666.185348,1532.190996,9474.636058
885.381969,-740.205942,1532.190996,8808.450710
885.382298,-592.164754,0.000000,8734.430116
885.382627,-592.164754,229.828649,9400.615463
885.382957,-740.205942,842.705048,10066.800811
885.383286,-1702.473667,842.705048,9844.739029
885.383616,-2146.597232,689.485948,9548.656652
885.383945,-2072.576638,1225.752797,9474.636058
885.384274,-1110.308913,1532.190996,9548.656652
885.384604,-370.102971,612.876398,9178.553681
885.384933,0.000000,229.828649,8512.368333
885.385263,-518.144159,612.876398,8290.306550
885.385592,-666.185348,1072.533697,8734.430116
885.385921,-1480.411884,1455.581446,8660.409521
885.386251,-1110.308913,1685.410096,9400.615463
885.386580,-666.185348,1838.629195,9770.718434
885.386910,-666.185348,1378.971896,9844.739029
885.387239,-1480.411884,1762.019645,10066.800811
885.387568,-1850.514855,1838.629195,9992.780217
885.387898,-2220.617826,2068.457845,9696.697840
885.388227,-2072.576638,1149.143247,9844.739029
885.388557,-2220.617826,612.876398,9844.739029
885.388886,-2442.679609,-229.828649,9622.677246
885.389215,-2590.720797,-1532.190996,10214.842000
885.389545,-2886.803174,-536.266849,10362.883188
885.389874,-2368.659014,0.000000,10362.883188
885.390203,-1480.411884,0.000000,10066.800811
885.390533,-518.144159,0.000000,9400.615463
885.390862,666.185348,0.000000,9178.553681
885.391192,1110.308913,306.438199,9474.636058
885.391521,888.247130,1378.971896,9548.656652
885.391850,222.061783,2068.457845,9622.677246
885.392180,0.000000,1838.629195,9918.759623
885.392509,-444.123565,2374.896044,10288.862594
885.392839,-74.020594,1762.019645,10066.800811
885.393168,0.000000,689.485948,9474.636058
885.393497,0.000000,459.657299,9104.533087
885.393827,-296.082377,229.828649,9474.636058
885.394156,-814.226536,153.219100,9770.718434
885.394486,-1258.350101,459.657299,9844.739029
885.394815,-2220.617826,536.266849,9844.739029
885.395144,-1998.556043,536.266849,9696.697840
885.395474,-1850.514855,612.876398,9770.718434
885.395803,-1554.432478,306.438199,9252.574275
885.396133,-1184.329507,-306.438199,8882.471304
885.396462,-74.020594,0.000000,7846.182985
885.396791,-148.041188,536.266849,8660.409521
885.397121,-296.082377,1072.533697,8956.491898
885.397450,-666.185348,1532.190996,9104.533087
885.397780,-518.144159,2068.457845,9252.574275
885.398109,-814.226536,2681.334243,9992.780217
885.398438,-296.082377,2604.724693,10288.862594
885.398768,-888.247130,2068.457845,9844.739029
885.399097,-1184.329507,1608.800546,9622.677246
885.399427,-1406.391290,1532.190996,9622.677246
885.399756,-1924.535449,919.314598,9770.718434
885.400085,-2368.659014,536.266849,10362.883188
885.400415,-3108.864956,76.609550,9918.759623
885.400744,-3108.864956,-153.219100,10066.800811
885.401073,-2590.720797,76.609550,10214.842000
885.401403,-1924.535449,-459.657299,10066.800811
885.401732,-1036.288319,229.828649,9178.553681
885.402062,0.000000,612.876398,8882.471304
885.402391,814.226536,1072.533697,9178.553681
885.402720,888.247130,1915.238745,9548.656652
885.403050,296.082377,2757.943793,9474.636058
885.403379,74.020594,2757.943793,9030.512492
885.403709,74.020594,2451.505594,9474.636058
885.404038,0.000000,2145.067394,9992.780217
885.404367,-370.102971,1685.410096,9918.759623
885.404697,-814.226536,1915.238745,9474.636058
885.405026,-1036.288319,1149.143247,8660.409521
885.405356,-814.226536,689.485948,9474.636058
885.405685,-888.247130,383.047749,10066.800811
885.406014,-1850.514855,383.047749,10140.821405
885.406344,-2368.659014,536.266849,9918.759623
885.406673,-2146.597232,766.095498,9918.759623
885.407003,-1554.432478,919.314598,9770.718434
885.407332,-814.226536,612.876398,8734.430116
885.407661,0.000000,-153.219100,7994.224174
885.407991,592.164754,-153.219100,8068.244768
885.408320,518.144159,1149.143247,9030.512492
885.408650,0.000000,1302.362347,9104.533087
885.408979,-888.247130,1532.190996,9326.594869
885.409308,-888.247130,1915.238745,9474.636058
885.409638,-370.102971,1455.581446,10214.842000
885.409967,222.061783,1302.362347,10658.965565
885.410297,-296.082377,1455.581446,9770.718434
885.410626,-1110.308913,1455.581446,9400.615463
885.410955,-1480.411884,612.876398,9178.553681
885.411285,-1628.453072,612.876398,9992.780217
885.411614,-2516.700203,612.876398,9992.780217
885.411943,-3627.009116,0.000000,9918.759623
885.412273,-3997.112087,-536.266849,9400.615463
885.412602,-3849.070898,-766.095498,10066.800811
885.412932,-3330.926739,-1072.533697,10584.944971
885.413261,-2442.679609,-612.876398,10140.821405
885.413590,-1332.370696,-229.828649,9326.594869
885.413920,0.000000,-459.657299,9474.636058
885.414249,666.185348,306.438199,9696.697840
885.414579,1036.288319,995.924147,9770.718434
885.414908,1184.329507,1838.629195,9844.739029
885.415237,1406.391290,3140.991542,10288.862594
885.415567,1406.391290,3140.991542,10140.821405
885.415896,888.247130,2451.505594,9474.636058
885.416226,592.164754,1838.629195,8956.491898
885.416555,296.082377,842.705048,8512.368333
885.416884,0.000000,383.047749,9104.533087
885.417214,-1110.308913,459.657299,9474.636058
885.417543,-2146.597232,153.219100,9770.718434
885.417873,-2516.700203,306.438199,9844.739029
885.418202,-2738.761985,383.047749,9770.718434
885.418531,-2442.679609,1072.533697,9622.677246
885.418861,-1702.473667,766.095498,8956.491898
885.419190,-962.267725,689.485948,8438.347739
885.419520,-740.205942,919.314598,8808.450710
885.419849,-1258.350101,1302.362347,8586.388927
885.420178,-1406.391290,1608.800546,8660.409521
885.420508,-1628.453072,1838.629195,8512.368333
885.420837,-888.247130,1838.629195,9178.553681
885.421166,-666.185348,1532.190996,9252.574275
885.421496,-666.185348,1302.362347,9474.636058
885.421825,-518.144159,1915.238745,9178.553681
885.422155,-518.144159,1608.800546,9252.574275
885.422484,-962.267725,1762.019645,9474.636058
885.422813,-1184.329507,1532.190996,10214.842000
885.423143,-1850.514855,766.095498,10214.842000
885.423472,-2442.679609,229.828649,10732.986159
885.423802,-3034.844362,0.000000,11177.109724
885.424131,-3330.926739,0.000000,11103.089130
885.424460,-2738.761985,0.000000,10066.800811
885.424790,-1850.514855,-766.095498,9178.553681
885.425119,-592.164754,-1072.533697,8734.430116
885.425449,148.041188,-536.266849,9474.636058
885.425778,148.041188,766.095498,9326.594869
885.426107,0.000000,1685.410096,9400.615463
885.426437,0.000000,2068.457845,9918.759623
885.426766,0.000000,2451.505594,10510.924376
885.427096,0.000000,2374.896044,10658.965565
885.427425,-518.144159,1685.410096,9992.780217
885.427754,-1036.288319,1149.143247,8808.450710
885.428084,-814.226536,459.657299,9104.533087
885.428413,-888.247130,-153.219100,9622.677246
885.428743,-1184.329507,0.000000,9918.759623
885.429072,-2294.638420,0.000000,9474.636058
885.429401,-2442.679609,-306.438199,9400.615463
885.429731,-1924.535449,0.000000,9770.718434
885.430060,-1258.350101,306.438199,9548.656652
885.430390,-592.164754,0.000000,8956.491898
885.430719,-148.041188,76.609550,8734.430116
885.431048,0.000000,995.924147,8808.450710
885.431378,-592.164754,1149.143247,8586.388927
885.431707,-962.267725,1608.800546,8734.430116
885.432036,-814.226536,1302.362347,8956.491898
885.432366,-222.061783,1455.581446,9400.615463
885.432695,222.061783,1532.190996,9696.697840
885.433025,0.000000,1685.410096,9622.677246
885.433354,-740.205942,1838.629195,9030.512492
885.433683,-1110.308913,1608.800546,9326.594869
885.434013,-1406.391290,1915.238745,9992.780217
885.434342,-1924.535449,842.705048,10955.047942
885.434672,-2590.720797,459.657299,10807.006753
885.435001,-3552.988522,229.828649,10362.883188
885.435330,-3701.029710,-153.219100,10881.027347
885.435660,-2960.823768,0.000000,10436.903782
885.435989,-1998.556043,0.000000,9474.636058
885.436319,-518.144159,0.000000,8808.450710
885.436648,148.041188,0.000000,8512.368333
885.436977,592.164754,995.924147,8734.430116
885.437307,740.205942,2298.286494,9104.533087
885.437636,518.144159,2681.334243,9474.636058
885.437966,592.164754,3370.820191,9844.739029
885.438295,592.164754,3753.867940,9918.759623
885.438624,740.205942,2451.505594,9622.677246
885.438954,296.082377,1838.629195,9252.574275
885.439283,0.000000,1685.410096,8882.471304
885.439613,-888.247130,919.314598,9400.615463
885.439942,-1110.308913,919.314598,10214.842000
885.440271,-2146.597232,842.705048,10288.862594
885.440601,-2738.761985,612.876398,9918.759623
885.440930,-2886.803174,536.266849,9474.636058
885.441260,-2516.700203,766.095498,9622.677246
885.441589,-1628.453072,919.314598,9326.594869
885.441918,-814.226536,76.609550,8142.265362
885.442248,-888.247130,0.000000,7920.203579
885.442577,-592.164754,612.876398,8216.285956
885.442906,-814.226536,1149.143247,8290.306550
885.443236,-1036.288319,1302.362347,8512.368333
885.443565,-1110.308913,842.705048,8660.409521
885.443895,-296.082377,1302.362347,9474.636058
885.444224,-296.082377,1455.581446,10140.821405
885.444553,-814.226536,1762.019645,9992.780217
885.444883,-1110.308913,1991.848295,9770.718434
885.445212,-1258.350101,919.314598,9474.636058
885.445542,-1184.329507,1072.533697,10066.800811
885.445871,-1924.535449,383.047749,10955.047942
885.446200,-2442.679609,153.219100,11029.068536
885.446530,-2812.782580,0.000000,10658.965565
885.446859,-3034.844362,0.000000,10436.903782
885.447189,-2442.679609,76.609550,9918.759623
885.447518,-1702.473667,-919.314598,9252.574275
885.447847,-444.123565,-766.095498,9030.512492
885.448177,148.041188,0.000000,9178.553681
885.448506,148.041188,306.438199,9178.553681
885.448836,444.123565,1685.410096,9474.636058
885.449165,0.000000,1685.410096,9474.636058
885.449494,74.020594,2068.457845,10140.821405
885.449824,0.000000,2451.505594,10510.924376
885.450153,74.020594,1762.019645,10140.821405
885.450483,0.000000,1149.143247,9400.615463
885.450812,-296.082377,842.705048,8808.450710
885.451141,-666.185348,383.047749,9400.615463
885.451471,-888.247130,306.438199,9770.718434
885.451800,-1480.411884,919.314598,9918.759623
885.452130,-2220.617826,1225.752797,9400.615463
885.452459,-2072.576638,536.266849,9252.574275
885.452788,-1480.411884,842.705048,9104.533087
885.453118,-518.144159,536.266849,8808.450710
885.453447,0.000000,612.876398,8364.327145
885.453776,-148.041188,842.705048,8142.265362
885.454106,-592.164754,766.095498,7698.141797
885.454435,-814.226536,1378.971896,8290.306550
885.454765,-1184.329507,1608.800546,8882.471304
885.455094,-1036.288319,1608.800546,9030.512492
885.455423,-962.267725,1685.410096,9844.739029
885.455753,-1258.350101,1762.019645,9696.697840
885.456082,-1406.391290,1762.019645,9918.759623
885.456412,-2072.576638,1608.800546,9696.697840
885.456741,-1850.514855,1685.410096,10288.862594
885.457070,-1850.514855,1455.581446,10584.944971
885.457400,-2442.679609,842.705048,10436.903782
885.457729,-2442.679609,306.438199,10658.965565
885.458059,-3034.844362,229.828649,10214.842000
885.458388,-2960.823768,306.438199,9844.739029
885.458718,-2072.576638,0.000000,9696.697840
885.459047,-740.205942,-536.266849,8956.491898
885.459377,-592.164754,-1072.533697,8956.491898
885.459706,0.000000,76.609550,8882.471304
885.460036,-222.061783,1455.581446,9104.533087
885.460365,-444.123565,1838.629195,9252.574275
885.460695,-518.144159,1915.238745,9844.739029
885.461024,0.000000,1685.410096,10140.821405
885.461353,0.000000,2221.676944,10584.944971
885.461683,-666.185348,1532.190996,9622.677246
885.462012,-1036.288319,1378.971896,8956.491898
885.462342,-888.247130,459.657299,8956.491898
885.462671,-1036.288319,153.219100,9400.615463
885.463001,-1480.411884,0.000000,9918.759623
885.463330,-2368.659014,383.047749,9474.636058
885.463660,-2294.638420,0.000000,9252.574275
885.463989,-2072.576638,153.219100,9326.594869
885.464319,-1406.391290,76.609550,9252.574275
885.464648,-740.205942,-766.095498,8586.388927
885.464978,-296.082377,306.438199,8882.471304
885.465307,222.061783,153.219100,9104.533087
885.465637,-592.164754,766.095498,9326.594869
885.465966,-1258.350101,1302.362347,9252.574275
885.466296,-1184.329507,1455.581446,9770.718434
885.466625,-888.247130,1685.410096,9622.677246
885.466955,-740.205942,1762.019645,10362.883188
885.467284,-666.185348,1378.971896,10066.800811
885.467613,-740.205942,1149.143247,9474.636058
885.467943,-740.205942,612.876398,9030.512492
885.468272,-222.061783,995.924147,9548.656652
885.468602,-962.267725,1532.190996,10214.842000
885.468931,-1776.494261,1149.143247,10510.924376
885.469261,-2368.659014,766.095498,10362.883188
885.469590,-2590.720797,536.266849,10214.842000
885.469920,-2146.597232,612.876398,9844.739029
885.470249,-1554.432478,-229.828649,9104.533087
885.470579,-444.123565,-306.438199,8734.430116
885.470908,148.041188,229.828649,8734.430116
885.471238,444.123565,612.876398,9252.574275
885.471567,0.000000,1762.019645,9326.594869
885.471897,-444.123565,2298.286494,9474.636058
885.472226,-888.247130,2834.553343,10214.842000
885.472556,-444.123565,3370.820191,10510.924376
885.472885,-444.123565,2528.115143,10362.883188
885.473215,-518.144159,1991.848295,9326.594869
885.473544,-518.144159,995.924147,9030.512492
885.473873,-1110.308913,459.657299,8882.471304
885.474203,-1480.411884,306.438199,9770.718434
885.474532,-1924.535449,766.095498,9770.718434
885.474862,-2590.720797,919.314598,9030.512492
885.475191,-2072.576638,689.485948,8734.430116
885.475521,-1184.329507,842.705048,9252.574275
885.475850,-370.102971,766.095498,9474.636058
885.476180,0.000000,689.485948,9030.512492
885.476509,0.000000,919.314598,8882.471304
885.476839,-296.082377,1072.533697,9104.533087
885.477168,-888.247130,1608.800546,9030.512492
885.477498,-814.226536,1455.581446,9178.553681
885.477827,-518.144159,919.314598,8956.491898
885.478157,-222.061783,1532.190996,9474.636058
885.478486,-222.061783,1532.190996,9844.739029
885.478816,-1036.288319,1838.629195,9622.677246
885.479145,-1924.535449,2221.676944,9178.553681
885.479474,-2294.638420,1838.629195,9474.636058
885.479804,-2516.700203,1455.581446,10066.800811
885.480133,-3182.885551,919.314598,10362.883188
885.480463,-4145.153275,383.047749,10140.821405
885.480792,-4293.194464,-1378.971896,9992.780217
885.481122,-4071.132681,-1762.019645,10732.986159
885.481451,-3182.885551,-1608.800546,11177.109724
885.481781,-1702.473667,-1225.752797,10288.862594
885.482110,0.000000,-536.266849,9474.636058
885.482440,1850.514855,-229.828649,8734.430116
885.482769,2664.741391,766.095498,9104.533087
885.483099,2960.823768,2221.676944,9326.594869
885.483428,2590.720797,3064.381992,9696.697840
885.483758,1998.556043,3983.696590,10362.883188
885.484087,1110.308913,3447.429741,10140.821405
885.484417,296.082377,2451.505594,10362.883188
885.484746,-518.144159,1455.581446,9474.636058
885.485076,-1110.308913,229.828649,9030.512492
885.485405,-1406.391290,-459.657299,9178.553681
885.485734,-1850.514855,-766.095498,9770.718434
885.486064,-3256.906145,-536.266849,9548.656652
885.486393,-3775.050304,153.219100,8956.491898
885.486723,-3256.906145,383.047749,8956.491898
885.487052,-2516.700203,842.705048,9178.553681
885.487382,-1480.411884,1455.581446,9030.512492
885.487711,-666.185348,919.314598,8290.306550
885.488041,-592.164754,536.266849,8512.368333
885.488370,-592.164754,1072.533697,8734.430116
885.488700,-1036.288319,1685.410096,9104.533087
885.489029,-1110.308913,1608.800546,9178.553681
885.489359,-370.102971,1378.971896,9622.677246
885.489688,0.000000,1608.800546,9770.718434
885.490018,148.041188,1685.410096,10140.821405
885.490347,0.000000,2068.457845,10140.821405
885.490677,-666.185348,2528.115143,10066.800811
885.491006,-1036.288319,1608.800546,10066.800811
885.491336,-1776.494261,1838.629195,10436.903782
885.491665,-2294.638420,1455.581446,10362.883188
885.491994,-2590.720797,306.438199,9992.780217
885.492324,-2812.782580,-689.485948,9474.636058
885.492653,-2738.761985,-995.924147,9252.574275
885.492983,-1998.556043,-1532.190996,8808.450710
885.493312,-1628.453072,-1302.362347,8660.409521
885.493642,-962.267725,-383.047749,9104.533087
885.493971,-666.185348,536.266849,9622.677246
885.494301,-888.247130,1302.362347,9400.615463
885.494630,-666.185348,2681.334243,9844.739029
885.494960,-518.144159,2374.896044,10362.883188
885.495289,-592.164754,2374.896044,10584.944971
885.495619,-592.164754,2374.896044,10732.986159
885.495948,-888.247130,1762.019645,9622.677246
885.496278,-962.267725,1991.848295,8512.368333
885.496607,-814.226536,306.438199,7846.182985
885.496937,74.020594,76.609550,8660.409521
885.497266,0.000000,-229.828649,9104.533087
885.497595,-666.185348,0.000000,8956.491898
885.497925,-888.247130,383.047749,9474.636058
885.498254,-1554.432478,536.266849,9622.677246
885.498584,-1110.308913,995.924147,10288.862594
885.498913,-740.205942,383.047749,10140.821405
885.499243,-148.041188,-229.828649,9474.636058
885.499572,0.000000,0.000000,9252.574275
885.499902,0.000000,-153.219100,8734.430116
885.500231,-814.226536,919.314598,9252.574275
885.500561,-888.247130,1455.581446,9030.512492
885.500890,-592.164754,1455.581446,9252.574275
885.501220,-592.164754,1608.800546,9400.615463
885.501549,-592.164754,1225.752797,9400.615463
885.501879,-1110.308913,1225.752797,9178.553681
885.502208,-1554.432478,1072.533697,9474.636058
885.502538,-2072.576638,1455.581446,10140.821405
885.502867,-2368.659014,766.095498,10436.903782
885.503197,-3108.864956,76.609550,10214.842000
885.503526,-2590.720797,306.438199,10288.862594
885.503855,-2664.741391,-383.047749,10436.903782
885.504185,-1776.494261,-383.047749,10732.986159
885.504514,-888.247130,0.000000,10140.821405
885.504844,0.000000,306.438199,9252.574275
885.505173,888.247130,383.047749,9104.533087
885.505503,1184.329507,1149.143247,9326.594869
885.505832,1258.350101,2068.457845,9178.553681
885.506162,666.185348,2221.676944,9030.512492
885.506491,222.061783,2528.115143,9548.656652
885.506821,518.144159,2987.772442,10140.821405
885.507150,-148.041188,2145.067394,10140.821405
885.507480,-888.247130,2451.505594,9400.615463
885.507809,-1480.411884,1838.629195,8660.409521
885.508139,-1406.391290,995.924147,8808.450710
885.508468,-1258.350101,1302.362347,9178.553681
885.508798,-2220.617826,306.438199,9326.594869
885.509127,-2664.741391,689.485948,9178.553681
885.509457,-2738.761985,766.095498,9104.533087
885.509786,-2368.659014,612.876398,9326.594869
885.510115,-1702.473667,842.705048,9030.512492
885.510445,-666.185348,459.657299,8956.491898
885.510774,0.000000,383.047749,8808.450710
885.511104,-296.082377,689.485948,9178.553681
885.511433,-518.144159,1149.143247,9104.533087
885.511763,-666.185348,1685.410096,9030.512492
885.512092,-814.226536,1762.019645,9252.574275
885.512422,0.000000,1838.629195,9474.636058
885.512751,-148.041188,2068.457845,10066.800811
885.513081,-592.164754,1762.019645,9474.636058
885.513410,-740.205942,1455.581446,9104.533087
885.513740,-962.267725,1378.971896,9252.574275
885.514069,-1480.411884,1149.143247,10066.800811
885.514399,-2072.576638,1072.533697,10807.006753
885.514728,-2886.803174,689.485948,10288.862594
885.515058,-3330.926739,-306.438199,9770.718434
885.515387,-2812.782580,-995.924147,10214.842000
885.515716,-2146.597232,-1072.533697,9992.780217
885.516046,-1184.329507,-842.705048,10362.883188
885.516375,-518.144159,-842.705048,9844.739029
885.516705,0.000000,-153.219100,9844.739029
885.517034,0.000000,459.657299,9548.656652
885.517364,518.144159,1685.410096,9622.677246
885.517693,296.082377,1685.410096,9770.718434
885.518023,518.144159,2221.676944,9844.739029
885.518352,518.144159,2681.334243,9992.780217
885.518682,518.144159,2068.457845,9622.677246
885.519011,0.000000,1685.410096,8290.306550
885.519341,-592.164754,1149.143247,7994.224174
885.519670,-370.102971,306.438199,8808.450710
885.520000,-888.247130,842.705048,9400.615463
885.520329,-1776.494261,689.485948,9326.594869
885.520659,-2146.597232,459.657299,8586.388927
885.520988,-2072.576638,-612.876398,8660.409521
885.521318,-1628.453072,0.000000,9696.697840
885.521647,-1036.288319,383.047749,9770.718434
885.521976,-962.267725,842.705048,9178.553681
885.522306,-814.226536,919.314598,8882.471304
885.522635,-518.144159,842.705048,8364.327145
885.522965,-666.185348,1225.752797,9030.512492
885.523294,-592.164754,1072.533697,8734.430116
885.523624,-666.185348,1378.971896,9030.512492
885.523953,-740.205942,1455.581446,9326.594869
885.524283,-814.226536,1685.410096,9400.615463
885.524612,-1110.308913,2298.286494,9474.636058
885.524942,-1184.329507,1608.800546,9844.739029
885.525271,-1332.370696,1608.800546,9992.780217
885.525601,-1702.473667,1685.410096,10066.800811
885.525930,-2146.597232,1225.752797,9844.739029
885.526260,-2738.761985,612.876398,10732.986159
885.526589,-3404.947333,0.000000,10584.944971
885.526919,-3182.885551,0.000000,11029.068536
885.527248,-2812.782580,0.000000,10510.924376
885.527578,-1850.514855,-459.657299,9548.656652
885.527907,-444.123565,-536.266849,9474.636058
885.528236,0.000000,-229.828649,9252.574275
885.528566,74.020594,1149.143247,9252.574275
885.528895,296.082377,1838.629195,9178.553681
885.529225,370.102971,2145.067394,9252.574275
885.529554,518.144159,2987.772442,9696.697840
885.529884,74.020594,2834.553343,9474.636058
885.530213,-296.082377,2451.505594,9400.615463
885.530543,-888.247130,1838.629195,9030.512492
885.530872,-1332.370696,995.924147,8882.471304
885.531202,-1184.329507,76.609550,9104.533087
885.531531,-1554.432478,-766.095498,9252.574275
885.531861,-2220.617826,-459.657299,9474.636058
885.532190,-2368.659014,-229.828649,9548.656652
885.532520,-2294.638420,0.000000,9918.759623
885.532849,-1776.494261,536.266849,9918.759623
885.533179,-1258.350101,612.876398,9104.533087
885.533508,-222.061783,536.266849,9252.574275
885.533837,-296.082377,766.095498,8956.491898
885.534167,-592.164754,995.924147,8660.409521
885.534496,-888.247130,919.314598,8586.388927
885.534826,-740.205942,1225.752797,8734.430116
885.535155,0.000000,1378.971896,9178.553681
885.535485,0.000000,1072.533697,9326.594869
885.535814,0.000000,1149.143247,9474.636058
885.536144,-444.123565,1302.362347,9474.636058
885.536473,-888.247130,1838.629195,9474.636058
885.536803,-592.164754,1762.019645,10362.883188
885.537132,-1258.350101,1378.971896,11103.089130
885.537462,-2146.597232,995.924147,10955.047942
885.537791,-2812.782580,459.657299,10807.006753
885.538121,-2812.782580,-229.828649,10955.047942
885.538450,-2146.597232,229.828649,10510.924376
885.538780,-1406.391290,-689.485948,9622.677246
885.539109,-296.082377,-1302.362347,9104.533087
885.539439,296.082377,-689.485948,9178.553681
885.539768,740.205942,536.266849,9474.636058
885.540097,518.144159,1762.019645,9474.636058
885.540427,296.082377,2451.505594,10214.842000
885.540756,-222.061783,3447.429741,10214.842000
885.541086,0.000000,3447.429741,10955.047942
885.541415,-222.061783,2834.553343,10510.924376
885.541745,-1036.288319,1838.629195,9178.553681
885.542074,-962.267725,1225.752797,8364.327145
885.542404,-814.226536,76.609550,8438.347739
885.542733,-1036.288319,0.000000,8956.491898
885.543063,-1702.473667,383.047749,9252.574275
885.543392,-2072.576638,919.314598,8882.471304
885.543722,-1998.556043,995.924147,8512.368333
885.544051,-1332.370696,1838.629195,8882.471304
885.544381,-518.144159,1762.019645,8808.450710
885.544710,0.000000,1378.971896,8068.244768
885.545040,-296.082377,1685.410096,7772.162391
885.545369,-740.205942,1455.581446,8586.388927
885.545699,-1554.432478,2145.067394,8956.491898
885.546028,-2812.782580,1378.971896,9030.512492
885.546357,-2812.782580,612.876398,9400.615463
885.546687,-2368.659014,459.657299,9918.759623
885.547016,-2368.659014,-306.438199,10140.821405
885.547346,-1480.411884,1302.362347,9696.697840
885.547675,-1258.350101,766.095498,9770.718434
885.548005,-740.205942,1072.533697,9918.759623
885.548334,-592.164754,1302.362347,10732.986159
885.548664,-740.205942,1149.143247,11325.150913
885.548993,-1258.350101,1149.143247,11177.109724
885.549323,-1628.453072,536.266849,10214.842000
885.549652,-1110.308913,-459.657299,10510.924376
885.549982,-444.123565,-459.657299,10436.903782
885.550311,74.020594,-536.266849,9918.759623
885.550641,592.164754,-612.876398,9400.615463
885.550970,518.144159,0.000000,9252.574275
885.551300,74.020594,689.485948,9992.780217
885.551629,-444.123565,1532.190996,10288.862594
885.551958,-962.267725,2068.457845,10288.862594
885.552288,-1036.288319,2681.334243,9696.697840
885.552617,-592.164754,2298.286494,9770.718434
885.552947,-740.205942,1532.190996,9400.615463
885.553276,-1258.350101,1302.362347,8290.306550
885.553606,-962.267725,153.219100,7698.141797
885.553935,-814.226536,0.000000,8216.285956
885.554265,-1258.350101,76.609550,8734.430116
885.554594,-1480.411884,766.095498,9400.615463
885.554924,-1702.473667,459.657299,8882.471304
885.555253,-1480.411884,229.828649,9178.553681
885.555583,-814.226536,1072.533697,9622.677246
885.555912,-518.144159,1455.581446,9178.553681
885.556242,296.082377,1302.362347,9696.697840
885.556571,0.000000,1149.143247,8956.491898
885.556901,-370.102971,1149.143247,8956.491898
885.557230,-666.185348,1455.581446,8808.450710
885.557560,-1036.288319,995.924147,8586.388927
885.557889,-592.164754,1532.190996,8660.409521
885.558218,-666.185348,1608.800546,9178.553681
885.558548,-740.205942,1685.410096,9548.656652
885.558877,-888.247130,1915.238745,9474.636058
885.559207,-1702.473667,1838.629195,9474.636058
885.559536,-1480.411884,1532.190996,10288.862594
885.559866,-2146.597232,919.314598,11103.089130
885.560195,-2516.700203,536.266849,11325.150913
885.560524,-3256.906145,0.000000,10807.006753
885.560854,-3478.967927,-612.876398,10584.944971
885.561183,-2812.782580,-536.266849,10510.924376
885.561513,-1924.535449,-459.657299,9918.759623
885.561842,-888.247130,-229.828649,9474.636058
885.562171,0.000000,0.000000,8956.491898
885.562501,518.144159,689.485948,9696.697840
885.562830,74.020594,2068.457845,9400.615463
885.563159,-444.123565,2604.724693,9770.718434
885.563489,-518.144159,2451.505594,9770.718434
885.563818,-444.123565,2374.896044,9844.739029
885.564147,-296.082377,1915.238745,9770.718434
885.564477,-962.267725,1225.752797,9326.594869
885.564806,-1036.288319,612.876398,8216.285956
885.565135,-1110.308913,153.219100,8068.244768
885.565465,-1036.288319,0.000000,9030.512492
885.565794,-1406.391290,0.000000,9622.677246
885.566124,-1776.494261,536.266849,9474.636058
885.566453,-1554.432478,612.876398,9178.553681
885.566782,-1332.370696,459.657299,8956.491898
885.567112,-1110.308913,1072.533697,9326.594869
885.567441,-592.164754,536.266849,9104.533087
885.567770,-296.082377,76.609550,8660.409521
885.568100,-370.102971,383.047749,8586.388927
885.568429,-1480.411884,76.609550,8734.430116
885.568758,-1850.514855,536.266849,9252.574275
885.569088,-1998.556043,229.828649,9474.636058
885.569417,-1628.453072,842.705048,9770.718434
885.569747,-1258.350101,1072.533697,9844.739029
885.570076,-888.247130,1149.143247,9326.594869
885.570405,-888.247130,1302.362347,9104.533087
885.570735,-666.185348,1225.752797,9326.594869
885.571064,-814.226536,995.924147,10066.800811
885.571393,-592.164754,842.705048,10584.944971
885.571723,-1258.350101,536.266849,10584.944971
885.572052,-1480.411884,0.000000,10288.862594
885.572381,-1850.514855,-383.047749,10436.903782
885.572711,-1628.453072,-306.438199,10658.965565
885.573040,-888.247130,-536.266849,10807.006753
885.573370,-296.082377,0.000000,10066.800811
885.573699,0.000000,229.828649,10140.821405
885.574028,0.000000,842.705048,10362.883188
885.574358,0.000000,1838.629195,10066.800811
885.574687,-444.123565,2528.115143,9918.759623
885.575016,-296.082377,2987.772442,9770.718434
885.575346,74.020594,2987.772442,9178.553681
885.575675,-296.082377,2145.067394,8808.450710
885.576004,-592.164754,1455.581446,8068.244768
885.576334,-814.226536,689.485948,7698.141797
885.576663,-888.247130,689.485948,8142.265362
885.576992,-1036.288319,995.924147,8882.471304
885.577322,-1776.494261,612.876398,9474.636058
885.577651,-2368.659014,612.876398,9252.574275
885.577981,-2072.576638,919.314598,9474.636058
885.578310,-1480.411884,1225.752797,9696.697840
885.578639,-592.164754,1608.800546,9844.739029
885.578969,-518.144159,1685.410096,8438.347739
885.579298,-222.061783,1378.971896,8364.327145
885.579627,-148.041188,1302.362347,8808.450710
885.579957,-814.226536,1685.410096,8290.306550
885.580286,-1184.329507,1608.800546,8660.409521
885.580615,-1554.432478,842.705048,8586.388927
885.580945,-1480.411884,1149.143247,9178.553681
885.581274,-1628.453072,1225.752797,9918.759623
885.581604,-1702.473667,1455.581446,10288.862594
885.581933,-1998.556043,1762.019645,9844.739029
885.582262,-1702.473667,1455.581446,10140.821405
885.582592,-1480.411884,1455.581446,10436.903782
885.582921,-1702.473667,383.047749,10955.047942
885.583250,-2220.617826,153.219100,11177.109724
885.583580,-2960.823768,153.219100,10955.047942
885.583909,-2886.803174,153.219100,11399.171507
885.584238,-2072.576638,-306.438199,10807.006753
885.584568,-1184.329507,-766.095498,9918.759623
885.584897,0.000000,-919.314598,9104.533087
885.585227,592.164754,-383.047749,8660.409521
885.585556,1184.329507,459.657299,9474.636058
885.585885,1036.288319,1685.410096,9622.677246
885.586215,0.000000,2757.943793,10066.800811
885.586544,-296.082377,3064.381992,9918.759623
885.586873,0.000000,2834.553343,10066.800811
885.587203,148.041188,1762.019645,9696.697840
885.587532,-296.082377,1762.019645,8660.409521
885.587861,-1036.288319,76.609550,7846.182985
885.588191,-1184.329507,-459.657299,8364.327145
885.588520,-1628.453072,0.000000,9326.594869
885.588849,-2220.617826,153.219100,9400.615463
885.589179,-1924.535449,0.000000,9030.512492
885.589508,-1406.391290,306.438199,9474.636058
885.589838,-740.205942,1072.533697,9474.636058
885.590167,-296.082377,995.924147,9252.574275
885.590496,296.082377,919.314598,9252.574275
885.590826,-148.041188,1378.971896,8956.491898
885.591155,-666.185348,2068.457845,9104.533087
885.591484,-1480.411884,1608.800546,8808.450710
885.591814,-1332.370696,842.705048,8660.409521
885.592143,-1110.308913,153.219100,8438.347739
885.592472,-444.123565,766.095498,9104.533087
885.592802,0.000000,1685.410096,9548.656652
885.593131,-888.247130,1455.581446,9770.718434
885.593461,-1702.473667,1838.629195,9696.697840
885.593790,-1776.494261,1685.410096,10214.842000
885.594119,-1776.494261,1532.190996,11473.192101
885.594449,-2146.597232,612.876398,11695.253884
885.594778,-2442.679609,842.705048,10955.047942
885.595107,-2516.700203,-383.047749,10288.862594
885.595437,-2072.576638,-842.705048,10066.800811
885.595766,-1480.411884,-919.314598,9918.759623
885.596095,-666.185348,0.000000,9400.615463
885.596425,0.000000,306.438199,9030.512492
885.596754,444.123565,766.095498,9178.553681
885.597083,370.102971,1685.410096,9622.677246
885.597413,-222.061783,2528.115143,9770.718434
885.597742,-740.205942,2528.115143,9992.780217
885.598072,-814.226536,3140.991542,10140.821405
885.598401,-1480.411884,2528.115143,10362.883188
885.598730,-1702.473667,1532.190996,9474.636058
885.599060,-1998.556043,459.657299,8438.347739
885.599389,-1776.494261,-612.876398,8142.265362
885.599718,-1184.329507,-766.095498,8808.450710
885.600048,-962.267725,459.657299,8956.491898
885.600377,-1554.432478,689.485948,8660.409521
885.600706,-1628.453072,536.266849,8660.409521
885.601036,-1110.308913,919.314598,9548.656652
885.601365,-444.123565,1608.800546,9696.697840
885.601695,0.000000,1302.362347,9622.677246
885.602024,-148.041188,766.095498,8882.471304
885.602353,-740.205942,842.705048,9104.533087
885.602683,-1406.391290,229.828649,9030.512492
885.603012,-1628.453072,459.657299,8660.409521
885.603341,-1776.494261,383.047749,8438.347739
885.603671,-1110.308913,842.705048,8734.430116
885.604000,-740.205942,1149.143247,9474.636058
885.604329,-592.164754,1302.362347,9770.718434
885.604659,-1036.288319,1762.019645,9474.636058
885.604988,-1480.411884,2298.286494,10140.821405
885.605318,-1332.370696,1608.800546,10436.903782
885.605647,-1628.453072,612.876398,11399.171507
885.605976,-2368.659014,0.000000,11473.192101
885.606306,-2812.782580,-536.266849,11325.150913
885.606635,-2664.741391,-766.095498,10955.047942
885.606964,-1924.535449,-1302.362347,10881.027347
885.607294,-962.267725,-1072.533697,10362.883188
885.607623,222.061783,-995.924147,9178.553681
885.607952,1258.350101,-689.485948,9030.512492
885.608282,2072.576638,842.705048,9474.636058
885.608611,1184.329507,3140.991542,9474.636058
885.608940,1036.288319,3217.601092,10066.800811
885.609270,592.164754,3524.039291,10214.842000
885.609599,296.082377,3447.429741,10288.862594
885.609929,0.000000,2298.286494,10214.842000
885.610258,-666.185348,2068.457845,8882.471304
885.610587,-1258.350101,689.485948,7624.121203
885.610917,-1406.391290,-459.657299,7772.162391
885.611246,-1850.514855,-306.438199,8438.347739
885.611575,-2368.659014,536.266849,8882.471304
885.611905,-2812.782580,689.485948,8808.450710
885.612234,-2664.741391,1378.971896,8438.347739
885.612563,-2368.659014,1378.971896,8956.491898
885.612893,-1406.391290,1225.752797,9474.636058
885.613222,-1258.350101,383.047749,9252.574275
885.613552,-666.185348,612.876398,9252.574275
885.613881,-518.144159,689.485948,9104.533087
885.614210,-814.226536,842.705048,9178.553681
885.614540,-740.205942,1302.362347,9178.553681
885.614869,-296.082377,919.314598,9178.553681
885.615198,148.041188,2068.457845,9400.615463
885.615528,666.185348,2681.334243,9252.574275
885.615857,444.123565,2374.896044,9474.636058
885.616186,-444.123565,2834.553343,9474.636058
885.616516,-1184.329507,2451.505594,9844.739029
885.616845,-1628.453072,1762.019645,10881.027347
885.617175,-2442.679609,1302.362347,11251.130318
885.617504,-3552.988522,459.657299,10955.047942
885.617833,-4145.153275,-766.095498,10732.986159
885.618163,-3849.070898,-1455.581446,10732.986159
885.618492,-3256.906145,-1532.190996,10288.862594
885.618821,-2220.617826,-1149.143247,9696.697840
885.619151,-1480.411884,-536.266849,9178.553681
885.619480,-222.061783,0.000000,9252.574275
885.619809,222.061783,919.314598,9400.615463
885.620139,74.020594,2374.896044,9622.677246
885.620468,148.041188,3064.381992,9770.718434
885.620797,222.061783,2987.772442,9474.636058
885.621127,592.164754,2911.162892,9548.656652
885.621456,518.144159,2374.896044,9474.636058
885.621786,0.000000,1532.190996,8734.430116
885.622115,0.000000,612.876398,8290.306550
885.622444,222.061783,0.000000,8734.430116
885.622774,-666.185348,383.047749,9548.656652
885.623103,-1184.329507,306.438199,9104.533087
885.623432,-1332.370696,842.705048,8882.471304
885.623762,-1258.350101,536.266849,9030.512492
885.624091,-518.144159,612.876398,9252.574275
885.624420,148.041188,919.314598,9326.594869
885.624750,74.020594,1072.533697,8512.368333
