#time,accel_x,accel_y,accel_z
978.403148,-962.267725,1302.362347,9474.636058
978.403477,-1184.329507,306.438199,9474.636058
978.403807,-1036.288319,1225.752797,9696.697840
978.404137,-1184.329507,995.924147,9474.636058
978.404466,-1110.308913,1072.533697,9474.636058
978.404796,-1110.308913,995.924147,9548.656652
978.405126,-1110.308913,1225.752797,9474.636058
978.405455,-740.205942,1072.533697,9770.718434
978.405785,-1036.288319,842.705048,9474.636058
978.406115,-888.247130,842.705048,9770.718434
978.406444,-1110.308913,995.924147,9474.636058
978.406774,-962.267725,1072.533697,9252.574275
978.407104,-1110.308913,919.314598,9548.656652
978.407433,-962.267725,612.876398,9474.636058
978.407763,-962.267725,842.705048,9548.656652
978.408092,-1110.308913,842.705048,9548.656652
978.408422,-1184.329507,995.924147,9326.594869
978.408752,-740.205942,995.924147,9696.697840
978.409081,-1036.288319,1072.533697,9696.697840
978.409411,-1036.288319,1072.533697,9696.697840
978.409741,-1110.308913,919.314598,9622.677246
978.410070,-1036.288319,995.924147,9548.656652
978.410400,-1036.288319,1225.752797,9252.574275
978.410730,-888.247130,842.705048,9474.636058
978.411059,-1110.308913,842.705048,9474.636058
978.411389,-1110.308913,995.924147,9474.636058
978.411719,-888.247130,995.924147,9400.615463
978.412048,-888.247130,612.876398,9400.615463
978.412378,-666.185348,995.924147,9326.594869
978.412708,-1036.288319,995.924147,9548.656652
978.413037,-1184.329507,919.314598,9622.677246
978.413367,-1036.288319,842.705048,9548.656652
978.413697,-1110.308913,1302.362347,9474.636058
978.414026,-888.247130,995.924147,9474.636058
978.414356,-962.267725,1149.143247,9548.656652
978.414686,-1110.308913,919.314598,9474.636058
978.415015,-888.247130,842.705048,9770.718434
978.415345,-1184.329507,842.705048,9548.656652
978.415675,-1110.308913,1072.533697,9622.677246
978.416004,-962.267725,919.314598,9548.656652
978.416334,-1184.329507,842.705048,9548.656652
978.416663,-1184.329507,995.924147,9474.636058
978.416993,-962.267725,842.705048,9474.636058
978.417323,-962.267725,1149.143247,8882.471304
978.417652,-1332.370696,995.924147,9474.636058
978.417982,-1036.288319,919.314598,9548.656652
978.418312,-1184.329507,1149.143247,9622.677246
978.418641,-1036.288319,689.485948,9474.636058
978.418971,-1110.308913,766.095498,9548.656652
978.419301,-888.247130,1072.533697,9474.636058
978.419630,-962.267725,766.095498,9548.656652
978.419960,-1110.308913,919.314598,9474.636058
978.420290,-1110.308913,995.924147,9400.615463
978.420619,-888.247130,995.924147,9622.677246
978.420949,-888.247130,1072.533697,9474.636058
978.421279,-962.267725,1072.533697,9622.677246
978.421608,-1184.329507,766.095498,9326.594869
978.421938,-1036.288319,1072.533697,9622.677246
978.422268,-1110.308913,919.314598,9474.636058
978.422597,-1036.288319,1378.971896,9400.615463
978.422927,-888.247130,612.876398,9252.574275
978.423257,-1110.308913,689.485948,9474.636058
978.423586,-1036.288319,1149.143247,9474.636058
978.423916,-962.267725,1225.752797,9474.636058
978.424246,-962.267725,1225.752797,9548.656652
978.424575,-888.247130,842.705048,9696.697840
978.424905,-962.267725,689.485948,9326.594869
978.425235,-1036.288319,766.095498,9548.656652
978.425564,-962.267725,919.314598,9622.677246
978.425894,-1036.288319,919.314598,9770.718434
978.426223,-1184.329507,1225.752797,9918.759623
978.426553,-1184.329507,612.876398,9400.615463
978.426883,-740.205942,919.314598,9030.512492
978.427212,74.020594,612.876398,8882.471304
978.427542,814.226536,459.657299,9252.574275
978.427872,1332.370696,383.047749,9326.594869
978.428201,814.226536,766.095498,9474.636058
978.428531,0.000000,766.095498,10140.821405
978.428861,-222.061783,1072.533697,10510.924376
978.429190,-666.185348,1225.752797,10955.047942
978.429520,-518.144159,383.047749,10288.862594
978.429850,-74.020594,612.876398,9474.636058
978.430179,740.205942,0.000000,9252.574275
978.430509,1406.391290,306.438199,9178.553681
978.430839,2294.638420,689.485948,8882.471304
978.431168,2812.782580,1072.533697,8734.430116
978.431498,3182.885551,766.095498,9030.512492
978.431828,3404.947333,1915.238745,9252.574275
978.432157,3256.906145,2068.457845,9622.677246
978.432487,2812.782580,1225.752797,9918.759623
978.432817,2294.638420,1149.143247,10214.842000
978.433146,1702.473667,995.924147,10436.903782
978.433476,1110.308913,76.609550,10658.965565
978.433806,1406.391290,0.000000,10584.944971
978.434135,1776.494261,0.000000,9992.780217
978.434465,2368.659014,0.000000,9474.636058
978.434794,3256.906145,-459.657299,9178.553681
978.435124,4441.235652,995.924147,8882.471304
978.435454,4071.132681,1838.629195,9252.574275
978.435783,3404.947333,2451.505594,9844.739029
978.436113,2516.700203,2757.943793,10362.883188
978.436443,740.205942,2528.115143,10436.903782
978.436772,-1406.391290,2221.676944,9992.780217
978.437102,-2072.576638,1225.752797,9474.636058
978.437432,-1258.350101,76.609550,8364.327145
978.437761,222.061783,-1455.581446,7402.059420
978.438091,1850.514855,-1378.971896,6735.874072
978.438421,3108.864956,-383.047749,6069.688724
978.438750,3849.070898,306.438199,6883.915261
978.439080,3552.988522,2068.457845,8660.409521
978.439410,2812.782580,4366.744339,10881.027347
978.439739,1406.391290,4826.401637,11843.295072
978.440069,370.102971,3907.087040,12361.439231
978.440399,-592.164754,2451.505594,12213.398043
978.440728,-1258.350101,229.828649,11695.253884
978.441058,-1480.411884,-1838.629195,11029.068536
978.441388,-962.267725,-2987.772442,10288.862594
978.441717,0.000000,-2451.505594,9400.615463
978.442047,1332.370696,-1838.629195,7994.224174
978.442377,3182.885551,-1225.752797,7624.121203
978.442706,4737.318029,0.000000,7476.080014
978.443036,5033.400406,1991.848295,7846.182985
978.443366,4811.338623,3140.991542,8586.388927
978.443695,4737.318029,4290.134789,9696.697840
978.444025,3330.926739,4213.525239,10436.903782
978.444354,2294.638420,2911.162892,11325.150913
978.444684,1332.370696,1378.971896,11843.295072
978.445014,148.041188,536.266849,11029.068536
978.445343,-74.020594,-306.438199,10436.903782
978.445673,-444.123565,-1149.143247,10140.821405
978.446003,-370.102971,-1685.410096,10584.944971
978.446332,-296.082377,-689.485948,10140.821405
978.446662,0.000000,229.828649,9326.594869
978.446992,1184.329507,536.266849,8216.285956
978.447321,2960.823768,229.828649,7994.224174
978.447651,3775.050304,612.876398,8142.265362
978.447981,4071.132681,459.657299,8142.265362
978.448310,4145.153275,842.705048,8290.306550
978.448640,3923.091493,689.485948,9178.553681
978.448970,2738.761985,1302.362347,9770.718434
978.449299,2516.700203,1915.238745,10955.047942
978.449629,1702.473667,1455.581446,10584.944971
978.449959,1850.514855,1915.238745,10658.965565
978.450288,2146.597232,1915.238745,10288.862594
978.450618,2812.782580,1532.190996,9992.780217
978.450948,3108.864956,536.266849,9030.512492
978.451277,2960.823768,842.705048,7920.203579
978.451607,3034.844362,842.705048,7920.203579
978.451937,2664.741391,995.924147,8512.368333
978.452266,1554.432478,766.095498,9030.512492
978.452596,0.000000,995.924147,9178.553681
978.452925,-1628.453072,306.438199,9844.739029
978.453255,-1628.453072,153.219100,10807.006753
978.453585,-1258.350101,-689.485948,11621.233289
978.453914,-1776.494261,-612.876398,11251.130318
978.454244,-1554.432478,689.485948,10732.986159
978.454574,-888.247130,-306.438199,9548.656652
978.454903,1776.494261,0.000000,9178.553681
978.455233,3330.926739,1378.971896,8142.265362
978.455563,5847.626942,2068.457845,7994.224174
978.455892,8512.368333,2681.334243,8142.265362
978.456222,9252.574275,3753.867940,8290.306550
978.456552,7772.162391,4519.963438,9252.574275
978.456881,5551.544565,4749.792088,10584.944971
978.457211,2960.823768,3753.867940,12731.542202
978.457541,222.061783,2528.115143,14878.139434
978.457870,-4293.194464,1149.143247,14730.098246
978.458200,-7105.977043,-536.266849,12509.480420
978.458530,-7772.162391,-2911.162892,10732.986159
978.458859,-6587.832884,-3294.210641,8068.244768
978.459189,-3404.947333,-3140.991542,3849.070898
978.459519,2442.679609,-4596.572988,666.185348
978.459848,7550.100608,-3830.477490,740.205942
978.460178,9696.697840,612.876398,3256.906145
978.460508,8290.306550,5898.935335,6439.791695
978.460837,6069.688724,8120.612279,8808.450710
978.461167,3849.070898,8810.098227,12287.418637
978.461497,666.185348,8503.660028,15988.448347
978.461826,-3404.947333,6894.859482,16654.633695
978.462156,-7105.977043,1915.238745,15322.262999
978.462485,-8660.409521,-3370.820191,14211.954086
978.462815,-8586.388927,-5132.839837,11843.295072
978.463145,-5921.647536,-6358.592633,9030.512492
978.463474,-592.164754,-7814.174080,7105.977043
978.463804,3775.050304,-4519.963438,4071.132681
978.464134,8216.285956,-1378.971896,2220.617826
978.464463,11769.274478,-766.095498,3701.029710
978.464793,12213.398043,3370.820191,7920.203579
978.465123,7105.977043,8886.707777,12065.356855
978.465452,-370.102971,9806.022374,15396.283594
978.465782,-5477.523971,8044.002729,17690.922014
978.466112,-7550.100608,4519.963438,16580.613101
978.466441,-6735.874072,-1685.410096,12879.583391
978.466771,-5773.606348,-7507.735880,8290.306550
978.467101,-3108.864956,-8963.317327,4663.297435
978.467430,296.082377,-8656.879127,3775.050304
978.467760,1702.473667,-4903.011187,4441.235652
978.468090,1702.473667,1302.362347,5033.400406
978.468419,1702.473667,4519.963438,7772.162391
978.468749,518.144159,6358.592633,11325.150913
978.469079,-1554.432478,7660.954980,14211.954086
978.469408,-4811.338623,6894.859482,14878.139434
978.469738,-7105.977043,4290.134789,14211.954086
978.470068,-7476.080014,1072.533697,11991.336260
978.470397,-6143.709319,-4596.572988,9918.759623
978.470727,-2442.679609,-8197.221829,6661.853478
978.471057,814.226536,-7967.393179,4589.276840
978.471386,3182.885551,-6511.811733,4959.379811
978.471716,4885.359217,-1762.019645,7105.977043
978.472045,3923.091493,3370.820191,8142.265362
978.472375,2886.803174,6741.640382,9474.636058
978.472705,2368.659014,7890.783629,10881.027347
978.473034,1554.432478,7584.345430,12657.521608
978.473364,888.247130,6435.202183,13175.665768
978.473694,-1110.308913,1991.848295,12435.459826
978.474023,-3552.988522,766.095498,10807.006753
978.474353,-4293.194464,-1991.848295,9474.636058
978.474682,-4219.173869,-4596.572988,10066.800811
978.475012,-4959.379811,-3294.210641,9400.615463
978.475341,-6217.729913,-995.924147,6513.812290
978.475671,-4737.318029,-306.438199,5181.441594
978.476000,-1332.370696,1378.971896,7402.059420
978.476330,1036.288319,3140.991542,9178.553681
978.476660,1628.453072,4060.306139,9474.636058
978.476989,1036.288319,4136.915689,9326.594869
978.477319,814.226536,4443.353888,10658.965565
978.477648,444.123565,3983.696590,12065.356855
978.477978,-1480.411884,1915.238745,11769.274478
978.478307,-3330.926739,-306.438199,10881.027347
978.478637,-3849.070898,-1455.581446,10584.944971
978.478966,-3182.885551,-153.219100,10288.862594
978.479296,-1332.370696,842.705048,9770.718434
978.479625,888.247130,153.219100,7624.121203
978.479955,2812.782580,689.485948,5551.544565
978.480285,4663.297435,2374.896044,5773.606348
978.480614,5995.668130,3983.696590,7920.203579
978.480944,5403.503377,6281.983084,8882.471304
978.481273,2294.638420,6128.763984,9844.739029
978.481603,-2368.659014,5056.230287,11177.109724
978.481932,-5699.585753,3677.258390,11769.274478
978.482262,-6809.894666,766.095498,11695.253884
978.482591,-6291.750507,-2145.067394,11177.109724
978.482921,-5921.647536,-3064.381992,9622.677246
978.483250,-4663.297435,-3294.210641,7402.059420
978.483580,-1258.350101,-3983.696590,6143.709319
978.483909,1480.411884,-2145.067394,6439.791695
978.484239,3108.864956,1302.362347,8068.244768
978.484569,1406.391290,3217.601092,9474.636058
978.484898,-740.205942,5132.839837,10881.027347
978.485228,-1258.350101,6052.154434,11399.171507
978.485557,-296.082377,3294.210641,11843.295072
978.485887,222.061783,689.485948,11547.212695
978.486216,0.000000,-1072.533697,9844.739029
978.486546,222.061783,-3064.381992,8512.368333
978.486875,1332.370696,-3753.867940,8512.368333
978.487205,2294.638420,-2451.505594,9696.697840
978.487534,1702.473667,0.000000,10436.903782
978.487864,0.000000,1302.362347,10807.006753
978.488194,-2294.638420,2451.505594,10584.944971
978.488523,-1924.535449,3294.210641,10881.027347
978.488853,-1480.411884,2068.457845,11029.068536
978.489182,-2368.659014,306.438199,9844.739029
978.489512,-3108.864956,-1532.190996,9326.594869
978.489841,-2664.741391,-2451.505594,8142.265362
978.490171,-2072.576638,-2681.334243,7698.141797
978.490500,-1554.432478,-3447.429741,8068.244768
978.490830,-2146.597232,-2911.162892,9104.533087
978.491159,-3182.885551,-612.876398,9918.759623
978.491489,-3923.091493,1915.238745,10436.903782
978.491819,-3108.864956,3447.429741,10732.986159
978.492148,-1258.350101,3140.991542,10140.821405
978.492478,666.185348,1608.800546,9104.533087
978.492807,1332.370696,536.266849,7550.100608
978.493137,2368.659014,766.095498,6883.915261
978.493466,3404.947333,229.828649,8216.285956
978.493796,1702.473667,229.828649,10955.047942
978.494125,-2072.576638,1608.800546,12805.562797
978.494455,-5921.647536,2528.115143,12213.398043
978.494784,-5847.626942,2221.676944,12065.356855
978.495114,-4737.318029,1762.019645,11843.295072
978.495444,-3701.029710,1149.143247,10288.862594
978.495773,-2294.638420,-536.266849,8216.285956
978.496103,-592.164754,-1378.971896,6661.853478
978.496432,1332.370696,536.266849,6439.791695
978.496762,2146.597232,2298.286494,7624.121203
978.497091,1480.411884,2451.505594,8734.430116
978.497421,-370.102971,3064.381992,8808.450710
978.497750,-1628.453072,3753.867940,9104.533087
978.498080,-1406.391290,4366.744339,9770.718434
978.498409,-962.267725,2987.772442,10510.924376
978.498739,-962.267725,2604.724693,10066.800811
978.499068,-1110.308913,995.924147,8364.327145
978.499398,-296.082377,995.924147,7920.203579
978.499728,1998.556043,1762.019645,8438.347739
978.500057,2812.782580,2374.896044,8882.471304
978.500387,1628.453072,2451.505594,9770.718434
978.500716,-888.247130,2987.772442,9844.739029
978.501046,-2664.741391,4136.915689,9770.718434
978.501375,-2812.782580,3753.867940,9844.739029
978.501705,-1776.494261,1685.410096,9400.615463
978.502034,-1258.350101,0.000000,8956.491898
978.502364,-592.164754,-1915.238745,8142.265362
978.502693,444.123565,-1991.848295,7846.182985
978.503023,1998.556043,-1149.143247,8290.306550
978.503353,2368.659014,229.828649,9696.697840
978.503682,1554.432478,536.266849,10881.027347
978.504012,-370.102971,2451.505594,11695.253884
978.504341,-1702.473667,3983.696590,11251.130318
978.504671,-1554.432478,3983.696590,10362.883188
978.505000,-1036.288319,2298.286494,9548.656652
978.505330,-740.205942,-536.266849,9252.574275
978.505659,-814.226536,-2757.943793,9030.512492
978.505989,-296.082377,-2451.505594,8808.450710
978.506318,0.000000,-1991.848295,8734.430116
978.506648,-296.082377,-2068.457845,9178.553681
978.506978,-1776.494261,-1608.800546,9474.636058
978.507307,-2590.720797,0.000000,10584.944971
978.507637,-3034.844362,1532.190996,11399.171507
978.507966,-2664.741391,1838.629195,11843.295072
978.508296,-2294.638420,1838.629195,11695.253884
978.508625,-2146.597232,-306.438199,10584.944971
978.508955,-1184.329507,-2757.943793,8512.368333
978.509284,296.082377,-2604.724693,7179.997637
978.509614,1406.391290,-2221.676944,7920.203579
978.509943,592.164754,-1991.848295,9770.718434
978.510273,-1554.432478,-1149.143247,11103.089130
978.510603,-3701.029710,1532.190996,10584.944971
978.510932,-5033.400406,2451.505594,10140.821405
978.511262,-3552.988522,2298.286494,10214.842000
978.511591,-1850.514855,1685.410096,9474.636058
978.511921,-740.205942,-306.438199,8068.244768
978.512250,74.020594,-1225.752797,7105.977043
978.512580,444.123565,0.000000,7328.038826
978.512909,74.020594,766.095498,9400.615463
978.513239,-2072.576638,1225.752797,11547.212695
978.513568,-5181.441594,2451.505594,12361.439231
978.513898,-6439.791695,3600.648841,12361.439231
978.514228,-4663.297435,2757.943793,11251.130318
978.514557,-2738.761985,919.314598,10510.924376
978.514887,-1480.411884,0.000000,8956.491898
978.515216,-962.267725,-995.924147,7254.018232
978.515546,370.102971,0.000000,6735.874072
978.515875,1776.494261,1532.190996,7920.203579
978.516205,2442.679609,2681.334243,8734.430116
978.516534,1628.453072,2911.162892,9844.739029
978.516864,0.000000,4290.134789,10066.800811
978.517193,-1184.329507,5132.839837,9696.697840
978.517523,-444.123565,4443.353888,9548.656652
978.517852,222.061783,3370.820191,9770.718434
978.518182,148.041188,2298.286494,9474.636058
978.518512,0.000000,1225.752797,8512.368333
978.518841,444.123565,1532.190996,7846.182985
978.519171,1850.514855,1532.190996,7698.141797
978.519500,1406.391290,1685.410096,8068.244768
978.519830,-296.082377,1838.629195,9252.574275
978.520159,-2072.576638,3064.381992,9844.739029
978.520489,-3182.885551,4366.744339,10436.903782
978.520818,-2516.700203,3983.696590,10214.842000
978.521148,-1998.556043,1991.848295,9178.553681
978.521477,-1258.350101,-153.219100,8216.285956
978.521807,0.000000,-1991.848295,7846.182985
978.522137,1924.535449,-1455.581446,8068.244768
978.522466,2368.659014,-383.047749,8734.430116
978.522796,1258.350101,0.000000,9474.636058
978.523125,-1036.288319,1302.362347,10807.006753
978.523455,-2368.659014,2911.162892,11473.192101
978.523784,-1480.411884,3064.381992,11399.171507
978.524114,148.041188,1838.629195,10955.047942
978.524443,666.185348,383.047749,9770.718434
978.524773,592.164754,-1225.752797,8586.388927
978.525102,296.082377,-1608.800546,8808.450710
978.525432,888.247130,0.000000,8882.471304
978.525762,518.144159,229.828649,9252.574275
978.526091,-888.247130,-536.266849,9844.739029
978.526421,-2812.782580,-689.485948,10658.965565
978.526750,-5033.400406,0.000000,10807.006753
978.527080,-5181.441594,919.314598,11547.212695
978.527409,-4811.338623,306.438199,11473.192101
978.527739,-4663.297435,-1072.533697,10288.862594
978.528068,-3997.112087,-3294.210641,9030.512492
978.528398,-1924.535449,-3447.429741,7920.203579
978.528727,-148.041188,-1991.848295,8364.327145
978.529057,74.020594,-1608.800546,9548.656652
978.529387,-1554.432478,-383.047749,10510.924376
978.529716,-3552.988522,766.095498,9992.780217
978.530046,-2664.741391,2298.286494,10584.944971
978.530375,-1332.370696,1838.629195,10807.006753
978.530705,-592.164754,1149.143247,10214.842000
978.531034,-740.205942,-229.828649,8660.409521
978.531364,-962.267725,-919.314598,7402.059420
978.531693,814.226536,-153.219100,7846.182985
978.532023,1258.350101,766.095498,9030.512492
978.532352,74.020594,995.924147,10362.883188
978.532682,-2664.741391,1378.971896,11177.109724
978.533012,-4885.359217,2451.505594,12139.377449
978.533341,-5403.503377,3983.696590,12139.377449
978.533671,-4293.194464,3447.429741,11029.068536
978.534000,-2960.823768,919.314598,9474.636058
978.534330,-1628.453072,-766.095498,7550.100608
978.534659,-148.041188,-1225.752797,6365.771101
978.534989,1924.535449,-306.438199,6365.771101
978.535318,1924.535449,919.314598,7179.997637
978.535648,592.164754,2528.115143,8956.491898
978.535977,-1110.308913,3677.258390,10288.862594
978.536307,-1480.411884,4749.792088,10881.027347
978.536636,74.020594,5745.716235,10732.986159
978.536966,444.123565,4213.525239,9400.615463
978.537296,666.185348,2374.896044,8734.430116
978.537625,1036.288319,995.924147,7846.182985
978.537955,2294.638420,995.924147,8216.285956
978.538284,2664.741391,1991.848295,8956.491898
978.538614,1554.432478,2834.553343,9548.656652
978.538943,-518.144159,2528.115143,9622.677246
978.539273,-2146.597232,2451.505594,9622.677246
978.539602,-2516.700203,3140.991542,10066.800811
978.539932,-2294.638420,2834.553343,10732.986159
978.540261,-1480.411884,2604.724693,10436.903782
978.540591,-1776.494261,0.000000,9474.636058
978.540921,-888.247130,-1149.143247,7920.203579
978.541250,222.061783,-383.047749,6957.935855
978.541580,1332.370696,0.000000,7105.977043
978.541909,1184.329507,0.000000,8956.491898
978.542239,-1776.494261,153.219100,9622.677246
978.542568,-4071.132681,2451.505594,11029.068536
978.542898,-4219.173869,2451.505594,12213.398043
978.543227,-2812.782580,2068.457845,12213.398043
978.543557,-2072.576638,689.485948,10510.924376
978.543886,-370.102971,-2604.724693,8882.471304
978.544216,1480.411884,-3140.991542,7920.203579
978.544546,2738.761985,-766.095498,7772.162391
978.544875,2442.679609,153.219100,8882.471304
978.545205,666.185348,459.657299,10584.944971
978.545534,-2294.638420,2221.676944,11769.274478
978.545864,-4145.153275,1991.848295,11547.212695
978.546193,-3923.091493,1072.533697,11473.192101
978.546523,-3923.091493,76.609550,10955.047942
978.546852,-3701.029710,-1915.238745,10288.862594
978.547182,-4071.132681,-4443.353888,8512.368333
978.547511,-3034.844362,-4519.963438,7920.203579
978.547841,-1850.514855,-2604.724693,7994.224174
978.548171,-1924.535449,-1915.238745,9030.512492
978.548500,-2516.700203,-689.485948,10288.862594
978.548830,-3701.029710,1225.752797,10362.883188
978.549159,-3256.906145,2834.553343,9770.718434
978.549489,-2442.679609,2681.334243,9622.677246
978.549818,-1702.473667,1915.238745,9696.697840
978.550148,-1332.370696,612.876398,9104.533087
978.550477,-1258.350101,-612.876398,8364.327145
978.550807,0.000000,-306.438199,7994.224174
978.551136,888.247130,-536.266849,9252.574275
978.551466,296.082377,0.000000,10881.027347
978.551795,-2146.597232,459.657299,11843.295072
978.552125,-4515.256246,2068.457845,11325.150913
978.552455,-4515.256246,3447.429741,10658.965565
978.552784,-2368.659014,3217.601092,10362.883188
978.553114,-592.164754,1532.190996,10066.800811
978.553443,0.000000,153.219100,8586.388927
978.553773,740.205942,153.219100,6661.853478
978.554102,2072.576638,919.314598,6883.915261
978.554432,2368.659014,1455.581446,7920.203579
978.554761,814.226536,2911.162892,9326.594869
978.555091,-962.267725,2834.553343,10214.842000
978.555420,-2294.638420,3677.258390,10362.883188
978.555750,-1924.535449,4673.182538,10362.883188
978.556080,-888.247130,3907.087040,10214.842000
978.556409,-370.102971,2298.286494,9104.533087
978.556739,222.061783,842.705048,7846.182985
978.557068,1110.308913,842.705048,7105.977043
978.557398,2294.638420,2068.457845,7772.162391
978.557727,2072.576638,3064.381992,8808.450710
978.558057,740.205942,2681.334243,9326.594869
978.558386,-1480.411884,2834.553343,9992.780217
978.558716,-2516.700203,3064.381992,10732.986159
978.559045,-2516.700203,2911.162892,11177.109724
978.559375,-2368.659014,2145.067394,10510.924376
978.559705,-1406.391290,536.266849,8882.471304
978.560034,-296.082377,-1225.752797,7624.121203
978.560364,1702.473667,-1378.971896,7105.977043
978.560693,3034.844362,0.000000,7402.059420
978.561023,2072.576638,919.314598,8808.450710
978.561352,0.000000,2451.505594,10362.883188
978.561682,-2368.659014,3447.429741,11473.192101
978.562011,-3552.988522,3677.258390,11991.336260
978.562341,-2812.782580,2374.896044,11917.315666
978.562670,-2590.720797,919.314598,10732.986159
978.563000,-2146.597232,-1378.971896,8956.491898
978.563330,-1554.432478,-3600.648841,7772.162391
978.563659,-370.102971,-2757.943793,7328.038826
978.563989,-370.102971,-1378.971896,8068.244768
978.564318,-740.205942,-689.485948,9474.636058
978.564648,-1998.556043,0.000000,10732.986159
978.564977,-3330.926739,1225.752797,11399.171507
978.565307,-3997.112087,2068.457845,11991.336260
978.565636,-3997.112087,1685.410096,12287.418637
978.565966,-3775.050304,766.095498,11251.130318
978.566295,-2960.823768,-2221.676944,9770.718434
978.566625,-1258.350101,-3677.258390,8882.471304
978.566955,148.041188,-2681.334243,8216.285956
978.567284,518.144159,-2374.896044,8142.265362
978.567614,-148.041188,-1991.848295,8660.409521
978.567943,-1924.535449,-689.485948,9326.594869
978.568273,-3034.844362,2221.676944,9696.697840
978.568602,-2590.720797,2911.162892,10732.986159
978.568932,-1628.453072,2834.553343,10362.883188
978.569261,-1110.308913,1455.581446,8586.388927
978.569591,-814.226536,-612.876398,7402.059420
978.569920,0.000000,-1225.752797,7179.997637
978.570250,444.123565,-153.219100,8882.471304
978.570579,-444.123565,76.609550,10881.027347
978.570909,-2664.741391,995.924147,11769.274478
978.571239,-5107.421000,1608.800546,11029.068536
978.571568,-5255.462188,1915.238745,10510.924376
978.571898,-2960.823768,1762.019645,10140.821405
978.572227,-1110.308913,689.485948,9770.718434
978.572557,0.000000,-229.828649,8290.306550
978.572886,518.144159,0.000000,7328.038826
978.573215,1776.494261,995.924147,7846.182985
978.573545,2812.782580,2145.067394,9030.512492
978.573874,2146.597232,2987.772442,10214.842000
978.574204,-296.082377,3600.648841,10140.821405
978.574533,-1850.514855,3907.087040,10066.800811
978.574862,-1480.411884,3677.258390,10732.986159
978.575192,-592.164754,3370.820191,10881.027347
978.575521,-1110.308913,2298.286494,9844.739029
978.575850,-1110.308913,306.438199,8660.409521
978.576180,-148.041188,612.876398,7772.162391
978.576509,1332.370696,1532.190996,7698.141797
978.576839,1998.556043,1991.848295,8586.388927
978.577168,1480.411884,2987.772442,8734.430116
978.577497,0.000000,3064.381992,9326.594869
978.577827,-2146.597232,3524.039291,9770.718434
978.578156,-3256.906145,4136.915689,10436.903782
978.578486,-3701.029710,3830.477490,10436.903782
978.578815,-3701.029710,1991.848295,9252.574275
978.579144,-3034.844362,-1532.190996,7846.182985
978.579474,-1258.350101,-2068.457845,7476.080014
978.579803,444.123565,-1532.190996,8068.244768
978.580133,814.226536,-383.047749,8808.450710
978.580462,-518.144159,689.485948,9474.636058
978.580791,-1702.473667,1608.800546,9918.759623
978.581121,-2294.638420,3064.381992,10807.006753
978.581450,-814.226536,3907.087040,11325.150913
978.581780,74.020594,2911.162892,11029.068536
978.582109,666.185348,1762.019645,9400.615463
978.582438,1258.350101,-689.485948,7920.203579
978.582768,1776.494261,-1455.581446,7624.121203
978.583097,1924.535449,-766.095498,8216.285956
978.583426,444.123565,383.047749,9696.697840
978.583756,-1924.535449,383.047749,10881.027347
978.584085,-3849.070898,536.266849,11325.150913
978.584415,-4737.318029,1608.800546,11251.130318
978.584744,-3849.070898,612.876398,11843.295072
978.585073,-3775.050304,-153.219100,11399.171507
978.585403,-3775.050304,-1072.533697,10066.800811
978.585732,-2812.782580,-2451.505594,8364.327145
978.586062,-1110.308913,-3064.381992,7846.182985
978.586391,74.020594,-1608.800546,8734.430116
978.586720,0.000000,-1149.143247,9326.594869
978.587050,-1480.411884,-842.705048,9696.697840
978.587379,-2590.720797,766.095498,10066.800811
978.587709,-3034.844362,2451.505594,10584.944971
978.588038,-1406.391290,2145.067394,11103.089130
978.588367,-814.226536,1072.533697,9918.759623
978.588697,-518.144159,76.609550,8660.409521
978.589026,148.041188,-1072.533697,7698.141797
978.589355,1702.473667,-766.095498,8068.244768
978.589685,1998.556043,0.000000,9400.615463
978.590014,0.000000,459.657299,10732.986159
978.590344,-2812.782580,1225.752797,11029.068536
978.590673,-4293.194464,2298.286494,11029.068536
978.591002,-3775.050304,2145.067394,10732.986159
978.591332,-2368.659014,766.095498,9992.780217
978.591661,-1332.370696,-536.266849,9252.574275
978.591991,-518.144159,-1455.581446,8290.306550
978.592320,444.123565,-766.095498,7550.100608
978.592649,1258.350101,919.314598,8068.244768
978.592979,1184.329507,2298.286494,9326.594869
978.593308,-370.102971,2451.505594,9992.780217
978.593638,-2146.597232,3294.210641,10510.924376
978.593967,-2368.659014,3983.696590,10732.986159
978.594296,-1702.473667,3524.039291,10584.944971
978.594626,-740.205942,2374.896044,9918.759623
978.594955,-666.185348,383.047749,8290.306550
978.595284,-370.102971,229.828649,7476.080014
978.595614,1184.329507,842.705048,7402.059420
978.595943,2516.700203,1685.410096,8290.306550
978.596273,2072.576638,2374.896044,9400.615463
978.596602,0.000000,2911.162892,9622.677246
978.596931,-1776.494261,3983.696590,9844.739029
978.597261,-2220.617826,4290.134789,10584.944971
978.597590,-2146.597232,3983.696590,11103.089130
978.597920,-2220.617826,2757.943793,10436.903782
978.598249,-1628.453072,76.609550,9104.533087
978.598578,-148.041188,-1225.752797,7476.080014
978.598908,1406.391290,-919.314598,7328.038826
978.599237,1998.556043,0.000000,8290.306550
978.599567,666.185348,383.047749,9326.594869
978.599896,-1480.411884,2221.676944,9844.739029
978.600225,-3923.091493,3677.258390,10140.821405
978.600555,-3108.864956,3983.696590,11251.130318
978.600884,-1702.473667,3140.991542,11029.068536
978.601213,-814.226536,1149.143247,9548.656652
978.601543,0.000000,-1225.752797,7846.182985
978.601872,370.102971,-1532.190996,7031.956449
978.602202,1628.453072,-229.828649,7179.997637
978.602531,1776.494261,-153.219100,8882.471304
978.602860,222.061783,612.876398,10362.883188
978.603190,-2220.617826,2145.067394,11547.212695
978.603519,-3108.864956,2834.553343,11621.233289
978.603849,-2590.720797,2145.067394,11547.212695
978.604178,-2294.638420,1838.629195,11177.109724
978.604507,-1998.556043,-689.485948,10214.842000
978.604837,-1628.453072,-3217.601092,9178.553681
978.605166,-962.267725,-2298.286494,7698.141797
978.605496,-296.082377,-766.095498,8068.244768
978.605825,-222.061783,-1532.190996,9178.553681
978.606154,-1554.432478,-1225.752797,9844.739029
978.606484,-2886.803174,229.828649,10140.821405
978.606813,-3775.050304,1532.190996,10955.047942
978.607142,-3330.926739,2298.286494,10807.006753
978.607472,-3108.864956,2068.457845,11029.068536
978.607801,-2442.679609,-229.828649,9992.780217
978.608131,-1332.370696,-2221.676944,8438.347739
978.608460,444.123565,-1685.410096,7772.162391
978.608789,2072.576638,-1685.410096,8290.306550
978.609119,888.247130,-689.485948,9400.615463
978.609448,-1702.473667,612.876398,9548.656652
978.609778,-3330.926739,1991.848295,10066.800811
978.610107,-2664.741391,2451.505594,10732.986159
978.610436,-1036.288319,2451.505594,10955.047942
978.610766,74.020594,1225.752797,10066.800811
978.611095,-148.041188,-536.266849,8216.285956
978.611425,222.061783,-1149.143247,7328.038826
978.611754,1258.350101,-306.438199,7920.203579
978.612083,1628.453072,-536.266849,9326.594869
978.612413,-296.082377,1685.410096,10214.842000
978.612742,-2664.741391,1915.238745,10584.944971
978.613071,-3923.091493,2221.676944,10807.006753
978.613401,-3330.926739,2451.505594,10955.047942
978.613730,-1998.556043,2145.067394,10584.944971
978.614060,-1036.288319,1302.362347,8956.491898
978.614389,0.000000,76.609550,8290.306550
978.614718,1628.453072,229.828649,7698.141797
978.615048,3256.906145,1302.362347,8068.244768
978.615377,3034.844362,1838.629195,8512.368333
978.615707,1110.308913,2451.505594,9548.656652
978.616036,-1628.453072,3677.258390,10658.965565
978.616365,-3034.844362,4060.306139,11473.192101
978.616695,-3034.844362,3830.477490,11399.171507
978.617024,-2368.659014,2451.505594,10732.986159
978.617354,-1184.329507,306.438199,9030.512492
978.617683,296.082377,-2145.067394,7698.141797
978.618012,2368.659014,-1225.752797,7254.018232
978.618342,3256.906145,536.266849,7698.141797
978.618671,2368.659014,1455.581446,8956.491898
978.619001,148.041188,3140.991542,10362.883188
978.619330,-2442.679609,5286.058936,10584.944971
978.619659,-2590.720797,5898.935335,10362.883188
978.619989,-1184.329507,3677.258390,9696.697840
978.620318,0.000000,689.485948,8438.347739
978.620647,0.000000,-1378.971896,7031.956449
978.620977,0.000000,-2298.286494,6809.894666
978.621306,-592.164754,-995.924147,7846.182985
978.621636,-740.205942,689.485948,9696.697840
978.621965,-1924.535449,1378.971896,11103.089130
978.622294,-3478.967927,1532.190996,11547.212695
978.622624,-3849.070898,2451.505594,11103.089130
978.622953,-3108.864956,2145.067394,10881.027347
978.623283,-1998.556043,1378.971896,10807.006753
978.623612,-1628.453072,612.876398,9918.759623
978.623941,-1332.370696,-1302.362347,8216.285956
978.624271,222.061783,-1685.410096,7920.203579
978.624600,2072.576638,-1149.143247,8216.285956
978.624930,2146.597232,-842.705048,9474.636058
978.625259,296.082377,-612.876398,10140.821405
978.625588,-2146.597232,689.485948,10807.006753
978.625918,-3404.947333,2451.505594,11843.295072
978.626247,-3182.885551,2604.724693,11769.274478
978.626576,-2738.761985,1685.410096,10881.027347
978.626906,-2294.638420,-766.095498,9696.697840
978.627235,-1628.453072,-2834.553343,7920.203579
978.627565,0.000000,-2451.505594,7698.141797
978.627894,1332.370696,-1685.410096,8734.430116
978.628223,0.000000,-383.047749,9104.533087
978.628553,-2516.700203,919.314598,9548.656652
978.628882,-4515.256246,1608.800546,9844.739029
978.629212,-4515.256246,1838.629195,10658.965565
978.629541,-2812.782580,2451.505594,11103.089130
978.629870,-1850.514855,766.095498,10288.862594
978.630200,-1480.411884,-1302.362347,9030.512492
978.630529,-1258.350101,-1838.629195,7550.100608
978.630859,296.082377,-842.705048,7402.059420
978.631188,1554.432478,-229.828649,8882.471304
978.631517,1480.411884,383.047749,9918.759623
978.631847,-666.185348,2374.896044,10288.862594
978.632176,-1924.535449,3064.381992,11029.068536
978.632505,-2072.576638,3524.039291,11251.130318
978.632835,-1332.370696,3447.429741,10658.965565
978.633164,-1184.329507,2145.067394,9400.615463
978.633494,-888.247130,-229.828649,8290.306550
978.633823,74.020594,-459.657299,7698.141797
978.634152,1628.453072,0.000000,7772.162391
978.634482,1850.514855,229.828649,9178.553681
978.634811,0.000000,1532.190996,9844.739029
978.635141,-2146.597232,2987.772442,10140.821405
978.635470,-3108.864956,4213.525239,10658.965565
978.635799,-2146.597232,4443.353888,11325.150913
978.636129,-1036.288319,2911.162892,10807.006753
978.636458,-888.247130,1302.362347,9548.656652
978.636788,-962.267725,689.485948,7994.224174
978.637117,740.205942,459.657299,8142.265362
978.637446,1184.329507,612.876398,8364.327145
978.637776,814.226536,1302.362347,9030.512492
978.638105,-444.123565,1532.190996,9474.636058
978.638434,-1776.494261,2221.676944,9696.697840
978.638764,-1850.514855,3830.477490,9770.718434
978.639093,-1036.288319,4136.915689,9844.739029
978.639423,0.000000,2451.505594,9252.574275
978.639752,0.000000,1149.143247,8142.265362
978.640081,74.020594,766.095498,7698.141797
978.640411,1480.411884,612.876398,8364.327145
978.640740,1924.535449,766.095498,9030.512492
978.641070,74.020594,1762.019645,9696.697840
978.641399,-1554.432478,1378.971896,10066.800811
978.641728,-3330.926739,995.924147,10066.800811
978.642058,-3404.947333,1838.629195,11029.068536
978.642387,-2960.823768,1762.019645,11325.150913
978.642717,-2442.679609,689.485948,10658.965565
978.643046,-1850.514855,-919.314598,8956.491898
978.643375,-148.041188,-1685.410096,7846.182985
978.643705,2368.659014,-2221.676944,7698.141797
978.644034,2072.576638,229.828649,8512.368333
978.644363,740.205942,306.438199,9548.656652
978.644693,-1924.535449,842.705048,10658.965565
978.645022,-3478.967927,1608.800546,12065.356855
978.645352,-3701.029710,2298.286494,13101.645173
978.645681,-3034.844362,1838.629195,12435.459826
978.646010,-2294.638420,-536.266849,10214.842000
978.646340,-1184.329507,-3064.381992,7994.224174
978.646669,444.123565,-3370.820191,7179.997637
978.646999,1776.494261,-2374.896044,7920.203579
978.647328,1184.329507,-229.828649,8586.388927
978.647657,-962.267725,1225.752797,9918.759623
978.647987,-2960.823768,2221.676944,10732.986159
978.648316,-3849.070898,2298.286494,11103.089130
978.648646,-3404.947333,1838.629195,10807.006753
978.648975,-2738.761985,612.876398,9696.697840
978.649304,-2072.576638,-1225.752797,8956.491898
978.649634,-1480.411884,-2528.115143,7994.224174
978.649963,-592.164754,-2068.457845,8364.327145
978.650292,0.000000,-919.314598,9104.533087
978.650622,-444.123565,153.219100,9770.718434
978.650951,-2294.638420,1608.800546,9992.780217
978.651281,-2368.659014,2681.334243,10362.883188
978.651610,-2072.576638,2757.943793,10732.986159
978.651939,-1554.432478,2834.553343,10807.006753
978.652269,-1480.411884,2604.724693,9622.677246
978.652598,-1998.556043,1072.533697,8216.285956
978.652928,-1702.473667,-153.219100,7105.977043
978.653257,-370.102971,-689.485948,7550.100608
978.653586,0.000000,-612.876398,9252.574275
978.653916,-592.164754,612.876398,10214.842000
978.654245,-1924.535449,1608.800546,9844.739029
978.654575,-2442.679609,2528.115143,10140.821405
978.654904,-1924.535449,2604.724693,11103.089130
978.655233,-888.247130,2911.162892,12213.398043
978.655563,0.000000,3294.210641,11399.171507
978.655892,0.000000,2145.067394,9178.553681
978.656221,1406.391290,1762.019645,7402.059420
978.656551,3478.967927,1762.019645,7254.018232
978.656880,4219.173869,612.876398,7994.224174
978.657210,2516.700203,1378.971896,8512.368333
978.657539,-592.164754,2604.724693,8660.409521
978.657868,-2664.741391,4290.134789,8808.450710
978.658198,-2368.659014,4213.525239,10140.821405
978.658527,-1924.535449,2911.162892,10214.842000
978.658857,-1554.432478,1915.238745,8882.471304
978.659186,-1258.350101,689.485948,7476.080014
978.659515,-296.082377,383.047749,6587.832884
978.659845,518.144159,1302.362347,7846.182985
978.660174,0.000000,306.438199,9844.739029
978.660504,-1998.556043,1149.143247,10881.027347
978.660833,-4441.235652,2757.943793,10807.006753
978.661162,-4293.194464,2987.772442,10658.965565
978.661492,-2368.659014,1991.848295,10288.862594
978.661821,-1110.308913,689.485948,9844.739029
978.662151,148.041188,-919.314598,8512.368333
978.662480,1184.329507,-1225.752797,7402.059420
978.662809,2516.700203,-612.876398,7846.182985
978.663139,2590.720797,0.000000,9030.512492
978.663468,814.226536,919.314598,10881.027347
978.663797,-1702.473667,1991.848295,11547.212695
978.664127,-2294.638420,2451.505594,11991.336260
978.664456,-2368.659014,1762.019645,11991.336260
978.664786,-2442.679609,536.266849,11399.171507
978.665115,-2516.700203,-1149.143247,9918.759623
978.665444,-2368.659014,-2451.505594,8586.388927
978.665774,-1702.473667,-2221.676944,8290.306550
978.666103,-222.061783,-766.095498,9178.553681
978.666433,518.144159,-536.266849,9696.697840
978.666762,-814.226536,-229.828649,10066.800811
978.667091,-2812.782580,383.047749,9770.718434
978.667421,-3849.070898,1838.629195,9918.759623
978.667750,-3256.906145,1608.800546,10732.986159
978.668080,-3034.844362,612.876398,10955.047942
978.668409,-3034.844362,-306.438199,9252.574275
978.668738,-2368.659014,-2221.676944,8290.306550
978.669068,-444.123565,-2451.505594,7698.141797
978.669397,1036.288319,-1838.629195,8438.347739
978.669726,296.082377,-459.657299,9252.574275
978.670056,-1332.370696,459.657299,9548.656652
978.670385,-2738.761985,1838.629195,10362.883188
978.670715,-3108.864956,3064.381992,10732.986159
978.671044,-2516.700203,3294.210641,10732.986159
978.671373,-1332.370696,2298.286494,9992.780217
978.671703,-296.082377,153.219100,8586.388927
978.672032,74.020594,-383.047749,7179.997637
978.672362,962.267725,-306.438199,7179.997637
978.672691,1702.473667,612.876398,8290.306550
978.673020,814.226536,1455.581446,9622.677246
978.673350,-1554.432478,2451.505594,10658.965565
978.673679,-3108.864956,3447.429741,11251.130318
978.674009,-3330.926739,3294.210641,10955.047942
978.674338,-2886.803174,2834.553343,11695.253884
978.674667,-3034.844362,2221.676944,11177.109724
978.674997,-2442.679609,536.266849,10066.800811
978.675326,-1110.308913,-919.314598,8290.306550
978.675655,518.144159,-383.047749,8216.285956
978.675985,1258.350101,689.485948,8734.430116
978.676314,1036.288319,1072.533697,9770.718434
978.676644,0.000000,1685.410096,10510.924376
978.676973,-1850.514855,4596.572988,10140.821405
978.677302,-1776.494261,5132.839837,9992.780217
978.677632,-740.205942,4443.353888,9400.615463
978.677961,740.205942,2451.505594,8438.347739
978.678290,1702.473667,842.705048,7105.977043
978.678620,2294.638420,306.438199,6735.874072
978.678949,2590.720797,766.095498,7179.997637
978.679279,1480.411884,2451.505594,8808.450710
978.679608,-666.185348,2604.724693,9622.677246
978.679937,-2812.782580,2757.943793,10066.800811
978.680267,-3256.906145,3140.991542,10288.862594
978.680596,-2294.638420,1991.848295,10955.047942
978.680925,-1850.514855,1149.143247,10658.965565
978.681255,-2146.597232,306.438199,9474.636058
978.681584,-1776.494261,-1302.362347,8216.285956
978.681913,-296.082377,-1685.410096,7254.018232
978.682243,666.185348,-612.876398,8068.244768
978.682572,888.247130,0.000000,9770.718434
978.682902,-592.164754,-229.828649,10658.965565
978.683231,-2294.638420,1225.752797,10732.986159
978.683560,-2738.761985,2451.505594,10881.027347
978.683890,-1332.370696,1838.629195,11251.130318
978.684219,-296.082377,842.705048,10140.821405
978.684548,-222.061783,-383.047749,8956.491898
978.684878,296.082377,-2145.067394,7846.182985
978.685207,1332.370696,-1685.410096,8438.347739
978.685537,1406.391290,-536.266849,9844.739029
978.685866,-222.061783,0.000000,10807.006753
978.686195,-2738.761985,689.485948,11399.171507
978.686525,-4663.297435,1302.362347,11547.212695
978.686854,-5033.400406,1302.362347,11547.212695
978.687183,-4219.173869,153.219100,11769.274478
978.687513,-3701.029710,-766.095498,10140.821405
978.687842,-2664.741391,-2298.286494,9400.615463
978.688172,-1184.329507,-2987.772442,8068.244768
978.688501,0.000000,-2145.067394,7624.121203
978.688830,0.000000,-842.705048,7994.224174
978.689160,-1776.494261,536.266849,8512.368333
978.689489,-3849.070898,1915.238745,8956.491898
978.689818,-5033.400406,2298.286494,10510.924376
978.690148,-4293.194464,2451.505594,11473.192101
978.690477,-3256.906145,1915.238745,10807.006753
978.690807,-2368.659014,-536.266849,9252.574275
978.691136,-1184.329507,-1915.238745,7402.059420
978.691465,592.164754,-1302.362347,7550.100608
978.691795,2812.782580,76.609550,8512.368333
978.692124,2960.823768,1762.019645,9474.636058
978.692453,1110.308913,3600.648841,9992.780217
978.692783,-962.267725,4903.011187,9992.780217
978.693112,-2294.638420,5362.668486,10362.883188
978.693442,-1628.453072,3907.087040,10362.883188
978.693771,-1924.535449,2681.334243,9992.780217
978.694100,-2368.659014,0.000000,8956.491898
978.694430,-1998.556043,-2221.676944,8808.450710
978.694759,-1258.350101,-1838.629195,8586.388927
978.695088,-666.185348,-1072.533697,9326.594869
978.695418,-814.226536,0.000000,9844.739029
978.695747,-1480.411884,1608.800546,10436.903782
978.696077,-1998.556043,3447.429741,10140.821405
978.696406,-1406.391290,4749.792088,9474.636058
978.696735,296.082377,4213.525239,9400.615463
978.697065,1036.288319,4060.306139,9030.512492
978.697394,888.247130,2451.505594,8142.265362
978.697723,1258.350101,1685.410096,7402.059420
978.698053,1924.535449,1838.629195,7179.997637
978.698382,2294.638420,842.705048,8512.368333
978.698712,1036.288319,1378.971896,9918.759623
978.699041,-1480.411884,1685.410096,10066.800811
978.699370,-2960.823768,2298.286494,10732.986159
978.699700,-2738.761985,3294.210641,11103.089130
978.700029,-2072.576638,3677.258390,11103.089130
978.700358,-1776.494261,1455.581446,9474.636058
978.700688,-1036.288319,-153.219100,7920.203579
978.701017,444.123565,-612.876398,7105.977043
978.701346,1924.535449,-536.266849,7624.121203
978.701676,2146.597232,-229.828649,9104.533087
978.702005,-518.144159,306.438199,9474.636058
978.702335,-3330.926739,1302.362347,10140.821405
978.702664,-4367.215058,2374.896044,10881.027347
978.702993,-2960.823768,2911.162892,11769.274478
978.703323,-1702.473667,1608.800546,11029.068536
978.703652,-1036.288319,-306.438199,9030.512492
978.703981,-296.082377,-1991.848295,7624.121203
978.704311,740.205942,-1685.410096,7698.141797
978.704640,1258.350101,-612.876398,9252.574275
978.704970,-222.061783,536.266849,10436.903782
978.705299,-2590.720797,919.314598,11399.171507
978.705628,-3997.112087,229.828649,11547.212695
978.705958,-4663.297435,612.876398,11843.295072
978.706287,-4219.173869,0.000000,11399.171507
978.706616,-3627.009116,-1072.533697,10140.821405
978.706946,-2664.741391,-2221.676944,8956.491898
978.707275,-1406.391290,-3217.601092,7550.100608
978.707605,370.102971,-2298.286494,7698.141797
978.707934,1406.391290,-766.095498,8734.430116
978.708263,296.082377,229.828649,9548.656652
978.708593,-1332.370696,1225.752797,10066.800811
978.708922,-3108.864956,1915.238745,11177.109724
978.709251,-2886.803174,2757.943793,11177.109724
978.709581,-2294.638420,1685.410096,10955.047942
978.709910,-1850.514855,76.609550,9844.739029
978.710240,-1554.432478,-1378.971896,8438.347739
978.710569,-222.061783,-2068.457845,7920.203579
978.710898,1110.308913,-1072.533697,8290.306550
978.711228,1036.288319,383.047749,9326.594869
978.711557,-148.041188,1838.629195,9844.739029
978.711886,-2072.576638,1838.629195,10214.842000
978.712216,-2590.720797,2068.457845,10510.924376
978.712545,-2664.741391,2374.896044,11251.130318
978.712875,-2664.741391,2451.505594,11399.171507
978.713204,-1924.535449,842.705048,10214.842000
978.713533,-1258.350101,-383.047749,8068.244768
978.713863,1258.350101,-919.314598,7254.018232
978.714192,2738.761985,-536.266849,7846.182985
978.714521,2516.700203,689.485948,9104.533087
978.714851,888.247130,3140.991542,10214.842000
978.715180,-1332.370696,4366.744339,10881.027347
978.715510,-2146.597232,5822.325785,10807.006753
978.715839,-1406.391290,5745.716235,10140.821405
978.716168,-518.144159,3447.429741,9474.636058
978.716498,0.000000,2068.457845,7994.224174
978.716827,74.020594,842.705048,6513.812290
978.717156,1480.411884,0.000000,6069.688724
978.717486,2590.720797,-229.828649,7402.059420
978.717815,1110.308913,536.266849,9474.636058
978.718144,-1702.473667,2145.067394,11029.068536
978.718474,-4145.153275,3830.477490,11251.130318
978.718803,-4293.194464,4826.401637,11399.171507
978.719133,-2368.659014,4826.401637,10584.944971
978.719462,-962.267725,1532.190996,9622.677246
978.719791,666.185348,153.219100,6883.915261
978.720121,1406.391290,-1072.533697,5921.647536
978.720450,2072.576638,-306.438199,7031.956449
978.720779,1480.411884,1685.410096,9548.656652
978.721109,0.000000,2681.334243,10955.047942
978.721438,-2738.761985,2681.334243,11399.171507
978.721768,-4145.153275,2987.772442,11103.089130
978.722097,-3404.947333,2757.943793,10584.944971
978.722426,-1776.494261,1532.190996,10140.821405
978.722756,-1850.514855,-766.095498,8586.388927
978.723085,-2072.576638,-1685.410096,7402.059420
978.723414,-1480.411884,-2068.457845,7254.018232
978.723744,0.000000,-1608.800546,8512.368333
978.724073,0.000000,-536.266849,10214.842000
978.724403,-1184.329507,0.000000,10955.047942
978.724732,-2368.659014,306.438199,11547.212695
978.725061,-2886.803174,842.705048,12435.459826
978.725391,-2220.617826,1915.238745,12657.521608
978.725720,-2442.679609,1302.362347,11399.171507
978.726049,-2368.659014,153.219100,9178.553681
978.726379,-888.247130,-689.485948,7624.121203
978.726708,444.123565,-2834.553343,7402.059420
978.727038,888.247130,-2298.286494,8586.388927
978.727367,-518.144159,-459.657299,9992.780217
978.727696,-2590.720797,0.000000,10807.006753
978.728026,-4293.194464,0.000000,10214.842000
978.728355,-4663.297435,689.485948,10436.903782
978.728684,-2664.741391,459.657299,10436.903782
978.729014,-1184.329507,-1072.533697,9252.574275
978.729343,-666.185348,-1608.800546,8438.347739
978.729673,0.000000,-689.485948,8142.265362
978.730002,1258.350101,-306.438199,8364.327145
978.730331,1850.514855,-229.828649,8808.450710
978.730661,740.205942,766.095498,10214.842000
978.730990,-1406.391290,1378.971896,11251.130318
978.731319,-2590.720797,2298.286494,11325.150913
978.731649,-2442.679609,2834.553343,11177.109724
978.731978,-1850.514855,2451.505594,10510.924376
978.732308,-814.226536,612.876398,9548.656652
978.732637,74.020594,-1225.752797,8216.285956
978.732966,1184.329507,-689.485948,7105.977043
978.733296,1776.494261,689.485948,7328.038826
978.733625,2442.679609,919.314598,9030.512492
978.733954,888.247130,2145.067394,10584.944971
978.734284,-2072.576638,3524.039291,11621.233289
978.734613,-4219.173869,4136.915689,11399.171507
978.734943,-3997.112087,4213.525239,10955.047942
978.735272,-2294.638420,2987.772442,10732.986159
978.735601,-1184.329507,1378.971896,8512.368333
978.735931,0.000000,-689.485948,6735.874072
978.736260,1480.411884,-459.657299,5699.585753
978.736589,2368.659014,536.266849,6883.915261
978.736919,2516.700203,2528.115143,8734.430116
978.737248,148.041188,4213.525239,10436.903782
978.737577,-2294.638420,4749.792088,10881.027347
978.737907,-2886.803174,5975.544884,11177.109724
978.738236,-1924.535449,4826.401637,11399.171507
978.738566,-666.185348,2528.115143,10658.965565
978.738895,-666.185348,306.438199,8586.388927
978.739224,-444.123565,-842.705048,7105.977043
978.739554,592.164754,-306.438199,7179.997637
978.739883,1480.411884,459.657299,8438.347739
978.740212,666.185348,1532.190996,9622.677246
978.740542,-1406.391290,1838.629195,9474.636058
978.740871,-2886.803174,2451.505594,9474.636058
978.741201,-2738.761985,3983.696590,9992.780217
978.741530,-2220.617826,3677.258390,10510.924376
978.741859,-2368.659014,1762.019645,8956.491898
978.742189,-2516.700203,-153.219100,7846.182985
978.742518,-1702.473667,-1838.629195,7105.977043
978.742847,-222.061783,-1608.800546,8290.306550
978.743177,0.000000,-689.485948,10066.800811
978.743506,-1554.432478,153.219100,10584.944971
978.743836,-3552.988522,919.314598,11029.068536
978.744165,-4071.132681,1225.752797,11769.274478
978.744494,-3478.967927,1532.190996,12805.562797
978.744824,-2886.803174,1149.143247,12287.418637
978.745153,-2738.761985,0.000000,10807.006753
978.745482,-2146.597232,-1225.752797,8808.450710
978.745812,74.020594,-2757.943793,7920.203579
978.746141,2368.659014,-2757.943793,7994.224174
978.746471,2146.597232,-1915.238745,8586.388927
978.746800,0.000000,-766.095498,9030.512492
978.747129,-1998.556043,459.657299,9992.780217
978.747459,-2812.782580,1915.238745,11251.130318
978.747788,-2220.617826,2528.115143,11399.171507
978.748117,-1924.535449,1532.190996,10658.965565
978.748447,-1332.370696,-306.438199,9400.615463
978.748776,-1036.288319,-2145.067394,8586.388927
978.749106,74.020594,-1378.971896,8290.306550
978.749435,518.144159,-919.314598,9104.533087
978.749764,-592.164754,-766.095498,9696.697840
978.750094,-1998.556043,-229.828649,10807.006753
978.750423,-3182.885551,536.266849,11029.068536
978.750752,-3034.844362,1225.752797,10658.965565
978.751082,-1702.473667,1532.190996,10288.862594
978.751411,-888.247130,1225.752797,9622.677246
978.751741,518.144159,-536.266849,8290.306550
978.752070,1554.432478,-766.095498,7179.997637
978.752399,3256.906145,-459.657299,7179.997637
978.752729,3701.029710,919.314598,8660.409521
978.753058,2368.659014,1991.848295,10362.883188
978.753387,-518.144159,2451.505594,11103.089130
978.753717,-2442.679609,3524.039291,11251.130318
978.754046,-2664.741391,4290.134789,11325.150913
978.754376,-1480.411884,3064.381992,10881.027347
978.754705,-740.205942,1149.143247,9326.594869
978.755034,-740.205942,0.000000,7328.038826
978.755364,222.061783,229.828649,6143.709319
978.755693,1850.514855,306.438199,6735.874072
978.756022,1628.453072,1378.971896,8438.347739
978.756352,518.144159,2834.553343,10066.800811
978.756681,-2442.679609,3370.820191,10140.821405
978.757010,-3701.029710,4213.525239,10510.924376
978.757340,-3108.864956,4443.353888,11547.212695
978.757669,-1924.535449,3600.648841,11473.192101
978.757999,-962.267725,1225.752797,10214.842000
978.758328,-370.102971,-612.876398,7698.141797
978.758657,666.185348,-383.047749,7179.997637
978.758987,2220.617826,383.047749,8216.285956
978.759316,1628.453072,1225.752797,9844.739029
978.759645,-370.102971,2604.724693,10140.821405
978.759975,-2368.659014,3677.258390,9548.656652
978.760304,-2738.761985,4290.134789,9252.574275
978.760634,-1702.473667,3447.429741,9178.553681
978.760963,-740.205942,1762.019645,9030.512492
978.761292,-814.226536,612.876398,7624.121203
978.761622,-1036.288319,-766.095498,7105.977043
978.761951,-296.082377,-229.828649,7920.203579
978.762280,74.020594,153.219100,8734.430116
978.762610,-814.226536,0.000000,9918.759623
978.762939,-2146.597232,-919.314598,11843.295072
978.763269,-3404.947333,229.828649,12583.501014
978.763598,-4219.173869,2757.943793,13175.665768
978.763927,-3404.947333,2451.505594,11917.315666
978.764257,-2442.679609,995.924147,9622.677246
978.764586,-814.226536,-1225.752797,7031.956449
978.764915,888.247130,-2681.334243,6365.771101
978.765245,2220.617826,-2298.286494,7402.059420
978.765574,1184.329507,383.047749,9178.553681
978.765904,-1110.308913,919.314598,10510.924376
978.766233,-2886.803174,229.828649,11621.233289
978.766562,-3775.050304,842.705048,11473.192101
978.766892,-3108.864956,1225.752797,11029.068536
978.767221,-1554.432478,383.047749,10510.924376
978.767550,-962.267725,-1302.362347,9326.594869
978.767880,-592.164754,-2068.457845,8512.368333
978.768209,148.041188,-1532.190996,7624.121203
978.768539,1332.370696,-1225.752797,7772.162391
978.768868,1628.453072,-383.047749,8808.450710
978.769197,0.000000,229.828649,10510.924376
978.769527,-2368.659014,689.485948,10732.986159
978.769856,-3256.906145,1991.848295,11251.130318
978.770185,-2516.700203,2604.724693,11547.212695
978.770515,-1776.494261,1608.800546,11029.068536
978.770844,-1850.514855,-229.828649,9474.636058
978.771174,-1332.370696,-2145.067394,7920.203579
978.771503,222.061783,-1608.800546,7476.080014
978.771832,1480.411884,0.000000,8586.388927
978.772162,1702.473667,459.657299,10066.800811
978.772491,-814.226536,1378.971896,11177.109724
978.772820,-3034.844362,2451.505594,11547.212695
978.773150,-3701.029710,3753.867940,10955.047942
978.773479,-2368.659014,3830.477490,10140.821405
978.773809,-518.144159,1762.019645,8808.450710
978.774138,0.000000,-153.219100,7402.059420
978.774467,1110.308913,-536.266849,6809.894666
978.774797,2442.679609,383.047749,6883.915261
978.775126,2664.741391,995.924147,8216.285956
978.775455,1258.350101,2374.896044,9696.697840
978.775785,-1258.350101,3524.039291,11029.068536
978.776114,-2886.803174,3677.258390,11843.295072
978.776443,-2738.761985,4213.525239,12435.459826
978.776773,-2442.679609,4213.525239,11843.295072
978.777103,-2072.576638,1685.410096,9992.780217
978.777432,-1776.494261,-612.876398,8364.327145
978.777762,-296.082377,-689.485948,6883.915261
978.778091,1036.288319,-306.438199,7105.977043
978.778421,1480.411884,612.876398,8290.306550
978.778750,222.061783,1838.629195,9104.533087
978.779080,-1628.453072,3370.820191,9770.718434
978.779409,-3034.844362,4366.744339,9622.677246
978.779739,-1998.556043,5132.839837,9844.739029
978.780068,-888.247130,3524.039291,9252.574275
978.780398,-740.205942,766.095498,8216.285956
978.780727,-444.123565,-612.876398,6587.832884
978.781057,444.123565,-689.485948,7105.977043
978.781386,1258.350101,0.000000,8808.450710
978.781716,0.000000,766.095498,10436.903782
978.782045,-1924.535449,1532.190996,11473.192101
978.782375,-3701.029710,2374.896044,11695.253884
978.782704,-3627.009116,2145.067394,12065.356855
978.783034,-3330.926739,2604.724693,12065.356855
978.783363,-2664.741391,1378.971896,11029.068536
978.783693,-1850.514855,-766.095498,8882.471304
978.784022,0.000000,-2145.067394,7402.059420
978.784352,1776.494261,-2374.896044,6439.791695
978.784682,2590.720797,-1608.800546,7402.059420
978.785011,1332.370696,-459.657299,8882.471304
978.785341,-1110.308913,689.485948,10807.006753
978.785670,-3182.885551,2068.457845,11843.295072
978.786000,-3701.029710,2834.553343,12435.459826
978.786329,-3256.906145,2757.943793,11991.336260
978.786659,-2812.782580,459.657299,10510.924376
978.786988,-2146.597232,-1915.238745,8734.430116
978.787318,-962.267725,-2834.553343,8142.265362
978.787647,518.144159,-2451.505594,8216.285956
978.787977,222.061783,-995.924147,8956.491898
978.788306,-1110.308913,-383.047749,9992.780217
978.788636,-2812.782580,536.266849,10584.944971
978.788965,-3478.967927,1838.629195,10510.924376
978.789295,-3256.906145,1915.238745,10288.862594
978.789624,-1406.391290,1225.752797,10214.842000
978.789954,-962.267725,153.219100,9252.574275
978.790283,-740.205942,-1072.533697,7698.141797
978.790613,370.102971,-1455.581446,7105.977043
978.790942,1776.494261,-919.314598,7920.203579
978.791272,1554.432478,-153.219100,9178.553681
978.791602,-296.082377,842.705048,10807.006753
978.791931,-2738.761985,2451.505594,11251.130318
978.792261,-3997.112087,3217.601092,11325.150913
978.792590,-3182.885551,3294.210641,11029.068536
978.792920,-1554.432478,2528.115143,10288.862594
978.793249,-296.082377,306.438199,8290.306550
978.793579,370.102971,-1072.533697,6587.832884
978.793908,1480.411884,-689.485948,6069.688724
978.794238,2220.617826,383.047749,7772.162391
978.794567,1258.350101,1455.581446,10140.821405
978.794897,-1628.453072,2911.162892,11695.253884
978.795226,-4145.153275,3600.648841,11991.336260
978.795556,-4145.153275,4213.525239,12361.439231
978.795885,-2664.741391,3294.210641,12139.377449
978.796215,-1258.350101,1378.971896,11103.089130
978.796544,0.000000,0.000000,8882.471304
978.796874,518.144159,-383.047749,7328.038826
978.797203,2294.638420,383.047749,7031.956449
978.797533,3108.864956,1685.410096,7994.224174
978.797862,1924.535449,2451.505594,8660.409521
978.798192,-518.144159,4060.306139,9104.533087
978.798521,-2220.617826,4749.792088,9030.512492
978.798851,-1924.535449,4596.572988,9474.636058
978.799181,-1554.432478,3600.648841,9770.718434
978.799510,-1924.535449,1762.019645,9030.512492
978.799840,-2442.679609,-306.438199,7772.162391
978.800169,-1776.494261,-612.876398,6883.915261
978.800499,0.000000,-995.924147,8660.409521
978.800828,370.102971,-689.485948,10510.924376
978.801158,-1184.329507,612.876398,11547.212695
978.801487,-3108.864956,1608.800546,11029.068536
978.801817,-3552.988522,3140.991542,10288.862594
978.802146,-2220.617826,3830.477490,10140.821405
978.802476,-1110.308913,3370.820191,8734.430116
978.802805,-518.144159,1225.752797,6513.812290
978.803135,296.082377,-1915.238745,6439.791695
978.803464,1702.473667,-2604.724693,8142.265362
978.803794,666.185348,153.219100,10214.842000
978.804123,-1628.453072,689.485948,11621.233289
978.804453,-3701.029710,76.609550,11991.336260
978.804782,-4441.235652,459.657299,12139.377449
978.805112,-3849.070898,1378.971896,11843.295072
978.805441,-2146.597232,459.657299,11251.130318
978.805771,-1480.411884,306.438199,9918.759623
978.806100,-1110.308913,-383.047749,8586.388927
978.806430,148.041188,-1608.800546,7402.059420
978.806760,1776.494261,-1072.533697,7105.977043
978.807089,2442.679609,-612.876398,7254.018232
978.807419,1036.288319,-383.047749,9400.615463
978.807748,-1406.391290,459.657299,11029.068536
978.808078,-3775.050304,2068.457845,11769.274478
978.808407,-4293.194464,2451.505594,11769.274478
978.808737,-4219.173869,1685.410096,11325.150913
978.809066,-3182.885551,0.000000,11029.068536
978.809396,-2516.700203,-1532.190996,9696.697840
978.809725,-1406.391290,-2221.676944,7846.182985
978.810055,518.144159,-1302.362347,7772.162391
978.810384,1184.329507,76.609550,8734.430116
978.810714,-370.102971,76.609550,9844.739029
978.811043,-2368.659014,1378.971896,9696.697840
978.811373,-4071.132681,2681.334243,9326.594869
978.811702,-2590.720797,3677.258390,9474.636058
978.812032,-518.144159,2145.067394,9400.615463
978.812361,592.164754,0.000000,8142.265362
978.812691,518.144159,-612.876398,7031.956449
978.813020,1258.350101,-459.657299,6735.874072
978.813350,2220.617826,919.314598,8734.430116
978.813680,1332.370696,1991.848295,10807.006753
978.814009,-666.185348,2221.676944,12139.377449
978.814339,-2368.659014,2681.334243,12583.501014
978.814668,-3627.009116,3140.991542,12361.439231
978.814998,-3404.947333,2987.772442,11843.295072
978.815327,-2368.659014,1762.019645,10658.965565
978.815657,-1406.391290,0.000000,8808.450710
978.815986,74.020594,-1532.190996,6883.915261
978.816316,1850.514855,-459.657299,6587.832884
978.816645,2590.720797,919.314598,7179.997637
978.816975,2072.576638,1532.190996,8438.347739
978.817304,-370.102971,2987.772442,9326.594869
978.817634,-2442.679609,4673.182538,9770.718434
978.817963,-2886.803174,5209.449386,10658.965565
978.818293,-2146.597232,3753.867940,10881.027347
978.818622,-1924.535449,2604.724693,9770.718434
978.818952,-2072.576638,536.266849,7920.203579
978.819281,-518.144159,-1608.800546,7031.956449
978.819611,1036.288319,-919.314598,7550.100608
978.819940,814.226536,229.828649,8882.471304
978.820270,-814.226536,536.266849,10288.862594
978.820599,-3034.844362,1762.019645,10732.986159
978.820929,-4219.173869,3830.477490,10807.006753
978.821259,-3182.885551,3370.820191,10807.006753
978.821588,-1406.391290,2834.553343,10362.883188
978.821918,-222.061783,1302.362347,8808.450710
978.822247,592.164754,-1378.971896,6883.915261
978.822577,1702.473667,-1838.629195,6217.729913
978.822906,2294.638420,-766.095498,7550.100608
978.823236,1184.329507,536.266849,10066.800811
978.823565,-1554.432478,1302.362347,11621.233289
978.823895,-4145.153275,2221.676944,12139.377449
978.824224,-5107.421000,2451.505594,11843.295072
978.824554,-4145.153275,1532.190996,11251.130318
978.824883,-3256.906145,0.000000,11029.068536
978.825213,-2812.782580,-995.924147,9178.553681
978.825542,-2220.617826,-2451.505594,7624.121203
978.825872,-444.123565,-1915.238745,7105.977043
978.826201,888.247130,-995.924147,7698.141797
978.826531,962.267725,-459.657299,9104.533087
978.826860,-1110.308913,383.047749,10510.924376
978.827190,-3034.844362,1915.238745,10881.027347
978.827519,-3330.926739,2451.505594,11621.233289
978.827849,-2590.720797,1838.629195,11473.192101
978.828178,-1850.514855,689.485948,11103.089130
978.828508,-1480.411884,-1149.143247,9474.636058
978.828838,-296.082377,-2451.505594,7994.224174
978.829167,1258.350101,-2374.896044,7624.121203
978.829497,1628.453072,-1532.190996,9104.533087
978.829826,592.164754,0.000000,10066.800811
978.830156,-2146.597232,1455.581446,11103.089130
978.830485,-3923.091493,2911.162892,10214.842000
978.830815,-2886.803174,3677.258390,9844.739029
978.831144,-888.247130,2681.334243,9326.594869
978.831474,370.102971,919.314598,8660.409521
978.831803,518.144159,-1302.362347,7254.018232
978.832133,370.102971,-842.705048,6661.853478
978.832462,1110.308913,153.219100,8216.285956
978.832792,888.247130,919.314598,10584.944971
978.833121,-1036.288319,2221.676944,12287.418637
978.833451,-3552.988522,2374.896044,12065.356855
978.833780,-3701.029710,2451.505594,11991.336260
978.834110,-2368.659014,2987.772442,11917.315666
978.834439,-1406.391290,2298.286494,10955.047942
978.834769,-370.102971,612.876398,8734.430116
978.835098,888.247130,-766.095498,6365.771101
978.835428,2738.761985,459.657299,5403.503377
978.835758,4293.194464,1455.581446,6291.750507
978.836087,3997.112087,1838.629195,7772.162391
978.836417,1258.350101,2834.553343,9622.677246
978.836746,-1628.453072,3983.696590,11029.068536
978.837076,-3627.009116,4673.182538,11547.212695
978.837405,-4071.132681,4673.182538,12213.398043
978.837735,-4071.132681,2451.505594,11177.109724
978.838064,-3775.050304,-306.438199,9474.636058
978.838394,-2368.659014,-919.314598,7772.162391
978.838723,592.164754,-1608.800546,7105.977043
978.839053,1776.494261,-995.924147,7328.038826
978.839382,740.205942,536.266849,8216.285956
978.839712,-1628.453072,2451.505594,8882.471304
978.840041,-3330.926739,4826.401637,8734.430116
978.840371,-2738.761985,5669.106685,9474.636058
978.840700,-1554.432478,2987.772442,11029.068536
978.841030,-1850.514855,1762.019645,10955.047942
978.841359,-1998.556043,383.047749,9696.697840
978.841689,-962.267725,-1685.410096,8956.491898
978.842018,518.144159,-2145.067394,9474.636058
978.842348,888.247130,-1302.362347,10584.944971
978.842677,-666.185348,-459.657299,11473.192101
978.843007,-1998.556043,76.609550,11621.233289
978.843337,-2812.782580,2681.334243,11177.109724
978.843666,-2294.638420,3447.429741,10807.006753
978.843996,-962.267725,1915.238745,9548.656652
978.844325,-296.082377,459.657299,7846.182985
978.844655,222.061783,-1302.362347,6587.832884
978.844984,814.226536,-1685.410096,6217.729913
978.845314,1406.391290,-919.314598,7254.018232
978.845643,444.123565,-842.705048,9178.553681
978.845973,-1036.288319,-306.438199,11325.150913
978.846302,-3923.091493,459.657299,12213.398043
978.846632,-4811.338623,1915.238745,12879.583391
978.846961,-4367.215058,2068.457845,13175.665768
978.847291,-3552.988522,689.485948,12065.356855
978.847620,-2368.659014,-153.219100,9992.780217
978.847950,-1184.329507,-1991.848295,8290.306550
978.848279,888.247130,-2451.505594,6809.894666
978.848609,1924.535449,-1608.800546,6587.832884
978.848938,1332.370696,-229.828649,7994.224174
978.849268,-370.102971,306.438199,9030.512492
978.849597,-2146.597232,1532.190996,9474.636058
978.849927,-2812.782580,3294.210641,9400.615463
978.850256,-1776.494261,2987.772442,10214.842000
978.850586,-888.247130,1378.971896,10214.842000
978.850916,-666.185348,76.609550,9104.533087
978.851245,-148.041188,-919.314598,8290.306550
978.851575,1110.308913,-383.047749,8808.450710
978.851904,1406.391290,153.219100,10362.883188
978.852234,0.000000,229.828649,11843.295072
978.852563,-2664.741391,1072.533697,12361.439231
978.852893,-3849.070898,2221.676944,11843.295072
978.853222,-3256.906145,2757.943793,11769.274478
978.853552,-2072.576638,2911.162892,11325.150913
978.853881,-1036.288319,1149.143247,9474.636058
978.854211,-148.041188,-689.485948,7179.997637
978.854540,1480.411884,-229.828649,5699.585753
978.854870,3404.947333,995.924147,6291.750507
978.855199,3478.967927,1991.848295,8142.265362
978.855529,1406.391290,2298.286494,9474.636058
978.855858,-1850.514855,3217.601092,10436.903782
978.856188,-3923.091493,4903.011187,10881.027347
978.856517,-3849.070898,4903.011187,11325.150913
978.856847,-2812.782580,3524.039291,11103.089130
978.857176,-2146.597232,1072.533697,9622.677246
978.857506,-1406.391290,-689.485948,7550.100608
978.857836,148.041188,-612.876398,6069.688724
978.858165,1332.370696,-153.219100,6957.935855
978.858495,962.267725,1072.533697,8808.450710
978.858824,-962.267725,2374.896044,9992.780217
978.859154,-2442.679609,3447.429741,10214.842000
978.859483,-2664.741391,3600.648841,9474.636058
978.859813,-814.226536,3140.991542,9548.656652
978.860142,74.020594,1532.190996,10066.800811
978.860472,74.020594,0.000000,9030.512492
978.860801,0.000000,-766.095498,8142.265362
978.861131,518.144159,-229.828649,8438.347739
978.861460,888.247130,153.219100,9992.780217
978.861790,0.000000,536.266849,10955.047942
978.862119,-2368.659014,1225.752797,11547.212695
978.862449,-3627.009116,1991.848295,11103.089130
978.862778,-3627.009116,2987.772442,11029.068536
978.863108,-2664.741391,1991.848295,10362.883188
978.863437,-1998.556043,1225.752797,9030.512492
978.863767,-1628.453072,-995.924147,7624.121203
978.864096,-222.061783,-1915.238745,7105.977043
978.864426,1184.329507,-1608.800546,7624.121203
978.864755,1480.411884,-842.705048,9030.512492
978.865085,0.000000,0.000000,10955.047942
978.865415,-2812.782580,153.219100,11621.233289
978.865744,-4071.132681,1532.190996,12213.398043
978.866074,-3256.906145,2068.457845,12509.480420
978.866403,-2368.659014,1149.143247,11917.315666
978.866733,-1406.391290,0.000000,10140.821405
978.867062,-1184.329507,-1608.800546,8216.285956
978.867392,1036.288319,-1685.410096,6957.935855
978.867721,3256.906145,-1532.190996,7031.956449
978.868051,2738.761985,-306.438199,7846.182985
978.868380,148.041188,383.047749,8364.327145
978.868710,-2960.823768,1915.238745,9104.533087
978.869039,-3775.050304,2911.162892,9918.759623
978.869369,-3330.926739,2604.724693,10881.027347
978.869698,-2812.782580,1838.629195,10288.862594
978.870028,-2590.720797,-766.095498,8956.491898
978.870357,-1480.411884,-2681.334243,7698.141797
978.870687,-370.102971,-2298.286494,8364.327145
978.871016,148.041188,-1072.533697,9918.759623
978.871346,-592.164754,-153.219100,11325.150913
978.871675,-2072.576638,842.705048,11843.295072
978.872005,-2960.823768,2145.067394,11251.130318
978.872334,-1998.556043,2911.162892,10066.800811
978.872664,0.000000,2451.505594,9400.615463
978.872994,1480.411884,1762.019645,8586.388927
978.873323,1776.494261,153.219100,8068.244768
978.873653,1998.556043,689.485948,7698.141797
978.873982,2442.679609,1685.410096,8142.265362
978.874312,1998.556043,995.924147,9622.677246
978.874641,74.020594,1838.629195,11177.109724
978.874971,-2368.659014,1991.848295,12065.356855
978.875300,-3849.070898,3064.381992,11843.295072
978.875630,-3330.926739,3140.991542,11547.212695
978.875959,-3330.926739,2987.772442,9844.739029
978.876289,-2146.597232,1685.410096,7624.121203
978.876618,-814.226536,-383.047749,5773.606348
978.876948,518.144159,-229.828649,5033.400406
978.877277,1702.473667,919.314598,5847.626942
978.877607,1258.350101,1762.019645,8068.244768
978.877936,-1110.308913,2298.286494,10140.821405
978.878266,-3478.967927,3140.991542,11843.295072
978.878595,-4663.297435,3524.039291,12139.377449
978.878925,-3552.988522,3064.381992,11991.336260
978.879254,-2072.576638,1608.800546,10955.047942
978.879584,-148.041188,0.000000,9178.553681
978.879913,1406.391290,-689.485948,7402.059420
978.880243,3182.885551,-536.266849,6957.935855
978.880572,3923.091493,842.705048,7772.162391
978.880902,2368.659014,2451.505594,9030.512492
978.881231,148.041188,2528.115143,10066.800811
978.881561,-2072.576638,2528.115143,9918.759623
978.881890,-2664.741391,3370.820191,10436.903782
978.882220,-2368.659014,2451.505594,10584.944971
978.882549,-2220.617826,459.657299,9696.697840
978.882879,-2072.576638,-1225.752797,8216.285956
978.883209,-1776.494261,-2221.676944,7254.018232
978.883538,0.000000,-2298.286494,7846.182985
978.883868,740.205942,-1149.143247,9622.677246
978.884197,-370.102971,0.000000,11473.192101
978.884527,-2590.720797,612.876398,12213.398043
978.884856,-4737.318029,2221.676944,12583.501014
978.885186,-4441.235652,3064.381992,12657.521608
978.885515,-2812.782580,2068.457845,12287.418637
978.885845,-1258.350101,229.828649,10584.944971
978.886174,-296.082377,-2298.286494,7254.018232
978.886504,1332.370696,-2911.162892,6143.709319
978.886833,2812.782580,-2221.676944,7105.977043
978.887163,2664.741391,-612.876398,8364.327145
978.887492,444.123565,612.876398,9474.636058
978.887822,-2294.638420,2298.286494,10140.821405
978.888151,-3182.885551,3217.601092,10288.862594
978.888481,-2590.720797,3217.601092,10881.027347
978.888810,-1480.411884,1762.019645,10732.986159
978.889140,-2220.617826,-153.219100,9104.533087
978.889469,-2368.659014,-1608.800546,7179.997637
978.889799,-1184.329507,-2911.162892,7105.977043
978.890128,74.020594,-2068.457845,9178.553681
978.890458,-296.082377,-459.657299,10881.027347
978.890787,-2072.576638,0.000000,10955.047942
978.891117,-3182.885551,1915.238745,10807.006753
978.891446,-3108.864956,2451.505594,9992.780217
978.891776,-1850.514855,2528.115143,10807.006753
978.892105,-296.082377,1685.410096,10584.944971
978.892435,148.041188,1072.533697,8956.491898
978.892764,1258.350101,0.000000,7698.141797
978.893094,2442.679609,0.000000,7105.977043
978.893423,2664.741391,536.266849,9252.574275
978.893753,1258.350101,1915.238745,10658.965565
978.894082,-1480.411884,2221.676944,11177.109724
978.894412,-3330.926739,2757.943793,11399.171507
978.894741,-3478.967927,3524.039291,11621.233289
978.895071,-2886.803174,2757.943793,10881.027347
978.895401,-2220.617826,1225.752797,9622.677246
978.895730,-1480.411884,612.876398,7624.121203
978.896060,518.144159,153.219100,5921.647536
978.896389,2812.782580,-383.047749,6291.750507
978.896719,2886.803174,1072.533697,7846.182985
978.897048,888.247130,2221.676944,9178.553681
978.897378,-1702.473667,2757.943793,10658.965565
978.897707,-3627.009116,4136.915689,11547.212695
978.898037,-3775.050304,4749.792088,11843.295072
978.898366,-2738.761985,2834.553343,11843.295072
978.898696,-1776.494261,689.485948,10140.821405
978.899025,-962.267725,-229.828649,7772.162391
978.899355,666.185348,-766.095498,6587.832884
978.899684,2220.617826,-612.876398,6883.915261
978.900014,2220.617826,689.485948,8364.327145
978.900343,148.041188,2068.457845,9474.636058
978.900673,-2294.638420,3217.601092,9622.677246
978.901002,-2886.803174,4290.134789,9770.718434
978.901332,-1998.556043,3830.477490,10214.842000
978.901661,-1258.350101,2068.457845,9548.656652
978.901991,-592.164754,536.266849,8364.327145
978.902320,-740.205942,-1072.533697,7179.997637
978.902650,592.164754,-1838.629195,7476.080014
978.902979,1184.329507,-1608.800546,9104.533087
978.903309,148.041188,-306.438199,10807.006753
978.903638,-1850.514855,229.828649,11399.171507
978.903968,-2738.761985,536.266849,12065.356855
978.904297,-2960.823768,2374.896044,12213.398043
978.904627,-2146.597232,1915.238745,11843.295072
978.904956,-1480.411884,383.047749,10955.047942
978.905286,-814.226536,-689.485948,8882.471304
978.905615,444.123565,-1685.410096,7476.080014
978.905945,1998.556043,-1838.629195,7624.121203
978.906274,2072.576638,-1608.800546,8956.491898
978.906604,0.000000,-536.266849,10362.883188
978.906933,-2812.782580,536.266849,10658.965565
978.907263,-4663.297435,1991.848295,10362.883188
978.907593,-4219.173869,2451.505594,10510.924376
978.907922,-3256.906145,766.095498,10658.965565
978.908252,-2368.659014,-766.095498,9696.697840
978.908581,-2220.617826,-1455.581446,8586.388927
978.908911,-1480.411884,-1608.800546,7402.059420
978.909240,222.061783,-919.314598,8068.244768
978.909570,518.144159,-383.047749,9104.533087
978.909899,-592.164754,-153.219100,10140.821405
978.910229,-1998.556043,536.266849,10510.924376
978.910558,-2664.741391,2451.505594,10214.842000
978.910888,-1850.514855,2451.505594,10881.027347
978.911217,-1258.350101,1455.581446,10658.965565
978.911547,-1036.288319,612.876398,9252.574275
978.911876,74.020594,-153.219100,8068.244768
978.912206,2146.597232,-536.266849,7550.100608
978.912535,3108.864956,1149.143247,8438.347739
978.912865,1998.556043,1225.752797,9844.739029
978.913194,-592.164754,2451.505594,10732.986159
978.913524,-3108.864956,3830.477490,10436.903782
978.913853,-4367.215058,4673.182538,9178.553681
978.914183,-3849.070898,3753.867940,9178.553681
978.914512,-2960.823768,1149.143247,9104.533087
978.914842,-2738.761985,0.000000,8512.368333
978.915171,-1998.556043,-766.095498,7772.162391
978.915501,-370.102971,-459.657299,8068.244768
978.915830,1036.288319,612.876398,9400.615463
978.916160,888.247130,612.876398,10362.883188
978.916489,-296.082377,1685.410096,11547.212695
978.916819,-1776.494261,3677.258390,11547.212695
978.917148,-2072.576638,5515.887586,11547.212695
978.917478,-1036.288319,4596.572988,11547.212695
978.917807,296.082377,3370.820191,9992.780217
978.918137,1036.288319,1072.533697,7476.080014
978.918466,2368.659014,-612.876398,5551.544565
978.918796,3627.009116,-306.438199,5995.668130
978.919125,2442.679609,1225.752797,8290.306550
978.919455,0.000000,1915.238745,9696.697840
978.919784,-2812.782580,2987.772442,10658.965565
978.920114,-4885.359217,4290.134789,10510.924376
978.920444,-4515.256246,4213.525239,10436.903782
978.920773,-3627.009116,1991.848295,9918.759623
978.921103,-2516.700203,-383.047749,8882.471304
978.921432,-2146.597232,-1685.410096,7402.059420
978.921762,-888.247130,-1608.800546,7031.956449
978.922091,370.102971,-995.924147,7920.203579
978.922421,666.185348,0.000000,9696.697840
978.922750,-814.226536,0.000000,10658.965565
978.923080,-2368.659014,1149.143247,10955.047942
978.923409,-2294.638420,2298.286494,11695.253884
978.923739,-1258.350101,2834.553343,12065.356855
978.924068,-814.226536,1149.143247,11695.253884
978.924398,-814.226536,-612.876398,9992.780217
978.924727,0.000000,-842.705048,8216.285956
978.925057,1480.411884,-995.924147,7402.059420
978.925386,2664.741391,-1455.581446,8364.327145
978.925716,1554.432478,-536.266849,9844.739029
978.926045,-1332.370696,76.609550,10658.965565
978.926375,-3775.050304,1455.581446,10584.944971
978.926704,-4737.318029,2987.772442,10881.027347
978.927034,-4293.194464,2374.896044,11103.089130
978.927363,-3404.947333,306.438199,10436.903782
978.927693,-2590.720797,-2451.505594,8734.430116
978.928022,-1036.288319,-2987.772442,7624.121203
978.928352,0.000000,-2451.505594,7105.977043
978.928681,148.041188,-842.705048,8586.388927
978.929011,-740.205942,-306.438199,9844.739029
978.929340,-2368.659014,536.266849,10881.027347
978.929670,-3701.029710,2451.505594,11547.212695
978.929999,-3330.926739,3140.991542,11325.150913
978.930329,-2072.576638,2604.724693,11177.109724
978.930658,-1258.350101,766.095498,9548.656652
978.930988,-222.061783,-612.876398,8216.285956
978.931317,592.164754,-919.314598,7328.038826
978.931647,1924.535449,-459.657299,7476.080014
978.931976,1480.411884,1149.143247,9104.533087
978.932306,-444.123565,1685.410096,10510.924376
978.932636,-2590.720797,1991.848295,10807.006753
978.932965,-3552.988522,3140.991542,10510.924376
978.933295,-3404.947333,3447.429741,10066.800811
978.933624,-1776.494261,2757.943793,9548.656652
978.933954,-1258.350101,919.314598,8290.306550
978.934283,-518.144159,-306.438199,7476.080014
978.934613,666.185348,-153.219100,7105.977043
978.934942,1998.556043,459.657299,8364.327145
978.935272,1850.514855,1455.581446,9770.718434
978.935601,-666.185348,2451.505594,10732.986159
978.935931,-2590.720797,3140.991542,11473.192101
978.936260,-3034.844362,4443.353888,11547.212695
978.936590,-2294.638420,3983.696590,11843.295072
978.936919,-1184.329507,2068.457845,10881.027347
978.937249,-296.082377,229.828649,8956.491898
978.937578,0.000000,-306.438199,7031.956449
978.937908,1924.535449,-536.266849,6883.915261
978.938237,2368.659014,459.657299,8142.265362
978.938567,888.247130,2451.505594,9474.636058
978.938896,-1184.329507,2911.162892,9474.636058
978.939226,-2886.803174,3447.429741,9918.759623
978.939555,-2886.803174,3907.087040,9918.759623
978.939885,-1628.453072,2834.553343,9474.636058
978.940214,-888.247130,842.705048,8512.368333
978.940544,-666.185348,-612.876398,7402.059420
978.940873,-592.164754,-1915.238745,7031.956449
978.941203,370.102971,-995.924147,8364.327145
978.941532,888.247130,153.219100,9992.780217
978.941862,-518.144159,612.876398,11473.192101
978.942191,-1850.514855,1532.190996,11547.212695
978.942521,-3108.864956,1838.629195,11325.150913
978.942850,-2738.761985,2068.457845,11769.274478
978.943180,-1554.432478,1532.190996,11547.212695
978.943509,-1110.308913,536.266849,10362.883188
978.943839,-296.082377,-1455.581446,8660.409521
978.944168,1184.329507,-1378.971896,6809.894666
978.944498,2220.617826,-1455.581446,7254.018232
978.944828,1554.432478,-1072.533697,8882.471304
978.945157,-666.185348,-689.485948,10584.944971
978.945487,-3701.029710,1072.533697,11843.295072
978.945816,-5181.441594,3064.381992,12287.418637
978.946146,-4737.318029,2221.676944,11991.336260
978.946475,-3627.009116,689.485948,10807.006753
978.946805,-2886.803174,-1991.848295,8512.368333
978.947134,-1110.308913,-2681.334243,7105.977043
978.947464,740.205942,-2451.505594,6217.729913
978.947793,1998.556043,-1149.143247,8512.368333
978.948123,518.144159,-153.219100,9548.656652
978.948452,-2072.576638,1455.581446,10510.924376
978.948782,-3478.967927,2374.896044,10955.047942
978.949111,-3108.864956,3140.991542,11325.150913
978.949441,-1628.453072,2145.067394,11473.192101
978.949770,-814.226536,536.266849,10584.944971
978.950100,-444.123565,-919.314598,9104.533087
978.950429,0.000000,-612.876398,7772.162391
978.950759,1258.350101,153.219100,7550.100608
978.951088,1480.411884,995.924147,7920.203579
978.951418,-222.061783,1762.019645,9030.512492
978.951747,-2368.659014,1532.190996,10584.944971
978.952077,-4145.153275,2987.772442,11251.130318
978.952406,-4737.318029,4366.744339,11251.130318
978.952736,-3627.009116,2987.772442,10584.944971
978.953065,-2368.659014,536.266849,9326.594869
978.953395,-1702.473667,-459.657299,7328.038826
978.953724,370.102971,-1225.752797,6735.874072
978.954054,2368.659014,-153.219100,7624.121203
978.954383,2294.638420,2374.896044,9178.553681
978.954713,444.123565,2298.286494,9992.780217
978.955042,-1480.411884,2451.505594,11251.130318
978.955372,-2220.617826,4213.525239,11325.150913
978.955701,-1776.494261,4596.572988,11103.089130
978.956031,-740.205942,2681.334243,10510.924376
978.956360,740.205942,1072.533697,9548.656652
978.956690,1036.288319,0.000000,7920.203579
978.957020,2294.638420,-383.047749,7179.997637
978.957349,2442.679609,459.657299,8068.244768
978.957679,962.267725,1915.238745,9474.636058
978.958008,-1332.370696,2757.943793,9992.780217
978.958338,-3701.029710,3140.991542,10214.842000
978.958667,-4145.153275,3753.867940,10584.944971
978.958997,-3182.885551,2911.162892,10214.842000
978.959326,-2368.659014,1149.143247,9326.594869
978.959656,-2220.617826,0.000000,7846.182985
978.959985,-1480.411884,-1378.971896,6661.853478
978.960315,0.000000,-1302.362347,7031.956449
978.960644,1406.391290,-612.876398,8586.388927
978.960974,592.164754,459.657299,10584.944971
978.961303,-1406.391290,919.314598,11029.068536
978.961633,-2886.803174,2451.505594,11325.150913
978.961962,-2812.782580,3524.039291,11769.274478
978.962292,-1850.514855,2834.553343,11473.192101
978.962621,-740.205942,1225.752797,9918.759623
978.962951,74.020594,-1149.143247,8512.368333
978.963280,1554.432478,-2221.676944,7476.080014
978.963610,2368.659014,-2221.676944,7846.182985
978.963939,1924.535449,-766.095498,9548.656652
978.964269,-518.144159,383.047749,11103.089130
978.964598,-3552.988522,766.095498,11769.274478
978.964928,-5107.421000,2528.115143,12139.377449
978.965257,-4145.153275,2298.286494,11843.295072
978.965587,-3256.906145,459.657299,10436.903782
978.965916,-2368.659014,-1225.752797,8586.388927
978.966246,-1554.432478,-2298.286494,7105.977043
978.966575,-518.144159,-2451.505594,6661.853478
978.966905,666.185348,-919.314598,7772.162391
978.967234,-296.082377,0.000000,9252.574275
978.967564,-1776.494261,995.924147,10510.924376
978.967893,-3627.009116,1762.019645,11103.089130
978.968223,-3849.070898,2834.553343,11399.171507
978.968552,-2664.741391,3140.991542,11103.089130
978.968882,-1332.370696,1072.533697,10140.821405
978.969212,-814.226536,-383.047749,9104.533087
978.969541,0.000000,-919.314598,8142.265362
978.969871,1258.350101,-459.657299,7994.224174
978.970200,2072.576638,306.438199,8808.450710
978.970530,1110.308913,842.705048,9844.739029
978.970859,-1332.370696,1685.410096,10362.883188
978.971189,-3182.885551,2451.505594,10066.800811
978.971518,-3330.926739,3907.087040,9844.739029
978.971848,-1850.514855,3447.429741,10066.800811
978.972177,-1184.329507,2145.067394,8586.388927
978.972507,-592.164754,-153.219100,7550.100608
978.972836,0.000000,-383.047749,6883.915261
978.973166,1332.370696,459.657299,7624.121203
978.973495,1406.391290,1225.752797,9252.574275
978.973825,0.000000,1532.190996,10807.006753
978.974154,-2738.761985,2221.676944,12213.398043
978.974484,-4515.256246,3217.601092,12065.356855
978.974813,-3997.112087,3447.429741,11843.295072
978.975143,-2368.659014,2528.115143,11325.150913
978.975472,-592.164754,995.924147,9252.574275
978.975802,518.144159,-306.438199,7402.059420
978.976131,2146.597232,-766.095498,5921.647536
978.976461,3552.988522,76.609550,6883.915261
978.976790,3256.906145,1302.362347,8290.306550
978.977120,1036.288319,2221.676944,9844.739029
978.977449,-1702.473667,3447.429741,10584.944971
978.977779,-3330.926739,4596.572988,10658.965565
978.978109,-2368.659014,3830.477490,10658.965565
978.978439,-1776.494261,1991.848295,9918.759623
978.978768,-1776.494261,-306.438199,8586.388927
978.979098,-1480.411884,-1532.190996,8142.265362
978.979427,-370.102971,-1302.362347,7328.038826
978.979757,444.123565,-306.438199,8586.388927
978.980086,-296.082377,459.657299,9474.636058
978.980416,-1850.514855,842.705048,10584.944971
978.980745,-2664.741391,1915.238745,10584.944971
978.981075,-2812.782580,2528.115143,11177.109724
978.981404,-2368.659014,2528.115143,11251.130318
978.981734,-2146.597232,1608.800546,9918.759623
978.982063,-1628.453072,-842.705048,8882.471304
978.982393,-370.102971,-1685.410096,7920.203579
978.982722,1406.391290,-1608.800546,7698.141797
978.983052,1406.391290,-766.095498,8882.471304
978.983381,0.000000,-306.438199,10140.821405
978.983711,-2146.597232,612.876398,11399.171507
978.984040,-3627.009116,2298.286494,11843.295072
978.984370,-2960.823768,2987.772442,11991.336260
978.984699,-2220.617826,1838.629195,10510.924376
978.985029,-1258.350101,229.828649,9178.553681
978.985358,-148.041188,-1608.800546,7624.121203
978.985688,814.226536,-1608.800546,6809.894666
978.986017,2072.576638,153.219100,7402.059420
978.986347,1776.494261,76.609550,8660.409521
978.986676,-592.164754,919.314598,10214.842000
978.987006,-2812.782580,1225.752797,11325.150913
978.987335,-4293.194464,1302.362347,11769.274478
978.987665,-3627.009116,2145.067394,12287.418637
978.987994,-2886.803174,1532.190996,11843.295072
978.988324,-2294.638420,-229.828649,10288.862594
978.988653,-1850.514855,-1838.629195,8364.327145
978.988983,444.123565,-1762.019645,7476.080014
978.989312,2368.659014,-842.705048,7994.224174
978.989642,2294.638420,1072.533697,8364.327145
978.989971,0.000000,2145.067394,9104.533087
978.990301,-2220.617826,3677.258390,9030.512492
978.990630,-2812.782580,4060.306139,8586.388927
978.990960,-2294.638420,3370.820191,9918.759623
978.991289,-1924.535449,2451.505594,9992.780217
978.991619,-2368.659014,995.924147,9400.615463
978.991948,-2294.638420,-689.485948,8216.285956
978.992278,0.000000,-1225.752797,8216.285956
978.992607,1258.350101,-919.314598,9178.553681
978.992937,444.123565,-459.657299,10436.903782
978.993266,-962.267725,536.266849,11399.171507
978.993596,-3256.906145,3677.258390,11769.274478
978.993925,-3552.988522,4903.011187,11769.274478
978.994255,-2072.576638,3600.648841,11177.109724
978.994585,-222.061783,2374.896044,9326.594869
978.994914,1480.411884,459.657299,6735.874072
978.995244,2220.617826,-1455.581446,5329.482782
978.995573,3404.947333,-383.047749,6587.832884
978.995903,2442.679609,1378.971896,8808.450710
978.996232,222.061783,2298.286494,10658.965565
978.996562,-2664.741391,3217.601092,11695.253884
978.996891,-4219.173869,4213.525239,12065.356855
978.997221,-4589.276840,3983.696590,11843.295072
978.997550,-3775.050304,2374.896044,11103.089130
978.997880,-2886.803174,612.876398,9548.656652
978.998209,-1776.494261,-1302.362347,7994.224174
978.998539,-518.144159,-1608.800546,6883.915261
978.998868,1036.288319,-459.657299,6735.874072
978.999198,1258.350101,459.657299,7328.038826
978.999527,888.247130,459.657299,8734.430116
978.999857,-740.205942,1915.238745,9474.636058
979.000186,-1554.432478,4596.572988,10214.842000
979.000516,-1110.308913,3907.087040,11251.130318
979.000845,-814.226536,2451.505594,11325.150913
979.001175,-1036.288319,1378.971896,10288.862594
979.001504,0.000000,-689.485948,8808.450710
979.001834,1184.329507,-1915.238745,8438.347739
979.002163,1924.535449,-1149.143247,9474.636058
979.002493,444.123565,-459.657299,10214.842000
979.002822,-1554.432478,0.000000,10510.924376
979.003152,-3034.844362,842.705048,10584.944971
979.003481,-3627.009116,2374.896044,10584.944971
979.003811,-2442.679609,2681.334243,10288.862594
979.004140,-1702.473667,1149.143247,9474.636058
979.004470,-1110.308913,-612.876398,8142.265362
979.004799,-740.205942,-1532.190996,6587.832884
979.005129,444.123565,-1302.362347,7254.018232
979.005458,1406.391290,-459.657299,9548.656652
979.005788,-296.082377,0.000000,11177.109724
979.006117,-2812.782580,459.657299,11769.274478
979.006447,-4737.318029,1302.362347,12065.356855
979.006776,-4293.194464,2145.067394,12583.501014
979.007106,-2960.823768,2145.067394,12139.377449
979.007435,-1924.535449,536.266849,9770.718434
979.007765,-370.102971,-1302.362347,7846.182985
979.008094,1036.288319,-1685.410096,6809.894666
979.008424,2368.659014,-919.314598,7179.997637
979.008753,2072.576638,919.314598,8068.244768
979.009083,370.102971,1838.629195,9252.574275
979.009412,-2146.597232,1915.238745,9992.780217
979.009742,-3701.029710,2604.724693,10066.800811
979.010071,-3404.947333,2834.553343,10288.862594
979.010401,-2146.597232,1838.629195,10214.842000
979.010731,-1998.556043,612.876398,8808.450710
979.011060,-1998.556043,-689.485948,7624.121203
979.011390,-370.102971,-1149.143247,7550.100608
979.011719,1036.288319,-842.705048,8734.430116
979.012049,814.226536,766.095498,10288.862594
979.012378,-1036.288319,1685.410096,10881.027347
979.012708,-3182.885551,2221.676944,11325.150913
979.013037,-3923.091493,3753.867940,11843.295072
979.013367,-3182.885551,3677.258390,11843.295072
979.013696,-1628.453072,1991.848295,10140.821405
979.014026,-666.185348,0.000000,7994.224174
979.014355,1110.308913,-1225.752797,6735.874072
979.014685,2368.659014,-612.876398,7105.977043
979.015014,2812.782580,153.219100,8512.368333
979.015344,1480.411884,1838.629195,9844.739029
979.015673,-444.123565,3294.210641,10584.944971
979.016003,-2442.679609,3753.867940,10955.047942
979.016332,-2368.659014,3983.696590,11103.089130
979.016662,-1554.432478,2987.772442,10584.944971
979.016991,-962.267725,1685.410096,9104.533087
979.017321,-888.247130,-306.438199,7698.141797
979.017650,74.020594,-1378.971896,7328.038826
979.017980,962.267725,-306.438199,7254.018232
979.018309,1628.453072,612.876398,8734.430116
979.018639,592.164754,1225.752797,9696.697840
979.018968,-1628.453072,1378.971896,10658.965565
979.019298,-3256.906145,3064.381992,11251.130318
979.019627,-3182.885551,4443.353888,11177.109724
979.019957,-2516.700203,3217.601092,11325.150913
979.020286,-1702.473667,1149.143247,9992.780217
979.020616,-666.185348,-536.266849,7920.203579
979.020945,962.267725,-2068.457845,6513.812290
979.021275,2442.679609,-2451.505594,6809.894666
979.021604,1998.556043,0.000000,8882.471304
979.021934,-148.041188,1225.752797,10362.883188
979.022263,-2664.741391,1915.238745,10658.965565
979.022593,-3849.070898,3677.258390,10584.944971
979.022922,-3108.864956,3370.820191,10362.883188
979.023252,-888.247130,1685.410096,10214.842000
979.023581,-1184.329507,-536.266849,8512.368333
979.023911,-1184.329507,-1302.362347,7179.997637
979.024240,-592.164754,-1685.410096,7476.080014
979.024570,-370.102971,-1532.190996,8956.491898
979.024899,-2072.576638,-153.219100,10955.047942
979.025229,-4737.318029,-229.828649,11843.295072
979.025558,-6291.750507,383.047749,12139.377449
979.025888,-5995.668130,1378.971896,12509.480420
979.026217,-4293.194464,1378.971896,11843.295072
979.026547,-2738.761985,229.828649,9696.697840
979.026877,-1998.556043,-842.705048,7624.121203
979.027206,-1036.288319,-919.314598,5921.647536
979.027536,518.144159,-842.705048,5773.606348
979.027865,1036.288319,-383.047749,8290.306550
979.028195,-518.144159,1455.581446,11103.089130
979.028524,-3552.988522,2604.724693,11621.233289
979.028854,-5403.503377,2145.067394,11473.192101
979.029183,-5551.544565,1991.848295,11621.233289
979.029513,-4515.256246,919.314598,11251.130318
979.029842,-3923.091493,-536.266849,10214.842000
979.030172,-3108.864956,-1915.238745,9474.636058
979.030501,-2368.659014,-995.924147,8586.388927
979.030831,-1184.329507,-153.219100,7698.141797
979.031160,-222.061783,-383.047749,7920.203579
979.031490,444.123565,1072.533697,8364.327145
979.031819,-444.123565,2451.505594,9178.553681
979.032149,-2812.782580,2528.115143,9992.780217
979.032478,-5181.441594,3907.087040,10881.027347
979.032808,-6217.729913,4290.134789,11695.253884
979.033137,-5921.647536,2451.505594,10658.965565
979.033467,-4293.194464,-766.095498,9104.533087
979.033796,-2146.597232,-1302.362347,7994.224174
979.034126,-814.226536,-612.876398,7031.956449
979.034455,0.000000,0.000000,7179.997637
979.034785,296.082377,1762.019645,8660.409521
979.035114,-222.061783,3677.258390,10140.821405
979.035444,-2664.741391,4443.353888,11621.233289
979.035773,-5477.523971,4213.525239,12361.439231
979.036103,-7920.203579,3907.087040,12879.583391
979.036432,-9252.574275,2911.162892,11843.295072
979.036762,-8364.327145,919.314598,9622.677246
979.037091,-5107.421000,-2068.457845,6883.915261
979.037421,-1998.556043,-4060.306139,4885.359217
979.037750,148.041188,-3753.867940,4885.359217
979.038080,1110.308913,-459.657299,5625.565159
979.038409,1258.350101,2911.162892,6957.935855
979.038739,814.226536,6205.373534,8660.409521
979.039068,-296.082377,7354.516781,11029.068536
979.039398,-2664.741391,7048.078582,12435.459826
979.039727,-5847.626942,4979.620737,13175.665768
979.040057,-9178.553681,2834.553343,12953.603985
979.040386,-10807.006753,766.095498,12657.521608
979.040716,-11621.233289,-2451.505594,11695.253884
979.041045,-10436.903782,-4366.744339,10510.924376
979.041375,-7698.141797,-4596.572988,7920.203579
979.041704,-3552.988522,-4366.744339,5403.503377
979.042034,444.123565,-2068.457845,4293.194464
979.042363,3256.906145,919.314598,5847.626942
979.042693,2664.741391,4060.306139,7698.141797
979.043023,592.164754,6894.859482,9918.759623
979.043352,-2072.576638,7890.783629,11695.253884
979.043682,-4737.318029,6435.202183,12731.542202
979.044011,-7254.018232,2374.896044,13027.624579
979.044341,-8882.471304,-1762.019645,12805.562797
979.044670,-9918.759623,-4903.011187,12287.418637
979.045000,-9992.780217,-6435.202183,10732.986159
979.045329,-8734.430116,-5362.668486,8808.450710
979.045659,-6143.709319,-4443.353888,6957.935855
979.045988,-1924.535449,-2374.896044,5847.626942
979.046318,1628.453072,842.705048,6439.791695
979.046647,3034.844362,4290.134789,6809.894666
979.046977,2516.700203,6741.640382,7698.141797
979.047306,518.144159,7431.126331,9178.553681
979.047636,-2590.720797,6665.030833,11621.233289
979.047965,-6217.729913,3294.210641,12879.583391
979.048295,-9622.677246,0.000000,12583.501014
979.048624,-11621.233289,-2681.334243,11621.233289
979.048954,-11621.233289,-5362.668486,10288.862594
979.049283,-9030.512492,-6281.983084,9474.636058
979.049613,-5403.503377,-5132.839837,8216.285956
979.049942,-2294.638420,-2374.896044,6291.750507
979.050272,1332.370696,-229.828649,6069.688724
979.050601,3478.967927,2911.162892,8068.244768
979.050931,3775.050304,7431.126331,9844.739029
979.051260,2516.700203,8810.098227,11177.109724
979.051590,0.000000,6358.592633,13101.645173
979.051919,-2960.823768,4213.525239,14804.118840
979.052249,-7105.977043,3217.601092,15026.180623
979.052578,-9474.636058,0.000000,12583.501014
979.052908,-9326.594869,-3370.820191,8660.409521
979.053237,-7105.977043,-5286.058936,5181.441594
979.053567,-3330.926739,-5209.449386,4219.173869
979.053896,-592.164754,-3064.381992,4515.256246
979.054226,962.267725,842.705048,5477.523971
979.054555,666.185348,5439.278036,6513.812290
979.054885,-370.102971,8503.660028,8364.327145
979.055214,-1406.391290,9806.022374,10732.986159
979.055544,-3701.029710,8197.221829,11917.315666
979.055873,-5625.565159,4519.963438,13397.727550
979.056203,-7624.121203,1991.848295,13397.727550
979.056532,-8956.491898,0.000000,13397.727550
979.056862,-9918.759623,-2374.896044,11621.233289
979.057191,-8956.491898,-3600.648841,9474.636058
979.057521,-6069.688724,-2221.676944,7846.182985
979.057850,-2368.659014,0.000000,5699.585753
979.058180,1036.288319,1149.143247,4811.338623
979.058509,2738.761985,3600.648841,5699.585753
979.058839,2072.576638,6818.249932,7550.100608
979.059169,444.123565,7814.174080,9474.636058
979.059498,-1554.432478,6894.859482,10807.006753
979.059828,-3330.926739,5362.668486,11325.150913
979.060157,-4219.173869,2757.943793,11695.253884
979.060487,-4663.297435,0.000000,10881.027347
979.060816,-4367.215058,-1991.848295,9770.718434
979.061146,-3627.009116,-2681.334243,8956.491898
979.061475,-3108.864956,-612.876398,8586.388927
979.061805,-2368.659014,2145.067394,9178.553681
979.062134,-2442.679609,3294.210641,9400.615463
979.062464,-2146.597232,4596.572988,9770.718434
979.062793,-1406.391290,6205.373534,10436.903782
979.063123,-1554.432478,6511.811733,10955.047942
979.063452,-1184.329507,4749.792088,10584.944971
979.063782,-1702.473667,3294.210641,11177.109724
979.064111,-1702.473667,2145.067394,10362.883188
979.064441,-1924.535449,1378.971896,9326.594869
979.064770,-1776.494261,995.924147,8956.491898
979.065100,-1258.350101,1991.848295,8882.471304
979.065429,-222.061783,2834.553343,9622.677246
979.065759,-74.020594,5056.230287,10140.821405
979.066088,-888.247130,6971.469032,9918.759623
979.066418,-1332.370696,7124.688131,9474.636058
979.066747,-1406.391290,6741.640382,8882.471304
979.067077,-1924.535449,6435.202183,8882.471304
979.067406,-1258.350101,4443.353888,7550.100608
979.067736,-518.144159,2451.505594,6513.812290
979.068065,-296.082377,1225.752797,5995.668130
979.068395,-888.247130,383.047749,6291.750507
979.068724,-1628.453072,1685.410096,7994.224174
979.069054,-2664.741391,3677.258390,8660.409521
979.069383,-2886.803174,5209.449386,9770.718434
979.069713,-3108.864956,6818.249932,10732.986159
979.070042,-2442.679609,6971.469032,10881.027347
979.070372,-1332.370696,5975.544884,10510.924376
979.070701,-740.205942,5362.668486,9770.718434
979.071031,-888.247130,4519.963438,9474.636058
979.071360,-962.267725,4136.915689,9548.656652
979.071690,-1332.370696,3064.381992,9326.594869
979.072019,-814.226536,2987.772442,9400.615463
979.072349,-296.082377,2451.505594,9030.512492
979.072678,0.000000,2911.162892,9770.718434
979.073008,0.000000,2911.162892,10214.842000
979.073337,-1036.288319,3907.087040,10881.027347
979.073667,-1554.432478,5898.935335,11621.233289
979.073996,-1258.350101,6128.763984,11399.171507
979.074326,-814.226536,4979.620737,11547.212695
979.074655,-740.205942,4749.792088,11029.068536
979.074985,-814.226536,4290.134789,9992.780217
979.075314,-592.164754,4290.134789,9474.636058
979.075644,-296.082377,4519.963438,8956.491898
979.075974,148.041188,4979.620737,8956.491898
979.076303,74.020594,4060.306139,7624.121203
979.076633,0.000000,3064.381992,6439.791695
979.076962,148.041188,2145.067394,6217.729913
979.077292,-296.082377,1685.410096,6883.915261
979.077621,-1776.494261,2145.067394,8882.471304
979.077951,-3108.864956,3064.381992,9696.697840
979.078280,-3404.947333,3447.429741,10881.027347
979.078610,-2960.823768,3983.696590,11547.212695
979.078939,-1998.556043,4903.011187,11547.212695
979.079269,-1924.535449,4673.182538,10732.986159
979.079598,-1036.288319,5286.058936,9918.759623
979.079928,-296.082377,6052.154434,9622.677246
979.080257,296.082377,5822.325785,9400.615463
979.080587,0.000000,5286.058936,8364.327145
979.080916,-1110.308913,4443.353888,6957.935855
979.081246,-962.267725,2911.162892,6291.750507
979.081575,-1332.370696,919.314598,6365.771101
979.081905,-1258.350101,229.828649,6809.894666
979.082234,-1480.411884,-383.047749,7846.182985
979.082564,-1924.535449,153.219100,9178.553681
979.082893,-1776.494261,1685.410096,10955.047942
979.083223,-1406.391290,3140.991542,12509.480420
979.083552,-1036.288319,4749.792088,13397.727550
979.083882,-814.226536,6281.983084,13693.809927
979.084212,-444.123565,7660.954980,13323.706956
979.084541,-370.102971,6741.640382,11769.274478
979.084871,222.061783,4673.182538,10732.986159
979.085200,0.000000,4136.915689,10066.800811
979.085530,-962.267725,3830.477490,9548.656652
979.085860,-2368.659014,3447.429741,8216.285956
979.086189,-2368.659014,2451.505594,7476.080014
979.086519,-2368.659014,1302.362347,7105.977043
979.086848,-1850.514855,842.705048,7254.018232
979.087178,-962.267725,1302.362347,7920.203579
979.087508,-814.226536,1685.410096,8882.471304
979.087837,-592.164754,2451.505594,9474.636058
979.088167,-2146.597232,4826.401637,10510.924376
979.088496,-2220.617826,6435.202183,11695.253884
979.088826,-1554.432478,7048.078582,12509.480420
979.089155,-1258.350101,6818.249932,11621.233289
979.089485,-1110.308913,6588.421283,9696.697840
979.089815,-1480.411884,4826.401637,7105.977043
979.090144,-148.041188,3370.820191,4811.338623
979.090474,1628.453072,1608.800546,3478.967927
979.090803,2886.803174,919.314598,3997.112087
979.091133,2738.761985,1149.143247,5181.441594
979.091463,1036.288319,1685.410096,6735.874072
979.091792,-1110.308913,2604.724693,9104.533087
979.092122,-3701.029710,3830.477490,11473.192101
979.092451,-5033.400406,4443.353888,13989.892304
979.092781,-5329.482782,4060.306139,15618.345376
979.093111,-5847.626942,4213.525239,14878.139434
979.093440,-5551.544565,2987.772442,13027.624579
979.093770,-4441.235652,1915.238745,9622.677246
979.094099,-1480.411884,383.047749,6439.791695
979.094429,2368.659014,-612.876398,5107.421000
979.094759,4885.359217,-229.828649,5181.441594
979.095088,5033.400406,1532.190996,5625.565159
979.095418,3478.967927,1225.752797,6587.832884
979.095747,1036.288319,1915.238745,9992.780217
979.096077,-2516.700203,4749.792088,14063.912898
979.096406,-4737.318029,6052.154434,17320.819043
979.096736,-5847.626942,3600.648841,16876.695478
979.097066,-6143.709319,1455.581446,14137.933492
979.097395,-4737.318029,-995.924147,10362.883188
979.097725,-1332.370696,-3907.087040,7476.080014
979.098054,1184.329507,-4290.134789,5403.503377
979.098384,2146.597232,-1762.019645,4441.235652
979.098714,2220.617826,306.438199,4811.338623
979.099043,2294.638420,1072.533697,6069.688724
979.099373,888.247130,2451.505594,8364.327145
979.099702,-1258.350101,3677.258390,10807.006753
979.100032,-3627.009116,3217.601092,12213.398043
979.100362,-4811.338623,2451.505594,12805.562797
979.100691,-4589.276840,459.657299,12953.603985
979.101021,-3182.885551,-1915.238745,12731.542202
979.101350,-1850.514855,-2451.505594,10881.027347
979.101680,-592.164754,-1915.238745,8364.327145
979.102010,962.267725,-1149.143247,6661.853478
979.102339,1406.391290,153.219100,6883.915261
979.102669,1702.473667,1532.190996,7994.224174
979.102998,740.205942,2451.505594,7846.182985
979.103328,-888.247130,2451.505594,7476.080014
979.103658,-1258.350101,1915.238745,8364.327145
979.103987,-1628.453072,-612.876398,10436.903782
979.104317,-2220.617826,-1149.143247,11843.295072
979.104646,-2664.741391,-842.705048,12139.377449
979.104976,-2738.761985,-229.828649,11769.274478
979.105305,-1702.473667,-383.047749,11177.109724
979.105635,-666.185348,459.657299,10732.986159
979.105965,-740.205942,1302.362347,10436.903782
979.106294,-962.267725,3064.381992,9326.594869
979.106624,-740.205942,2681.334243,7994.224174
979.106953,0.000000,1302.362347,7179.997637
979.107283,518.144159,1149.143247,8142.265362
979.107613,74.020594,229.828649,8956.491898
979.107942,-444.123565,612.876398,9548.656652
979.108272,-962.267725,1685.410096,10066.800811
979.108601,-1036.288319,2528.115143,11547.212695
979.108931,-1036.288319,3370.820191,12731.542202
979.109261,-2146.597232,4136.915689,12139.377449
979.109590,-2146.597232,3983.696590,10436.903782
979.109920,-1332.370696,2451.505594,8290.306550
979.110249,-370.102971,1762.019645,6883.915261
979.110579,666.185348,153.219100,6365.771101
979.110909,592.164754,-306.438199,6069.688724
979.111238,-444.123565,1149.143247,6217.729913
979.111568,-1258.350101,1991.848295,7476.080014
979.111897,-1554.432478,2068.457845,9770.718434
979.112227,-2146.597232,2834.553343,11917.315666
979.112556,-3701.029710,4213.525239,11843.295072
979.112886,-4219.173869,3830.477490,11399.171507
979.113216,-3034.844362,2528.115143,10066.800811
979.113545,-888.247130,1149.143247,9622.677246
979.113875,518.144159,536.266849,8882.471304
979.114204,1406.391290,459.657299,7698.141797
979.114534,1110.308913,383.047749,6957.935855
979.114864,1258.350101,1149.143247,7624.121203
979.115193,518.144159,1685.410096,9104.533087
979.115523,-666.185348,2451.505594,10732.986159
979.115852,-1776.494261,2451.505594,10955.047942
979.116182,-1924.535449,1608.800546,9992.780217
979.116512,-2146.597232,612.876398,9474.636058
979.116841,-1554.432478,-459.657299,9918.759623
979.117171,-740.205942,-1838.629195,10584.944971
979.117500,-666.185348,-842.705048,10140.821405
979.117830,-1110.308913,153.219100,8734.430116
979.118160,-1406.391290,0.000000,8882.471304
979.118489,-1258.350101,-306.438199,10066.800811
979.118819,-1628.453072,536.266849,11251.130318
979.119148,-2442.679609,1225.752797,10436.903782
979.119478,-1924.535449,459.657299,9326.594869
979.119808,-1184.329507,-612.876398,9178.553681
979.120137,-740.205942,-1838.629195,9548.656652
979.120467,0.000000,-2221.676944,10362.883188
979.120796,74.020594,-1072.533697,10288.862594
979.121126,222.061783,0.000000,9548.656652
979.121455,222.061783,536.266849,10288.862594
979.121785,-296.082377,306.438199,11251.130318
979.122115,-740.205942,995.924147,11621.233289
979.122444,-1110.308913,1378.971896,10066.800811
979.122774,-1258.350101,0.000000,7920.203579
979.123103,-888.247130,-1225.752797,7624.121203
979.123433,-370.102971,-1915.238745,7476.080014
979.123763,0.000000,-2221.676944,7994.224174
979.124092,-370.102971,-306.438199,8512.368333
979.124422,-888.247130,842.705048,9104.533087
979.124751,-1184.329507,689.485948,10584.944971
979.125081,-2294.638420,1455.581446,12509.480420
979.125411,-3997.112087,2757.943793,12509.480420
979.125740,-3923.091493,3064.381992,11029.068536
979.126070,-2516.700203,1455.581446,9474.636058
979.126399,-1110.308913,-459.657299,8216.285956
979.126729,592.164754,-1455.581446,8216.285956
979.127059,740.205942,-612.876398,8216.285956
979.127388,592.164754,1608.800546,7994.224174
979.127718,296.082377,2068.457845,8290.306550
979.128047,444.123565,2145.067394,9844.739029
979.128377,-592.164754,3524.039291,11843.295072
979.128706,-1776.494261,4366.744339,11917.315666
979.129036,-1776.494261,3983.696590,10214.842000
979.129366,-1184.329507,2451.505594,8734.430116
979.129695,0.000000,689.485948,8364.327145
979.130025,592.164754,459.657299,8734.430116
979.130354,666.185348,766.095498,8216.285956
979.130684,0.000000,1915.238745,7179.997637
979.131014,-444.123565,2298.286494,7772.162391
979.131343,-1110.308913,2757.943793,9622.677246
979.131673,-2368.659014,3294.210641,10955.047942
979.132002,-3256.906145,3907.087040,10955.047942
979.132332,-3404.947333,3600.648841,9104.533087
979.132662,-2812.782580,2145.067394,8364.327145
979.132991,-1628.453072,536.266849,8586.388927
979.133321,-518.144159,-612.876398,9104.533087
979.133650,0.000000,995.924147,9178.553681
979.133980,-296.082377,2604.724693,8586.388927
979.134310,-370.102971,2145.067394,8512.368333
979.134639,-222.061783,1455.581446,9770.718434
979.134969,-1110.308913,2145.067394,11029.068536
979.135298,-1554.432478,3677.258390,10066.800811
979.135628,-1480.411884,2221.676944,8734.430116
979.135957,-814.226536,76.609550,7846.182985
979.136287,370.102971,-2221.676944,8290.306550
979.136617,740.205942,-2604.724693,8660.409521
979.136946,370.102971,-1685.410096,8512.368333
979.137276,592.164754,-153.219100,9474.636058
979.137605,-592.164754,459.657299,10732.986159
979.137935,-1554.432478,1149.143247,12435.459826
979.138265,-2442.679609,1072.533697,12953.603985
979.138594,-2590.720797,1455.581446,11399.171507
979.138924,-2146.597232,459.657299,9622.677246
979.139253,-1554.432478,-2145.067394,9104.533087
979.139583,-370.102971,-3907.087040,9548.656652
979.139913,-370.102971,-3217.601092,9474.636058
979.140242,-962.267725,-995.924147,8808.450710
979.140572,-888.247130,-153.219100,9178.553681
979.140901,-666.185348,-766.095498,10732.986159
979.141231,-1184.329507,-229.828649,11769.274478
979.141561,-2146.597232,459.657299,11621.233289
979.141890,-2072.576638,153.219100,10288.862594
979.142220,-1184.329507,0.000000,8882.471304
979.142549,0.000000,-1991.848295,8512.368333
979.142879,592.164754,-3370.820191,8882.471304
979.143209,370.102971,-2374.896044,8882.471304
979.143538,74.020594,-153.219100,8882.471304
979.143868,0.000000,1225.752797,9252.574275
979.144197,-592.164754,612.876398,10066.800811
979.144527,-1776.494261,1072.533697,11103.089130
979.144856,-2590.720797,2145.067394,10807.006753
979.145186,-2294.638420,1762.019645,9104.533087
979.145516,-1110.308913,842.705048,8216.285956
979.145845,-296.082377,-766.095498,7846.182985
979.146175,0.000000,-1532.190996,8660.409521
979.146504,-296.082377,-153.219100,8956.491898
979.146834,-370.102971,1685.410096,8882.471304
979.147164,-444.123565,2068.457845,9326.594869
979.147493,-1258.350101,1991.848295,9918.759623
979.147823,-1850.514855,2834.553343,10955.047942
979.148152,-1924.535449,3140.991542,10214.842000
979.148482,-1184.329507,2604.724693,9178.553681
979.148812,-222.061783,2298.286494,8142.265362
979.149141,148.041188,995.924147,8216.285956
979.149471,1258.350101,612.876398,8660.409521
979.149800,740.205942,1302.362347,8882.471304
979.150130,0.000000,2681.334243,8882.471304
979.150460,-740.205942,3064.381992,9844.739029
979.150789,-1924.535449,3600.648841,11621.233289
979.151119,-3182.885551,3600.648841,11769.274478
979.151448,-3182.885551,3294.210641,10658.965565
979.151778,-2146.597232,2528.115143,8734.430116
979.152107,-1110.308913,1302.362347,8216.285956
979.152437,-222.061783,229.828649,8512.368333
979.152767,0.000000,995.924147,8364.327145
979.153096,0.000000,1915.238745,7994.224174
979.153426,0.000000,2298.286494,8734.430116
979.153755,-814.226536,3217.601092,10214.842000
979.154085,-2220.617826,3753.867940,11029.068536
979.154415,-2960.823768,2834.553343,9844.739029
979.154744,-1924.535449,1455.581446,8882.471304
979.155074,-1184.329507,306.438199,7772.162391
979.155403,0.000000,-459.657299,7846.182985
979.155733,592.164754,-1532.190996,8142.265362
979.156063,296.082377,-995.924147,7846.182985
979.156392,444.123565,229.828649,7920.203579
979.156722,148.041188,1225.752797,9548.656652
979.157051,-518.144159,1762.019645,11547.212695
979.157381,-1702.473667,1915.238745,12065.356855
979.157711,-2442.679609,1532.190996,11029.068536
979.158040,-2072.576638,0.000000,9030.512492
979.158370,-666.185348,-1455.581446,8734.430116
979.158699,0.000000,-2834.553343,9770.718434
979.159029,-370.102971,-2451.505594,9992.780217
979.159359,-1184.329507,-1302.362347,9622.677246
979.159688,-814.226536,-1302.362347,9104.533087
979.160018,-814.226536,-919.314598,10807.006753
979.160347,-1554.432478,0.000000,11991.336260
979.160677,-2664.741391,995.924147,11843.295072
979.161006,-2738.761985,0.000000,10510.924376
979.161336,-1554.432478,-1072.533697,9400.615463
979.161666,-592.164754,-1762.019645,9252.574275
979.161995,518.144159,-2298.286494,9548.656652
979.162325,666.185348,-2221.676944,9030.512492
979.162654,444.123565,-689.485948,8808.450710
979.162984,370.102971,383.047749,9474.636058
979.163314,740.205942,842.705048,11473.192101
979.163643,-1036.288319,1608.800546,12213.398043
979.163973,-2664.741391,2374.896044,11473.192101
979.164302,-3182.885551,1455.581446,9326.594869
979.164632,-2072.576638,306.438199,8512.368333
979.164962,-518.144159,-1302.362347,8216.285956
979.165291,592.164754,-2145.067394,7846.182985
979.165621,-148.041188,-459.657299,8216.285956
979.165950,-518.144159,1762.019645,8364.327145
979.166280,-296.082377,2221.676944,9400.615463
979.166610,-666.185348,3140.991542,10362.883188
979.166939,-1850.514855,3677.258390,10510.924376
979.167269,-2146.597232,3677.258390,10288.862594
979.167598,-1480.411884,2604.724693,8734.430116
979.167928,-740.205942,1838.629195,8142.265362
979.168257,148.041188,153.219100,8438.347739
979.168587,518.144159,306.438199,8734.430116
979.168917,148.041188,2298.286494,8956.491898
979.169246,-296.082377,2911.162892,8512.368333
979.169576,0.000000,2681.334243,9622.677246
979.169905,-962.267725,3524.039291,10955.047942
979.170235,-2368.659014,5056.230287,11325.150913
979.170565,-3108.864956,5209.449386,10362.883188
979.170894,-2516.700203,3600.648841,8660.409521
979.171224,-1184.329507,2145.067394,7920.203579
979.171553,-296.082377,306.438199,8290.306550
979.171883,0.000000,689.485948,8438.347739
979.172213,-814.226536,2451.505594,7550.100608
979.172542,-740.205942,3140.991542,8068.244768
979.172872,-666.185348,2911.162892,9696.697840
979.173201,-1628.453072,3370.820191,10955.047942
979.173531,-2442.679609,3524.039291,10732.986159
979.173861,-2368.659014,2681.334243,9548.656652
979.174190,-1110.308913,919.314598,8290.306550
979.174520,-444.123565,0.000000,8068.244768
979.174849,518.144159,-1149.143247,8364.327145
979.175179,592.164754,-842.705048,8438.347739
979.175508,592.164754,1378.971896,8660.409521
979.175838,0.000000,1149.143247,9030.512492
979.176168,-148.041188,1532.190996,10881.027347
979.176497,-1406.391290,1685.410096,12065.356855
979.176827,-2220.617826,1838.629195,11547.212695
979.177156,-2072.576638,1378.971896,9844.739029
979.177486,-814.226536,-306.438199,8734.430116
979.177816,-296.082377,-2374.896044,9030.512492
979.178145,-148.041188,-2987.772442,9178.553681
979.178475,-666.185348,-1838.629195,9770.718434
979.178804,-1332.370696,229.828649,10214.842000
979.179134,-1184.329507,1608.800546,10955.047942
979.179464,-1776.494261,306.438199,11325.150913
979.179793,-2590.720797,-229.828649,11177.109724
979.180123,-2960.823768,-842.705048,10658.965565
979.180452,-2664.741391,-842.705048,9400.615463
979.180782,-1850.514855,-1302.362347,8808.450710
979.181112,-1184.329507,-2757.943793,8364.327145
979.181441,-740.205942,-3447.429741,8438.347739
979.181771,0.000000,-2221.676944,8956.491898
979.182100,592.164754,76.609550,9104.533087
979.182430,1036.288319,0.000000,9474.636058
979.182760,222.061783,383.047749,11103.089130
979.183089,-1258.350101,995.924147,12139.377449
979.183419,-2294.638420,1991.848295,11843.295072
979.183748,-2220.617826,2374.896044,11103.089130
979.184078,-740.205942,766.095498,9918.759623
979.184407,0.000000,-612.876398,8956.491898
979.184737,888.247130,-1838.629195,8290.306550
979.185067,444.123565,-689.485948,8142.265362
979.185396,222.061783,1149.143247,8660.409521
979.185726,-444.123565,2604.724693,9844.739029
979.186056,-1998.556043,4290.134789,10584.944971
979.186385,-2960.823768,3830.477490,10288.862594
979.186715,-2516.700203,2604.724693,9474.636058
979.187044,-1702.473667,2451.505594,8882.471304
979.187374,-814.226536,1838.629195,8068.244768
979.187704,-222.061783,536.266849,8216.285956
979.188033,74.020594,842.705048,8586.388927
979.188363,-518.144159,2757.943793,8808.450710
979.188692,-666.185348,3830.477490,9474.636058
979.189022,-740.205942,4443.353888,10362.883188
979.189352,-1924.535449,5362.668486,10732.986159
979.189681,-2516.700203,5592.497135,9844.739029
979.190011,-1776.494261,4596.572988,8586.388927
979.190341,-592.164754,3983.696590,7772.162391
979.190670,296.082377,2374.896044,7179.997637
979.191000,740.205942,919.314598,7550.100608
979.191329,370.102971,2068.457845,7994.224174
979.191659,-518.144159,3753.867940,8290.306550
979.191989,-1184.329507,3753.867940,9030.512492
979.192318,-1850.514855,3370.820191,10510.924376
979.192648,-2664.741391,3983.696590,11399.171507
979.192978,-3404.947333,3370.820191,10362.883188
979.193307,-2368.659014,1915.238745,8586.388927
979.193637,-1480.411884,306.438199,7846.182985
979.193966,-148.041188,-766.095498,8438.347739
979.194296,0.000000,-689.485948,8660.409521
979.194626,-518.144159,306.438199,8882.471304
979.194955,-740.205942,1532.190996,9178.553681
979.195285,-592.164754,1608.800546,10436.903782
979.195614,-1406.391290,1762.019645,11917.315666
979.195944,-2442.679609,1455.581446,11843.295072
979.196274,-2516.700203,536.266849,10807.006753
979.196603,-1628.453072,153.219100,9622.677246
979.196933,-370.102971,-1378.971896,9326.594869
979.197263,-148.041188,-2298.286494,9622.677246
979.197592,-148.041188,-2451.505594,9474.636058
979.197922,-740.205942,-995.924147,9400.615463
979.198251,-888.247130,0.000000,9548.656652
979.198581,-740.205942,-919.314598,10510.924376
979.198911,-1480.411884,-459.657299,10807.006753
979.199240,-2442.679609,-306.438199,10436.903782
979.199570,-2664.741391,-1225.752797,9696.697840
979.199899,-2368.659014,-1685.410096,9252.574275
979.200229,-1332.370696,-2298.286494,9030.512492
979.200559,-1184.329507,-2834.553343,9030.512492
979.200888,-666.185348,-2451.505594,9252.574275
979.201218,148.041188,-995.924147,9474.636058
979.201548,888.247130,-383.047749,9918.759623
979.201877,444.123565,0.000000,10066.800811
979.202207,-1110.308913,536.266849,11029.068536
979.202536,-2368.659014,1455.581446,11695.253884
979.202866,-2664.741391,2068.457845,11251.130318
979.203196,-1850.514855,1072.533697,10066.800811
979.203525,0.000000,-1378.971896,9104.533087
979.203855,592.164754,-2604.724693,8438.347739
979.204185,296.082377,-1302.362347,8808.450710
979.204514,0.000000,995.924147,8734.430116
979.204844,0.000000,1915.238745,9400.615463
979.205173,-1036.288319,2834.553343,10362.883188
979.205503,-1998.556043,3983.696590,10732.986159
979.205833,-2220.617826,3907.087040,10807.006753
979.206162,-1850.514855,2604.724693,8956.491898
979.206492,-888.247130,1685.410096,7550.100608
979.206821,0.000000,0.000000,7994.224174
979.207151,0.000000,153.219100,8882.471304
979.207481,-962.267725,2068.457845,8586.388927
979.207810,-1406.391290,3677.258390,9104.533087
979.208140,-1702.473667,3294.210641,9474.636058
979.208470,-2146.597232,3907.087040,10510.924376
979.208799,-2590.720797,4213.525239,10510.924376
979.209129,-2442.679609,4366.744339,9252.574275
979.209458,-1480.411884,3677.258390,8068.244768
979.209788,-518.144159,2451.505594,7328.038826
979.210118,370.102971,1225.752797,7254.018232
979.210447,444.123565,1455.581446,8290.306550
979.210777,74.020594,3983.696590,8882.471304
979.211107,-296.082377,4749.792088,9326.594869
979.211436,-1036.288319,4290.134789,9696.697840
979.211766,-1628.453072,3677.258390,10066.800811
979.212095,-2072.576638,2834.553343,9918.759623
979.212425,-2146.597232,2757.943793,8882.471304
979.212755,-1702.473667,2298.286494,8660.409521
979.213084,-1258.350101,766.095498,8364.327145
979.213414,-1036.288319,-229.828649,8512.368333
979.213743,-1184.329507,-229.828649,8808.450710
979.214073,-1184.329507,919.314598,9104.533087
979.214403,-1184.329507,1838.629195,9696.697840
979.214732,-1776.494261,1991.848295,10362.883188
979.215062,-2368.659014,1455.581446,10732.986159
979.215392,-2368.659014,995.924147,10955.047942
979.215721,-1554.432478,919.314598,10288.862594
979.216051,-592.164754,536.266849,9178.553681
979.216380,74.020594,-766.095498,8586.388927
979.216710,222.061783,-1838.629195,8956.491898
979.217040,370.102971,-1455.581446,9400.615463
979.217369,370.102971,0.000000,10214.842000
979.217699,0.000000,383.047749,10881.027347
979.218029,-1332.370696,0.000000,11029.068536
979.218358,-2368.659014,-153.219100,10732.986159
979.218688,-2368.659014,-1608.800546,10140.821405
979.219017,-1628.453072,-2221.676944,9622.677246
979.219347,-888.247130,-2221.676944,9104.533087
979.219677,-666.185348,-2757.943793,8660.409521
979.220006,-1036.288319,-2681.334243,8660.409521
979.220336,-814.226536,-1991.848295,9622.677246
979.220665,-592.164754,-383.047749,10807.006753
979.220995,-888.247130,229.828649,11695.253884
979.221325,-2220.617826,919.314598,11695.253884
979.221654,-3256.906145,229.828649,10955.047942
979.221984,-3182.885551,-1608.800546,10288.862594
979.222314,-1776.494261,-1762.019645,9992.780217
979.222643,-1036.288319,-1991.848295,9178.553681
979.222973,-740.205942,-2221.676944,8734.430116
979.223302,-222.061783,-1991.848295,8586.388927
979.223632,-518.144159,0.000000,9252.574275
979.223962,-370.102971,1378.971896,10140.821405
979.224291,-592.164754,2068.457845,10214.842000
979.224621,-1998.556043,2681.334243,10214.842000
979.224951,-1332.370696,2298.286494,9622.677246
979.225280,-1332.370696,459.657299,8734.430116
979.225610,-222.061783,229.828649,8364.327145
979.225939,148.041188,0.000000,8142.265362
979.226269,74.020594,153.219100,8586.388927
979.226599,-370.102971,1302.362347,9030.512492
979.226928,-666.185348,2221.676944,9992.780217
979.227258,-962.267725,3140.991542,10881.027347
979.227587,-1924.535449,4366.744339,11103.089130
979.227917,-2738.761985,4673.182538,10807.006753
979.228247,-2368.659014,3524.039291,9252.574275
979.228576,-1480.411884,2987.772442,8808.450710
979.228906,-518.144159,2145.067394,8068.244768
979.229236,0.000000,2068.457845,7698.141797
979.229565,-148.041188,2221.676944,7772.162391
979.229895,0.000000,3294.210641,8216.285956
979.230224,-666.185348,3983.696590,8290.306550
979.230554,-962.267725,3677.258390,9548.656652
979.230884,-2072.576638,3907.087040,9918.759623
979.231213,-2516.700203,4136.915689,9770.718434
979.231543,-2294.638420,2987.772442,8808.450710
979.231873,-1258.350101,1762.019645,7772.162391
979.232202,-222.061783,766.095498,8068.244768
979.232532,370.102971,612.876398,8660.409521
979.232861,0.000000,1378.971896,8512.368333
979.233191,-518.144159,2451.505594,8586.388927
979.233521,-148.041188,1685.410096,9252.574275
979.233850,-444.123565,2451.505594,10436.903782
979.234180,-2072.576638,3064.381992,11399.171507
979.234509,-2738.761985,2374.896044,11029.068536
979.234839,-2664.741391,1149.143247,9622.677246
