#time,accel_x,accel_y,accel_z
998.689125,-1036.288319,919.314598,9696.697840
998.689455,-962.267725,842.705048,9400.615463
998.689784,-1036.288319,919.314598,9400.615463
998.690113,-962.267725,1455.581446,9770.718434
998.690443,-1110.308913,919.314598,9400.615463
998.690772,-1036.288319,689.485948,9474.636058
998.691102,-962.267725,919.314598,9474.636058
998.691431,-1036.288319,842.705048,9474.636058
998.691761,-1036.288319,919.314598,9548.656652
998.692090,-1036.288319,536.266849,9252.574275
998.692420,-1184.329507,919.314598,9474.636058
998.692749,-1036.288319,766.095498,9622.677246
998.693079,-1036.288319,766.095498,9622.677246
998.693408,-962.267725,842.705048,9844.739029
998.693738,-1036.288319,766.095498,9326.594869
998.694067,-962.267725,536.266849,9474.636058
998.694397,-1110.308913,689.485948,9548.656652
998.694726,-1110.308913,842.705048,9770.718434
998.695055,-962.267725,766.095498,9696.697840
998.695385,-888.247130,919.314598,9622.677246
998.695714,-1110.308913,919.314598,9474.636058
998.696044,-740.205942,842.705048,9696.697840
998.696373,-962.267725,766.095498,9696.697840
998.696703,-1110.308913,995.924147,9474.636058
998.697032,-962.267725,766.095498,9622.677246
998.697362,-962.267725,1225.752797,9474.636058
998.697691,-1036.288319,1072.533697,9548.656652
998.698021,-962.267725,612.876398,9622.677246
998.698350,-1110.308913,1149.143247,9474.636058
998.698680,-1110.308913,1072.533697,9548.656652
998.699009,-1184.329507,1149.143247,9474.636058
998.699339,-1110.308913,766.095498,9400.615463
998.699668,-888.247130,919.314598,9548.656652
998.699997,-1036.288319,842.705048,9474.636058
998.700327,-1036.288319,919.314598,9474.636058
998.700656,-1480.411884,1302.362347,9252.574275
998.700986,-1110.308913,1302.362347,9400.615463
998.701315,-888.247130,766.095498,9474.636058
998.701645,-740.205942,1072.533697,9548.656652
998.701974,-1110.308913,842.705048,9474.636058
998.702304,-1036.288319,919.314598,9326.594869
998.702633,-888.247130,766.095498,9474.636058
998.702963,-1110.308913,689.485948,9548.656652
998.703292,-1110.308913,995.924147,9548.656652
998.703622,-1184.329507,995.924147,9548.656652
998.703951,-1036.288319,689.485948,9548.656652
998.704281,-814.226536,1532.190996,9474.636058
998.704610,-1036.288319,842.705048,9548.656652
998.704939,-962.267725,919.314598,9622.677246
998.705269,-962.267725,919.314598,9696.697840
998.705598,-1036.288319,919.314598,9622.677246
998.705928,-1110.308913,919.314598,9696.697840
998.706257,-814.226536,766.095498,9770.718434
998.706587,-1110.308913,842.705048,9696.697840
998.706916,-1036.288319,919.314598,9548.656652
998.707246,-888.247130,612.876398,9548.656652
998.707575,-962.267725,766.095498,9474.636058
998.707905,-1036.288319,1072.533697,9030.512492
998.708234,-1332.370696,995.924147,9474.636058
998.708564,-888.247130,842.705048,9548.656652
998.708893,-1110.308913,1072.533697,9548.656652
998.709223,-1110.308913,842.705048,9474.636058
998.709552,-592.164754,1302.362347,9770.718434
998.709881,-518.144159,459.657299,9326.594869
998.710211,-370.102971,1072.533697,8808.450710
998.710540,370.102971,612.876398,8956.491898
998.710870,740.205942,842.705048,9030.512492
998.711199,814.226536,536.266849,9030.512492
998.711529,888.247130,383.047749,9474.636058
998.711858,0.000000,1072.533697,10214.842000
998.712188,-814.226536,1455.581446,10140.821405
998.712517,-740.205942,919.314598,10140.821405
998.712847,-296.082377,-153.219100,9770.718434
998.713176,74.020594,-153.219100,9400.615463
998.713506,592.164754,0.000000,9400.615463
998.713835,1628.453072,229.828649,8956.491898
998.714165,2368.659014,689.485948,9104.533087
998.714494,3256.906145,1072.533697,8808.450710
998.714823,3701.029710,1685.410096,9030.512492
998.715153,3775.050304,1915.238745,9474.636058
998.715482,3404.947333,1685.410096,9770.718434
998.715812,2886.803174,1072.533697,10288.862594
998.716141,1998.556043,995.924147,10584.944971
998.716471,1480.411884,919.314598,10362.883188
998.716800,1702.473667,0.000000,11029.068536
998.717130,1702.473667,153.219100,10362.883188
998.717459,2146.597232,-383.047749,9400.615463
998.717789,2886.803174,-306.438199,9178.553681
998.718118,3701.029710,383.047749,9104.533087
998.718448,4515.256246,1225.752797,9252.574275
998.718777,3849.070898,2374.896044,9696.697840
998.719107,3034.844362,2451.505594,10066.800811
998.719436,1480.411884,2911.162892,10214.842000
998.719765,-148.041188,2911.162892,10214.842000
998.720095,-1184.329507,2374.896044,10362.883188
998.720424,-1998.556043,766.095498,9104.533087
998.720754,-666.185348,-536.266849,7994.224174
998.721083,888.247130,-1225.752797,6957.935855
998.721413,2368.659014,-919.314598,6143.709319
998.721742,3849.070898,-689.485948,6365.771101
998.722072,4589.276840,995.924147,7402.059420
998.722401,3627.009116,3370.820191,9548.656652
998.722731,2590.720797,4749.792088,11251.130318
998.723060,1258.350101,4826.401637,11991.336260
998.723390,74.020594,3600.648841,12435.459826
998.723719,-592.164754,1838.629195,11843.295072
998.724049,-1332.370696,-842.705048,11843.295072
998.724378,-1406.391290,-2145.067394,11029.068536
998.724707,-962.267725,-2604.724693,9844.739029
998.725037,222.061783,-2451.505594,8808.450710
998.725366,1850.514855,-2068.457845,7920.203579
998.725696,3775.050304,-689.485948,7550.100608
998.726025,4441.235652,919.314598,7402.059420
998.726355,4515.256246,2451.505594,7846.182985
998.726684,4441.235652,3370.820191,8956.491898
998.727014,4293.194464,4213.525239,9770.718434
998.727343,3108.864956,3830.477490,10362.883188
998.727673,2294.638420,2604.724693,11177.109724
998.728002,1036.288319,995.924147,11103.089130
998.728332,222.061783,0.000000,11029.068536
998.728661,-518.144159,-842.705048,10584.944971
998.728991,-518.144159,-842.705048,10658.965565
998.729320,-592.164754,-1378.971896,9918.759623
998.729649,148.041188,-689.485948,9992.780217
998.729979,1036.288319,0.000000,9252.574275
998.730308,1924.535449,76.609550,8660.409521
998.730638,2516.700203,612.876398,8586.388927
998.730967,3627.009116,766.095498,8660.409521
998.731297,4145.153275,229.828649,8882.471304
998.731626,3552.988522,229.828649,8734.430116
998.731956,3108.864956,1149.143247,9104.533087
998.732285,2738.761985,459.657299,9474.636058
998.732615,2368.659014,1915.238745,9696.697840
998.732944,1184.329507,1991.848295,10214.842000
998.733274,1406.391290,1991.848295,10288.862594
998.733603,1332.370696,2298.286494,10214.842000
998.733933,1628.453072,1991.848295,9326.594869
998.734262,2590.720797,1838.629195,8808.450710
998.734591,2886.803174,76.609550,8290.306550
998.734921,2960.823768,229.828649,8512.368333
998.735250,2072.576638,919.314598,9178.553681
998.735580,888.247130,842.705048,9622.677246
998.735909,296.082377,612.876398,10140.821405
998.736239,0.000000,612.876398,10510.924376
998.736568,0.000000,229.828649,10584.944971
998.736898,370.102971,76.609550,10658.965565
998.737227,148.041188,306.438199,9918.759623
998.737557,740.205942,1149.143247,9252.574275
998.737886,1184.329507,1072.533697,8882.471304
998.738216,2590.720797,1302.362347,8660.409521
998.738545,4515.256246,2145.067394,8438.347739
998.738875,6365.771101,2451.505594,8364.327145
998.739204,7179.997637,2451.505594,8216.285956
998.739533,6735.874072,2757.943793,8808.450710
998.739863,5847.626942,3447.429741,10140.821405
998.740192,3627.009116,2987.772442,11917.315666
998.740522,962.267725,2298.286494,14211.954086
998.740851,-2294.638420,1608.800546,14359.995275
998.741181,-4959.379811,536.266849,13323.706956
998.741510,-6883.915261,-2068.457845,11547.212695
998.741840,-6217.729913,-2068.457845,9548.656652
998.742169,-3552.988522,-2604.724693,6069.688724
998.742499,1406.391290,-3600.648841,2812.782580
998.742828,6883.915261,-3447.429741,1924.535449
998.743158,9918.759623,0.000000,3108.864956
998.743487,10584.944971,4290.134789,5107.421000
998.743817,9696.697840,6665.030833,7698.141797
998.744146,7846.182985,7967.393179,10658.965565
998.744475,4071.132681,8580.269578,14211.954086
998.744805,-1036.288319,6205.373534,17172.777854
998.745134,-6291.750507,2911.162892,17616.901420
998.745464,-9474.636058,76.609550,15692.365970
998.745793,-9474.636058,-3447.429741,13027.624579
998.746123,-6439.791695,-6588.421283,10288.862594
998.746452,-2220.617826,-8656.879127,6291.750507
998.746782,2442.679609,-7354.516781,2072.576638
998.747111,7698.141797,-4596.572988,296.082377
998.747441,11991.336260,-766.095498,2960.823768
998.747770,12213.398043,4136.915689,7328.038826
998.748100,8586.388927,8350.440928,10584.944971
998.748429,2664.741391,10725.336972,12657.521608
998.748758,-1702.473667,9959.241474,15100.201217
998.749088,-2886.803174,5286.058936,16580.613101
998.749417,-3923.091493,76.609550,15544.324782
998.749747,-5033.400406,-4749.792088,11695.253884
998.750076,-4737.318029,-7967.393179,7031.956449
998.750406,-2146.597232,-7967.393179,5995.668130
998.750735,962.267725,-6511.811733,6883.915261
998.751065,1850.514855,-2757.943793,7624.121203
998.751394,1184.329507,1225.752797,7920.203579
998.751724,962.267725,5515.887586,8512.368333
998.752053,1110.308913,7660.954980,10362.883188
998.752383,1258.350101,6971.469032,11473.192101
998.752712,0.000000,3217.601092,11473.192101
998.753042,-1850.514855,229.828649,11177.109724
998.753371,-3478.967927,-536.266849,11325.150913
998.753700,-4441.235652,-2451.505594,10214.842000
998.754030,-4885.359217,-4136.915689,9474.636058
998.754359,-4441.235652,-5209.449386,7402.059420
998.754689,-2220.617826,-4136.915689,6883.915261
998.755018,2146.597232,-1378.971896,7624.121203
998.755348,4737.318029,1838.629195,8438.347739
998.755677,4293.194464,5056.230287,7402.059420
998.756007,3478.967927,5975.544884,7846.182985
998.756336,3108.864956,6205.373534,10214.842000
998.756666,2368.659014,6281.983084,13545.768739
998.756995,-1776.494261,4673.182538,13989.892304
998.757325,-6217.729913,2987.772442,12731.542202
998.757654,-9252.574275,76.609550,11103.089130
998.757984,-8512.368333,-2681.334243,9844.739029
998.758313,-4959.379811,-4903.011187,8068.244768
998.758643,-1184.329507,-5209.449386,5477.523971
998.758973,814.226536,-3677.258390,4293.194464
998.759302,2664.741391,0.000000,5477.523971
998.759632,3182.885551,2681.334243,8438.347739
998.759962,1850.514855,5515.887586,9770.718434
998.760292,-444.123565,8197.221829,10066.800811
998.760621,-1702.473667,8197.221829,12509.480420
998.760951,-1554.432478,5439.278036,13619.789333
998.761281,-740.205942,1838.629195,12213.398043
998.761611,-296.082377,-1378.971896,9104.533087
998.761941,0.000000,-3064.381992,7254.018232
998.762270,0.000000,-1608.800546,8290.306550
998.762600,-222.061783,1149.143247,9548.656652
998.762930,-888.247130,2068.457845,9030.512492
998.763260,-1258.350101,3064.381992,8586.388927
998.763589,-814.226536,4903.011187,8586.388927
998.763919,296.082377,4903.011187,9178.553681
998.764249,888.247130,2298.286494,8734.430116
998.764579,-370.102971,1532.190996,8438.347739
998.764908,-1554.432478,842.705048,9030.512492
998.765238,-3478.967927,-306.438199,10362.883188
998.765568,-5033.400406,0.000000,11103.089130
998.765898,-6513.812290,-612.876398,9400.615463
998.766228,-4811.338623,-2298.286494,8142.265362
998.766557,-1998.556043,-2221.676944,8068.244768
998.766887,1628.453072,-306.438199,8882.471304
998.767217,3997.112087,1225.752797,7994.224174
998.767547,4219.173869,1991.848295,7624.121203
998.767876,4145.153275,3524.039291,8882.471304
998.768206,3108.864956,4136.915689,11695.253884
998.768536,444.123565,4366.744339,13101.645173
998.768866,-2664.741391,3447.429741,12657.521608
998.769195,-4515.256246,1072.533697,11695.253884
998.769525,-4219.173869,-1608.800546,11251.130318
998.769855,-3997.112087,-3907.087040,10362.883188
998.770185,-3627.009116,-4826.401637,8216.285956
998.770515,-2146.597232,-4673.182538,7476.080014
998.770844,-666.185348,-3064.381992,8364.327145
998.771174,-814.226536,0.000000,9548.656652
998.771504,-1702.473667,1302.362347,9474.636058
998.771834,-1628.453072,1455.581446,9178.553681
998.772163,-962.267725,2451.505594,9696.697840
998.772493,74.020594,2834.553343,11103.089130
998.772823,592.164754,1915.238745,10732.986159
998.773153,666.185348,0.000000,9326.594869
998.773482,370.102971,-995.924147,8068.244768
998.773812,0.000000,-689.485948,9696.697840
998.774142,-814.226536,612.876398,11547.212695
998.774472,-2590.720797,1225.752797,10807.006753
998.774802,-3701.029710,1838.629195,10510.924376
998.775131,-3552.988522,2145.067394,10140.821405
998.775461,-1554.432478,1455.581446,10288.862594
998.775791,296.082377,153.219100,8956.491898
998.776121,740.205942,612.876398,7402.059420
998.776450,222.061783,459.657299,7328.038826
998.776780,-592.164754,536.266849,9474.636058
998.777110,-2146.597232,1532.190996,10214.842000
998.777440,-3256.906145,2451.505594,9400.615463
998.777770,-2812.782580,1685.410096,9104.533087
998.778099,-1036.288319,919.314598,9770.718434
998.778429,148.041188,1915.238745,9474.636058
998.778759,148.041188,2068.457845,7179.997637
998.779089,222.061783,2374.896044,6439.791695
998.779418,740.205942,1991.848295,8216.285956
998.779748,74.020594,2681.334243,11029.068536
998.780078,-1554.432478,4519.963438,11843.295072
998.780408,-3330.926739,3294.210641,10066.800811
998.780737,-2516.700203,1455.581446,9400.615463
998.781067,-740.205942,842.705048,9696.697840
998.781397,1036.288319,459.657299,9474.636058
998.781727,1850.514855,-383.047749,7920.203579
998.782057,1924.535449,229.828649,7920.203579
998.782386,1850.514855,2374.896044,9178.553681
998.782716,814.226536,3140.991542,10584.944971
998.783046,-222.061783,2451.505594,10436.903782
998.783376,-1184.329507,2374.896044,9104.533087
998.783705,-444.123565,1455.581446,9992.780217
998.784035,518.144159,1685.410096,10362.883188
998.784365,1184.329507,383.047749,9326.594869
998.784695,740.205942,-919.314598,7550.100608
998.785024,740.205942,0.000000,7846.182985
998.785354,666.185348,919.314598,10436.903782
998.785684,-962.267725,1762.019645,11399.171507
998.786014,-3478.967927,1685.410096,10214.842000
998.786344,-4737.318029,1302.362347,9918.759623
998.786673,-3552.988522,459.657299,11029.068536
998.787003,-2664.741391,-612.876398,11399.171507
998.787333,-1776.494261,-1149.143247,9400.615463
998.787663,-1258.350101,-1762.019645,7624.121203
998.787992,-888.247130,-1991.848295,8364.327145
998.788322,-962.267725,-1455.581446,9918.759623
998.788652,-1776.494261,-536.266849,10140.821405
998.788982,-2664.741391,612.876398,9326.594869
998.789312,-2590.720797,1225.752797,9696.697840
998.789641,-814.226536,459.657299,10955.047942
998.789971,296.082377,306.438199,9992.780217
998.790301,1036.288319,76.609550,7920.203579
998.790631,1110.308913,-612.876398,8364.327145
998.790960,592.164754,0.000000,10584.944971
998.791290,-1332.370696,1072.533697,11843.295072
998.791620,-3627.009116,842.705048,11473.192101
998.791950,-4367.215058,306.438199,10881.027347
998.792279,-4071.132681,766.095498,10881.027347
998.792609,-2368.659014,0.000000,11029.068536
998.792939,-1110.308913,-1532.190996,9696.697840
998.793269,-148.041188,-995.924147,7328.038826
998.793599,-222.061783,-383.047749,6735.874072
998.793928,-370.102971,-306.438199,8512.368333
998.794258,-2294.638420,1532.190996,9770.718434
998.794588,-3923.091493,2221.676944,9400.615463
998.794918,-3478.967927,2068.457845,9178.553681
998.795247,-1702.473667,1991.848295,9474.636058
998.795577,370.102971,1685.410096,9178.553681
998.795907,1406.391290,766.095498,8290.306550
998.796237,2072.576638,1072.533697,7402.059420
998.796566,2220.617826,2451.505594,9104.533087
998.796896,1332.370696,3294.210641,11399.171507
998.797226,-666.185348,4903.011187,12139.377449
998.797556,-2738.761985,4903.011187,10362.883188
998.797886,-2738.761985,3294.210641,8734.430116
998.798215,-814.226536,1838.629195,9030.512492
998.798545,666.185348,612.876398,8586.388927
998.798875,1184.329507,-383.047749,7254.018232
998.799205,740.205942,0.000000,7179.997637
998.799534,148.041188,766.095498,8512.368333
998.799864,-962.267725,2068.457845,10066.800811
998.800194,-1776.494261,2451.505594,10288.862594
998.800524,-1776.494261,2604.724693,10066.800811
998.800854,-444.123565,3677.258390,10510.924376
998.801183,1554.432478,2681.334243,9844.739029
998.801513,2368.659014,1608.800546,8586.388927
998.801843,2146.597232,306.438199,7624.121203
998.802173,1480.411884,689.485948,8882.471304
998.802502,444.123565,2987.772442,11177.109724
998.802832,-1554.432478,2834.553343,11621.233289
998.803162,-3627.009116,1762.019645,11103.089130
998.803492,-4737.318029,1072.533697,9992.780217
998.803821,-3923.091493,383.047749,10140.821405
998.804151,-2294.638420,-1072.533697,10658.965565
998.804481,-1554.432478,-1608.800546,8734.430116
998.804811,-1850.514855,-1455.581446,7328.038826
998.805141,-1924.535449,-1838.629195,7994.224174
998.805470,-1850.514855,-1838.629195,9992.780217
998.805800,-2812.782580,383.047749,10658.965565
998.806130,-3997.112087,1302.362347,9474.636058
998.806460,-3330.926739,383.047749,9252.574275
998.806789,-1110.308913,229.828649,9844.739029
998.807119,592.164754,76.609550,9622.677246
998.807449,1480.411884,-995.924147,8512.368333
998.807779,1332.370696,-842.705048,7994.224174
998.808108,518.144159,76.609550,10362.883188
998.808438,-1332.370696,1072.533697,13027.624579
998.808768,-3775.050304,1608.800546,13027.624579
998.809098,-5181.441594,1302.362347,11991.336260
998.809428,-4885.359217,-459.657299,11177.109724
998.809757,-3627.009116,-1532.190996,10436.903782
998.810087,-1850.514855,-2451.505594,8808.450710
998.810417,0.000000,-2681.334243,7402.059420
998.810747,444.123565,-1455.581446,7105.977043
998.811076,-370.102971,229.828649,7994.224174
998.811406,-2442.679609,1685.410096,8438.347739
998.811736,-4145.153275,2451.505594,9178.553681
998.812066,-4219.173869,2911.162892,9030.512492
998.812396,-2812.782580,2068.457845,9696.697840
998.812725,-962.267725,1302.362347,9252.574275
998.813055,1258.350101,0.000000,7846.182985
998.813385,2294.638420,-919.314598,7624.121203
998.813715,2294.638420,-153.219100,9326.594869
998.814044,1406.391290,2911.162892,11621.233289
998.814374,-222.061783,4903.011187,12139.377449
998.814704,-1110.308913,5056.230287,11103.089130
998.815034,-296.082377,4903.011187,10584.944971
998.815363,888.247130,3217.601092,10214.842000
998.815693,2146.597232,1455.581446,8660.409521
998.816023,2220.617826,-153.219100,6883.915261
998.816353,1332.370696,-153.219100,6735.874072
998.816683,592.164754,153.219100,8364.327145
998.817012,-1184.329507,76.609550,9918.759623
998.817342,-2886.803174,1455.581446,9844.739029
998.817672,-3552.988522,2834.553343,8808.450710
998.818002,-1702.473667,2528.115143,9252.574275
998.818331,888.247130,2298.286494,9326.594869
998.818661,1776.494261,1685.410096,8956.491898
998.818991,1628.453072,2068.457845,8586.388927
998.819321,592.164754,3064.381992,9326.594869
998.819650,-296.082377,3753.867940,10436.903782
998.819980,-2146.597232,3294.210641,11103.089130
998.820310,-3701.029710,1532.190996,11029.068536
998.820640,-4367.215058,1455.581446,10658.965565
998.820970,-3404.947333,229.828649,10510.924376
998.821299,-2294.638420,-766.095498,9252.574275
998.821629,-1850.514855,-1838.629195,7476.080014
998.821959,-962.267725,-2757.943793,7328.038826
998.822289,-592.164754,-1915.238745,9104.533087
998.822618,-1850.514855,689.485948,10436.903782
998.822948,-3478.967927,1991.848295,9770.718434
998.823278,-3330.926739,1149.143247,9252.574275
998.823608,-2368.659014,229.828649,8808.450710
998.823937,-1036.288319,76.609550,9326.594869
998.824267,296.082377,-766.095498,9326.594869
998.824597,814.226536,-1378.971896,7920.203579
998.824927,222.061783,-766.095498,8882.471304
998.825257,-962.267725,0.000000,11547.212695
998.825586,-2738.761985,1455.581446,13693.809927
998.825916,-4589.276840,1378.971896,13841.851115
998.826246,-5477.523971,1378.971896,12139.377449
998.826576,-5255.462188,536.266849,11547.212695
998.826905,-3478.967927,-2221.676944,10732.986159
998.827235,-2072.576638,-3064.381992,8660.409521
998.827565,-962.267725,-3064.381992,6587.832884
998.827895,-740.205942,-1608.800546,6365.771101
998.828225,-370.102971,-306.438199,8290.306550
998.828554,-1184.329507,536.266849,9400.615463
998.828884,-2146.597232,3064.381992,9622.677246
998.829214,-1850.514855,2757.943793,9030.512492
998.829544,74.020594,2374.896044,9622.677246
998.829873,1776.494261,1378.971896,9696.697840
998.830203,2072.576638,995.924147,9252.574275
998.830533,2220.617826,1685.410096,9104.533087
998.830863,1998.556043,3064.381992,10066.800811
998.831192,814.226536,4060.306139,11251.130318
998.831522,-1332.370696,4596.572988,10807.006753
998.831852,-2368.659014,2987.772442,9696.697840
998.832182,-1850.514855,1685.410096,9474.636058
998.832512,-1110.308913,2451.505594,9622.677246
998.832841,-444.123565,1915.238745,8290.306550
998.833171,-296.082377,689.485948,6809.894666
998.833501,-296.082377,-229.828649,7179.997637
998.833831,-814.226536,459.657299,8882.471304
998.834160,-1406.391290,1762.019645,10362.883188
998.834490,-2368.659014,3140.991542,9918.759623
998.834820,-2294.638420,3677.258390,9030.512492
998.835150,-1110.308913,2298.286494,8956.491898
998.835479,1258.350101,1838.629195,9178.553681
998.835809,2442.679609,1838.629195,8734.430116
998.836139,2886.803174,2757.943793,8660.409521
998.836469,2368.659014,3217.601092,9696.697840
998.836799,1184.329507,3983.696590,11621.233289
998.837128,-814.226536,3677.258390,11695.253884
998.837458,-3182.885551,2757.943793,10658.965565
998.837788,-3923.091493,3064.381992,10288.862594
998.838118,-2738.761985,1455.581446,11103.089130
998.838447,-2220.617826,-612.876398,10288.862594
998.838777,-2368.659014,-1685.410096,8216.285956
998.839107,-1776.494261,-2451.505594,6365.771101
998.839437,-962.267725,-2451.505594,7031.956449
998.839767,-814.226536,-1302.362347,9326.594869
998.840096,-2886.803174,766.095498,9622.677246
998.840426,-4219.173869,842.705048,9548.656652
998.840756,-3701.029710,0.000000,10140.821405
998.841086,-2960.823768,1455.581446,11103.089130
998.841415,-1036.288319,459.657299,10066.800811
998.841745,296.082377,-153.219100,7846.182985
998.842075,1184.329507,-995.924147,7254.018232
998.842405,1258.350101,-842.705048,9030.512492
998.842734,-296.082377,383.047749,11251.130318
998.843064,-3108.864956,1072.533697,12213.398043
998.843394,-4589.276840,2374.896044,11917.315666
998.843724,-4441.235652,919.314598,11991.336260
998.844054,-2738.761985,-995.924147,11843.295072
998.844383,-2220.617826,-2451.505594,9918.759623
998.844713,-2664.741391,-2757.943793,7105.977043
998.845043,-3256.906145,-2451.505594,6957.935855
998.845373,-3478.967927,-1685.410096,8808.450710
998.845702,-4145.153275,-766.095498,9992.780217
998.846032,-4663.297435,-842.705048,9770.718434
998.846362,-3849.070898,-995.924147,9400.615463
998.846692,-1332.370696,689.485948,9400.615463
998.847021,1702.473667,1149.143247,9104.533087
998.847351,3627.009116,689.485948,8290.306550
998.847681,4293.194464,1685.410096,8364.327145
998.848011,4219.173869,3217.601092,10436.903782
998.848341,2960.823768,4903.011187,13027.624579
998.848670,-222.061783,5745.716235,13101.645173
998.849000,-2812.782580,5439.278036,11177.109724
998.849330,-2886.803174,3140.991542,9622.677246
998.849660,-1184.329507,229.828649,9400.615463
998.849989,148.041188,-229.828649,8808.450710
998.850319,-888.247130,-536.266849,7105.977043
998.850649,-1554.432478,0.000000,6217.729913
998.850979,-2294.638420,612.876398,7105.977043
998.851309,-2072.576638,1455.581446,9400.615463
998.851638,-2368.659014,2681.334243,9252.574275
998.851968,-3034.844362,3677.258390,8438.347739
998.852298,-1850.514855,3600.648841,7254.018232
998.852628,1110.308913,2528.115143,7994.224174
998.852957,3182.885551,1455.581446,8290.306550
998.853287,3034.844362,2374.896044,7994.224174
998.853617,2146.597232,2757.943793,8660.409521
998.853947,1406.391290,4903.011187,11177.109724
998.854276,-296.082377,5286.058936,11621.233289
998.854606,-1628.453072,3753.867940,11177.109724
998.854936,-1998.556043,2911.162892,10214.842000
998.855266,-1998.556043,1915.238745,9992.780217
998.855596,-962.267725,1149.143247,9918.759623
998.855925,-888.247130,-766.095498,8512.368333
998.856255,-1258.350101,-1915.238745,7254.018232
998.856585,-1776.494261,-1685.410096,7698.141797
998.856915,-2368.659014,-1762.019645,9326.594869
998.857244,-3034.844362,-306.438199,9770.718434
998.857574,-4071.132681,76.609550,9474.636058
998.857904,-3627.009116,-459.657299,9696.697840
998.858233,-2294.638420,0.000000,10658.965565
998.858563,-296.082377,0.000000,10955.047942
998.858892,444.123565,-459.657299,10214.842000
998.859222,74.020594,842.705048,8512.368333
998.859551,148.041188,1149.143247,8956.491898
998.859881,0.000000,-306.438199,10732.986159
998.860211,-1850.514855,0.000000,11843.295072
998.860540,-4071.132681,842.705048,11177.109724
998.860870,-4589.276840,-306.438199,11547.212695
998.861199,-4515.256246,-1225.752797,11843.295072
998.861529,-3034.844362,-1532.190996,10436.903782
998.861858,-1258.350101,-3524.039291,8586.388927
998.862188,0.000000,-3907.087040,8290.306550
998.862518,-888.247130,-1762.019645,8808.450710
998.862847,-2368.659014,-459.657299,9770.718434
998.863177,-3256.906145,229.828649,9770.718434
998.863506,-3034.844362,1608.800546,9548.656652
998.863836,-1184.329507,689.485948,9770.718434
998.864165,592.164754,306.438199,9030.512492
998.864495,1924.535449,459.657299,8364.327145
998.864825,2146.597232,536.266849,7476.080014
998.865154,2664.741391,612.876398,9030.512492
998.865484,1628.453072,2451.505594,10955.047942
998.865813,-814.226536,3677.258390,11843.295072
998.866143,-2590.720797,3524.039291,11695.253884
998.866472,-3775.050304,3677.258390,10658.965565
998.866802,-2368.659014,2987.772442,10584.944971
998.867132,-444.123565,1302.362347,9474.636058
998.867461,592.164754,689.485948,7254.018232
998.867791,1036.288319,76.609550,5625.565159
998.868120,666.185348,0.000000,6809.894666
998.868450,-666.185348,1149.143247,7994.224174
998.868779,-2294.638420,2681.334243,9030.512492
998.869109,-3034.844362,3140.991542,9178.553681
998.869439,-1702.473667,3524.039291,9252.574275
998.869768,1480.411884,2528.115143,9104.533087
998.870098,2812.782580,1378.971896,8586.388927
998.870427,2886.803174,2145.067394,7994.224174
998.870757,2368.659014,3217.601092,9622.677246
998.871086,1702.473667,4290.134789,12139.377449
998.871416,-666.185348,4519.963438,13175.665768
998.871746,-3034.844362,3907.087040,11991.336260
998.872075,-3330.926739,1838.629195,11029.068536
998.872405,-1998.556043,689.485948,10658.965565
998.872734,-222.061783,0.000000,9326.594869
998.873064,-296.082377,0.000000,7031.956449
998.873393,-888.247130,-1225.752797,4811.338623
998.873723,-296.082377,-1225.752797,6217.729913
998.874053,-666.185348,0.000000,8734.430116
998.874382,-2220.617826,1532.190996,9770.718434
998.874712,-4071.132681,2451.505594,9030.512492
998.875041,-4293.194464,1608.800546,9844.739029
998.875371,-2960.823768,766.095498,10658.965565
998.875700,-1480.411884,0.000000,10658.965565
998.876030,-666.185348,-536.266849,9252.574275
998.876360,-518.144159,536.266849,7994.224174
998.876689,74.020594,153.219100,9104.533087
998.877019,0.000000,-306.438199,10881.027347
998.877348,-2146.597232,0.000000,11473.192101
998.877678,-4589.276840,612.876398,10881.027347
998.878007,-5551.544565,1072.533697,11473.192101
998.878337,-4959.379811,-459.657299,11695.253884
998.878667,-3404.947333,-1762.019645,10732.986159
998.878996,-1702.473667,-3983.696590,8586.388927
998.879326,-518.144159,-4749.792088,7402.059420
998.879655,-444.123565,-3370.820191,8438.347739
998.879985,-592.164754,-1685.410096,9400.615463
998.880314,-1480.411884,-612.876398,10066.800811
998.880644,-1480.411884,612.876398,10436.903782
998.880974,0.000000,1762.019645,11621.233289
998.881303,2220.617826,1685.410096,11843.295072
998.881633,2664.741391,1532.190996,10362.883188
998.881962,3256.906145,842.705048,8660.409521
998.882292,2516.700203,459.657299,9400.615463
998.882621,1036.288319,1762.019645,10658.965565
998.882951,-1184.329507,2451.505594,11399.171507
998.883281,-3330.926739,1915.238745,10881.027347
998.883610,-3997.112087,1762.019645,10140.821405
998.883940,-3256.906145,1149.143247,9696.697840
998.884269,-1332.370696,0.000000,8734.430116
998.884599,370.102971,-842.705048,7031.956449
998.884928,962.267725,-919.314598,6291.750507
998.885258,296.082377,306.438199,7698.141797
998.885588,-1258.350101,2451.505594,9326.594869
998.885917,-2072.576638,4060.306139,9548.656652
998.886247,-1480.411884,4136.915689,8808.450710
998.886576,0.000000,3370.820191,8660.409521
998.886906,2146.597232,2681.334243,8808.450710
998.887235,3034.844362,1915.238745,8512.368333
998.887565,3034.844362,2834.553343,7994.224174
998.887895,2516.700203,4366.744339,8808.450710
998.888224,1702.473667,4596.572988,10732.986159
998.888554,0.000000,5209.449386,11843.295072
998.888883,-2220.617826,4290.134789,10732.986159
998.889213,-2960.823768,2987.772442,9770.718434
998.889542,-2294.638420,1838.629195,9918.759623
998.889872,-1332.370696,1072.533697,9622.677246
998.890202,-1184.329507,0.000000,7846.182985
998.890531,-962.267725,-1838.629195,6439.791695
998.890861,-370.102971,-766.095498,7179.997637
998.891190,-518.144159,459.657299,9252.574275
998.891520,-2294.638420,1838.629195,10066.800811
998.891849,-3775.050304,1838.629195,9844.739029
998.892179,-3923.091493,1915.238745,9992.780217
998.892509,-2442.679609,1455.581446,11103.089130
998.892838,-888.247130,229.828649,10807.006753
998.893168,-296.082377,-306.438199,9104.533087
998.893497,0.000000,-919.314598,9178.553681
998.893827,0.000000,-306.438199,10214.842000
998.894156,-1554.432478,919.314598,11177.109724
998.894486,-3701.029710,1608.800546,10140.821405
998.894816,-4219.173869,536.266849,9252.574275
998.895145,-3108.864956,-306.438199,9696.697840
998.895475,-1776.494261,-766.095498,10288.862594
998.895804,-1332.370696,-1915.238745,9030.512492
998.896134,-1554.432478,-2604.724693,7846.182985
998.896463,-2146.597232,-2068.457845,8290.306550
998.896793,-1924.535449,-1685.410096,10436.903782
998.897123,-2442.679609,-995.924147,11695.253884
998.897452,-3923.091493,-689.485948,10510.924376
998.897782,-3627.009116,-229.828649,9548.656652
998.898111,-1998.556043,-919.314598,9696.697840
998.898441,296.082377,-1685.410096,10362.883188
998.898770,1850.514855,-842.705048,9992.780217
998.899100,1924.535449,76.609550,8956.491898
998.899430,888.247130,1762.019645,9770.718434
998.899759,0.000000,2298.286494,11103.089130
998.900089,-1332.370696,2681.334243,11473.192101
998.900418,-2220.617826,2221.676944,10362.883188
998.900748,-1702.473667,1685.410096,9992.780217
998.901077,-148.041188,1149.143247,10066.800811
998.901407,222.061783,76.609550,8808.450710
998.901737,222.061783,-766.095498,6735.874072
998.902066,444.123565,-995.924147,6365.771101
998.902396,296.082377,383.047749,8216.285956
998.902725,0.000000,2451.505594,10066.800811
998.903055,-1184.329507,3064.381992,10288.862594
998.903384,-2220.617826,3217.601092,9844.739029
998.903714,-1924.535449,3064.381992,9474.636058
998.904044,-296.082377,2834.553343,9918.759623
998.904373,1110.308913,2681.334243,8808.450710
998.904703,2368.659014,2221.676944,8068.244768
998.905032,2664.741391,2451.505594,8290.306550
998.905362,2220.617826,2987.772442,9178.553681
998.905691,592.164754,3447.429741,10214.842000
998.906021,-1332.370696,4290.134789,9844.739029
998.906351,-1776.494261,4213.525239,9400.615463
998.906680,-1332.370696,3217.601092,9844.739029
998.907010,0.000000,2834.553343,9548.656652
998.907339,296.082377,1532.190996,7254.018232
998.907669,444.123565,-229.828649,6143.709319
998.907998,518.144159,-383.047749,7105.977043
998.908328,0.000000,1072.533697,9844.739029
998.908658,-2516.700203,2451.505594,10732.986159
998.908987,-4219.173869,2145.067394,9992.780217
998.909317,-3478.967927,1685.410096,9770.718434
998.909646,-1332.370696,1302.362347,10510.924376
998.909976,518.144159,-995.924147,10436.903782
998.910305,740.205942,-306.438199,9104.533087
998.910635,148.041188,536.266849,7772.162391
998.910965,-592.164754,383.047749,9030.512492
998.911294,-1924.535449,1378.971896,10807.006753
998.911624,-4737.318029,689.485948,10881.027347
998.911953,-5921.647536,229.828649,11029.068536
998.912283,-5255.462188,-995.924147,11547.212695
998.912612,-3552.988522,-1532.190996,11251.130318
998.912942,-1998.556043,-3064.381992,9622.677246
998.913272,-296.082377,-4519.963438,7624.121203
998.913601,148.041188,-3217.601092,7698.141797
998.913931,0.000000,-1302.362347,9252.574275
998.914260,-962.267725,229.828649,11251.130318
998.914590,-2220.617826,1838.629195,11621.233289
998.914919,-2664.741391,1685.410096,11029.068536
998.915249,-1480.411884,536.266849,10658.965565
998.915579,-296.082377,153.219100,9696.697840
998.915908,962.267725,-995.924147,8586.388927
998.916238,1480.411884,-1838.629195,8068.244768
998.916567,518.144159,-842.705048,9104.533087
998.916897,-666.185348,689.485948,11177.109724
998.917226,-2664.741391,1838.629195,11843.295072
998.917556,-4515.256246,2681.334243,11029.068536
998.917886,-4367.215058,2604.724693,9992.780217
998.918215,-2738.761985,459.657299,9326.594869
998.918545,-740.205942,-1072.533697,8438.347739
998.918874,222.061783,-1608.800546,7476.080014
998.919204,296.082377,-1072.533697,7920.203579
998.919533,-740.205942,1225.752797,8956.491898
998.919863,-1628.453072,1991.848295,10066.800811
998.920193,-1702.473667,2374.896044,10214.842000
998.920522,-1110.308913,2757.943793,8956.491898
998.920852,666.185348,2987.772442,8956.491898
998.921181,2812.782580,2528.115143,9104.533087
998.921511,3923.091493,2834.553343,8142.265362
998.921840,3552.988522,3907.087040,7476.080014
998.922170,3330.926739,3447.429741,8142.265362
998.922500,2368.659014,4290.134789,10140.821405
998.922829,370.102971,5132.839837,11251.130318
998.923159,-1924.535449,4366.744339,10658.965565
998.923488,-2886.803174,2834.553343,9844.739029
998.923818,-2368.659014,1838.629195,9992.780217
998.924147,-1184.329507,995.924147,9770.718434
998.924477,-962.267725,1149.143247,8290.306550
998.924807,-888.247130,1149.143247,6957.935855
998.925136,-296.082377,76.609550,7179.997637
998.925466,-592.164754,612.876398,8216.285956
998.925795,-1702.473667,2451.505594,9252.574275
998.926125,-2664.741391,3064.381992,9252.574275
998.926454,-2368.659014,2451.505594,9474.636058
998.926784,-888.247130,1838.629195,10140.821405
998.927114,444.123565,612.876398,9474.636058
998.927443,1110.308913,306.438199,8882.471304
998.927773,1110.308913,-229.828649,9252.574275
998.928102,740.205942,766.095498,11029.068536
998.928432,-370.102971,1378.971896,12287.418637
998.928761,-2442.679609,1915.238745,11843.295072
998.929091,-4219.173869,1455.581446,9844.739029
998.929421,-3404.947333,-919.314598,9992.780217
998.929750,-2368.659014,-1762.019645,11103.089130
998.930080,-1924.535449,-1838.629195,10214.842000
998.930409,-2368.659014,-2221.676944,8216.285956
998.930739,-2442.679609,-2528.115143,7105.977043
998.931068,-2072.576638,-2604.724693,8660.409521
998.931398,-3330.926739,-1608.800546,10066.800811
998.931728,-4515.256246,-1302.362347,9992.780217
998.932057,-4737.318029,-612.876398,10214.842000
998.932387,-3701.029710,0.000000,11251.130318
998.932716,-1184.329507,-153.219100,11177.109724
998.933046,148.041188,153.219100,9104.533087
998.933375,444.123565,-383.047749,7105.977043
998.933705,1480.411884,-766.095498,8364.327145
998.934035,1480.411884,383.047749,10732.986159
998.934364,0.000000,1455.581446,12509.480420
998.934694,-3404.947333,1838.629195,11843.295072
998.935023,-5033.400406,1685.410096,11399.171507
998.935353,-3701.029710,689.485948,11251.130318
998.935682,-1554.432478,-306.438199,9992.780217
998.936012,222.061783,-2145.067394,7846.182985
998.936342,1036.288319,-2068.457845,6735.874072
998.936671,222.061783,-689.485948,8068.244768
998.937001,-814.226536,459.657299,9770.718434
998.937330,-2590.720797,2068.457845,10214.842000
998.937660,-3182.885551,3217.601092,10362.883188
998.937989,-1924.535449,2987.772442,10510.924376
998.938319,518.144159,2528.115143,10807.006753
998.938649,2146.597232,2451.505594,9400.615463
998.938978,2812.782580,1685.410096,7105.977043
998.939308,3034.844362,1225.752797,7698.141797
998.939637,2664.741391,3600.648841,9844.739029
998.939967,666.185348,5745.716235,10658.965565
998.940296,-1184.329507,4903.011187,9992.780217
998.940626,-1332.370696,4519.963438,9104.533087
998.940956,-518.144159,4213.525239,8956.491898
998.941285,1110.308913,2528.115143,8808.450710
998.941615,1628.453072,1762.019645,7476.080014
998.941944,962.267725,1225.752797,6069.688724
998.942274,148.041188,536.266849,6957.935855
998.942603,-296.082377,919.314598,9622.677246
998.942933,-1702.473667,3140.991542,10362.883188
998.943263,-2590.720797,3677.258390,9252.574275
998.943592,-2368.659014,2374.896044,8586.388927
998.943922,-814.226536,2451.505594,8512.368333
998.944251,444.123565,1378.971896,8882.471304
998.944581,888.247130,689.485948,8142.265362
998.944910,444.123565,1532.190996,8660.409521
998.945240,-666.185348,2068.457845,10214.842000
998.945570,-1702.473667,1762.019645,11843.295072
998.945899,-3256.906145,383.047749,11843.295072
998.946229,-4071.132681,76.609550,11621.233289
998.946558,-3478.967927,-689.485948,11473.192101
998.946888,-2886.803174,-1149.143247,11177.109724
998.947217,-1776.494261,-1532.190996,10140.821405
998.947547,-1332.370696,-2451.505594,8216.285956
998.947877,-962.267725,-2451.505594,8290.306550
998.948206,-814.226536,-1762.019645,9030.512492
998.948536,-1924.535449,-995.924147,10510.924376
998.948865,-3478.967927,0.000000,9844.739029
998.949195,-5107.421000,-689.485948,10288.862594
998.949524,-4293.194464,-1149.143247,10955.047942
998.949854,-2442.679609,-1072.533697,11399.171507
998.950184,-666.185348,-1072.533697,9474.636058
998.950513,148.041188,-919.314598,7994.224174
998.950843,370.102971,-1302.362347,7994.224174
998.951172,74.020594,229.828649,9992.780217
998.951502,-1850.514855,1225.752797,11843.295072
998.951831,-3997.112087,2374.896044,12213.398043
998.952161,-4885.359217,2911.162892,11843.295072
998.952491,-4515.256246,842.705048,11325.150913
998.952820,-2590.720797,-1072.533697,10140.821405
998.953150,-1110.308913,-2451.505594,7105.977043
998.953479,0.000000,-2911.162892,5329.482782
998.953809,666.185348,-2221.676944,6439.791695
998.954138,-222.061783,76.609550,9696.697840
998.954468,-2220.617826,2145.067394,9770.718434
998.954798,-3034.844362,2374.896044,10140.821405
998.955127,-1776.494261,2681.334243,10436.903782
998.955457,814.226536,3524.039291,10955.047942
998.955786,2590.720797,1915.238745,9844.739029
998.956116,2886.803174,1532.190996,8512.368333
998.956445,2812.782580,1915.238745,8142.265362
998.956775,2220.617826,2068.457845,9326.594869
998.957105,1110.308913,3294.210641,10288.862594
998.957434,-888.247130,5056.230287,10807.006753
998.957764,-1924.535449,4903.011187,9474.636058
998.958093,-444.123565,3064.381992,8734.430116
998.958423,1110.308913,2451.505594,8364.327145
998.958752,2146.597232,2374.896044,7846.182985
998.959082,1184.329507,1455.581446,6069.688724
998.959412,0.000000,2451.505594,7328.038826
998.959741,-1258.350101,2681.334243,9548.656652
998.960071,-2368.659014,2528.115143,10584.944971
998.960401,-3627.009116,2911.162892,9400.615463
998.960730,-3478.967927,2298.286494,8734.430116
998.961060,-1258.350101,1455.581446,9474.636058
998.961390,444.123565,995.924147,9252.574275
998.961719,1776.494261,766.095498,7920.203579
998.962049,1776.494261,919.314598,7920.203579
998.962378,1184.329507,2221.676944,9474.636058
998.962708,-370.102971,3524.039291,11843.295072
998.963038,-2294.638420,3140.991542,12065.356855
998.963367,-3849.070898,2145.067394,11103.089130
998.963697,-3923.091493,919.314598,10510.924376
998.964027,-2516.700203,-536.266849,10436.903782
998.964356,-1036.288319,-2528.115143,9178.553681
998.964686,-1110.308913,-3370.820191,7550.100608
998.965016,-1702.473667,-2681.334243,7402.059420
998.965345,-2368.659014,-2221.676944,9178.553681
998.965675,-3108.864956,-766.095498,11029.068536
998.966005,-4737.318029,612.876398,10362.883188
998.966334,-4737.318029,76.609550,10288.862594
998.966664,-3552.988522,-612.876398,10510.924376
998.966994,-1332.370696,-1378.971896,10436.903782
998.967323,0.000000,-1762.019645,9326.594869
998.967653,148.041188,-1378.971896,7920.203579
998.967983,0.000000,-689.485948,8438.347739
998.968312,-222.061783,229.828649,10510.924376
998.968642,-1628.453072,689.485948,11325.150913
998.968972,-3108.864956,766.095498,11029.068536
998.969301,-3256.906145,536.266849,10584.944971
998.969631,-2590.720797,-229.828649,10881.027347
998.969961,-1258.350101,-612.876398,10584.944971
998.970290,-518.144159,-1608.800546,8438.347739
998.970620,-222.061783,-2528.115143,7179.997637
998.970950,-592.164754,-1378.971896,7328.038826
998.971279,-814.226536,-919.314598,10214.842000
998.971609,-2368.659014,229.828649,11621.233289
998.971938,-3775.050304,1608.800546,11843.295072
998.972268,-3701.029710,2298.286494,11621.233289
998.972598,-1554.432478,1455.581446,11177.109724
998.972927,1258.350101,1149.143247,9548.656652
998.973257,2738.761985,766.095498,7105.977043
998.973587,3182.885551,306.438199,6809.894666
998.973916,3034.844362,2145.067394,8512.368333
998.974246,1184.329507,4903.011187,10214.842000
998.974576,-1406.391290,5592.497135,9918.759623
998.974905,-2590.720797,5132.839837,9030.512492
998.975235,-1258.350101,4136.915689,9326.594869
998.975565,888.247130,2221.676944,9252.574275
998.975894,2590.720797,1072.533697,8142.265362
998.976224,2220.617826,1225.752797,7105.977043
998.976554,444.123565,3064.381992,7846.182985
998.976883,-1554.432478,3447.429741,8438.347739
998.977213,-3034.844362,4060.306139,9252.574275
998.977543,-3775.050304,3217.601092,7920.203579
998.977872,-3256.906145,2757.943793,8438.347739
998.978202,-1406.391290,2298.286494,8734.430116
998.978532,0.000000,1608.800546,8956.491898
998.978861,666.185348,842.705048,7624.121203
998.979191,518.144159,1149.143247,7550.100608
998.979521,148.041188,1991.848295,9770.718434
998.979850,-814.226536,3217.601092,11843.295072
998.980180,-2368.659014,4443.353888,12361.439231
998.980510,-3330.926739,3140.991542,11695.253884
998.980839,-2886.803174,1608.800546,11325.150913
998.981169,-1998.556043,306.438199,11029.068536
998.981498,-1110.308913,-995.924147,10140.821405
998.981828,-888.247130,-2145.067394,8216.285956
998.982158,-962.267725,-1685.410096,8068.244768
998.982487,-1110.308913,-536.266849,9326.594869
998.982817,-2368.659014,-229.828649,9474.636058
998.983147,-3552.988522,383.047749,9104.533087
998.983476,-3552.988522,153.219100,9252.574275
998.983806,-2368.659014,76.609550,10881.027347
998.984136,-1998.556043,0.000000,10955.047942
998.984465,-1480.411884,-995.924147,9326.594869
998.984795,-740.205942,-1608.800546,8364.327145
998.985125,-740.205942,-842.705048,9622.677246
998.985454,-1480.411884,-612.876398,10881.027347
998.985784,-3552.988522,536.266849,11399.171507
998.986114,-4663.297435,459.657299,10510.924376
998.986443,-4293.194464,-689.485948,10066.800811
998.986773,-2442.679609,-766.095498,10214.842000
998.987103,-666.185348,-1991.848295,9400.615463
998.987432,74.020594,-2221.676944,7698.141797
998.987762,666.185348,-1838.629195,7402.059420
998.988092,962.267725,-689.485948,8660.409521
998.988421,0.000000,76.609550,10362.883188
998.988751,-2072.576638,612.876398,11029.068536
998.989081,-3478.967927,1302.362347,11621.233289
998.989410,-3108.864956,995.924147,11843.295072
998.989740,-1036.288319,0.000000,11325.150913
998.990070,1184.329507,-536.266849,10140.821405
998.990399,2738.761985,-306.438199,7772.162391
998.990729,3182.885551,-229.828649,8142.265362
998.991058,2590.720797,1685.410096,9400.615463
998.991388,962.267725,4519.963438,10510.924376
998.991718,-1110.308913,5209.449386,10214.842000
998.992047,-2220.617826,4213.525239,9178.553681
998.992377,-1184.329507,3907.087040,9474.636058
998.992707,0.000000,1991.848295,9178.553681
998.993036,1036.288319,536.266849,8142.265362
998.993366,74.020594,306.438199,6957.935855
998.993696,-1184.329507,1072.533697,7846.182985
998.994025,-1924.535449,2298.286494,9696.697840
998.994355,-3108.864956,3140.991542,10214.842000
998.994685,-3478.967927,4136.915689,8808.450710
998.995014,-2368.659014,3370.820191,7846.182985
998.995344,0.000000,2681.334243,7772.162391
998.995674,2146.597232,2911.162892,8438.347739
998.996003,2072.576638,2757.943793,7846.182985
998.996333,1036.288319,3524.039291,7624.121203
998.996663,74.020594,3983.696590,9326.594869
998.996992,-666.185348,3217.601092,11695.253884
998.997322,-2664.741391,3524.039291,11547.212695
998.997652,-4145.153275,2911.162892,10658.965565
998.997981,-3775.050304,1225.752797,10362.883188
998.998311,-2886.803174,459.657299,10658.965565
998.998641,-2072.576638,-229.828649,10066.800811
998.998970,-1850.514855,-459.657299,8512.368333
998.999300,-1554.432478,-459.657299,7402.059420
998.999630,-1924.535449,383.047749,8364.327145
998.999959,-2072.576638,459.657299,9474.636058
999.000289,-2812.782580,612.876398,9474.636058
999.000618,-3404.947333,536.266849,9770.718434
999.000948,-2960.823768,306.438199,10510.924376
999.001278,-2220.617826,76.609550,10510.924376
999.001607,-1036.288319,-766.095498,9548.656652
999.001937,-592.164754,-1991.848295,8586.388927
999.002267,0.000000,-1378.971896,9178.553681
999.002596,0.000000,0.000000,10955.047942
999.002926,-1332.370696,383.047749,10732.986159
999.003256,-2664.741391,229.828649,10510.924376
999.003585,-3478.967927,536.266849,10436.903782
999.003915,-2368.659014,-459.657299,10658.965565
999.004245,-592.164754,-1532.190996,10214.842000
999.004574,148.041188,-2145.067394,8734.430116
999.004904,592.164754,-2604.724693,7402.059420
999.005234,74.020594,-3140.991542,9326.594869
999.005563,-1406.391290,-2528.115143,12287.418637
999.005893,-4219.173869,76.609550,13323.706956
999.006223,-4737.318029,1532.190996,11621.233289
999.006552,-2886.803174,459.657299,10362.883188
999.006882,518.144159,-1378.971896,9622.677246
999.007212,3330.926739,-1532.190996,7772.162391
999.007541,4737.318029,-1149.143247,6217.729913
999.007871,4663.297435,536.266849,6143.709319
999.008201,3478.967927,3447.429741,8808.450710
999.008530,666.185348,4673.182538,11399.171507
999.008860,-1406.391290,4136.915689,11917.315666
999.009190,-2072.576638,3294.210641,11103.089130
999.009519,-1110.308913,1685.410096,10955.047942
999.009849,592.164754,153.219100,10807.006753
999.010178,1110.308913,-306.438199,9400.615463
999.010508,0.000000,-153.219100,7105.977043
999.010838,-814.226536,459.657299,6439.791695
999.011167,-1184.329507,2451.505594,7179.997637
999.011497,-1702.473667,2145.067394,8290.306550
999.011827,-2812.782580,2987.772442,9252.574275
999.012156,-3034.844362,4213.525239,8882.471304
999.012486,-1554.432478,4443.353888,8956.491898
999.012816,740.205942,1915.238745,8956.491898
999.013145,814.226536,1455.581446,7698.141797
999.013475,740.205942,2145.067394,7994.224174
999.013805,814.226536,1915.238745,9770.718434
999.014134,0.000000,2987.772442,11843.295072
999.014464,-2220.617826,4519.963438,11917.315666
999.014794,-3256.906145,3524.039291,11029.068536
999.015123,-2368.659014,1608.800546,10436.903782
999.015453,-666.185348,1685.410096,10362.883188
999.015783,592.164754,1149.143247,9104.533087
999.016112,592.164754,842.705048,6883.915261
999.016442,222.061783,689.485948,6809.894666
999.016772,-296.082377,1532.190996,8438.347739
999.017101,-2146.597232,1915.238745,9548.656652
999.017431,-3478.967927,2298.286494,9918.759623
999.017761,-4367.215058,1915.238745,9992.780217
999.018090,-4367.215058,1072.533697,10510.924376
999.018420,-3552.988522,689.485948,10214.842000
999.018750,-2072.576638,-842.705048,8660.409521
999.019079,-888.247130,-1838.629195,7994.224174
999.019409,-1332.370696,-842.705048,8734.430116
999.019738,-2516.700203,76.609550,10140.821405
999.020068,-3330.926739,-153.219100,10881.027347
999.020398,-4293.194464,689.485948,10584.944971
999.020727,-3627.009116,76.609550,10288.862594
999.021057,-2072.576638,-689.485948,10436.903782
999.021387,-370.102971,-1455.581446,10066.800811
999.021716,888.247130,-2451.505594,8660.409521
999.022046,1184.329507,-2221.676944,8068.244768
999.022376,1036.288319,-919.314598,9770.718434
999.022705,0.000000,76.609550,11769.274478
999.023035,-1702.473667,689.485948,11251.130318
999.023365,-2664.741391,306.438199,10288.862594
999.023694,-1184.329507,-536.266849,10584.944971
999.024024,518.144159,-536.266849,10881.027347
999.024354,1480.411884,-383.047749,9770.718434
999.024683,1850.514855,-536.266849,7624.121203
999.025013,1702.473667,-689.485948,7698.141797
999.025343,1776.494261,153.219100,9918.759623
999.025672,0.000000,1608.800546,11103.089130
999.026002,-2368.659014,2298.286494,11621.233289
999.026332,-2960.823768,2451.505594,10732.986159
999.026661,-2738.761985,2145.067394,10436.903782
999.026991,-962.267725,0.000000,9844.739029
999.027321,740.205942,-919.314598,8438.347739
999.027650,1776.494261,-689.485948,7031.956449
999.027980,1258.350101,76.609550,7698.141797
999.028310,444.123565,1762.019645,9622.677246
999.028639,-1480.411884,3677.258390,9992.780217
999.028969,-2590.720797,4519.963438,8290.306550
999.029298,-1332.370696,4136.915689,8438.347739
999.029628,296.082377,3677.258390,8882.471304
999.029958,1702.473667,2681.334243,8216.285956
999.030287,1628.453072,1072.533697,6957.935855
999.030617,1332.370696,1225.752797,7476.080014
999.030947,74.020594,3064.381992,9474.636058
999.031276,-1036.288319,3677.258390,11621.233289
999.031606,-2886.803174,3830.477490,11547.212695
999.031936,-4071.132681,3294.210641,10436.903782
999.032265,-2960.823768,2528.115143,10214.842000
999.032595,-1184.329507,1149.143247,9918.759623
999.032925,-444.123565,919.314598,8660.409521
999.033254,-592.164754,842.705048,6735.874072
999.033584,-666.185348,0.000000,6735.874072
999.033914,-444.123565,995.924147,9326.594869
999.034243,-1036.288319,2604.724693,10584.944971
999.034573,-3330.926739,2681.334243,9844.739029
999.034903,-3775.050304,2451.505594,9400.615463
999.035232,-2664.741391,2068.457845,9918.759623
999.035562,-1406.391290,919.314598,10288.862594
999.035892,-740.205942,-306.438199,8956.491898
999.036221,-814.226536,-306.438199,8512.368333
999.036551,-740.205942,383.047749,9252.574275
999.036881,-1628.453072,229.828649,10436.903782
999.037210,-2664.741391,0.000000,10881.027347
999.037540,-3627.009116,0.000000,10732.986159
999.037870,-3552.988522,306.438199,10955.047942
999.038199,-2590.720797,-612.876398,11103.089130
999.038529,-1258.350101,-842.705048,10658.965565
999.038858,-296.082377,-2298.286494,8290.306550
999.039188,296.082377,-2757.943793,7402.059420
999.039518,296.082377,-1991.848295,9770.718434
999.039847,-444.123565,153.219100,11843.295072
999.040177,-2368.659014,1838.629195,11103.089130
999.040507,-3256.906145,689.485948,9474.636058
999.040836,-2146.597232,0.000000,8956.491898
999.041166,222.061783,-1149.143247,9622.677246
999.041496,1998.556043,-766.095498,9326.594869
999.041825,1850.514855,-995.924147,8142.265362
999.042155,1258.350101,153.219100,8290.306550
999.042485,444.123565,536.266849,10584.944971
999.042814,-740.205942,383.047749,12583.501014
999.043144,-2590.720797,1072.533697,12435.459826
999.043474,-3627.009116,2145.067394,11843.295072
999.043803,-1628.453072,1532.190996,11399.171507
999.044133,296.082377,0.000000,9918.759623
999.044463,1480.411884,-1608.800546,7698.141797
999.044792,1850.514855,-995.924147,5403.503377
999.045122,1332.370696,536.266849,5551.544565
999.045452,666.185348,1685.410096,8142.265362
999.045781,-962.267725,3217.601092,10658.965565
999.046111,-3182.885551,4673.182538,10288.862594
999.046441,-2738.761985,4596.572988,9844.739029
999.046770,-740.205942,1378.971896,9252.574275
999.047100,1332.370696,1225.752797,9474.636058
999.047430,2072.576638,459.657299,8142.265362
999.047759,1406.391290,459.657299,7698.141797
999.048089,740.205942,2757.943793,9622.677246
999.048419,0.000000,4136.915689,11473.192101
999.048748,-2072.576638,4366.744339,11177.109724
999.049078,-3034.844362,3753.867940,9918.759623
999.049407,-2146.597232,2681.334243,9622.677246
999.049737,0.000000,1991.848295,9252.574275
999.050067,666.185348,1149.143247,7476.080014
999.050396,222.061783,689.485948,5625.565159
999.050726,0.000000,459.657299,6587.832884
999.051056,-296.082377,1072.533697,8808.450710
999.051385,-1480.411884,2987.772442,11029.068536
999.051715,-3330.926739,2987.772442,10807.006753
999.052045,-4441.235652,3600.648841,9770.718434
999.052374,-3849.070898,2145.067394,10584.944971
999.052704,-2442.679609,1302.362347,11103.089130
999.053034,-1258.350101,536.266849,9252.574275
999.053363,-814.226536,-383.047749,7624.121203
999.053693,-444.123565,0.000000,8660.409521
999.054023,-1628.453072,842.705048,9992.780217
999.054352,-2960.823768,842.705048,10510.924376
999.054682,-4367.215058,919.314598,9696.697840
999.055012,-3701.029710,766.095498,9622.677246
999.055341,-1850.514855,0.000000,10584.944971
999.055671,-296.082377,-1072.533697,10955.047942
999.056001,296.082377,-1378.971896,8808.450710
999.056330,0.000000,-1915.238745,7402.059420
999.056660,0.000000,-1532.190996,9030.512492
999.056990,-592.164754,-536.266849,11621.233289
999.057319,-2738.761985,536.266849,11991.336260
999.057649,-3701.029710,689.485948,10436.903782
999.057979,-2812.782580,0.000000,9770.718434
999.058308,-444.123565,-536.266849,10288.862594
999.058635,1258.350101,-1302.362347,9474.636058
999.058965,1850.514855,-995.924147,7846.182985
999.059295,1702.473667,-842.705048,8438.347739
999.059624,1184.329507,766.095498,10362.883188
999.059954,-962.267725,2068.457845,11399.171507
999.060283,-3108.864956,1838.629195,11103.089130
999.060613,-3627.009116,612.876398,10807.006753
999.060943,-2664.741391,612.876398,11029.068536
999.061272,-1554.432478,-689.485948,10807.006753
999.061602,0.000000,-1915.238745,9030.512492
999.061931,296.082377,-1608.800546,7179.997637
999.062261,888.247130,-689.485948,7105.977043
999.062591,888.247130,459.657299,9030.512492
999.062920,222.061783,3217.601092,9770.718434
999.063250,-962.267725,4290.134789,9474.636058
999.063580,-444.123565,3677.258390,9178.553681
999.063909,1036.288319,2987.772442,10066.800811
999.064239,1998.556043,3140.991542,9844.739029
999.064568,1776.494261,2298.286494,8734.430116
999.064898,740.205942,1685.410096,7698.141797
999.065228,0.000000,1915.238745,9326.594869
999.065557,-962.267725,2145.067394,11325.150913
999.065887,-2664.741391,2681.334243,10510.924376
999.066216,-4441.235652,2451.505594,8808.450710
999.066546,-3849.070898,2068.457845,8882.471304
999.066876,-1998.556043,1608.800546,9252.574275
999.067205,0.000000,1532.190996,8882.471304
999.067535,148.041188,1532.190996,6513.812290
999.067865,814.226536,1302.362347,6883.915261
999.068194,518.144159,2681.334243,8882.471304
999.068524,-962.267725,2757.943793,10288.862594
999.068853,-2886.803174,3370.820191,10140.821405
999.069183,-4145.153275,3370.820191,9918.759623
999.069513,-3627.009116,1991.848295,9844.739029
999.069842,-2368.659014,1838.629195,10807.006753
999.070172,-1036.288319,842.705048,9696.697840
999.070502,-222.061783,-76.609550,7772.162391
999.070831,0.000000,-76.609550,7920.203579
999.071161,-1110.308913,1149.143247,9474.636058
999.071490,-2368.659014,1991.848295,11399.171507
999.071820,-4515.256246,1685.410096,10584.944971
999.072150,-5107.421000,1532.190996,10066.800811
999.072479,-3552.988522,306.438199,10584.944971
999.072809,-1554.432478,-1608.800546,10362.883188
999.073138,0.000000,-2374.896044,8512.368333
999.073468,0.000000,-2451.505594,7698.141797
999.073798,0.000000,-1685.410096,8808.450710
999.074127,-444.123565,-383.047749,10881.027347
999.074457,-1998.556043,1378.971896,10584.944971
999.074787,-2368.659014,1838.629195,9474.636058
999.075116,-1036.288319,689.485948,9622.677246
999.075446,1110.308913,-229.828649,10807.006753
999.075775,1480.411884,-153.219100,10214.842000
999.076105,1036.288319,-919.314598,8216.285956
999.076435,962.267725,-1915.238745,8586.388927
999.076764,74.020594,-1762.019645,11251.130318
999.077094,-1332.370696,-383.047749,12583.501014
999.077424,-2516.700203,-229.828649,12139.377449
999.077753,-3034.844362,0.000000,10807.006753
999.078083,-2442.679609,842.705048,9474.636058
999.078412,-1480.411884,153.219100,8586.388927
999.078742,592.164754,-459.657299,5995.668130
999.079072,1850.514855,-1225.752797,5255.462188
999.079401,1998.556043,-1225.752797,7624.121203
999.079731,0.000000,1532.190996,10732.986159
999.080060,-2368.659014,3753.867940,11621.233289
999.080390,-3627.009116,2145.067394,10807.006753
999.080720,-2516.700203,1072.533697,10658.965565
999.081049,-592.164754,1378.971896,11177.109724
999.081379,1332.370696,383.047749,10732.986159
999.081709,1702.473667,76.609550,8216.285956
999.082038,1406.391290,2298.286494,6957.935855
999.082368,1776.494261,2604.724693,8660.409521
999.082697,1776.494261,2451.505594,10584.944971
999.083027,-888.247130,4519.963438,10214.842000
999.083357,-3034.844362,5132.839837,9030.512492
999.083686,-2294.638420,2757.943793,8734.430116
999.084016,-1258.350101,2374.896044,9474.636058
999.084346,-888.247130,1302.362347,8956.491898
999.084675,-1258.350101,-153.219100,7105.977043
999.085005,-740.205942,0.000000,6587.832884
999.085334,-370.102971,1532.190996,8882.471304
999.085664,-2146.597232,1838.629195,10732.986159
999.085994,-4441.235652,3294.210641,10658.965565
999.086323,-4959.379811,3677.258390,9992.780217
999.086653,-2590.720797,3064.381992,10214.842000
999.086982,-1110.308913,2528.115143,9844.739029
999.087312,296.082377,1532.190996,8808.450710
999.087642,296.082377,-229.828649,7031.956449
999.087971,74.020594,459.657299,7772.162391
999.088301,-222.061783,2374.896044,9992.780217
999.088631,-1258.350101,2374.896044,10955.047942
999.088960,-3108.864956,1072.533697,10510.924376
999.089290,-4219.173869,842.705048,10584.944971
999.089619,-2960.823768,306.438199,10955.047942
999.089949,-1110.308913,-306.438199,10362.883188
999.090279,-296.082377,-766.095498,8808.450710
999.090608,-370.102971,-1991.848295,7994.224174
999.090938,-666.185348,-2145.067394,8808.450710
999.091267,-1184.329507,-689.485948,10288.862594
999.091597,-2368.659014,306.438199,9992.780217
999.091927,-3923.091493,1225.752797,9252.574275
999.092256,-2960.823768,459.657299,8734.430116
999.092586,-592.164754,-1225.752797,10214.842000
999.092916,1110.308913,-1455.581446,10066.800811
999.093245,1332.370696,-383.047749,8438.347739
999.093575,888.247130,0.000000,8216.285956
999.093904,148.041188,612.876398,10362.883188
999.094234,-962.267725,995.924147,11621.233289
999.094564,-2590.720797,919.314598,12065.356855
999.094893,-3404.947333,76.609550,11843.295072
999.095223,-3330.926739,-153.219100,11843.295072
999.095553,-2442.679609,-919.314598,11547.212695
999.095882,-1110.308913,-2528.115143,9030.512492
999.096212,592.164754,-3217.601092,7402.059420
999.096541,1332.370696,-1838.629195,7402.059420
999.096871,962.267725,0.000000,9178.553681
999.097201,-148.041188,1762.019645,9918.759623
999.097530,-1406.391290,3140.991542,9548.656652
999.097860,-1850.514855,3677.258390,9474.636058
999.098189,-592.164754,3524.039291,9474.636058
999.098519,1480.411884,2681.334243,9548.656652
999.098849,2590.720797,1225.752797,8142.265362
999.099178,1998.556043,536.266849,7254.018232
999.099508,740.205942,1532.190996,9178.553681
999.099838,-1332.370696,2451.505594,11621.233289
999.100167,-3701.029710,3447.429741,12657.521608
999.100497,-5625.565159,4366.744339,11325.150913
999.100826,-4367.215058,2911.162892,9918.759623
999.101156,-1924.535449,1072.533697,9104.533087
999.101486,222.061783,306.438199,7698.141797
999.101815,888.247130,306.438199,5551.544565
999.102145,1036.288319,1072.533697,5699.585753
999.102475,518.144159,2221.676944,8216.285956
999.102804,-1332.370696,4443.353888,10066.800811
999.103134,-3108.864956,5132.839837,9252.574275
999.103463,-2146.597232,3677.258390,8956.491898
999.103793,-296.082377,2221.676944,9548.656652
999.104123,296.082377,2298.286494,9918.759623
999.104452,222.061783,995.924147,8438.347739
999.104782,-296.082377,766.095498,7772.162391
999.105111,0.000000,1455.581446,9844.739029
999.105441,-1184.329507,2068.457845,12213.398043
999.105771,-3552.988522,2451.505594,12731.542202
999.106100,-5329.482782,1532.190996,11843.295072
999.106430,-4811.338623,1225.752797,10955.047942
999.106760,-3552.988522,536.266849,11029.068536
999.107089,-1332.370696,-536.266849,9918.759623
999.107419,-370.102971,-1685.410096,6513.812290
999.107748,-148.041188,-2451.505594,4589.276840
999.108078,666.185348,-2374.896044,6143.709319
999.108408,148.041188,-919.314598,9548.656652
999.108737,-2072.576638,1532.190996,10807.006753
999.109067,-4515.256246,2451.505594,10658.965565
999.109397,-4071.132681,1685.410096,11103.089130
999.109726,-1924.535449,536.266849,11325.150913
999.110056,296.082377,-1378.971896,10436.903782
999.110385,962.267725,-2604.724693,8882.471304
999.110715,888.247130,-1455.581446,8882.471304
999.111045,-370.102971,-306.438199,10362.883188
999.111374,-1998.556043,306.438199,11325.150913
999.111704,-3552.988522,153.219100,10881.027347
999.112033,-4219.173869,0.000000,9992.780217
999.112363,-2516.700203,-689.485948,10362.883188
999.112693,-592.164754,-995.924147,10288.862594
999.113022,518.144159,-1685.410096,8586.388927
999.113352,1110.308913,-2834.553343,7476.080014
999.113682,1554.432478,-2451.505594,8216.285956
999.114011,222.061783,-153.219100,10288.862594
999.114341,-1184.329507,2451.505594,11917.315666
999.114670,-2442.679609,3217.601092,11547.212695
999.115000,-2072.576638,2604.724693,10955.047942
999.115330,-148.041188,1685.410096,10140.821405
999.115659,1554.432478,1072.533697,9548.656652
999.115989,2516.700203,0.000000,7624.121203
999.116318,2220.617826,0.000000,7031.956449
999.116648,888.247130,1685.410096,8364.327145
999.116978,-296.082377,1915.238745,10955.047942
999.117307,-2442.679609,3217.601092,11177.109724
999.117637,-3923.091493,3447.429741,10288.862594
999.117967,-2664.741391,2757.943793,9474.636058
999.118296,-740.205942,1149.143247,9622.677246
999.118626,1184.329507,459.657299,8956.491898
999.118955,666.185348,919.314598,6809.894666
999.119285,296.082377,1915.238745,6587.832884
999.119615,296.082377,2451.505594,8142.265362
999.119944,-888.247130,3677.258390,9992.780217
999.120274,-2516.700203,4060.306139,9770.718434
999.120604,-2516.700203,3140.991542,8438.347739
999.120933,-1480.411884,2757.943793,8586.388927
999.121263,0.000000,2834.553343,8512.368333
999.121592,518.144159,1915.238745,7550.100608
999.121922,814.226536,459.657299,7550.100608
999.122252,740.205942,1915.238745,8956.491898
999.122581,-962.267725,3524.039291,11177.109724
999.122911,-2886.803174,2987.772442,12065.356855
999.123240,-4811.338623,2528.115143,11621.233289
999.123570,-5033.400406,1455.581446,11251.130318
999.123900,-3330.926739,306.438199,11103.089130
999.124229,-1406.391290,-306.438199,9844.739029
999.124559,0.000000,-1378.971896,7550.100608
999.124889,518.144159,-2068.457845,6587.832884
999.125218,296.082377,-1532.190996,7772.162391
999.125548,-888.247130,229.828649,9622.677246
999.125877,-2664.741391,2068.457845,10140.821405
999.126207,-3627.009116,2374.896044,9918.759623
999.126537,-2960.823768,1608.800546,10140.821405
999.126866,-1628.453072,-229.828649,10807.006753
999.127196,-370.102971,-612.876398,9992.780217
999.127526,-518.144159,-689.485948,8290.306550
999.127855,-296.082377,-1608.800546,8882.471304
999.128185,-740.205942,-1149.143247,10658.965565
999.128514,-2072.576638,-536.266849,12139.377449
999.128844,-3775.050304,-612.876398,11547.212695
999.129174,-4145.153275,-536.266849,10362.883188
999.129503,-2738.761985,-689.485948,10807.006753
999.129833,-888.247130,-1608.800546,11399.171507
999.130162,370.102971,-1455.581446,9474.636058
999.130492,1184.329507,-1378.971896,7402.059420
999.130822,1850.514855,-1378.971896,7476.080014
999.131151,1480.411884,-612.876398,9474.636058
999.131481,-222.061783,1608.800546,10584.944971
999.131811,-1998.556043,1991.848295,10510.924376
999.132140,-2146.597232,2374.896044,10436.903782
999.132470,-814.226536,2145.067394,10362.883188
999.132799,740.205942,766.095498,10658.965565
999.133129,1110.308913,-459.657299,8808.450710
999.133459,148.041188,153.219100,7846.182985
999.133788,0.000000,1378.971896,8956.491898
999.134118,-148.041188,2068.457845,10881.027347
999.134448,-1776.494261,3064.381992,10955.047942
999.134777,-3478.967927,2987.772442,9844.739029
999.135107,-3034.844362,2068.457845,9326.594869
999.135436,-1258.350101,1762.019645,9770.718434
999.135766,518.144159,1838.629195,8882.471304
999.136096,1036.288319,995.924147,6587.832884
999.136425,2146.597232,995.924147,6217.729913
999.136755,1998.556043,1608.800546,7846.182985
999.137084,444.123565,2834.553343,9326.594869
999.137414,-1776.494261,4290.134789,9252.574275
999.137744,-2738.761985,4519.963438,9178.553681
999.138073,-1110.308913,3447.429741,9548.656652
999.138403,814.226536,3294.210641,10214.842000
999.138733,1702.473667,2221.676944,8438.347739
999.139062,1702.473667,612.876398,6883.915261
999.139392,666.185348,1225.752797,7846.182985
999.139721,-814.226536,3370.820191,10807.006753
999.140051,-2664.741391,3524.039291,12139.377449
999.140381,-4959.379811,2528.115143,11621.233289
999.140710,-5625.565159,1762.019645,10807.006753
999.141040,-4367.215058,612.876398,10881.027347
999.141369,-2072.576638,-766.095498,10214.842000
999.141699,-296.082377,-2068.457845,7994.224174
999.142029,-222.061783,-1685.410096,6217.729913
999.142358,74.020594,-1072.533697,7698.141797
999.142688,-518.144159,0.000000,9770.718434
999.143018,-1628.453072,1915.238745,10584.944971
999.143347,-2442.679609,2221.676944,9918.759623
999.143677,-2072.576638,1991.848295,10214.842000
999.144006,-740.205942,1915.238745,10066.800811
999.144336,222.061783,842.705048,9104.533087
999.144666,-148.041188,-1455.581446,7402.059420
999.144995,-666.185348,-2068.457845,8512.368333
999.145325,-2220.617826,0.000000,10436.903782
999.145655,-3997.112087,-842.705048,12139.377449
999.145984,-5255.462188,-1991.848295,12287.418637
999.146314,-5625.565159,-1685.410096,11547.212695
999.146643,-3627.009116,-1762.019645,10732.986159
999.146973,-740.205942,-3294.210641,10140.821405
999.147303,1406.391290,-2528.115143,9178.553681
999.147632,1924.535449,-1225.752797,7846.182985
999.147962,2294.638420,-689.485948,7994.224174
999.148291,1628.453072,919.314598,9104.533087
999.148621,370.102971,2145.067394,10436.903782
999.148951,-1036.288319,2221.676944,9992.780217
999.149280,-1924.535449,1378.971896,9992.780217
999.149610,-962.267725,766.095498,10881.027347
999.149940,0.000000,0.000000,10658.965565
999.150269,592.164754,-459.657299,9030.512492
999.150599,518.144159,0.000000,8438.347739
999.150928,296.082377,383.047749,10066.800811
999.151258,-592.164754,1302.362347,11473.192101
999.151588,-2590.720797,2145.067394,11103.089130
999.151917,-4145.153275,2451.505594,10214.842000
999.152247,-3256.906145,2757.943793,10510.924376
999.152577,-1258.350101,2451.505594,10066.800811
999.152906,814.226536,995.924147,8734.430116
999.153236,1406.391290,229.828649,5921.647536
999.153565,1702.473667,76.609550,5773.606348
999.153895,888.247130,1302.362347,7994.224174
999.154225,-222.061783,3600.648841,9844.739029
999.154554,-1998.556043,5362.668486,9548.656652
999.154884,-2146.597232,4596.572988,8808.450710
999.155213,-740.205942,3140.991542,8808.450710
999.155543,888.247130,3447.429741,8956.491898
999.155873,1628.453072,2374.896044,8734.430116
999.156202,1036.288319,1915.238745,7772.162391
999.156532,0.000000,3294.210641,8956.491898
999.156862,-1110.308913,3064.381992,10955.047942
999.157191,-2368.659014,2374.896044,11621.233289
999.157521,-4071.132681,1915.238745,10584.944971
999.157850,-4367.215058,2451.505594,10288.862594
999.158180,-2516.700203,1378.971896,10362.883188
999.158510,-814.226536,153.219100,9400.615463
999.158839,74.020594,0.000000,7254.018232
999.159169,370.102971,-459.657299,5921.647536
999.159498,148.041188,76.609550,7179.997637
999.159828,-370.102971,1149.143247,9548.656652
999.160158,-2220.617826,1685.410096,10584.944971
999.160487,-4219.173869,2145.067394,10584.944971
999.160817,-4145.153275,1149.143247,10955.047942
999.161146,-2516.700203,612.876398,11547.212695
999.161476,-1702.473667,0.000000,10066.800811
999.161805,-592.164754,-1455.581446,8068.244768
999.162135,148.041188,-2911.162892,7698.141797
999.162464,296.082377,-2298.286494,9400.615463
999.162794,-1406.391290,229.828649,11177.109724
999.163123,-3552.988522,383.047749,11251.130318
999.163453,-4145.153275,0.000000,10881.027347
999.163782,-2738.761985,-689.485948,11103.089130
999.164112,-962.267725,-919.314598,11029.068536
999.164441,444.123565,-1991.848295,9178.553681
999.164771,1406.391290,-2911.162892,7328.038826
999.165100,1480.411884,-2604.724693,7846.182985
999.165430,370.102971,-842.705048,10362.883188
999.165759,-2368.659014,1149.143247,11843.295072
999.166089,-3701.029710,2068.457845,11399.171507
999.166418,-3849.070898,2068.457845,11103.089130
999.166748,-2812.782580,919.314598,10658.965565
999.167077,-444.123565,0.000000,9696.697840
999.167407,1036.288319,-1685.410096,7994.224174
999.167736,1554.432478,-1532.190996,7105.977043
999.168066,740.205942,459.657299,8586.388927
999.168395,-1036.288319,1532.190996,10288.862594
999.168725,-2738.761985,2145.067394,10955.047942
999.169054,-4071.132681,2374.896044,10584.944971
999.169384,-2738.761985,2757.943793,10214.842000
999.169713,148.041188,2068.457845,10436.903782
999.170043,2220.617826,76.609550,8734.430116
999.170372,2294.638420,-536.266849,6661.853478
999.170702,2146.597232,383.047749,6957.935855
999.171031,1850.514855,2221.676944,8734.430116
999.171361,0.000000,3677.258390,10362.883188
999.171690,-1554.432478,5515.887586,10362.883188
999.172020,-1776.494261,4826.401637,8734.430116
999.172349,0.000000,2604.724693,8512.368333
999.172679,1258.350101,2298.286494,8512.368333
999.173008,1332.370696,2681.334243,7402.059420
999.173338,592.164754,2451.505594,7105.977043
999.173667,0.000000,2451.505594,8734.430116
999.173997,-1258.350101,3294.210641,11399.171507
999.174326,-3108.864956,3447.429741,11843.295072
999.174656,-4663.297435,2374.896044,10807.006753
999.174985,-4367.215058,1915.238745,10658.965565
999.175315,-2886.803174,1762.019645,10658.965565
999.175644,-592.164754,153.219100,9474.636058
999.175974,888.247130,-1225.752797,7105.977043
999.176303,1702.473667,-766.095498,5847.626942
999.176633,2072.576638,0.000000,7846.182985
999.176962,1628.453072,1838.629195,10436.903782
999.177292,-888.247130,4136.915689,10362.883188
999.177621,-3108.864956,4749.792088,8438.347739
999.177951,-2516.700203,2757.943793,9178.553681
999.178280,-1332.370696,612.876398,11251.130318
999.178610,-888.247130,-306.438199,11029.068536
999.178939,-2442.679609,-995.924147,9030.512492
999.179269,-2738.761985,-1532.190996,8512.368333
999.179598,-2516.700203,-2068.457845,10066.800811
999.179928,-2738.761985,-1915.238745,11695.253884
999.180257,-4589.276840,-1225.752797,10436.903782
999.180587,-4959.379811,-766.095498,9696.697840
999.180916,-3404.947333,-383.047749,10436.903782
999.181246,-1110.308913,-306.438199,10732.986159
999.181575,740.205942,-1072.533697,9622.677246
999.181905,1332.370696,-1915.238745,7105.977043
999.182234,1480.411884,-1532.190996,7550.100608
999.182564,1110.308913,-612.876398,10066.800811
999.182893,-740.205942,766.095498,11843.295072
999.183223,-3034.844362,1302.362347,11325.150913
999.183552,-2812.782580,1225.752797,10807.006753
999.183882,-1702.473667,306.438199,11251.130318
999.184211,-148.041188,-306.438199,10658.965565
999.184541,370.102971,-995.924147,8364.327145
999.184870,592.164754,-1762.019645,7624.121203
999.185200,222.061783,-612.876398,9622.677246
999.185529,-888.247130,1378.971896,11769.274478
999.185859,-3034.844362,2451.505594,11769.274478
999.186188,-4589.276840,2068.457845,9844.739029
999.186518,-3478.967927,1302.362347,9474.636058
999.186847,-592.164754,153.219100,10362.883188
999.187177,1554.432478,-229.828649,8956.491898
999.187506,1480.411884,-459.657299,6513.812290
999.187836,1406.391290,842.705048,5995.668130
999.188165,1554.432478,1838.629195,8068.244768
999.188495,888.247130,3294.210641,9992.780217
999.188824,-296.082377,5056.230287,10214.842000
999.189154,-1924.535449,5132.839837,9178.553681
999.189483,-1480.411884,4290.134789,9474.636058
999.189813,0.000000,2834.553343,9844.739029
999.190142,740.205942,1991.848295,8586.388927
999.190472,1406.391290,1455.581446,7105.977043
999.190801,1184.329507,1072.533697,7624.121203
999.191131,148.041188,1991.848295,10510.924376
999.191460,-1702.473667,2987.772442,11621.233289
999.191790,-3849.070898,3294.210641,10214.842000
999.192119,-3552.988522,2834.553343,9918.759623
999.192449,-1332.370696,2604.724693,9770.718434
999.192778,888.247130,1991.848295,9622.677246
999.193108,1258.350101,153.219100,6957.935855
999.193437,814.226536,-153.219100,5699.585753
999.193767,148.041188,612.876398,7624.121203
999.194096,-814.226536,1685.410096,10658.965565
999.194426,-2516.700203,3217.601092,11917.315666
999.194755,-4441.235652,3140.991542,10658.965565
999.195085,-3849.070898,1532.190996,10066.800811
999.195414,-2220.617826,229.828649,10066.800811
999.195744,-740.205942,-306.438199,9844.739029
999.196073,148.041188,0.000000,7994.224174
999.196403,-296.082377,-229.828649,7772.162391
999.196732,-1628.453072,153.219100,9326.594869
999.197062,-2664.741391,306.438199,11177.109724
999.197391,-4219.173869,536.266849,10807.006753
999.197721,-4737.318029,-153.219100,9918.759623
999.198050,-3997.112087,-1149.143247,9992.780217
999.198380,-1924.535449,-1762.019645,10362.883188
999.198709,0.000000,-2451.505594,9178.553681
999.199039,592.164754,-3294.210641,7772.162391
999.199368,666.185348,-1455.581446,8216.285956
999.199698,-148.041188,229.828649,9992.780217
999.200027,-1554.432478,766.095498,11621.233289
999.200357,-2812.782580,1455.581446,11547.212695
999.200686,-3404.947333,1455.581446,10732.986159
999.201016,-1998.556043,306.438199,10732.986159
999.201345,-592.164754,-306.438199,10584.944971
999.201675,74.020594,-1378.971896,8734.430116
999.202004,740.205942,-1685.410096,7698.141797
999.202334,296.082377,-1378.971896,8068.244768
999.202663,0.000000,383.047749,10658.965565
999.202993,-1850.514855,1072.533697,11399.171507
999.203322,-3775.050304,1608.800546,11029.068536
999.203652,-3256.906145,1838.629195,10362.883188
999.203981,-1258.350101,1149.143247,10436.903782
999.204311,740.205942,-229.828649,9178.553681
999.204640,1924.535449,-1072.533697,7402.059420
999.204970,2220.617826,-766.095498,7328.038826
999.205299,1850.514855,1072.533697,9252.574275
999.205629,74.020594,2834.553343,10732.986159
999.205958,-1850.514855,4060.306139,10362.883188
999.206288,-2146.597232,4596.572988,9326.594869
999.206617,-814.226536,3524.039291,9030.512492
999.206947,888.247130,2298.286494,9696.697840
999.207276,1184.329507,1915.238745,9104.533087
999.207606,592.164754,1915.238745,7550.100608
999.207935,666.185348,2298.286494,8290.306550
999.208265,-518.144159,2911.162892,9696.697840
999.208594,-1998.556043,3753.867940,10214.842000
999.208924,-2812.782580,2757.943793,9252.574275
999.209253,-2294.638420,2145.067394,8808.450710
999.209583,-962.267725,2604.724693,9178.553681
999.209912,518.144159,1991.848295,9104.533087
999.210242,1110.308913,842.705048,7698.141797
999.210571,888.247130,995.924147,7105.977043
999.210901,370.102971,1378.971896,8068.244768
999.211230,148.041188,1685.410096,10732.986159
999.211560,-740.205942,2374.896044,11547.212695
999.211889,-2590.720797,2757.943793,10288.862594
999.212219,-2960.823768,2374.896044,9326.594869
999.212548,-2146.597232,1838.629195,9030.512492
999.212878,-592.164754,1149.143247,8364.327145
999.213207,518.144159,-1149.143247,7698.141797
999.213537,-148.041188,229.828649,8364.327145
999.213866,-1258.350101,1225.752797,10510.924376
999.214196,-3552.988522,536.266849,12065.356855
999.214525,-5403.503377,306.438199,11843.295072
999.214855,-5921.647536,-229.828649,10658.965565
999.215184,-3849.070898,-1838.629195,10288.862594
999.215514,-1554.432478,-2604.724693,10214.842000
999.215843,148.041188,-2145.067394,9252.574275
999.216173,666.185348,-2604.724693,7550.100608
999.216502,1036.288319,-2604.724693,7698.141797
999.216832,740.205942,-229.828649,9474.636058
999.217161,-296.082377,1685.410096,11473.192101
999.217491,-2220.617826,1608.800546,11399.171507
999.217820,-2960.823768,1608.800546,10584.944971
999.218150,-2442.679609,842.705048,11029.068536
999.218479,-962.267725,-689.485948,11029.068536
999.218809,-592.164754,-995.924147,9252.574275
999.219138,0.000000,-1378.971896,8068.244768
999.219468,0.000000,-1991.848295,8660.409521
999.219797,-1184.329507,-689.485948,10658.965565
999.220127,-3182.885551,459.657299,11547.212695
999.220456,-4959.379811,1378.971896,11399.171507
999.220786,-4145.153275,1915.238745,10955.047942
999.221115,-2368.659014,1455.581446,10584.944971
999.221445,0.000000,-383.047749,9104.533087
999.221774,1628.453072,-1608.800546,6513.812290
999.222104,2220.617826,-1608.800546,5847.626942
999.222433,2072.576638,-153.219100,7846.182985
999.222763,0.000000,2528.115143,10214.842000
999.223092,-2146.597232,4519.963438,10584.944971
999.223422,-2516.700203,4213.525239,10288.862594
999.223751,-962.267725,3524.039291,10288.862594
999.224081,814.226536,2834.553343,10140.821405
999.224410,1628.453072,1838.629195,9030.512492
999.224740,888.247130,995.924147,7476.080014
999.225069,518.144159,1685.410096,8438.347739
999.225399,74.020594,3064.381992,10436.903782
999.225728,-740.205942,2451.505594,10881.027347
999.226058,-3034.844362,3140.991542,9770.718434
999.226387,-3404.947333,2528.115143,8586.388927
999.226717,-1184.329507,1915.238745,9326.594869
999.227046,1110.308913,2451.505594,9030.512492
999.227376,2368.659014,1532.190996,6957.935855
999.227705,3034.844362,995.924147,5625.565159
999.228035,2368.659014,1149.143247,7254.018232
999.228364,962.267725,2451.505594,9918.759623
999.228694,-2146.597232,3677.258390,11251.130318
999.229023,-4071.132681,3983.696590,11251.130318
999.229353,-4071.132681,3907.087040,10881.027347
999.229682,-2516.700203,1685.410096,11177.109724
999.230012,-1036.288319,-383.047749,9844.739029
999.230341,-444.123565,-1149.143247,7105.977043
999.230671,-370.102971,-306.438199,7031.956449
999.231000,-1110.308913,229.828649,9252.574275
999.231330,-2368.659014,1532.190996,11177.109724
999.231659,-3997.112087,1762.019645,10881.027347
999.231989,-4589.276840,919.314598,9770.718434
999.232318,-3330.926739,0.000000,9992.780217
999.232648,-1480.411884,0.000000,10066.800811
999.232977,296.082377,-1532.190996,9474.636058
999.233307,592.164754,-1991.848295,7920.203579
999.233636,74.020594,-1608.800546,8660.409521
999.233966,-740.205942,-1302.362347,11103.089130
999.234295,-2442.679609,-153.219100,12065.356855
999.234625,-4811.338623,1838.629195,11325.150913
999.234954,-4441.235652,766.095498,10658.965565
999.235284,-2738.761985,0.000000,10807.006753
999.235613,-888.247130,-306.438199,9844.739029
999.235943,740.205942,-1991.848295,7920.203579
999.236272,1110.308913,-1915.238745,7031.956449
999.236602,296.082377,0.000000,8512.368333
999.236931,-1184.329507,995.924147,10066.800811
999.237261,-3034.844362,153.219100,11029.068536
999.237590,-4515.256246,689.485948,11325.150913
999.237920,-4071.132681,766.095498,11547.212695
999.238249,-3108.864956,-612.876398,11251.130318
999.238579,-1184.329507,-1378.971896,10140.821405
999.238908,222.061783,-2145.067394,7920.203579
999.239238,888.247130,-2145.067394,7328.038826
999.239567,1924.535449,-229.828649,8660.409521
999.239897,814.226536,2451.505594,9992.780217
999.240226,-370.102971,3600.648841,10362.883188
999.240556,-1480.411884,3830.477490,10214.842000
999.240885,-592.164754,4290.134789,10214.842000
999.241215,1258.350101,3294.210641,10584.944971
999.241544,2146.597232,1378.971896,7772.162391
999.241874,1924.535449,1149.143247,6661.853478
999.242203,1850.514855,689.485948,7254.018232
999.242533,518.144159,842.705048,9622.677246
999.242862,-1554.432478,2604.724693,10732.986159
999.243192,-3849.070898,4443.353888,10584.944971
999.243521,-3775.050304,2834.553343,10288.862594
999.243851,-1850.514855,2298.286494,10584.944971
999.244180,0.000000,1608.800546,10066.800811
999.244510,888.247130,306.438199,8216.285956
999.244839,740.205942,612.876398,7179.997637
999.245169,0.000000,2451.505594,7624.121203
999.245498,-1480.411884,3294.210641,9400.615463
999.245828,-3182.885551,4213.525239,9030.512492
999.246157,-5033.400406,4060.306139,8216.285956
999.246487,-4885.359217,1685.410096,8586.388927
999.246816,-4145.153275,766.095498,10140.821405
999.247146,-3256.906145,1685.410096,9918.759623
999.247475,-2960.823768,689.485948,8734.430116
999.247805,-2516.700203,0.000000,7772.162391
999.248134,-2368.659014,1302.362347,9178.553681
999.248464,-2368.659014,2145.067394,9992.780217
999.248793,-4885.359217,995.924147,10732.986159
999.249123,-7031.956449,2145.067394,11473.192101
999.249452,-7698.141797,2221.676944,11843.295072
999.249782,-6069.688724,0.000000,12065.356855
999.250111,-3997.112087,-2374.896044,10140.821405
999.250441,-3108.864956,-2757.943793,7179.997637
999.250770,-2368.659014,-3217.601092,6661.853478
999.251100,-1332.370696,-2451.505594,8586.388927
999.251429,-2072.576638,-383.047749,10584.944971
999.251759,-4737.318029,1072.533697,10807.006753
999.252088,-6809.894666,2298.286494,9918.759623
999.252418,-6809.894666,1455.581446,10955.047942
999.252747,-5477.523971,842.705048,11251.130318
999.253077,-4441.235652,0.000000,10066.800811
999.253406,-3478.967927,-1762.019645,7920.203579
999.253736,-2664.741391,-2374.896044,6883.915261
999.254065,-2368.659014,-919.314598,7328.038826
999.254395,-1480.411884,0.000000,8882.471304
999.254724,-1776.494261,0.000000,9770.718434
999.255054,-3627.009116,1149.143247,10807.006753
999.255383,-6439.791695,2681.334243,11473.192101
999.255713,-7105.977043,2834.553343,11695.253884
999.256042,-6291.750507,1225.752797,11843.295072
999.256372,-5107.421000,-153.219100,10214.842000
999.256701,-3330.926739,-2374.896044,8660.409521
999.257031,-1924.535449,-2528.115143,7476.080014
999.257360,-370.102971,-1302.362347,8216.285956
999.257690,370.102971,153.219100,8882.471304
999.258019,74.020594,1762.019645,9474.636058
999.258349,-814.226536,2451.505594,10732.986159
999.258678,-2664.741391,2911.162892,12139.377449
999.259008,-5107.421000,4136.915689,13101.645173
999.259337,-7402.059420,4290.134789,12065.356855
999.259667,-7994.224174,3064.381992,9622.677246
999.259996,-5773.606348,995.924147,7772.162391
999.260326,-2368.659014,-1915.238745,5995.668130
999.260655,-148.041188,-2451.505594,4737.318029
999.260985,888.247130,-459.657299,5107.421000
999.261314,370.102971,2221.676944,5921.647536
999.261644,-148.041188,4903.011187,8438.347739
999.261974,-1184.329507,7354.516781,10881.027347
999.262303,-3256.906145,8044.002729,11695.253884
999.262633,-6143.709319,5592.497135,12657.521608
999.262962,-9252.574275,4443.353888,12879.583391
999.263292,-11251.130318,2145.067394,12361.439231
999.263621,-11325.150913,-1685.410096,11917.315666
999.263951,-10584.944971,-3217.601092,9992.780217
999.264280,-8364.327145,-3217.601092,7179.997637
999.264610,-4737.318029,-3983.696590,4811.338623
999.264939,0.000000,-2374.896044,4441.235652
999.265269,3182.885551,612.876398,4737.318029
999.265598,4515.256246,4213.525239,6587.832884
999.265928,3849.070898,6358.592633,8290.306550
999.266258,1036.288319,8120.612279,10732.986159
999.266587,-1924.535449,8580.269578,13027.624579
999.266917,-4293.194464,5439.278036,13915.871710
999.267246,-6809.894666,919.314598,13397.727550
999.267576,-8956.491898,-2451.505594,12583.501014
999.267905,-10807.006753,-4519.963438,11547.212695
999.268235,-11177.109724,-5745.716235,9992.780217
999.268564,-9326.594869,-6128.763984,8216.285956
999.268894,-5995.668130,-4673.182538,6439.791695
999.269223,-2442.679609,-2298.286494,6069.688724
999.269553,148.041188,689.485948,7031.956449
999.269883,592.164754,3370.820191,8142.265362
999.270212,-962.267725,6128.763984,9104.533087
999.270542,-2590.720797,6588.421283,10510.924376
999.270871,-4293.194464,4749.792088,11917.315666
999.271201,-6365.771101,1762.019645,11917.315666
999.271530,-7772.162391,-1378.971896,10584.944971
999.271860,-8438.347739,-4519.963438,9548.656652
999.272189,-7179.997637,-5822.325785,9400.615463
999.272519,-4885.359217,-5209.449386,9474.636058
999.272848,-2738.761985,-3830.477490,8956.491898
999.273178,-962.267725,-1149.143247,7920.203579
999.273507,444.123565,536.266849,9178.553681
999.273837,888.247130,3677.258390,10658.965565
999.274167,592.164754,6511.811733,11325.150913
999.274496,-1332.370696,5822.325785,11547.212695
999.274826,-2738.761985,2298.286494,12361.439231
999.275155,-5773.606348,1072.533697,13249.686362
999.275485,-7994.224174,536.266849,12139.377449
999.275814,-8734.430116,-1915.238745,8956.491898
999.276144,-6883.915261,-4290.134789,5773.606348
999.276473,-3478.967927,-4290.134789,4293.194464
999.276803,-1110.308913,-2681.334243,5033.400406
999.277132,148.041188,0.000000,5921.647536
999.277462,-296.082377,4136.915689,7105.977043
999.277791,-1702.473667,7737.564530,9326.594869
999.278121,-2664.741391,8963.317327,11399.171507
999.278451,-4071.132681,7354.516781,12805.562797
999.278780,-5477.523971,4903.011187,13323.706956
999.279110,-6513.812290,2604.724693,13027.624579
999.279439,-7031.956449,1072.533697,12139.377449
999.279769,-6957.935855,-995.924147,10584.944971
999.280098,-6439.791695,-1991.848295,8216.285956
999.280428,-4219.173869,-1378.971896,6883.915261
999.280757,-1628.453072,1378.971896,6439.791695
999.281087,1036.288319,2987.772442,6217.729913
999.281416,2072.576638,4903.011187,6809.894666
999.281746,1110.308913,6588.421283,7476.080014
999.282076,-444.123565,6894.859482,9548.656652
999.282405,-2294.638420,6665.030833,10732.986159
999.282735,-3997.112087,5286.058936,11695.253884
999.283064,-4589.276840,2987.772442,10881.027347
999.283394,-4589.276840,229.828649,9400.615463
999.283723,-3701.029710,-1225.752797,8512.368333
999.284053,-2368.659014,-1608.800546,8364.327145
999.284382,-1924.535449,153.219100,8586.388927
999.284712,-1850.514855,2604.724693,8734.430116
999.285041,-2294.638420,4673.182538,9622.677246
999.285371,-2368.659014,5822.325785,10510.924376
999.285700,-1924.535449,6128.763984,11251.130318
999.286030,-2516.700203,6358.592633,11547.212695
999.286360,-2664.741391,4366.744339,11029.068536
999.286689,-2516.700203,1838.629195,10288.862594
999.287019,-1776.494261,1455.581446,9548.656652
999.287348,-1332.370696,0.000000,8882.471304
999.287678,-1702.473667,536.266849,8512.368333
999.288007,-888.247130,1762.019645,8956.491898
999.288337,148.041188,3447.429741,9770.718434
999.288666,148.041188,5515.887586,10658.965565
999.288996,-740.205942,7048.078582,10881.027347
999.289325,-1924.535449,7048.078582,10732.986159
999.289655,-2368.659014,6511.811733,10362.883188
999.289985,-2886.803174,5286.058936,9474.636058
999.290314,-2664.741391,2834.553343,8068.244768
999.290644,-2146.597232,1608.800546,6513.812290
999.290973,-1332.370696,-306.438199,5995.668130
999.291303,-666.185348,-229.828649,6661.853478
999.291632,-1184.329507,1225.752797,7402.059420
999.291962,-1628.453072,3140.991542,8290.306550
999.292291,-2146.597232,5056.230287,9030.512492
999.292621,-2516.700203,6894.859482,10881.027347
999.292950,-1998.556043,7048.078582,11547.212695
999.293280,-1406.391290,6358.592633,10955.047942
999.293609,-962.267725,4903.011187,10732.986159
999.293939,-592.164754,3524.039291,9696.697840
999.294269,-518.144159,2681.334243,10362.883188
999.294598,-1184.329507,2757.943793,9474.636058
999.294928,-888.247130,2681.334243,8808.450710
999.295257,0.000000,3140.991542,8882.471304
999.295587,1258.350101,3140.991542,8956.491898
999.295916,1332.370696,3600.648841,9104.533087
999.296246,-296.082377,4749.792088,9844.739029
999.296575,-1406.391290,5898.935335,10658.965565
999.296905,-1628.453072,6511.811733,11399.171507
999.297234,-1702.473667,5822.325785,11547.212695
999.297564,-1480.411884,4903.011187,10807.006753
999.297894,-1332.370696,3907.087040,10140.821405
999.298223,-1332.370696,3907.087040,9548.656652
999.298553,-1036.288319,4749.792088,9326.594869
999.298882,-370.102971,5669.106685,8956.491898
999.299212,222.061783,4749.792088,7550.100608
999.299541,0.000000,4060.306139,5921.647536
999.299871,518.144159,3064.381992,6143.709319
999.300200,74.020594,2374.896044,6883.915261
999.300530,-962.267725,2451.505594,8290.306550
999.300859,-2812.782580,3140.991542,9474.636058
999.301189,-3478.967927,3370.820191,10436.903782
999.301518,-3182.885551,3677.258390,11621.233289
999.301848,-2368.659014,4136.915689,11843.295072
999.302178,-1628.453072,4903.011187,11103.089130
999.302507,-962.267725,5669.106685,9918.759623
999.302837,222.061783,5592.497135,9474.636058
999.303166,1184.329507,6205.373534,9844.739029
999.303496,444.123565,6205.373534,9104.533087
999.303825,-592.164754,5822.325785,8364.327145
999.304155,-1332.370696,4290.134789,6735.874072
999.304484,-1776.494261,2374.896044,5995.668130
999.304814,-1850.514855,-153.219100,6069.688724
999.305143,-1554.432478,-1225.752797,7476.080014
999.305473,-2146.597232,-1455.581446,9104.533087
999.305803,-2516.700203,306.438199,10510.924376
999.306132,-2368.659014,2451.505594,11473.192101
999.306462,-1110.308913,3600.648841,12287.418637
999.306791,0.000000,5056.230287,13471.748144
999.307121,148.041188,6588.421283,13323.706956
999.307450,148.041188,7507.735880,12213.398043
999.307780,444.123565,6205.373534,10732.986159
999.308109,444.123565,3447.429741,9474.636058
999.308439,296.082377,2834.553343,9326.594869
999.308768,-1110.308913,2451.505594,8808.450710
999.309098,-2220.617826,2451.505594,8216.285956
999.309427,-2442.679609,1608.800546,7550.100608
999.309757,-1998.556043,689.485948,7328.038826
999.310087,-740.205942,842.705048,8290.306550
999.310416,-370.102971,1991.848295,9326.594869
999.310746,-296.082377,3294.210641,10066.800811
999.311075,-962.267725,4519.963438,10584.944971
999.311405,-1554.432478,6511.811733,11029.068536
999.311734,-1924.535449,7124.688131,11547.212695
999.312064,-1554.432478,6971.469032,12139.377449
999.312393,-1628.453072,6971.469032,11547.212695
999.312723,-2368.659014,6358.592633,9178.553681
999.313052,-2146.597232,4903.011187,6143.709319
999.313382,-370.102971,2834.553343,4515.256246
999.313712,2368.659014,1532.190996,4737.318029
999.314041,3108.864956,2451.505594,5329.482782
999.314371,1776.494261,2987.772442,5551.544565
999.314700,-518.144159,3447.429741,7476.080014
999.315030,-2812.782580,5056.230287,10214.842000
999.315359,-4071.132681,5592.497135,12583.501014
999.315689,-4811.338623,5822.325785,14582.057057
999.316018,-5181.441594,5132.839837,13767.830521
999.316348,-5033.400406,3830.477490,11843.295072
999.316677,-3627.009116,2604.724693,9844.739029
999.317007,-1480.411884,1991.848295,7179.997637
999.317336,1850.514855,1378.971896,5921.647536
999.317666,4367.215058,1915.238745,5181.441594
999.317996,4737.318029,3677.258390,5699.585753
999.318325,3552.988522,3907.087040,7179.997637
999.318655,2146.597232,3753.867940,9696.697840
999.318984,-1258.350101,5362.668486,12731.542202
999.319314,-4441.235652,7201.297681,14878.139434
999.319643,-5995.668130,5592.497135,15100.201217
999.319973,-5255.462188,2298.286494,13027.624579
999.320302,-2738.761985,-995.924147,9844.739029
999.320632,-1258.350101,-2681.334243,7179.997637
999.320961,148.041188,-2451.505594,6439.791695
999.321291,666.185348,-306.438199,6143.709319
999.321621,666.185348,1225.752797,7105.977043
999.321950,296.082377,2221.676944,7920.203579
999.322280,0.000000,3217.601092,8438.347739
999.322609,-1258.350101,2145.067394,8734.430116
999.322939,-1850.514855,153.219100,9844.739029
999.323268,-2442.679609,-306.438199,11547.212695
999.323598,-2738.761985,-689.485948,12953.603985
999.323927,-2664.741391,-1149.143247,12509.480420
999.324257,-2220.617826,-612.876398,12287.418637
999.324586,-1554.432478,383.047749,11029.068536
999.324916,-444.123565,1072.533697,10066.800811
999.325245,370.102971,1302.362347,8586.388927
999.325575,1258.350101,536.266849,6587.832884
999.325905,1998.556043,-536.266849,5403.503377
999.326234,2072.576638,-1608.800546,6291.750507
999.326564,1258.350101,-1532.190996,8586.388927
999.326893,-666.185348,-1072.533697,10807.006753
999.327223,-2886.803174,-153.219100,12213.398043
999.327552,-4367.215058,995.924147,13619.789333
999.327882,-4515.256246,1838.629195,15026.180623
999.328211,-4219.173869,1838.629195,13989.892304
999.328541,-3330.926739,1532.190996,11029.068536
999.328870,-1406.391290,689.485948,7920.203579
999.329200,962.267725,229.828649,6809.894666
999.329529,1998.556043,766.095498,7179.997637
999.329859,1332.370696,2451.505594,7476.080014
999.330189,148.041188,2528.115143,7550.100608
999.330518,-888.247130,2911.162892,8512.368333
999.330848,-1628.453072,3600.648841,9770.718434
999.331177,-2368.659014,2145.067394,9622.677246
999.331507,-1924.535449,383.047749,9548.656652
999.331836,-1332.370696,229.828649,9622.677246
999.332166,-814.226536,842.705048,9696.697840
999.332495,-370.102971,1455.581446,9770.718434
999.332825,-592.164754,2681.334243,8956.491898
999.333154,0.000000,4519.963438,9252.574275
999.333484,0.000000,5745.716235,9326.594869
999.333814,-814.226536,6128.763984,7920.203579
999.334143,-666.185348,3907.087040,6291.750507
999.334473,-740.205942,1608.800546,5403.503377
999.334802,-518.144159,-229.828649,6513.812290
999.335132,-1036.288319,306.438199,8956.491898
999.335461,-2590.720797,1455.581446,10066.800811
999.335791,-3849.070898,1685.410096,10066.800811
999.336120,-3701.029710,1608.800546,11251.130318
999.336450,-2886.803174,2451.505594,13175.665768
999.336779,-2368.659014,3294.210641,11843.295072
999.337109,-1702.473667,1915.238745,8956.491898
999.337438,0.000000,-689.485948,7550.100608
999.337768,1406.391290,-842.705048,8068.244768
999.338098,1850.514855,-306.438199,9252.574275
999.338427,1258.350101,995.924147,9770.718434
999.338757,740.205942,1685.410096,9918.759623
999.339086,148.041188,1455.581446,11547.212695
999.339416,-740.205942,1532.190996,12879.583391
999.339745,-2516.700203,1685.410096,12583.501014
999.340075,-2590.720797,766.095498,10807.006753
999.340404,-1776.494261,-919.314598,10066.800811
999.340734,-296.082377,-1838.629195,9992.780217
999.341063,-518.144159,-1532.190996,9474.636058
999.341393,-1184.329507,-995.924147,7994.224174
999.341723,-1406.391290,-612.876398,7698.141797
999.342052,-1184.329507,689.485948,8956.491898
999.342382,-1628.453072,842.705048,9252.574275
999.342711,-1850.514855,153.219100,7994.224174
999.343041,-1924.535449,-2528.115143,6809.894666
999.343370,-444.123565,-3064.381992,7402.059420
999.343700,0.000000,-2068.457845,9474.636058
999.344029,-740.205942,-995.924147,10732.986159
999.344359,-1702.473667,229.828649,11399.171507
999.344688,-2072.576638,1455.581446,12139.377449
999.345018,-1554.432478,2374.896044,12583.501014
999.345347,-666.185348,1838.629195,10732.986159
999.345677,-370.102971,76.609550,8660.409521
999.346007,444.123565,-1685.410096,7328.038826
999.346336,1110.308913,-2145.067394,7772.162391
999.346666,814.226536,-1072.533697,8882.471304
999.346995,-296.082377,612.876398,9178.553681
999.347325,-1628.453072,689.485948,10066.800811
999.347654,-2146.597232,1302.362347,11769.274478
999.347984,-2294.638420,1685.410096,12139.377449
999.348313,-2368.659014,1302.362347,10807.006753
999.348643,-1628.453072,229.828649,8734.430116
999.348972,-666.185348,-612.876398,9252.574275
999.349302,222.061783,536.266849,10362.883188
999.349632,0.000000,2681.334243,10584.944971
999.349961,-666.185348,3524.039291,9474.636058
999.350291,-592.164754,4366.744339,9696.697840
999.350620,-1110.308913,4136.915689,10510.924376
999.350950,-1628.453072,4060.306139,11103.089130
999.351279,-2442.679609,3370.820191,9400.615463
999.351609,-2516.700203,1991.848295,7624.121203
999.351938,-1924.535449,612.876398,7328.038826
999.352268,-1406.391290,1072.533697,8586.388927
999.352597,-1702.473667,2451.505594,8586.388927
999.352927,-1998.556043,2987.772442,7328.038826
999.353256,-1332.370696,3064.381992,7846.182985
999.353586,-888.247130,4060.306139,8438.347739
999.353916,-888.247130,3753.867940,8438.347739
999.354245,-814.226536,3217.601092,7105.977043
999.354575,-148.041188,1762.019645,6217.729913
999.354904,666.185348,766.095498,7254.018232
999.355234,814.226536,1685.410096,8586.388927
999.355563,814.226536,2145.067394,9326.594869
999.355893,-518.144159,2145.067394,9474.636058
999.356222,-740.205942,2298.286494,10584.944971
999.356552,-1406.391290,2911.162892,12065.356855
999.356881,-2368.659014,2987.772442,11399.171507
999.357211,-2812.782580,1302.362347,9178.553681
999.357541,-1184.329507,-1378.971896,8216.285956
999.357870,0.000000,-2604.724693,9252.574275
999.358200,-888.247130,-1685.410096,9548.656652
999.358529,-2220.617826,-459.657299,9326.594869
999.358859,-2220.617826,-1225.752797,9770.718434
999.359188,-1628.453072,-995.924147,11843.295072
999.359518,-1850.514855,0.000000,12509.480420
999.359847,-2146.597232,-1072.533697,11325.150913
999.360177,-1332.370696,-2374.896044,9992.780217
999.360506,-296.082377,-3064.381992,10214.842000
999.360836,962.267725,-2451.505594,11325.150913
999.361165,518.144159,-1455.581446,11843.295072
999.361495,-222.061783,-995.924147,11251.130318
999.361825,-444.123565,0.000000,11399.171507
999.362154,-592.164754,-306.438199,12213.398043
999.362484,-962.267725,-536.266849,11251.130318
999.362813,-1258.350101,-689.485948,9178.553681
999.363143,-962.267725,-2451.505594,7846.182985
999.363473,0.000000,-2757.943793,7994.224174
999.363802,0.000000,-2298.286494,8660.409521
999.364132,-740.205942,-1149.143247,8438.347739
999.364461,-1480.411884,0.000000,8364.327145
999.364791,-2368.659014,689.485948,9474.636058
999.365120,-2220.617826,1378.971896,9622.677246
999.365450,-2146.597232,612.876398,8956.491898
999.365780,-2072.576638,-612.876398,7698.141797
999.366109,-1184.329507,76.609550,7624.121203
999.366439,-296.082377,-383.047749,8660.409521
999.366768,-296.082377,229.828649,9474.636058
999.367098,-814.226536,1838.629195,9548.656652
999.367428,-888.247130,2681.334243,9770.718434
999.367757,-592.164754,3677.258390,10732.986159
999.368087,-740.205942,3830.477490,10140.821405
999.368416,-1332.370696,3370.820191,9178.553681
999.368746,-814.226536,2145.067394,8142.265362
999.369076,0.000000,1072.533697,8364.327145
999.369405,666.185348,1302.362347,9178.553681
999.369735,-148.041188,1838.629195,8586.388927
999.370064,-888.247130,2451.505594,8364.327145
999.370394,-1258.350101,2834.553343,9548.656652
999.370723,-1258.350101,3447.429741,11103.089130
999.371053,-2146.597232,4213.525239,11029.068536
999.371383,-2220.617826,3064.381992,8734.430116
999.371712,-1480.411884,1378.971896,7846.182985
999.372042,0.000000,76.609550,8438.347739
999.372371,148.041188,689.485948,9696.697840
999.372701,-370.102971,2298.286494,10214.842000
999.373031,-1258.350101,2987.772442,9992.780217
999.373360,-1776.494261,3140.991542,11177.109724
999.373690,-1924.535449,3677.258390,11399.171507
999.374019,-2294.638420,2911.162892,10140.821405
999.374349,-1702.473667,1302.362347,8734.430116
999.374679,-370.102971,0.000000,8290.306550
999.375008,0.000000,-153.219100,7920.203579
999.375338,0.000000,-229.828649,7920.203579
999.375667,-740.205942,0.000000,7772.162391
999.375997,-1258.350101,383.047749,8660.409521
999.376326,-1554.432478,1455.581446,10140.821405
999.376656,-2294.638420,1838.629195,9696.697840
999.376986,-1850.514855,0.000000,8586.388927
999.377315,-1628.453072,-1685.410096,7920.203579
999.377645,-740.205942,-2374.896044,8068.244768
999.377974,0.000000,-1915.238745,8956.491898
999.378304,-148.041188,-919.314598,9844.739029
999.378634,-814.226536,306.438199,10288.862594
999.378963,-962.267725,689.485948,11547.212695
999.379293,-740.205942,689.485948,12139.377449
999.379622,-962.267725,689.485948,11473.192101
999.379952,-1480.411884,0.000000,9622.677246
999.380282,-888.247130,-1455.581446,8512.368333
999.380611,0.000000,-3064.381992,9326.594869
999.380941,518.144159,-3140.991542,10436.903782
999.381270,-740.205942,-1302.362347,10066.800811
999.381600,-1702.473667,-536.266849,9696.697840
999.381929,-1702.473667,-766.095498,10510.924376
999.382259,-1184.329507,0.000000,11917.315666
999.382589,-2146.597232,842.705048,11251.130318
999.382918,-2146.597232,153.219100,9400.615463
999.383248,-1184.329507,-1302.362347,9252.574275
999.383577,222.061783,-1762.019645,9844.739029
999.383907,148.041188,0.000000,10436.903782
999.384237,-740.205942,459.657299,10362.883188
999.384566,-1258.350101,1608.800546,10584.944971
999.384896,-1184.329507,2604.724693,11769.274478
999.385225,-1850.514855,3140.991542,11769.274478
999.385555,-1850.514855,3140.991542,9770.718434
999.385884,-1406.391290,1455.581446,8216.285956
999.386214,0.000000,766.095498,7550.100608
999.386544,296.082377,766.095498,7328.038826
999.386873,444.123565,1455.581446,7698.141797
999.387203,0.000000,2528.115143,7550.100608
999.387532,-1258.350101,4060.306139,7994.224174
999.387862,-1776.494261,4443.353888,9474.636058
999.388192,-1776.494261,3907.087040,9622.677246
999.388521,-2072.576638,3140.991542,7994.224174
999.388851,-1776.494261,1991.848295,7179.997637
999.389180,-1110.308913,919.314598,7772.162391
999.389510,-592.164754,1455.581446,8734.430116
999.389840,-888.247130,2987.772442,8882.471304
999.390169,-1702.473667,3370.820191,9400.615463
999.390499,-1850.514855,3753.867940,10288.862594
999.390828,-1702.473667,3830.477490,10881.027347
999.391158,-1850.514855,4290.134789,9918.759623
999.391487,-1332.370696,2451.505594,7772.162391
999.391817,0.000000,229.828649,7402.059420
999.392147,1184.329507,-612.876398,8290.306550
999.392476,814.226536,919.314598,9252.574275
999.392806,-444.123565,1991.848295,9030.512492
999.393135,-1036.288319,1685.410096,9474.636058
999.393465,-666.185348,995.924147,11473.192101
999.393795,-1332.370696,1455.581446,11991.336260
999.394124,-2146.597232,842.705048,10288.862594
999.394454,-1998.556043,-1225.752797,8586.388927
999.394783,-1036.288319,-2681.334243,9252.574275
999.395113,-962.267725,-2145.067394,10658.965565
999.395443,-1554.432478,-459.657299,11103.089130
999.395772,-1406.391290,76.609550,10584.944971
999.396102,-1036.288319,0.000000,9770.718434
999.396431,-592.164754,-306.438199,10955.047942
999.396761,-1036.288319,-459.657299,11769.274478
999.397090,-1924.535449,-306.438199,10732.986159
999.397420,-2146.597232,-612.876398,9770.718434
999.397750,-888.247130,-1915.238745,9770.718434
999.398079,0.000000,-2145.067394,10288.862594
999.398409,148.041188,-1762.019645,9918.759623
999.398738,-296.082377,-766.095498,9326.594869
999.399068,-518.144159,383.047749,9326.594869
999.399398,-370.102971,842.705048,9548.656652
999.399727,-814.226536,689.485948,8882.471304
999.400057,-962.267725,0.000000,8512.368333
999.400386,-666.185348,-842.705048,8364.327145
999.400716,74.020594,-459.657299,8808.450710
999.401046,0.000000,153.219100,9178.553681
999.401375,-814.226536,689.485948,9030.512492
999.401705,-1998.556043,1302.362347,10140.821405
999.402034,-2220.617826,2374.896044,11843.295072
999.402364,-2516.700203,2987.772442,11251.130318
999.402693,-2886.803174,2757.943793,9474.636058
999.403023,-1850.514855,1762.019645,8364.327145
999.403353,-592.164754,229.828649,8142.265362
999.403682,296.082377,1072.533697,8438.347739
999.404012,296.082377,2451.505594,8068.244768
999.404341,0.000000,3294.210641,7328.038826
999.404671,-222.061783,2451.505594,8438.347739
999.405001,-518.144159,4673.182538,10584.944971
999.405330,-1480.411884,5515.887586,10140.821405
999.405660,-1850.514855,3370.820191,7920.203579
999.405989,-888.247130,1302.362347,7550.100608
999.406319,148.041188,0.000000,8956.491898
999.406649,74.020594,1608.800546,10362.883188
999.406978,-1184.329507,2757.943793,9622.677246
999.407308,-1776.494261,3140.991542,9178.553681
999.407637,-1850.514855,3294.210641,10436.903782
999.407967,-1924.535449,3753.867940,12435.459826
999.408296,-2516.700203,4673.182538,11621.233289
999.408626,-2368.659014,3370.820191,8734.430116
999.408956,-1258.350101,1302.362347,7402.059420
999.409285,0.000000,229.828649,8068.244768
999.409615,296.082377,76.609550,9178.553681
999.409944,-888.247130,1532.190996,9030.512492
999.410274,-1184.329507,2221.676944,9104.533087
999.410604,-1110.308913,2298.286494,10214.842000
999.410933,-1406.391290,1915.238745,10881.027347
999.411263,-2146.597232,842.705048,9770.718434
999.411592,-1924.535449,-459.657299,8216.285956
999.411922,-666.185348,-919.314598,8142.265362
999.412252,-444.123565,-689.485948,9030.512492
999.412581,-888.247130,0.000000,9400.615463
999.412911,-1184.329507,-153.219100,8956.491898
999.413240,-666.185348,0.000000,9696.697840
999.413570,-666.185348,919.314598,10362.883188
999.413899,-1554.432478,1378.971896,10881.027347
999.414229,-2294.638420,0.000000,9400.615463
999.414559,-2072.576638,-1991.848295,9030.512492
999.414888,-888.247130,-2221.676944,10066.800811
999.415218,148.041188,-1455.581446,10510.924376
999.415547,0.000000,-1072.533697,9770.718434
999.415877,-518.144159,-1302.362347,9326.594869
999.416207,-518.144159,-612.876398,10732.986159
999.416536,-370.102971,1149.143247,11695.253884
999.416866,-740.205942,1685.410096,10362.883188
999.417195,-518.144159,153.219100,8734.430116
999.417525,-370.102971,-1378.971896,8438.347739
999.417855,592.164754,-1915.238745,9992.780217
999.418184,296.082377,-689.485948,10732.986159
999.418514,-592.164754,459.657299,10066.800811
999.418843,-1850.514855,1149.143247,9844.739029
999.419173,-1850.514855,1072.533697,11843.295072
999.419502,-2442.679609,1915.238745,13101.645173
999.419832,-3256.906145,2681.334243,10658.965565
999.420162,-2664.741391,1302.362347,8068.244768
999.420491,-1036.288319,-383.047749,8068.244768
999.420821,370.102971,229.828649,9104.533087
999.421150,0.000000,2068.457845,9252.574275
999.421480,-740.205942,3524.039291,8438.347739
999.421810,-740.205942,3753.867940,8956.491898
999.422139,-1406.391290,3983.696590,10066.800811
999.422469,-1628.453072,4519.963438,9770.718434
999.422798,-1554.432478,3064.381992,8512.368333
999.423128,-1036.288319,2451.505594,7105.977043
999.423458,0.000000,1225.752797,7179.997637
999.423787,222.061783,1532.190996,8068.244768
999.424117,-666.185348,3217.601092,9178.553681
999.424446,-1480.411884,4060.306139,8734.430116
999.424776,-1628.453072,4596.572988,9252.574275
999.425105,-1850.514855,4136.915689,9770.718434
999.425435,-2220.617826,3983.696590,9548.656652
999.425765,-1850.514855,3140.991542,8290.306550
999.426094,-1406.391290,1608.800546,7402.059420
999.426424,-592.164754,995.924147,7846.182985
999.426753,-444.123565,1532.190996,8512.368333
999.427083,-962.267725,2298.286494,8882.471304
999.427413,-1258.350101,2221.676944,9548.656652
999.427742,-1036.288319,1762.019645,10066.800811
999.428072,-1036.288319,2221.676944,10584.944971
999.428401,-1702.473667,1455.581446,9696.697840
999.428731,-1332.370696,76.609550,9030.512492
999.429060,-370.102971,-842.705048,9326.594869
999.429390,740.205942,-919.314598,9622.677246
999.429720,592.164754,0.000000,9992.780217
999.430049,-148.041188,153.219100,10140.821405
999.430379,-740.205942,229.828649,11177.109724
999.430708,-962.267725,306.438199,12361.439231
999.431038,-1924.535449,1378.971896,11621.233289
999.431368,-2072.576638,383.047749,10214.842000
999.431697,-1776.494261,-1685.410096,9474.636058
999.432027,-1184.329507,-2604.724693,9770.718434
999.432356,-962.267725,-2681.334243,10288.862594
999.432686,-1776.494261,-1608.800546,9770.718434
999.433016,-1480.411884,-459.657299,9030.512492
999.433345,-1628.453072,-536.266849,10214.842000
999.433675,-1480.411884,-76.609550,11103.089130
999.434004,-1554.432478,0.000000,10288.862594
999.434334,-962.267725,-842.705048,8808.450710
999.434663,-592.164754,-1225.752797,8142.265362
999.434993,296.082377,-1532.190996,9326.594869
999.435323,222.061783,-689.485948,10140.821405
999.435652,-444.123565,0.000000,9992.780217
999.435982,-888.247130,1149.143247,10436.903782
999.436311,-1110.308913,2451.505594,11399.171507
999.436641,-1776.494261,2451.505594,11695.253884
999.436971,-2368.659014,1685.410096,9696.697840
999.437300,-1924.535449,459.657299,7772.162391
999.437630,-592.164754,-229.828649,7772.162391
999.437959,370.102971,0.000000,8216.285956
999.438289,-370.102971,766.095498,8142.265362
999.438619,-1406.391290,1455.581446,7846.182985
999.438948,-1332.370696,1915.238745,9104.533087
999.439278,-1480.411884,3600.648841,10732.986159
999.439607,-1776.494261,4060.306139,10436.903782
999.439937,-2368.659014,3370.820191,8142.265362
999.440266,-888.247130,1225.752797,7846.182985
999.440596,222.061783,689.485948,8734.430116
999.440926,296.082377,1685.410096,9548.656652
999.441255,-518.144159,3140.991542,9622.677246
999.441585,-962.267725,3907.087040,9622.677246
999.441914,-962.267725,3983.696590,10288.862594
999.442244,-1036.288319,4213.525239,10955.047942
999.442574,-1332.370696,3753.867940,9844.739029
999.442903,-1332.370696,2221.676944,8142.265362
999.443233,-814.226536,1149.143247,7624.121203
999.443562,-740.205942,612.876398,8216.285956
999.443892,-740.205942,689.485948,8956.491898
999.444222,-1332.370696,1532.190996,8956.491898
999.444551,-1998.556043,2451.505594,9474.636058
999.444881,-2146.597232,2681.334243,10510.924376
999.445210,-1924.535449,2528.115143,10658.965565
999.445540,-1776.494261,1302.362347,9178.553681
999.445869,-1036.288319,0.000000,7920.203579
999.446199,-222.061783,-995.924147,8216.285956
999.446529,222.061783,-383.047749,9252.574275
999.446858,0.000000,842.705048,9400.615463
999.447188,-1480.411884,766.095498,9696.697840
999.447517,-1628.453072,1685.410096,10955.047942
999.447847,-1406.391290,1762.019645,11843.295072
999.448177,-1850.514855,1302.362347,11473.192101
999.448506,-2368.659014,-306.438199,8660.409521
999.448836,-1036.288319,-2298.286494,7920.203579
999.449165,-370.102971,-3524.039291,8660.409521
999.449495,0.000000,-2451.505594,10066.800811
999.449825,-1036.288319,-229.828649,10362.883188
999.450154,-1554.432478,76.609550,9770.718434
999.450484,-1406.391290,0.000000,9844.739029
999.450813,-888.247130,-306.438199,10807.006753
999.451143,-962.267725,-459.657299,10140.821405
999.451472,-518.144159,-1225.752797,9326.594869
999.451802,0.000000,-2068.457845,8512.368333
999.452132,444.123565,-2528.115143,8956.491898
999.452461,518.144159,-2374.896044,10881.027347
999.452791,-740.205942,-536.266849,11399.171507
999.453120,-1776.494261,1762.019645,11621.233289
999.453450,-1702.473667,1838.629195,12361.439231
999.453780,-1554.432478,919.314598,11769.274478
999.454109,-2220.617826,919.314598,9770.718434
999.454439,-1924.535449,-306.438199,8216.285956
999.454768,-888.247130,-1378.971896,8068.244768
999.455098,-592.164754,-766.095498,8142.265362
999.455428,-888.247130,612.876398,8290.306550
999.455757,-1406.391290,1225.752797,8882.471304
999.456087,-1924.535449,1608.800546,9992.780217
999.456416,-1924.535449,2757.943793,10658.965565
999.456746,-2146.597232,2681.334243,9622.677246
999.457075,-1776.494261,2298.286494,8438.347739
999.457405,-740.205942,1455.581446,7920.203579
999.457735,296.082377,1072.533697,8438.347739
999.458064,296.082377,1685.410096,9400.615463
999.458394,-222.061783,3140.991542,9252.574275
999.458723,-1036.288319,4213.525239,9104.533087
999.459053,-1110.308913,3983.696590,10214.842000
999.459383,-518.144159,3983.696590,11177.109724
999.459712,-1258.350101,3907.087040,9548.656652
999.460042,-1480.411884,3064.381992,7254.018232
999.460371,-592.164754,1072.533697,6661.853478
999.460701,0.000000,229.828649,7846.182985
999.461031,0.000000,2604.724693,8808.450710
999.461360,-1036.288319,3753.867940,8364.327145
999.461690,-1850.514855,2834.553343,7846.182985
999.462019,-1924.535449,2604.724693,9474.636058
999.462349,-2072.576638,2451.505594,10436.903782
999.462679,-2146.597232,1378.971896,8660.409521
999.463008,-1998.556043,0.000000,7179.997637
999.463338,-666.185348,-1532.190996,8068.244768
999.463668,74.020594,-766.095498,10658.965565
999.463997,-1036.288319,1225.752797,11843.295072
999.464327,-1332.370696,2145.067394,11325.150913
999.464656,-962.267725,919.314598,11769.274478
999.464986,-1036.288319,1532.190996,12657.521608
999.465316,-1480.411884,1838.629195,12213.398043
999.465645,-1406.391290,306.438199,9770.718434
999.465975,-814.226536,-1991.848295,8216.285956
999.466305,296.082377,-2987.772442,8586.388927
999.466634,296.082377,-2374.896044,10066.800811
999.466964,-666.185348,-1149.143247,10288.862594
999.467293,-1332.370696,-1072.533697,9400.615463
999.467623,-1332.370696,-995.924147,9696.697840
999.467953,-1036.288319,-306.438199,10658.965565
999.468282,-1110.308913,-153.219100,10214.842000
999.468612,-1406.391290,-995.924147,8808.450710
999.468941,-814.226536,-2451.505594,7846.182985
999.469271,0.000000,-2987.772442,9178.553681
999.469601,74.020594,-1991.848295,9696.697840
999.469930,-814.226536,-383.047749,10140.821405
999.470260,-1702.473667,-153.219100,10140.821405
999.470590,-1628.453072,153.219100,11399.171507
999.470919,-2146.597232,919.314598,11473.192101
999.471249,-2442.679609,536.266849,10140.821405
999.471578,-2146.597232,-383.047749,8808.450710
999.471908,-1110.308913,-842.705048,8512.368333
999.472238,-222.061783,-306.438199,9178.553681
999.472567,-148.041188,153.219100,8808.450710
999.472897,-666.185348,766.095498,7994.224174
999.473227,-296.082377,1685.410096,9178.553681
999.473556,-444.123565,2374.896044,11029.068536
999.473886,-1110.308913,3064.381992,10362.883188
999.474215,-1554.432478,2068.457845,8290.306550
999.474545,-962.267725,153.219100,7920.203579
999.474875,592.164754,153.219100,9030.512492
999.475204,518.144159,1915.238745,10214.842000
999.475534,0.000000,3140.991542,10066.800811
999.475864,-888.247130,3370.820191,9548.656652
999.476193,-1184.329507,3524.039291,10881.027347
999.476523,-1406.391290,4290.134789,12065.356855
999.476852,-2072.576638,4596.572988,10658.965565
999.477182,-2220.617826,3907.087040,8512.368333
999.477512,-1480.411884,1762.019645,7476.080014
999.477841,-370.102971,536.266849,7698.141797
999.478171,-592.164754,1072.533697,8438.347739
999.478501,-1184.329507,2298.286494,8512.368333
999.478830,-1554.432478,3600.648841,8808.450710
999.479160,-1776.494261,3983.696590,9474.636058
999.479489,-1924.535449,3524.039291,9622.677246
999.479819,-1776.494261,1991.848295,8290.306550
999.480149,-962.267725,383.047749,7328.038826
999.480478,0.000000,689.485948,7994.224174
999.480808,0.000000,1302.362347,8882.471304
999.481137,-518.144159,1685.410096,9474.636058
999.481467,-888.247130,1838.629195,9400.615463
999.481797,-962.267725,1838.629195,9992.780217
999.482126,-1258.350101,2681.334243,10955.047942
999.482456,-1554.432478,2298.286494,11029.068536
999.482786,-1850.514855,1302.362347,9252.574275
999.483115,-1702.473667,-459.657299,7920.203579
999.483445,-740.205942,-2068.457845,8734.430116
999.483774,0.000000,-995.924147,9918.759623
999.484104,-592.164754,76.609550,9918.759623
999.484434,-1332.370696,153.219100,9104.533087
999.484763,-1406.391290,0.000000,9844.739029
999.485093,-962.267725,0.000000,11103.089130
999.485423,-1554.432478,0.000000,10140.821405
999.485752,-1776.494261,-383.047749,8660.409521
999.486082,-962.267725,-2604.724693,8512.368333
999.486411,148.041188,-3217.601092,10066.800811
999.486741,74.020594,-1685.410096,11251.130318
999.487071,-444.123565,-229.828649,10881.027347
999.487400,-1184.329507,-383.047749,11251.130318
999.487730,-1258.350101,306.438199,12879.583391
999.488060,-1850.514855,1762.019645,13397.727550
999.488389,-2516.700203,1302.362347,11103.089130
999.488719,-1776.494261,-536.266849,8956.491898
999.489048,-296.082377,-2757.943793,7994.224174
999.489378,296.082377,-2451.505594,8660.409521
999.489708,74.020594,-1302.362347,9252.574275
999.490037,-740.205942,229.828649,9178.553681
999.490367,-1332.370696,1225.752797,9474.636058
999.490697,-1258.350101,1915.238745,10140.821405
999.491026,-1554.432478,2451.505594,10288.862594
999.491356,-1036.288319,1532.190996,9178.553681
999.491685,-518.144159,1072.533697,7994.224174
999.492015,370.102971,459.657299,7846.182985
999.492345,888.247130,1302.362347,9474.636058
999.492674,-148.041188,2068.457845,9104.533087
999.493004,-1480.411884,3370.820191,9104.533087
999.493333,-1776.494261,3600.648841,9696.697840
999.493663,-1702.473667,3677.258390,10066.800811
999.493993,-2220.617826,3524.039291,9030.512492
999.494322,-2368.659014,2528.115143,7994.224174
999.494652,-1554.432478,1685.410096,7624.121203
999.494982,-518.144159,1838.629195,8068.244768
999.495311,-370.102971,2528.115143,8512.368333
999.495641,-666.185348,2911.162892,8586.388927
999.495970,-740.205942,2911.162892,9104.533087
999.496300,-1258.350101,4290.134789,10140.821405
999.496630,-1258.350101,4290.134789,9770.718434
999.496959,-888.247130,3064.381992,8808.450710
999.497289,-444.123565,1072.533697,8068.244768
999.497619,370.102971,229.828649,8216.285956
999.497948,296.082377,1072.533697,9844.739029
999.498278,-370.102971,1762.019645,10436.903782
999.498607,-1332.370696,2374.896044,10140.821405
999.498937,-1258.350101,2145.067394,11029.068536
999.499267,-1036.288319,2374.896044,11843.295072
999.499596,-1554.432478,2604.724693,10955.047942
999.499926,-1998.556043,1685.410096,8734.430116
999.500256,-1184.329507,-229.828649,7994.224174
999.500585,-296.082377,-1685.410096,8660.409521
999.500915,-370.102971,-766.095498,9844.739029
999.501244,-592.164754,689.485948,9696.697840
999.501574,-1406.391290,0.000000,9178.553681
999.501904,-1776.494261,229.828649,9844.739029
999.502233,-1776.494261,76.609550,10881.027347
999.502563,-1406.391290,-153.219100,10732.986159
999.502893,-1036.288319,229.828649,9548.656652
999.503222,-370.102971,-689.485948,8290.306550
999.503552,370.102971,-1608.800546,8512.368333
999.503881,296.082377,-1838.629195,9770.718434
999.504211,-518.144159,0.000000,10584.944971
999.504541,-1036.288319,1378.971896,10140.821405
999.504870,-1480.411884,1378.971896,10658.965565
999.505200,-1258.350101,995.924147,11325.150913
999.505529,-1850.514855,919.314598,10362.883188
999.505859,-1702.473667,-459.657299,9030.512492
999.506189,-1036.288319,-1378.971896,8438.347739
999.506518,0.000000,-1225.752797,8586.388927
999.506848,-444.123565,0.000000,9178.553681
999.507178,-1184.329507,306.438199,9178.553681
999.507507,-1332.370696,689.485948,9992.780217
999.507837,-962.267725,1915.238745,10807.006753
999.508166,-1554.432478,3294.210641,10658.965565
999.508496,-1850.514855,2145.067394,9252.574275
999.508826,-962.267725,229.828649,8956.491898
999.509155,74.020594,-306.438199,9252.574275
999.509485,0.000000,536.266849,9400.615463
999.509815,-222.061783,1838.629195,9548.656652
999.510144,-1258.350101,2834.553343,9992.780217
999.510474,-1258.350101,3753.867940,10881.027347
999.510803,-1258.350101,4290.134789,10807.006753
999.511133,-1332.370696,3294.210641,9400.615463
999.511463,-1184.329507,2604.724693,7698.141797
999.511792,-962.267725,1762.019645,6735.874072
999.512122,-148.041188,1532.190996,7698.141797
999.512452,-518.144159,1762.019645,7846.182985
999.512781,-1036.288319,2221.676944,7698.141797
999.513111,-1480.411884,2528.115143,8364.327145
999.513440,-1702.473667,3677.258390,10214.842000
999.513770,-2146.597232,3447.429741,10140.821405
999.514100,-2146.597232,3447.429741,8586.388927
999.514429,-1036.288319,1072.533697,7550.100608
999.514759,222.061783,306.438199,8512.368333
999.515089,666.185348,2068.457845,10214.842000
999.515418,0.000000,2681.334243,10066.800811
999.515748,-1480.411884,3064.381992,9696.697840
999.516077,-1480.411884,2298.286494,10214.842000
999.516407,-1184.329507,2298.286494,11843.295072
999.516737,-1702.473667,2451.505594,11843.295072
999.517066,-2294.638420,1532.190996,9326.594869
999.517396,-1184.329507,76.609550,7772.162391
999.517725,0.000000,-2068.457845,8364.327145
999.518055,0.000000,-842.705048,9622.677246
999.518385,-740.205942,1072.533697,9992.780217
999.518714,-1036.288319,1149.143247,9400.615463
999.519044,-666.185348,842.705048,9474.636058
999.519374,-1184.329507,766.095498,10658.965565
999.519703,-1628.453072,229.828649,9918.759623
999.520033,-1332.370696,-1225.752797,8808.450710
999.520362,-592.164754,-1608.800546,8364.327145
999.520692,148.041188,-1455.581446,9178.553681
999.521022,-148.041188,-1915.238745,10214.842000
999.521351,-888.247130,-383.047749,10510.924376
999.521681,-1332.370696,383.047749,11103.089130
999.522011,-1406.391290,1302.362347,11695.253884
999.522340,-1406.391290,2298.286494,11251.130318
999.522670,-1110.308913,0.000000,9770.718434
