#time,accel_x,accel_y,accel_z
1035.459043,-814.226536,1225.752797,9622.677246
1035.459373,-962.267725,1072.533697,9400.615463
1035.459702,-1036.288319,842.705048,9548.656652
1035.460032,-962.267725,766.095498,9622.677246
1035.460362,-1036.288319,995.924147,9474.636058
1035.460692,-1036.288319,766.095498,9770.718434
1035.461022,-1110.308913,1072.533697,9400.615463
1035.461351,-962.267725,919.314598,9844.739029
1035.461681,-1110.308913,995.924147,9474.636058
1035.462011,-1036.288319,689.485948,9548.656652
1035.462341,-1110.308913,766.095498,9474.636058
1035.462671,-666.185348,1149.143247,9696.697840
1035.463001,-740.205942,842.705048,9474.636058
1035.463330,-1184.329507,919.314598,9474.636058
1035.463660,-1036.288319,842.705048,9474.636058
1035.463990,-1036.288319,1072.533697,9400.615463
1035.464320,-962.267725,536.266849,9474.636058
1035.464650,-814.226536,842.705048,9696.697840
1035.464980,-888.247130,995.924147,9474.636058
1035.465309,-888.247130,1072.533697,9400.615463
1035.465639,-1036.288319,919.314598,9474.636058
1035.465969,-814.226536,1149.143247,9474.636058
1035.466299,-740.205942,1149.143247,9548.656652
1035.466629,-888.247130,689.485948,9696.697840
1035.466959,-1036.288319,842.705048,9696.697840
1035.467288,-1036.288319,842.705048,9474.636058
1035.467618,-1036.288319,766.095498,9474.636058
1035.467948,-814.226536,1302.362347,9178.553681
1035.468278,-962.267725,1149.143247,9844.739029
1035.468608,-1036.288319,1072.533697,9622.677246
1035.468938,-962.267725,919.314598,9770.718434
1035.469267,-1036.288319,919.314598,9548.656652
1035.469597,-1184.329507,612.876398,9104.533087
1035.469927,-888.247130,689.485948,9696.697840
1035.470257,-888.247130,842.705048,9474.636058
1035.470587,-814.226536,919.314598,9844.739029
1035.470916,-888.247130,842.705048,9622.677246
1035.471246,-962.267725,919.314598,9400.615463
1035.471576,-1184.329507,842.705048,9252.574275
1035.471906,-1110.308913,919.314598,9474.636058
1035.472236,-962.267725,995.924147,9474.636058
1035.472566,-962.267725,919.314598,9548.656652
1035.472895,-1036.288319,995.924147,9474.636058
1035.473225,-888.247130,842.705048,9474.636058
1035.473555,-888.247130,766.095498,9400.615463
1035.473885,-962.267725,842.705048,9548.656652
1035.474215,-888.247130,919.314598,9622.677246
1035.474545,-962.267725,1072.533697,9548.656652
1035.474874,-888.247130,995.924147,9178.553681
1035.475204,-666.185348,919.314598,9252.574275
1035.475534,-1036.288319,766.095498,9400.615463
1035.475864,-888.247130,842.705048,9474.636058
1035.476194,-1110.308913,766.095498,9400.615463
1035.476524,-1036.288319,766.095498,9326.594869
1035.476853,-740.205942,689.485948,9400.615463
1035.477183,-888.247130,919.314598,9474.636058
1035.477513,-1036.288319,919.314598,9474.636058
1035.477843,-962.267725,995.924147,9474.636058
1035.478173,-1184.329507,995.924147,9548.656652
1035.478503,-962.267725,1072.533697,9770.718434
1035.478832,-1036.288319,766.095498,9400.615463
1035.479162,-1110.308913,995.924147,9548.656652
1035.479492,-962.267725,612.876398,9548.656652
1035.479822,-1184.329507,919.314598,9474.636058
1035.480152,-962.267725,1072.533697,9474.636058
1035.480481,-1332.370696,766.095498,9696.697840
1035.480811,-1184.329507,842.705048,9474.636058
1035.481141,-1110.308913,919.314598,9474.636058
1035.481471,-962.267725,1149.143247,9696.697840
1035.481801,-888.247130,766.095498,9622.677246
1035.482131,-1110.308913,842.705048,9326.594869
1035.482460,-666.185348,766.095498,9326.594869
1035.482790,-222.061783,766.095498,9104.533087
1035.483120,666.185348,536.266849,9400.615463
1035.483450,814.226536,842.705048,8956.491898
1035.483780,740.205942,536.266849,8956.491898
1035.484110,518.144159,766.095498,9548.656652
1035.484439,0.000000,1072.533697,10362.883188
1035.484769,-518.144159,1302.362347,10584.944971
1035.485099,-888.247130,842.705048,10214.842000
1035.485429,-148.041188,229.828649,9696.697840
1035.485759,370.102971,306.438199,9548.656652
1035.486089,962.267725,0.000000,9326.594869
1035.486418,1998.556043,229.828649,8660.409521
1035.486748,3034.844362,612.876398,8734.430116
1035.487078,3775.050304,919.314598,8882.471304
1035.487408,3997.112087,2068.457845,9030.512492
1035.487738,3775.050304,1762.019645,9400.615463
1035.488068,3256.906145,1532.190996,9770.718434
1035.488397,2516.700203,1302.362347,10288.862594
1035.488727,1850.514855,536.266849,10436.903782
1035.489057,1702.473667,383.047749,11177.109724
1035.489387,1110.308913,-229.828649,10510.924376
1035.489717,1554.432478,-383.047749,9992.780217
1035.490046,2368.659014,-536.266849,9400.615463
1035.490376,3404.947333,-383.047749,9104.533087
1035.490706,4145.153275,689.485948,8956.491898
1035.491036,4515.256246,1455.581446,9104.533087
1035.491366,3775.050304,2451.505594,9548.656652
1035.491696,2738.761985,2911.162892,10436.903782
1035.492025,1036.288319,3064.381992,10584.944971
1035.492355,-740.205942,3064.381992,10436.903782
1035.492685,-2220.617826,1302.362347,9252.574275
1035.493015,-1776.494261,229.828649,8660.409521
1035.493345,-370.102971,-842.705048,7624.121203
1035.493675,1258.350101,-1532.190996,6883.915261
1035.494004,2886.803174,-995.924147,6735.874072
1035.494334,3997.112087,-229.828649,6957.935855
1035.494664,3627.009116,1838.629195,8586.388927
1035.494994,2812.782580,3830.477490,10881.027347
1035.495324,1628.453072,4596.572988,12287.418637
1035.495654,518.144159,4136.915689,12731.542202
1035.495983,0.000000,2834.553343,12509.480420
1035.496313,-518.144159,766.095498,11769.274478
1035.496643,-740.205942,-1455.581446,10807.006753
1035.496973,-296.082377,-2145.067394,9622.677246
1035.497303,444.123565,-2374.896044,8586.388927
1035.497633,1332.370696,-1532.190996,8142.265362
1035.497962,3182.885551,-689.485948,7328.038826
1035.498292,4293.194464,612.876398,7328.038826
1035.498622,4219.173869,1762.019645,7402.059420
1035.498952,3997.112087,2604.724693,7920.203579
1035.499282,3701.029710,3217.601092,9104.533087
1035.499611,2812.782580,2911.162892,10584.944971
1035.499941,1628.453072,2987.772442,11325.150913
1035.500271,740.205942,1685.410096,11547.212695
1035.500601,0.000000,0.000000,11251.130318
1035.500931,-518.144159,-1072.533697,10807.006753
1035.501261,-814.226536,-1608.800546,10510.924376
1035.501590,-444.123565,-1302.362347,10510.924376
1035.501920,518.144159,-1072.533697,10288.862594
1035.502250,1332.370696,-229.828649,10066.800811
1035.502580,2516.700203,536.266849,9178.553681
1035.502910,3701.029710,842.705048,8216.285956
1035.503240,4885.359217,766.095498,8142.265362
1035.503569,5403.503377,1378.971896,7994.224174
1035.503899,4959.379811,1302.362347,7550.100608
1035.504229,4071.132681,1225.752797,8512.368333
1035.504559,2442.679609,1149.143247,9474.636058
1035.504889,1110.308913,1378.971896,9844.739029
1035.505219,-296.082377,1608.800546,11029.068536
1035.505548,-740.205942,1072.533697,11177.109724
1035.505878,-518.144159,1149.143247,11103.089130
1035.506208,0.000000,766.095498,9992.780217
1035.506538,1036.288319,76.609550,8364.327145
1035.506868,3034.844362,-459.657299,7624.121203
1035.507197,3775.050304,-459.657299,7550.100608
1035.507527,3404.947333,689.485948,8586.388927
1035.507857,2516.700203,1915.238745,9030.512492
1035.508187,2368.659014,2374.896044,9474.636058
1035.508517,1702.473667,1072.533697,10510.924376
1035.508847,1184.329507,766.095498,11473.192101
1035.509176,370.102971,306.438199,11695.253884
1035.509506,-592.164754,0.000000,11473.192101
1035.509836,-1036.288319,0.000000,10436.903782
1035.510166,-444.123565,995.924147,10140.821405
1035.510496,1036.288319,0.000000,9104.533087
1035.510826,2886.803174,306.438199,8364.327145
1035.511155,4959.379811,1378.971896,7994.224174
1035.511485,6809.894666,2298.286494,7772.162391
1035.511815,7698.141797,2911.162892,8364.327145
1035.512145,6883.915261,3907.087040,9400.615463
1035.512475,4811.338623,4443.353888,10436.903782
1035.512805,2442.679609,4213.525239,11843.295072
1035.513134,-370.102971,2374.896044,12879.583391
1035.513464,-3330.926739,919.314598,12805.562797
1035.513794,-5921.647536,-612.876398,11991.336260
1035.514124,-6883.915261,-2298.286494,10955.047942
1035.514454,-5921.647536,-2911.162892,9030.512492
1035.514784,-3108.864956,-2757.943793,4737.318029
1035.515113,2368.659014,-3217.601092,2664.741391
1035.515443,7772.162391,-2145.067394,2072.576638
1035.515773,10732.986159,1072.533697,4515.256246
1035.516103,10214.842000,4979.620737,6809.894666
1035.516433,8734.430116,7277.907231,8808.450710
1035.516762,6439.791695,8810.098227,11695.253884
1035.517092,2960.823768,9499.584175,14285.974681
1035.517422,-740.205942,4903.011187,16580.613101
1035.517752,-3923.091493,0.000000,17320.819043
1035.518082,-6661.853478,-1991.848295,15396.283594
1035.518412,-6957.935855,-3447.429741,12287.418637
1035.518741,-3775.050304,-6511.811733,9696.697840
1035.519071,814.226536,-7660.954980,6809.894666
1035.519401,5551.544565,-5745.716235,2664.741391
1035.519731,10140.821405,-3217.601092,1036.288319
1035.520061,12731.542202,-153.219100,3552.988522
1035.520391,11547.212695,5286.058936,7550.100608
1035.520720,6143.709319,8503.660028,11473.192101
1035.521050,592.164754,9499.584175,14063.912898
1035.521380,-2738.761985,7890.783629,15174.221811
1035.521710,-3108.864956,3064.381992,15174.221811
1035.522040,-2368.659014,-1838.629195,13175.665768
1035.522370,-2072.576638,-5515.887586,9178.553681
1035.522699,148.041188,-8044.002729,5847.626942
1035.523029,2664.741391,-7354.516781,5625.565159
1035.523359,2960.823768,-3677.258390,7105.977043
1035.523689,2368.659014,842.705048,8216.285956
1035.524019,2146.597232,2911.162892,8882.471304
1035.524349,3034.844362,5132.839837,10584.944971
1035.524678,3997.112087,6128.763984,11843.295072
1035.525008,3627.009116,3217.601092,12879.583391
1035.525338,1702.473667,612.876398,11843.295072
1035.525668,-1554.432478,-306.438199,11325.150913
1035.525998,-2664.741391,-1225.752797,11325.150913
1035.526327,-3256.906145,-2221.676944,10658.965565
1035.526657,-2368.659014,-3677.258390,7698.141797
1035.526987,148.041188,-4749.792088,5181.441594
1035.527317,3701.029710,-3753.867940,4885.359217
1035.527647,7328.038826,0.000000,6735.874072
1035.527977,8586.388927,4366.744339,8364.327145
1035.528306,6661.853478,6511.811733,8956.491898
1035.528636,2664.741391,7048.078582,10584.944971
1035.528966,-296.082377,7354.516781,13545.768739
1035.529296,-2368.659014,6971.469032,15026.180623
1035.529626,-4441.235652,3753.867940,14211.954086
1035.529956,-5773.606348,-1149.143247,12583.501014
1035.530285,-7105.977043,-4903.011187,9770.718434
1035.530615,-6291.750507,-6818.249932,7920.203579
1035.530945,-4293.194464,-6588.421283,7476.080014
1035.531275,-3923.091493,-2528.115143,7624.121203
1035.531605,-2442.679609,1915.238745,6069.688724
1035.531934,814.226536,1915.238745,5551.544565
1035.532264,5403.503377,1378.971896,5625.565159
1035.532594,7105.977043,4519.963438,7698.141797
1035.532924,6661.853478,7967.393179,10140.821405
1035.533253,4737.318029,8503.660028,13027.624579
1035.533583,2368.659014,7737.564530,13175.665768
1035.533913,-222.061783,5439.278036,11843.295072
1035.534243,-1332.370696,2374.896044,10807.006753
1035.534573,-444.123565,-459.657299,11177.109724
1035.534902,-962.267725,229.828649,10214.842000
1035.535232,-1702.473667,-536.266849,7476.080014
1035.535562,-2072.576638,-1532.190996,6143.709319
1035.535892,-2738.761985,-1915.238745,6957.935855
1035.536221,-3552.988522,0.000000,8734.430116
1035.536551,-3552.988522,3064.381992,8956.491898
1035.536881,-1924.535449,3524.039291,8512.368333
1035.537211,518.144159,1838.629195,7179.997637
1035.537540,1554.432478,-536.266849,6291.750507
1035.537870,2516.700203,-842.705048,8142.265362
1035.538200,3330.926739,689.485948,11029.068536
1035.538530,1628.453072,2145.067394,11843.295072
1035.538860,-1184.329507,3907.087040,11103.089130
1035.539189,-2442.679609,2987.772442,10584.944971
1035.539519,-1332.370696,0.000000,10732.986159
1035.539849,-740.205942,-1149.143247,11029.068536
1035.540179,-1406.391290,-459.657299,11251.130318
1035.540508,-3330.926739,-842.705048,10436.903782
1035.540838,-5329.482782,-2145.067394,10288.862594
1035.541168,-5921.647536,-2298.286494,10584.944971
1035.541498,-3849.070898,-1915.238745,10140.821405
1035.541827,-666.185348,-2604.724693,9030.512492
1035.542157,1480.411884,-1149.143247,7846.182985
1035.542487,2516.700203,1072.533697,7105.977043
1035.542817,3923.091493,-459.657299,8808.450710
1035.543147,3256.906145,383.047749,11473.192101
1035.543476,-370.102971,4519.963438,12953.603985
1035.543806,-3552.988522,6588.421283,13397.727550
1035.544136,-3923.091493,4290.134789,12287.418637
1035.544466,-2812.782580,-459.657299,11769.274478
1035.544795,-2146.597232,-2681.334243,10066.800811
1035.545125,-3182.885551,-3753.867940,9326.594869
1035.545455,-5329.482782,-2604.724693,8660.409521
1035.545785,-6439.791695,-229.828649,7920.203579
1035.546115,-5403.503377,153.219100,7254.018232
1035.546444,-2368.659014,612.876398,6883.915261
1035.546774,1924.535449,459.657299,5847.626942
1035.547104,4885.359217,1072.533697,5477.523971
1035.547434,4885.359217,2987.772442,7328.038826
1035.547763,2812.782580,3983.696590,10288.862594
1035.548093,-592.164754,5592.497135,12953.603985
1035.548423,-3627.009116,7354.516781,13323.706956
1035.548753,-3108.864956,6818.249932,12139.377449
1035.549082,-1184.329507,2451.505594,9992.780217
1035.549412,962.267725,-2451.505594,7476.080014
1035.549742,518.144159,-4060.306139,6809.894666
1035.550072,-1776.494261,-2987.772442,7920.203579
1035.550402,-2812.782580,995.924147,9326.594869
1035.550731,-3108.864956,4366.744339,9252.574275
1035.551061,-814.226536,3524.039291,8068.244768
1035.551391,3034.844362,536.266849,6587.832884
1035.551721,6143.709319,0.000000,5773.606348
1035.552050,7254.018232,1378.971896,6217.729913
1035.552380,5255.462188,2911.162892,9030.512492
1035.552710,444.123565,4749.792088,12731.542202
1035.553040,-2886.803174,6281.983084,14656.077652
1035.553369,-4367.215058,4749.792088,14211.954086
1035.553699,-3478.967927,1302.362347,12287.418637
1035.554029,-1554.432478,-1302.362347,10584.944971
1035.554359,-1406.391290,-3753.867940,9474.636058
1035.554689,-3034.844362,-4290.134789,9400.615463
1035.555018,-5625.565159,-2221.676944,9030.512492
1035.555348,-5921.647536,229.828649,7994.224174
1035.555678,-3108.864956,842.705048,8290.306550
1035.556008,74.020594,-766.095498,9474.636058
1035.556337,2072.576638,1072.533697,7920.203579
1035.556667,3478.967927,1685.410096,5551.544565
1035.556997,4811.338623,-536.266849,7105.977043
1035.557327,3108.864956,2451.505594,11399.171507
1035.557657,-1554.432478,4519.963438,14063.912898
1035.557986,-4663.297435,5209.449386,14582.057057
1035.558316,-5403.503377,2757.943793,12805.562797
1035.558646,-4663.297435,612.876398,10807.006753
1035.558976,-2368.659014,-2451.505594,9548.656652
1035.559305,-1480.411884,-6052.154434,10288.862594
1035.559635,-4293.194464,-2451.505594,9548.656652
1035.559965,-7476.080014,229.828649,7476.080014
1035.560295,-6291.750507,76.609550,7698.141797
1035.560624,-2664.741391,995.924147,7994.224174
1035.560954,1110.308913,229.828649,7624.121203
1035.561284,3849.070898,-1149.143247,6439.791695
1035.561614,4145.153275,76.609550,6883.915261
1035.561944,3108.864956,2451.505594,8660.409521
1035.562273,370.102971,3370.820191,11843.295072
1035.562603,-1998.556043,4596.572988,13545.768739
1035.562933,-3256.906145,5975.544884,11843.295072
1035.563263,-2072.576638,2604.724693,9844.739029
1035.563592,740.205942,-2298.286494,8734.430116
1035.563922,1554.432478,-2451.505594,8290.306550
1035.564252,-444.123565,-2451.505594,8512.368333
1035.564582,-3034.844362,229.828649,8364.327145
1035.564912,-3775.050304,2374.896044,7994.224174
1035.565241,-1480.411884,2451.505594,7994.224174
1035.565571,2220.617826,153.219100,8586.388927
1035.565901,4737.318029,0.000000,8660.409521
1035.566231,4885.359217,2987.772442,6957.935855
1035.566560,2812.782580,2451.505594,7402.059420
1035.566890,-592.164754,2528.115143,10584.944971
1035.567220,-3775.050304,4903.011187,13915.871710
1035.567550,-4885.359217,4673.182538,15322.262999
1035.567879,-4367.215058,2451.505594,12805.562797
1035.568209,-2442.679609,-842.705048,9474.636058
1035.568539,-1332.370696,-4673.182538,7328.038826
1035.568869,-740.205942,-6205.373534,7624.121203
1035.569199,-2590.720797,-2757.943793,8734.430116
1035.569528,-3478.967927,2221.676944,8882.471304
1035.569858,-1110.308913,3907.087040,8438.347739
1035.570188,1406.391290,1685.410096,8660.409521
1035.570518,3627.009116,229.828649,8586.388927
1035.570847,4589.276840,229.828649,9474.636058
1035.571177,4293.194464,2987.772442,10584.944971
1035.571507,1554.432478,5592.497135,11251.130318
1035.571837,-2294.638420,4596.572988,11917.315666
1035.572166,-4071.132681,3140.991542,12657.521608
1035.572496,-4441.235652,1762.019645,12509.480420
1035.572826,-3404.947333,995.924147,10881.027347
1035.573156,-2812.782580,-612.876398,9030.512492
1035.573486,-4071.132681,-2221.676944,7328.038826
1035.573815,-6217.729913,-2757.943793,7772.162391
1035.574145,-7105.977043,-1991.848295,8142.265362
1035.574475,-5181.441594,1532.190996,7920.203579
1035.574805,-2368.659014,2068.457845,6883.915261
1035.575134,814.226536,459.657299,6069.688724
1035.575464,2886.803174,-1532.190996,6735.874072
1035.575794,3701.029710,-612.876398,9474.636058
1035.576124,2072.576638,3140.991542,11843.295072
1035.576454,-1406.391290,6358.592633,13027.624579
1035.576783,-2960.823768,7660.954980,13249.686362
1035.577113,-1776.494261,4443.353888,12287.418637
1035.577443,74.020594,229.828649,10584.944971
1035.577773,1628.453072,-1302.362347,8142.265362
1035.578102,1036.288319,-1608.800546,6809.894666
1035.578432,-1036.288319,-1072.533697,6217.729913
1035.578762,-2516.700203,-1378.971896,7254.018232
1035.579092,-3478.967927,0.000000,8586.388927
1035.579421,-1998.556043,1149.143247,8364.327145
1035.579751,222.061783,1149.143247,7179.997637
1035.580081,2368.659014,689.485948,6809.894666
1035.580411,4071.132681,229.828649,8882.471304
1035.580741,2220.617826,1455.581446,11769.274478
1035.581070,-2146.597232,3983.696590,12583.501014
1035.581400,-5329.482782,5515.887586,12509.480420
1035.581730,-5181.441594,3830.477490,12805.562797
1035.582060,-3997.112087,459.657299,12435.459826
1035.582389,-2812.782580,-2604.724693,10214.842000
1035.582719,-2146.597232,-4213.525239,8142.265362
1035.583049,-2738.761985,-4213.525239,7402.059420
1035.583379,-3330.926739,-1915.238745,8586.388927
1035.583708,-2960.823768,-459.657299,9548.656652
1035.584038,-962.267725,1072.533697,9400.615463
1035.584368,1998.556043,459.657299,8216.285956
1035.584698,4367.215058,-383.047749,7254.018232
1035.585028,5773.606348,1532.190996,8216.285956
1035.585357,5255.462188,1838.629195,10510.924376
1035.585687,1406.391290,2068.457845,12509.480420
1035.586017,-2886.803174,4979.620737,13545.768739
1035.586347,-4219.173869,6128.763984,13397.727550
1035.586676,-3404.947333,1991.848295,12731.542202
1035.587006,-2664.741391,-1225.752797,10807.006753
1035.587336,-3108.864956,-2374.896044,8956.491898
1035.587666,-4145.153275,-3524.039291,8290.306550
1035.587996,-5329.482782,-2298.286494,8364.327145
1035.588325,-6291.750507,1762.019645,8290.306550
1035.588655,-5107.421000,2068.457845,8290.306550
1035.588985,-1776.494261,689.485948,6883.915261
1035.589315,2738.761985,0.000000,4959.379811
1035.589644,5181.441594,0.000000,5551.544565
1035.589974,5033.400406,459.657299,8290.306550
1035.590304,962.267725,4060.306139,11621.233289
1035.590634,-2664.741391,7124.688131,13323.706956
1035.590963,-3627.009116,6052.154434,13323.706956
1035.591293,-1924.535449,4673.182538,11769.274478
1035.591623,74.020594,1378.971896,9844.739029
1035.591953,1554.432478,-2298.286494,8142.265362
1035.592283,370.102971,-2757.943793,6957.935855
1035.592612,-1480.411884,612.876398,6735.874072
1035.592942,-2220.617826,383.047749,7624.121203
1035.593272,-1850.514855,2145.067394,8808.450710
1035.593602,-2072.576638,3064.381992,8586.388927
1035.593931,0.000000,995.924147,7772.162391
1035.594261,2072.576638,1225.752797,6957.935855
1035.594591,2368.659014,1685.410096,7994.224174
1035.594921,740.205942,1378.971896,10732.986159
1035.595251,-2664.741391,2757.943793,13323.706956
1035.595580,-4811.338623,4903.011187,13767.830521
1035.595910,-4367.215058,2681.334243,12361.439231
1035.596240,-3256.906145,-306.438199,9696.697840
1035.596570,-1850.514855,-1149.143247,9474.636058
1035.596899,-666.185348,-2528.115143,10288.862594
1035.597229,-1554.432478,-1915.238745,9918.759623
1035.597559,-3330.926739,306.438199,8364.327145
1035.597889,-3552.988522,229.828649,7402.059420
1035.598218,-962.267725,-1072.533697,9030.512492
1035.598548,1258.350101,-689.485948,9844.739029
1035.598878,3034.844362,383.047749,9030.512492
1035.599208,3404.947333,0.000000,8290.306550
1035.599538,2664.741391,153.219100,8956.491898
1035.599867,0.000000,2604.724693,11917.315666
1035.600197,-2072.576638,4136.915689,14137.933492
1035.600527,-3256.906145,4749.792088,14063.912898
1035.600857,-3701.029710,3064.381992,11473.192101
1035.601186,-3701.029710,0.000000,8808.450710
1035.601516,-2294.638420,-2911.162892,8586.388927
1035.601846,-2738.761985,-3294.210641,9178.553681
1035.602176,-4811.338623,-1608.800546,8438.347739
1035.602505,-6513.812290,766.095498,7031.956449
1035.602835,-4589.276840,766.095498,6735.874072
1035.603165,-962.267725,-1149.143247,7105.977043
1035.603495,1628.453072,-1378.971896,7698.141797
1035.603825,3256.906145,536.266849,8216.285956
1035.604154,2590.720797,1762.019645,9474.636058
1035.604484,74.020594,3524.039291,11843.295072
1035.604814,-2146.597232,5592.497135,13175.665768
1035.605144,-2368.659014,5592.497135,13323.706956
1035.605473,-1332.370696,3677.258390,11843.295072
1035.605803,222.061783,842.705048,9622.677246
1035.606133,888.247130,-1532.190996,7254.018232
1035.606463,444.123565,-2911.162892,6735.874072
1035.606793,-1406.391290,-2604.724693,8142.265362
1035.607122,-2812.782580,1149.143247,8808.450710
1035.607452,-2368.659014,3677.258390,8512.368333
1035.607782,-370.102971,2068.457845,7624.121203
1035.608112,1850.514855,153.219100,6439.791695
1035.608441,3849.070898,383.047749,7031.956449
1035.608771,3478.967927,2528.115143,9104.533087
1035.609101,814.226536,4443.353888,11177.109724
1035.609431,-3330.926739,5975.544884,11917.315666
1035.609760,-5477.523971,5745.716235,11843.295072
1035.610090,-4737.318029,2374.896044,11917.315666
1035.610420,-3330.926739,306.438199,11843.295072
1035.610750,-2960.823768,-306.438199,9252.574275
1035.611080,-2960.823768,-2451.505594,7550.100608
1035.611409,-3849.070898,-3600.648841,7179.997637
1035.611739,-4811.338623,-1762.019645,7624.121203
1035.612069,-3627.009116,842.705048,8808.450710
1035.612399,-1110.308913,1455.581446,9474.636058
1035.612728,1332.370696,1532.190996,7920.203579
1035.613058,3034.844362,766.095498,6661.853478
1035.613388,3997.112087,-766.095498,7550.100608
1035.613718,2738.761985,1838.629195,10436.903782
1035.614047,0.000000,3677.258390,13323.706956
1035.614377,-2960.823768,5439.278036,13767.830521
1035.614707,-4441.235652,4443.353888,13323.706956
1035.615037,-4145.153275,306.438199,12583.501014
1035.615367,-2590.720797,-2451.505594,11177.109724
1035.615696,-2368.659014,-2834.553343,9770.718434
1035.616026,-3108.864956,-3217.601092,9178.553681
1035.616356,-4367.215058,-1991.848295,8438.347739
1035.616686,-4441.235652,-766.095498,7846.182985
1035.617015,-1554.432478,-995.924147,7698.141797
1035.617345,1628.453072,-842.705048,7698.141797
1035.617675,3627.009116,919.314598,7105.977043
1035.618005,4441.235652,1685.410096,7402.059420
1035.618335,3701.029710,766.095498,9622.677246
1035.618664,1776.494261,2757.943793,11991.336260
1035.618994,-1258.350101,5286.058936,12583.501014
1035.619324,-2294.638420,4979.620737,12805.562797
1035.619654,-2516.700203,2681.334243,11473.192101
1035.619983,-1776.494261,-229.828649,9696.697840
1035.620313,-222.061783,-3140.991542,8882.471304
1035.620643,-296.082377,-3524.039291,9178.553681
1035.620973,-2516.700203,-919.314598,8068.244768
1035.621302,-4589.276840,1838.629195,6883.915261
1035.621632,-3997.112087,1378.971896,6143.709319
1035.621962,-888.247130,76.609550,6217.729913
1035.622292,2738.761985,0.000000,6365.771101
1035.622622,4145.153275,383.047749,7105.977043
1035.622951,3478.967927,2374.896044,9104.533087
1035.623281,592.164754,3677.258390,10807.006753
1035.623611,-1702.473667,3830.477490,11473.192101
1035.623941,-1776.494261,3140.991542,12065.356855
1035.624270,-1554.432478,3217.601092,12213.398043
1035.624600,-1406.391290,2911.162892,12213.398043
1035.624930,-1554.432478,612.876398,10881.027347
1035.625260,-2442.679609,-995.924147,9030.512492
1035.625590,-4071.132681,-2374.896044,8290.306550
1035.625919,-4811.338623,-1608.800546,8956.491898
1035.626249,-3997.112087,1149.143247,9474.636058
1035.626579,-2220.617826,536.266849,8290.306550
1035.626909,-370.102971,-766.095498,6513.812290
1035.627238,1702.473667,-1378.971896,6365.771101
1035.627568,2812.782580,0.000000,7550.100608
1035.627898,1628.453072,2604.724693,11251.130318
1035.628228,-1850.514855,4979.620737,13027.624579
1035.628557,-4885.359217,6588.421283,13323.706956
1035.628887,-5625.565159,4443.353888,12805.562797
1035.629217,-3997.112087,919.314598,11991.336260
1035.629547,-2442.679609,-919.314598,10066.800811
1035.629876,-1628.453072,-2451.505594,9474.636058
1035.630206,-3330.926739,-2451.505594,8808.450710
1035.630535,-4885.359217,-1608.800546,8142.265362
1035.630865,-4293.194464,-153.219100,7920.203579
1035.631195,-592.164754,1072.533697,7846.182985
1035.631524,2664.741391,612.876398,7624.121203
1035.631854,4737.318029,536.266849,7328.038826
1035.632183,4663.297435,919.314598,8364.327145
1035.632513,2516.700203,2145.067394,10436.903782
1035.632842,-962.267725,4979.620737,12213.398043
1035.633172,-3182.885551,6511.811733,13471.748144
1035.633502,-3404.947333,4826.401637,12953.603985
1035.633831,-2442.679609,229.828649,10658.965565
1035.634161,-1036.288319,-4060.306139,7920.203579
1035.634490,-222.061783,-4443.353888,7624.121203
1035.634820,-1332.370696,-3217.601092,8660.409521
1035.635149,-3478.967927,153.219100,8808.450710
1035.635479,-3478.967927,2068.457845,7105.977043
1035.635809,-148.041188,1915.238745,6365.771101
1035.636138,3849.070898,76.609550,6513.812290
1035.636468,6439.791695,0.000000,6883.915261
1035.636797,6513.812290,2451.505594,7550.100608
1035.637127,3627.009116,3830.477490,9252.574275
1035.637456,-222.061783,4673.182538,11695.253884
1035.637786,-2960.823768,5592.497135,12731.542202
1035.638116,-3034.844362,3907.087040,13767.830521
1035.638445,-2072.576638,2145.067394,12065.356855
1035.638775,-2146.597232,0.000000,9622.677246
1035.639104,-1776.494261,-2604.724693,7328.038826
1035.639434,-2368.659014,-4826.401637,8512.368333
1035.639763,-4441.235652,-2834.553343,9844.739029
1035.640093,-5773.606348,1072.533697,9844.739029
1035.640423,-4663.297435,2221.676944,9030.512492
1035.640752,-1998.556043,153.219100,8142.265362
1035.641082,1258.350101,-229.828649,7031.956449
1035.641411,3034.844362,-1149.143247,6735.874072
1035.641741,3997.112087,229.828649,9474.636058
1035.642070,962.267725,3524.039291,12435.459826
1035.642400,-3775.050304,6128.763984,13915.871710
1035.642729,-5773.606348,5209.449386,14063.912898
1035.643059,-4885.359217,3447.429741,13471.748144
1035.643389,-3552.988522,1455.581446,11843.295072
1035.643718,-1702.473667,-995.924147,9252.574275
1035.644048,-2220.617826,-3294.210641,7179.997637
1035.644377,-3182.885551,-3600.648841,6439.791695
1035.644707,-4737.318029,-2911.162892,7624.121203
1035.645036,-4515.256246,459.657299,8586.388927
1035.645366,-3182.885551,2681.334243,7772.162391
1035.645696,0.000000,919.314598,6439.791695
1035.646025,3256.906145,0.000000,6143.709319
1035.646355,5033.400406,0.000000,8512.368333
1035.646684,3552.988522,1762.019645,11621.233289
1035.647014,-1110.308913,5209.449386,13027.624579
1035.647343,-4293.194464,7507.735880,12953.603985
1035.647673,-3701.029710,5669.106685,12879.583391
1035.648003,-1332.370696,383.047749,11991.336260
1035.648332,148.041188,-2451.505594,9918.759623
1035.648662,-1184.329507,-2834.553343,6809.894666
1035.648991,-3775.050304,-2374.896044,5847.626942
1035.649321,-5329.482782,-1762.019645,7179.997637
1035.649650,-4145.153275,-612.876398,8586.388927
1035.649980,-1850.514855,612.876398,8660.409521
1035.650310,1554.432478,229.828649,7476.080014
1035.650639,4959.379811,153.219100,6661.853478
1035.650969,6883.915261,1225.752797,6735.874072
1035.651298,6143.709319,1608.800546,8660.409521
1035.651628,2960.823768,2911.162892,12213.398043
1035.651957,-518.144159,6894.859482,14211.954086
1035.652287,-1406.391290,8273.831378,14285.974681
1035.652617,-814.226536,2681.334243,12509.480420
1035.652946,-370.102971,-1302.362347,10510.924376
1035.653276,-592.164754,-2604.724693,8956.491898
1035.653605,-962.267725,-3983.696590,9326.594869
1035.653935,-2072.576638,-1991.848295,8956.491898
1035.654264,-3849.070898,1991.848295,8216.285956
1035.654594,-3627.009116,2145.067394,6809.894666
1035.654924,0.000000,-1072.533697,6661.853478
1035.655253,2886.803174,-229.828649,6883.915261
1035.655583,4589.276840,2298.286494,7772.162391
1035.655912,2220.617826,2451.505594,9474.636058
1035.656242,-1998.556043,4213.525239,12065.356855
1035.656571,-5625.565159,4903.011187,13249.686362
1035.656901,-5995.668130,3677.258390,12805.562797
1035.657230,-4811.338623,1532.190996,11917.315666
1035.657560,-3627.009116,-612.876398,10658.965565
1035.657890,-2738.761985,-3600.648841,9474.636058
1035.658219,-3775.050304,-4596.572988,8882.471304
1035.658549,-5181.441594,-2681.334243,8734.430116
1035.658878,-4885.359217,-459.657299,8290.306550
1035.659208,-3108.864956,1838.629195,9030.512492
1035.659537,-222.061783,1532.190996,9252.574275
1035.659867,2516.700203,383.047749,8660.409521
1035.660197,4811.338623,689.485948,7476.080014
1035.660526,4959.379811,1991.848295,8068.244768
1035.660856,3034.844362,2987.772442,10732.986159
1035.661185,-148.041188,4443.353888,13545.768739
1035.661515,-3182.885551,5362.668486,13471.748144
1035.661844,-4293.194464,3294.210641,11843.295072
1035.662174,-3627.009116,536.266849,10066.800811
1035.662504,-2072.576638,-1302.362347,9548.656652
1035.662833,-1924.535449,-2298.286494,8512.368333
1035.663163,-3849.070898,-2068.457845,8586.388927
1035.663492,-5699.585753,-306.438199,7179.997637
1035.663822,-4737.318029,536.266849,7031.956449
1035.664151,-1702.473667,995.924147,7846.182985
1035.664481,1184.329507,383.047749,8364.327145
1035.664811,2960.823768,995.924147,7550.100608
1035.665140,4367.215058,1991.848295,7031.956449
1035.665470,3849.070898,2451.505594,8068.244768
1035.665799,2072.576638,4060.306139,10584.944971
1035.666129,-888.247130,5439.278036,12361.439231
1035.666458,-740.205942,5056.230287,12139.377449
1035.666788,-1110.308913,2145.067394,11325.150913
1035.667118,-518.144159,-612.876398,10214.842000
1035.667447,0.000000,-2068.457845,9622.677246
1035.667777,-1036.288319,-2834.553343,9696.697840
1035.668106,-2442.679609,-766.095498,8438.347739
1035.668436,-2738.761985,1991.848295,7105.977043
1035.668765,0.000000,1532.190996,6661.853478
1035.669095,2738.761985,0.000000,6587.832884
1035.669425,4071.132681,842.705048,6883.915261
1035.669754,4885.359217,2911.162892,8660.409521
1035.670084,2664.741391,3753.867940,10807.006753
1035.670413,-1850.514855,4443.353888,12879.583391
1035.670743,-5699.585753,4979.620737,14063.912898
1035.671072,-6587.832884,3524.039291,14878.139434
1035.671402,-5329.482782,919.314598,13767.830521
1035.671732,-4145.153275,-1915.238745,10362.883188
1035.672061,-2960.823768,-4290.134789,7328.038826
1035.672391,-2960.823768,-6435.202183,6513.812290
1035.672720,-3256.906145,-4136.915689,7476.080014
1035.673050,-3552.988522,383.047749,7624.121203
1035.673379,-2146.597232,2451.505594,7105.977043
1035.673709,666.185348,1225.752797,8660.409521
1035.674038,3182.885551,306.438199,8808.450710
1035.674368,4367.215058,1608.800546,9844.739029
1035.674698,3775.050304,2911.162892,10288.862594
1035.675027,1628.453072,3677.258390,11547.212695
1035.675357,-888.247130,4136.915689,12879.583391
1035.675686,-2738.761985,3140.991542,13619.789333
1035.676016,-4219.173869,1915.238745,12583.501014
1035.676345,-4515.256246,0.000000,10362.883188
1035.676675,-4293.194464,-1532.190996,7772.162391
1035.677005,-3849.070898,-3600.648841,7179.997637
1035.677334,-4071.132681,-4519.963438,8438.347739
1035.677664,-4737.318029,-3140.991542,9400.615463
1035.677993,-4663.297435,229.828649,7624.121203
1035.678323,-2220.617826,919.314598,6069.688724
1035.678652,1702.473667,-1378.971896,6365.771101
1035.678982,4663.297435,306.438199,8364.327145
1035.679312,5551.544565,2528.115143,9844.739029
1035.679641,4071.132681,3217.601092,10140.821405
1035.679971,1406.391290,5132.839837,10881.027347
1035.680300,-740.205942,5745.716235,12509.480420
1035.680630,-962.267725,4136.915689,13471.748144
1035.680959,-740.205942,1225.752797,12583.501014
1035.681289,-592.164754,-306.438199,9548.656652
1035.681619,-296.082377,-1608.800546,7179.997637
1035.681948,-1110.308913,-3907.087040,6957.935855
1035.682278,-1628.453072,-1991.848295,7550.100608
1035.682607,-1998.556043,919.314598,6587.832884
1035.682937,0.000000,2221.676944,5551.544565
1035.683266,2368.659014,1378.971896,6587.832884
1035.683596,3997.112087,1991.848295,8290.306550
1035.683926,3775.050304,3600.648841,9696.697840
1035.684255,1628.453072,3294.210641,10732.986159
1035.684585,-1628.453072,3677.258390,12731.542202
1035.684914,-4441.235652,5286.058936,13915.871710
1035.685244,-5329.482782,3140.991542,14285.974681
1035.685573,-4219.173869,-995.924147,12953.603985
1035.685903,-3404.947333,-2451.505594,10066.800811
1035.686233,-2960.823768,-2528.115143,7402.059420
1035.686562,-2664.741391,-4060.306139,6587.832884
1035.686892,-3330.926739,-2604.724693,7402.059420
1035.687221,-3330.926739,1225.752797,7550.100608
1035.687551,-1776.494261,2604.724693,7402.059420
1035.687880,740.205942,766.095498,7920.203579
1035.688210,2368.659014,1378.971896,8882.471304
1035.688539,2368.659014,2834.553343,9770.718434
1035.688869,1480.411884,2145.067394,11103.089130
1035.689199,-148.041188,3217.601092,11843.295072
1035.689528,-2738.761985,3753.867940,12139.377449
1035.689858,-3552.988522,2911.162892,12213.398043
1035.690187,-3034.844362,1072.533697,12139.377449
1035.690517,-2664.741391,-153.219100,10955.047942
1035.690846,-2072.576638,-1685.410096,8512.368333
1035.691176,-3034.844362,-2681.334243,7031.956449
1035.691506,-4441.235652,-2068.457845,7550.100608
1035.691835,-4515.256246,-1302.362347,8956.491898
1035.692165,-3108.864956,229.828649,9770.718434
1035.692494,-1184.329507,842.705048,8882.471304
1035.692824,814.226536,306.438199,7105.977043
1035.693153,3256.906145,-612.876398,6883.915261
1035.693483,4441.235652,229.828649,8882.471304
1035.693813,2738.761985,2528.115143,10955.047942
1035.694142,-74.020594,4596.572988,11621.233289
1035.694472,-2072.576638,5209.449386,11991.336260
1035.694801,-2146.597232,3447.429741,11843.295072
1035.695131,-1406.391290,842.705048,12139.377449
1035.695460,-222.061783,-842.705048,9918.759623
1035.695790,-518.144159,-1991.848295,7772.162391
1035.696120,-1480.411884,-2451.505594,6809.894666
1035.696449,-2960.823768,-766.095498,6291.750507
1035.696779,-1184.329507,919.314598,6143.709319
1035.697108,1924.535449,995.924147,6439.791695
1035.697438,3849.070898,536.266849,7105.977043
1035.697767,3701.029710,2451.505594,7254.018232
1035.698097,2590.720797,3524.039291,7772.162391
1035.698427,1628.453072,1685.410096,11547.212695
1035.698756,-1332.370696,2528.115143,15470.304188
1035.699086,-4515.256246,5822.325785,16284.530724
1035.699415,-5699.585753,3907.087040,14063.912898
1035.699745,-4071.132681,-1149.143247,10140.821405
1035.700074,-1480.411884,-2757.943793,8068.244768
1035.700404,0.000000,-4136.915689,7105.977043
1035.700734,-518.144159,-4060.306139,7772.162391
1035.701063,-2886.803174,0.000000,7105.977043
1035.701393,-3701.029710,4290.134789,7105.977043
1035.701722,-888.247130,2604.724693,8216.285956
1035.702052,2072.576638,1455.581446,9104.533087
1035.702381,2368.659014,2451.505594,8068.244768
1035.702711,1554.432478,1608.800546,7772.162391
1035.703040,518.144159,1915.238745,9844.739029
1035.703370,-1998.556043,2145.067394,13323.706956
1035.703700,-4737.318029,2068.457845,15100.201217
1035.704029,-6217.729913,1991.848295,14063.912898
1035.704359,-5033.400406,383.047749,11917.315666
1035.704688,-1776.494261,-2374.896044,9918.759623
1035.705018,592.164754,-3600.648841,8660.409521
1035.705347,0.000000,-2834.553343,8068.244768
1035.705677,-2146.597232,-306.438199,7328.038826
1035.706007,-2516.700203,2068.457845,6883.915261
1035.706336,-296.082377,3140.991542,7105.977043
1035.706666,2442.679609,1149.143247,8216.285956
1035.706995,3478.967927,-612.876398,8734.430116
1035.707325,3108.864956,1378.971896,8586.388927
1035.707654,1924.535449,2451.505594,9474.636058
1035.707984,0.000000,3140.991542,10955.047942
1035.708314,-3182.885551,3294.210641,12879.583391
1035.708643,-4663.297435,3217.601092,14285.974681
1035.708973,-4811.338623,2451.505594,13693.809927
1035.709302,-3478.967927,1302.362347,10436.903782
1035.709632,-1924.535449,-1455.581446,7179.997637
1035.709961,-1554.432478,-3753.867940,6143.709319
1035.710291,-2146.597232,-2681.334243,5995.668130
1035.710621,-2146.597232,0.000000,5403.503377
1035.710950,0.000000,1991.848295,4885.359217
1035.711280,2368.659014,1915.238745,5995.668130
1035.711609,4293.194464,1455.581446,7698.141797
1035.711939,5033.400406,2451.505594,8882.471304
1035.712268,4145.153275,4366.744339,10140.821405
1035.712598,2590.720797,5515.887586,10510.924376
1035.712928,0.000000,5056.230287,12139.377449
1035.713257,-2812.782580,2145.067394,15322.262999
1035.713587,-5181.441594,1455.581446,16506.592507
1035.713916,-6661.853478,1302.362347,13397.727550
1035.714246,-5921.647536,-383.047749,9400.615463
1035.714575,-3775.050304,-3294.210641,7328.038826
1035.714905,-3478.967927,-5209.449386,6957.935855
1035.715235,-3849.070898,-3753.867940,6291.750507
1035.715564,-2590.720797,153.219100,4885.359217
1035.715894,-962.267725,2451.505594,4959.379811
1035.716223,1110.308913,1915.238745,7698.141797
1035.716553,2072.576638,1608.800546,9622.677246
1035.716882,2072.576638,2604.724693,10288.862594
1035.717212,1332.370696,3524.039291,10955.047942
1035.717541,-592.164754,4903.011187,12287.418637
1035.717871,-2738.761985,5286.058936,13915.871710
1035.718201,-3404.947333,2681.334243,14137.933492
1035.718530,-2812.782580,-689.485948,12139.377449
1035.718860,-2072.576638,-1149.143247,10214.842000
1035.719189,-1776.494261,-2528.115143,9178.553681
1035.719519,-3330.926739,-3524.039291,10214.842000
1035.719848,-5773.606348,-1608.800546,10362.883188
1035.720178,-5847.626942,306.438199,8512.368333
1035.720508,-1924.535449,76.609550,6143.709319
1035.720837,2146.597232,0.000000,5107.421000
1035.721167,4737.318029,-689.485948,6143.709319
1035.721496,5181.441594,-612.876398,7105.977043
1035.721826,3182.885551,1762.019645,9104.533087
1035.722155,296.082377,4136.915689,11991.336260
1035.722485,-2146.597232,6358.592633,14508.036463
1035.722815,-3701.029710,6894.859482,14804.118840
1035.723144,-3404.947333,2757.943793,12805.562797
1035.723474,-1628.453072,-1762.019645,10362.883188
1035.723803,-1258.350101,-2604.724693,6957.935855
1035.724133,-1628.453072,-2374.896044,6439.791695
1035.724462,-2738.761985,-2145.067394,7031.956449
1035.724792,-3330.926739,0.000000,7550.100608
1035.725122,-2146.597232,2451.505594,6069.688724
1035.725451,814.226536,459.657299,5699.585753
1035.725781,3108.864956,459.657299,6957.935855
1035.726110,3701.029710,3140.991542,8142.265362
1035.726440,3182.885551,3370.820191,9918.759623
1035.726769,1406.391290,1838.629195,11695.253884
1035.727099,-1480.411884,3447.429741,13767.830521
1035.727429,-3775.050304,5439.278036,13989.892304
1035.727758,-3627.009116,2757.943793,12361.439231
1035.728088,-1924.535449,0.000000,10436.903782
1035.728417,-1110.308913,-1302.362347,8142.265362
1035.728747,-1406.391290,-3524.039291,6661.853478
1035.729076,-3182.885551,-2834.553343,7328.038826
1035.729406,-4293.194464,1378.971896,8216.285956
1035.729736,-4219.173869,3294.210641,8586.388927
1035.730065,-1998.556043,1762.019645,8290.306550
1035.730395,-444.123565,1149.143247,7698.141797
1035.730724,370.102971,995.924147,7994.224174
1035.731054,666.185348,612.876398,10066.800811
1035.731383,-1480.411884,2068.457845,12287.418637
1035.731713,-4515.256246,4826.401637,12657.521608
1035.732042,-5847.626942,3370.820191,11029.068536
1035.732372,-4293.194464,-612.876398,11473.192101
1035.732702,-2368.659014,-1685.410096,11843.295072
1035.733031,-1628.453072,-1838.629195,11769.274478
1035.733361,-1554.432478,-2528.115143,9474.636058
1035.733690,-2960.823768,-2221.676944,8068.244768
1035.734020,-3478.967927,-153.219100,8660.409521
1035.734349,-1258.350101,1532.190996,9030.512492
1035.734679,2146.597232,842.705048,8364.327145
1035.735008,4219.173869,1149.143247,6883.915261
1035.735338,5107.421000,1225.752797,6217.729913
1035.735667,5551.544565,1685.410096,8438.347739
1035.735997,3849.070898,1915.238745,11621.233289
1035.736326,-296.082377,3447.429741,14137.933492
1035.736656,-3701.029710,5286.058936,14211.954086
1035.736985,-3997.112087,4290.134789,13397.727550
1035.737315,-2738.761985,536.266849,11547.212695
1035.737645,-1406.391290,-2681.334243,8808.450710
1035.737974,-592.164754,-4136.915689,7105.977043
1035.738304,-888.247130,-3524.039291,5921.647536
1035.738633,-1924.535449,-459.657299,6365.771101
1035.738963,-2368.659014,1455.581446,6439.791695
1035.739292,-592.164754,2068.457845,6069.688724
1035.739622,2368.659014,1149.143247,6439.791695
1035.739951,4885.359217,689.485948,8068.244768
1035.740281,5107.421000,3217.601092,9252.574275
1035.740610,3849.070898,3600.648841,9474.636058
1035.740940,1184.329507,1072.533697,12065.356855
1035.741269,-2368.659014,2451.505594,15174.221811
1035.741599,-4885.359217,4903.011187,15618.345376
1035.741929,-4737.318029,3370.820191,13101.645173
1035.742258,-3034.844362,-612.876398,10732.986159
1035.742588,-1776.494261,-1915.238745,7772.162391
1035.742917,-1184.329507,-2911.162892,6587.832884
1035.743247,-2072.576638,-3524.039291,6883.915261
1035.743576,-2960.823768,1072.533697,6143.709319
1035.743906,-3701.029710,4213.525239,5995.668130
1035.744235,-1998.556043,1532.190996,7846.182985
1035.744565,296.082377,766.095498,8586.388927
1035.744894,1480.411884,1378.971896,8660.409521
1035.745224,1628.453072,1225.752797,9548.656652
1035.745553,-962.267725,2911.162892,11177.109724
1035.745883,-3997.112087,4749.792088,12139.377449
1035.746212,-4737.318029,2604.724693,12139.377449
1035.746542,-4663.297435,383.047749,12065.356855
1035.746872,-4367.215058,1838.629195,11917.315666
1035.747201,-4219.173869,536.266849,10140.821405
1035.747531,-3997.112087,-2068.457845,8808.450710
1035.747860,-4885.359217,-2528.115143,7476.080014
1035.748190,-5329.482782,-2757.943793,8956.491898
1035.748519,-4293.194464,76.609550,9622.677246
1035.748849,-2960.823768,2604.724693,8882.471304
1035.749178,0.000000,229.828649,7328.038826
1035.749508,2960.823768,-1225.752797,6587.832884
1035.749837,4959.379811,-229.828649,7698.141797
1035.750167,4811.338623,1225.752797,9992.780217
1035.750496,1776.494261,2757.943793,12731.542202
1035.750826,-2072.576638,6665.030833,12953.603985
1035.751156,-3034.844362,5898.935335,13397.727550
1035.751485,-1702.473667,612.876398,12731.542202
1035.751815,-740.205942,0.000000,10584.944971
1035.752144,-148.041188,-766.095498,8290.306550
1035.752474,-444.123565,-3217.601092,8142.265362
1035.752803,-2442.679609,-1762.019645,7402.059420
1035.753133,-3330.926739,919.314598,6883.915261
1035.753462,-2146.597232,1072.533697,6883.915261
1035.753792,592.164754,919.314598,7772.162391
1035.754121,2664.741391,2221.676944,7624.121203
1035.754451,3775.050304,1915.238745,7031.956449
1035.754780,3923.091493,0.000000,8364.327145
1035.755110,1554.432478,1532.190996,11251.130318
1035.755439,-1554.432478,4519.963438,13249.686362
1035.755769,-2738.761985,5286.058936,12657.521608
1035.756099,-1850.514855,3370.820191,10658.965565
1035.756428,0.000000,-919.314598,8734.430116
1035.756758,1924.535449,-3217.601092,8068.244768
1035.757087,1036.288319,-2987.772442,8956.491898
1035.757417,-1850.514855,0.000000,9474.636058
1035.757746,-3923.091493,2681.334243,9030.512492
1035.758076,-3256.906145,3753.867940,8956.491898
1035.758405,-370.102971,1991.848295,8216.285956
1035.758735,1850.514855,229.828649,7031.956449
1035.759064,2664.741391,459.657299,6883.915261
1035.759394,1036.288319,1072.533697,8512.368333
1035.759723,-1850.514855,2298.286494,10584.944971
1035.760053,-5625.565159,3064.381992,13027.624579
1035.760383,-7105.977043,2757.943793,14137.933492
1035.760712,-5921.647536,1455.581446,13323.706956
1035.761042,-4515.256246,0.000000,10955.047942
1035.761371,-3108.864956,-2834.553343,8808.450710
1035.761701,-2886.803174,-4903.011187,8142.265362
1035.762030,-4293.194464,-2987.772442,8882.471304
1035.762360,-4737.318029,306.438199,9696.697840
1035.762689,-3552.988522,2757.943793,8364.327145
1035.763019,-444.123565,766.095498,7328.038826
1035.763348,2368.659014,-995.924147,7105.977043
1035.763678,4367.215058,-153.219100,8734.430116
1035.764007,4885.359217,2221.676944,10436.903782
1035.764337,2516.700203,4060.306139,11621.233289
1035.764666,-888.247130,5209.449386,12731.542202
1035.764996,-2812.782580,4826.401637,12657.521608
1035.765326,-2886.803174,2681.334243,11917.315666
1035.765655,-2146.597232,229.828649,10881.027347
1035.765985,-2146.597232,-1378.971896,9992.780217
1035.766314,-3182.885551,-2298.286494,9104.533087
1035.766644,-5033.400406,-3753.867940,9030.512492
1035.766973,-5847.626942,-2987.772442,8882.471304
1035.767303,-4737.318029,229.828649,7402.059420
1035.767632,-1332.370696,1608.800546,5625.565159
1035.767962,2738.761985,612.876398,4737.318029
1035.768291,5551.544565,0.000000,4885.359217
1035.768621,7254.018232,1762.019645,6809.894666
1035.768950,6365.771101,2681.334243,10288.862594
1035.769280,2516.700203,5132.839837,13027.624579
1035.769610,-1776.494261,8503.660028,13397.727550
1035.769939,-2368.659014,5898.935335,13027.624579
1035.770269,-962.267725,766.095498,12435.459826
1035.770598,444.123565,-1225.752797,11251.130318
1035.770928,0.000000,-1915.238745,9178.553681
1035.771257,-1998.556043,-2451.505594,7994.224174
1035.771587,-3627.009116,-1225.752797,7031.956449
1035.771916,-4071.132681,229.828649,7179.997637
1035.772246,-2516.700203,1302.362347,7179.997637
1035.772575,0.000000,1608.800546,6883.915261
1035.772905,1554.432478,2451.505594,6069.688724
1035.773234,2516.700203,1915.238745,7031.956449
1035.773564,2442.679609,1762.019645,9548.656652
1035.773894,-592.164754,2681.334243,11991.336260
1035.774223,-4589.276840,4136.915689,13619.789333
1035.774553,-5921.647536,4366.744339,13767.830521
1035.774882,-4959.379811,1608.800546,13101.645173
1035.775212,-3256.906145,-2068.457845,11621.233289
1035.775541,-2368.659014,-3753.867940,10288.862594
1035.775871,-2886.803174,-4060.306139,9178.553681
1035.776200,-4293.194464,-1532.190996,8660.409521
1035.776530,-4515.256246,689.485948,8216.285956
1035.776859,-2294.638420,2451.505594,7920.203579
1035.777189,222.061783,383.047749,7624.121203
1035.777518,2294.638420,0.000000,8216.285956
1035.777848,3849.070898,1991.848295,8216.285956
1035.778177,3404.947333,2451.505594,9400.615463
1035.778507,1332.370696,2068.457845,10881.027347
1035.778837,-2294.638420,3600.648841,12435.459826
1035.779166,-4293.194464,4366.744339,12731.542202
1035.779496,-4293.194464,2451.505594,11769.274478
1035.779825,-3404.947333,-153.219100,10807.006753
1035.780155,-2368.659014,-2145.067394,10214.842000
1035.780484,-2368.659014,-4060.306139,8956.491898
1035.780814,-4589.276840,-4290.134789,8808.450710
1035.781143,-6069.688724,-612.876398,9326.594869
1035.781473,-4737.318029,2604.724693,8882.471304
1035.781802,-814.226536,2145.067394,7772.162391
1035.782132,2886.803174,0.000000,5995.668130
1035.782461,6069.688724,306.438199,5477.523971
1035.782791,7254.018232,1225.752797,6291.750507
1035.783121,5847.626942,2298.286494,9326.594869
1035.783450,1776.494261,5439.278036,12065.356855
1035.783780,-2072.576638,7584.345430,11769.274478
1035.784109,-2220.617826,4366.744339,12139.377449
1035.784439,-518.144159,306.438199,11621.233289
1035.784768,370.102971,-842.705048,10584.944971
1035.785098,-518.144159,-2987.772442,9326.594869
1035.785427,-2368.659014,-3447.429741,9252.574275
1035.785757,-3849.070898,-995.924147,9252.574275
1035.786086,-3997.112087,2604.724693,8512.368333
1035.786416,-2220.617826,3064.381992,6735.874072
1035.786745,444.123565,1838.629195,5033.400406
1035.787075,2146.597232,76.609550,5477.523971
1035.787404,2812.782580,919.314598,8216.285956
1035.787734,888.247130,2987.772442,10362.883188
1035.788064,-2960.823768,4060.306139,12953.603985
1035.788393,-5847.626942,3447.429741,14211.954086
1035.788723,-6143.709319,2987.772442,13471.748144
1035.789052,-4515.256246,-1072.533697,11843.295072
1035.789382,-1628.453072,-3983.696590,9918.759623
1035.789711,-666.185348,-2604.724693,9252.574275
1035.790041,-888.247130,-1608.800546,9770.718434
1035.790370,-1850.514855,-1915.238745,9474.636058
1035.790700,-2664.741391,1838.629195,7698.141797
1035.791029,-962.267725,3524.039291,6957.935855
1035.791359,2664.741391,766.095498,8068.244768
1035.791688,4737.318029,1072.533697,9696.697840
1035.792018,3997.112087,2528.115143,9400.615463
1035.792348,2442.679609,919.314598,9104.533087
1035.792677,222.061783,919.314598,11177.109724
1035.793007,-2368.659014,3370.820191,13693.809927
1035.793336,-3923.091493,4213.525239,13989.892304
1035.793666,-4589.276840,1532.190996,11843.295072
1035.793995,-4367.215058,-842.705048,9844.739029
1035.794325,-3182.885551,-2604.724693,8660.409521
1035.794654,-3330.926739,-4290.134789,9326.594869
1035.794984,-4737.318029,-1302.362347,9770.718434
1035.795313,-5995.668130,1072.533697,7772.162391
1035.795643,-3849.070898,1225.752797,5329.482782
1035.795972,370.102971,-919.314598,4959.379811
1035.796302,3701.029710,-2068.457845,6809.894666
1035.796631,5995.668130,1149.143247,7846.182985
1035.796961,4737.318029,3907.087040,8068.244768
1035.797291,3552.988522,4213.525239,9326.594869
1035.797620,1480.411884,4596.572988,11399.171507
1035.797950,-296.082377,5132.839837,13101.645173
1035.798279,-888.247130,3524.039291,14063.912898
1035.798609,-1258.350101,2528.115143,12361.439231
1035.798938,-592.164754,612.876398,9400.615463
1035.799268,-370.102971,-2757.943793,7920.203579
1035.799597,-1332.370696,-4979.620737,8512.368333
1035.799927,-3256.906145,-1685.410096,8216.285956
1035.800256,-4071.132681,1762.019645,6735.874072
1035.800586,-1554.432478,2528.115143,5255.462188
1035.800915,1406.391290,459.657299,5255.462188
1035.801245,3552.988522,-995.924147,7550.100608
1035.801575,3404.947333,1072.533697,9178.553681
1035.801904,592.164754,3600.648841,10732.986159
1035.802234,-3034.844362,5592.497135,13249.686362
1035.802563,-5477.523971,5132.839837,14285.974681
1035.802893,-5921.647536,2451.505594,14804.118840
1035.803222,-5033.400406,-536.266849,13101.645173
1035.803552,-3775.050304,-1838.629195,10584.944971
1035.803881,-2146.597232,-2374.896044,8216.285956
1035.804211,-2146.597232,-4060.306139,7994.224174
1035.804540,-3256.906145,-3370.820191,8364.327145
1035.804870,-2886.803174,766.095498,7105.977043
1035.805199,-1036.288319,2604.724693,6809.894666
1035.805529,2294.638420,1608.800546,6661.853478
1035.805858,4367.215058,1149.143247,7994.224174
1035.806188,4663.297435,1072.533697,9178.553681
1035.806518,3256.906145,1838.629195,10288.862594
1035.806847,74.020594,4826.401637,11843.295072
1035.807177,-2442.679609,5898.935335,12657.521608
1035.807506,-2886.803174,3294.210641,13767.830521
1035.807836,-3108.864956,-842.705048,13175.665768
1035.808165,-3404.947333,-2221.676944,11917.315666
1035.808495,-3330.926739,-2374.896044,10436.903782
1035.808824,-4367.215058,-2528.115143,9844.739029
1035.809154,-6365.771101,-1685.410096,9474.636058
1035.809483,-6365.771101,-536.266849,8290.306550
1035.809813,-2738.761985,306.438199,5551.544565
1035.810142,1776.494261,-306.438199,3997.112087
1035.810472,5403.503377,0.000000,4219.173869
1035.810802,6069.688724,1532.190996,6291.750507
1035.811131,5033.400406,3447.429741,8290.306550
1035.811461,2738.761985,4673.182538,10436.903782
1035.811790,0.000000,5592.497135,12657.521608
1035.812120,-1332.370696,5822.325785,13915.871710
1035.812449,-2146.597232,3447.429741,14211.954086
1035.812779,-1628.453072,-766.095498,12731.542202
1035.813108,-518.144159,-2604.724693,10066.800811
1035.813438,-740.205942,-2374.896044,8142.265362
1035.813767,-1702.473667,-1991.848295,7402.059420
1035.814097,-3404.947333,-383.047749,6513.812290
1035.814426,-2442.679609,1455.581446,5033.400406
1035.814756,1036.288319,1455.581446,4737.318029
1035.815085,3108.864956,995.924147,5625.565159
1035.815415,3923.091493,2451.505594,7550.100608
1035.815745,2738.761985,3217.601092,9770.718434
1035.816074,148.041188,3370.820191,12361.439231
1035.816404,-2960.823768,4213.525239,13841.851115
1035.816733,-5329.482782,3830.477490,14285.974681
1035.817063,-5625.565159,2145.067394,14211.954086
1035.817392,-4515.256246,76.609550,13397.727550
1035.817722,-3108.864956,-2604.724693,10658.965565
1035.818051,-2960.823768,-2757.943793,7105.977043
1035.818381,-3330.926739,-4136.915689,5699.585753
1035.818710,-2886.803174,-3140.991542,7328.038826
1035.819040,-2442.679609,1762.019645,8512.368333
1035.819369,-962.267725,4136.915689,8586.388927
1035.819699,1776.494261,2068.457845,7328.038826
1035.820029,2960.823768,459.657299,6809.894666
1035.820358,3701.029710,1608.800546,8586.388927
1035.820688,2812.782580,2068.457845,11843.295072
1035.821017,0.000000,3677.258390,13915.871710
1035.821347,-4219.173869,5132.839837,13397.727550
1035.821676,-5551.544565,2068.457845,12509.480420
1035.822006,-4441.235652,-1762.019645,12657.521608
1035.822335,-2886.803174,-1915.238745,12287.418637
1035.822665,-2220.617826,-2298.286494,10658.965565
1035.822994,-3404.947333,-2834.553343,7624.121203
1035.823324,-4663.297435,-2221.676944,6513.812290
1035.823653,-3182.885551,-1302.362347,7179.997637
1035.823983,0.000000,766.095498,8068.244768
1035.824312,2146.597232,2145.067394,7328.038826
1035.824642,3701.029710,2221.676944,6365.771101
1035.824972,5107.421000,1608.800546,6143.709319
1035.825301,4959.379811,1149.143247,8586.388927
1035.825631,2442.679609,1455.581446,12879.583391
1035.825960,-1850.514855,4213.525239,14656.077652
1035.826290,-3997.112087,6588.421283,13397.727550
1035.826619,-3478.967927,2145.067394,11843.295072
1035.826949,-1332.370696,-2528.115143,10584.944971
1035.827278,0.000000,-2757.943793,8734.430116
1035.827608,-370.102971,-2681.334243,7846.182985
1035.827937,-1036.288319,-2068.457845,6809.894666
1035.828267,-2516.700203,2145.067394,5847.626942
1035.828596,-1184.329507,2757.943793,5255.462188
1035.828926,2368.659014,229.828649,6365.771101
1035.829256,4145.153275,1378.971896,6883.915261
1035.829585,4071.132681,4290.134789,6883.915261
1035.829915,3330.926739,2221.676944,9178.553681
1035.830244,222.061783,1762.019645,12953.603985
1035.830574,-3849.070898,4136.915689,15840.407159
1035.830903,-6365.771101,4903.011187,15322.262999
1035.831233,-5477.523971,2604.724693,12657.521608
1035.831562,-3108.864956,153.219100,10658.965565
1035.831892,-814.226536,-2681.334243,9252.574275
1035.832221,-592.164754,-4136.915689,8290.306550
1035.832551,-2886.803174,-1838.629195,7254.018232
1035.832880,-4737.318029,1838.629195,6957.935855
1035.833210,-3923.091493,3447.429741,6217.729913
1035.833539,-1036.288319,1838.629195,6809.894666
1035.833869,1406.391290,-612.876398,8068.244768
1035.834198,2294.638420,76.609550,8364.327145
1035.834528,1406.391290,2374.896044,8808.450710
1035.834857,0.000000,3140.991542,11029.068536
1035.835187,-2516.700203,3370.820191,13175.665768
1035.835516,-4367.215058,2757.943793,13841.851115
1035.835846,-3775.050304,1072.533697,13693.809927
1035.836175,-3552.988522,459.657299,12657.521608
1035.836505,-2738.761985,0.000000,11473.192101
1035.836834,-2516.700203,-1915.238745,10436.903782
1035.837163,-2664.741391,-3140.991542,9918.759623
1035.837493,-3478.967927,-1149.143247,8068.244768
1035.837822,-2664.741391,1072.533697,5625.565159
1035.838152,592.164754,1149.143247,3997.112087
1035.838481,3404.947333,229.828649,5329.482782
1035.838811,4885.359217,-842.705048,7550.100608
1035.839140,4367.215058,1991.848295,8956.491898
1035.839470,2220.617826,4213.525239,10288.862594
1035.839799,-518.144159,2757.943793,13619.789333
1035.840129,-2442.679609,4366.744339,15766.386565
1035.840458,-3627.009116,4749.792088,14804.118840
1035.840787,-2738.761985,1378.971896,11177.109724
1035.841117,-1850.514855,-1149.143247,7179.997637
1035.841446,-592.164754,-995.924147,5625.565159
1035.841776,-444.123565,-3753.867940,6587.832884
1035.842105,-1850.514855,-3983.696590,7402.059420
1035.842435,-3552.988522,1915.238745,6735.874072
1035.842764,-2368.659014,3830.477490,5625.565159
1035.843094,2146.597232,842.705048,5847.626942
1035.843423,5403.503377,153.219100,6587.832884
1035.843752,6365.771101,1072.533697,7402.059420
1035.844082,5403.503377,536.266849,10066.800811
1035.844411,2516.700203,4060.306139,13397.727550
1035.844741,-1702.473667,6818.249932,15840.407159
1035.845070,-3404.947333,4673.182538,15174.221811
1035.845400,-3849.070898,1915.238745,12435.459826
1035.845729,-1998.556043,-919.314598,10510.924376
1035.846059,0.000000,-3217.601092,9178.553681
1035.846388,-740.205942,-3217.601092,8438.347739
1035.846717,-3627.009116,-1378.971896,8512.368333
1035.847047,-5699.585753,153.219100,7994.224174
1035.847376,-5033.400406,1685.410096,6587.832884
1035.847706,-1554.432478,2145.067394,6587.832884
1035.848035,1258.350101,-459.657299,7179.997637
1035.848365,1924.535449,766.095498,8956.491898
1035.848694,592.164754,3524.039291,9918.759623
1035.849024,-1258.350101,2681.334243,11325.150913
1035.849353,-3552.988522,3677.258390,12731.542202
1035.849682,-5477.523971,4596.572988,13619.789333
1035.850012,-5477.523971,1762.019645,13693.809927
1035.850341,-4515.256246,-1762.019645,12509.480420
1035.850671,-3404.947333,-2221.676944,10140.821405
1035.851000,-2220.617826,-2834.553343,9030.512492
1035.851330,-2664.741391,-3983.696590,8882.471304
1035.851659,-3775.050304,-1149.143247,8068.244768
1035.851989,-2664.741391,1838.629195,6735.874072
1035.852318,888.247130,2451.505594,5181.441594
1035.852647,4219.173869,1455.581446,5625.565159
1035.852977,5551.544565,1302.362347,7328.038826
1035.853306,4885.359217,2834.553343,9252.574275
1035.853636,2072.576638,4366.744339,10510.924376
1035.853965,-1184.329507,4903.011187,11843.295072
1035.854295,-3552.988522,3217.601092,13471.748144
1035.854624,-5181.441594,1838.629195,14211.954086
1035.854954,-5625.565159,383.047749,13101.645173
1035.855283,-3849.070898,-1915.238745,10510.924376
1035.855613,-2294.638420,-2757.943793,7846.182985
1035.855942,-1924.535449,-3907.087040,5921.647536
1035.856271,-2146.597232,-3753.867940,6661.853478
1035.856601,-1554.432478,689.485948,6883.915261
1035.856930,740.205942,4213.525239,6143.709319
1035.857260,3404.947333,3217.601092,5699.585753
1035.857589,5773.606348,2068.457845,5773.606348
1035.857919,6883.915261,1608.800546,7550.100608
1035.858248,5995.668130,1915.238745,11029.068536
1035.858578,2368.659014,3217.601092,13915.871710
1035.858907,-2220.617826,5592.497135,14730.098246
1035.859236,-4367.215058,3753.867940,13767.830521
1035.859566,-3775.050304,153.219100,13027.624579
1035.859895,-2072.576638,-1608.800546,11843.295072
1035.860225,-740.205942,-1532.190996,8882.471304
1035.860554,-1258.350101,-2911.162892,6513.812290
1035.860884,-3478.967927,-2221.676944,6513.812290
1035.861213,-4589.276840,842.705048,7254.018232
1035.861543,-3256.906145,3600.648841,7402.059420
1035.861872,-740.205942,2451.505594,6957.935855
1035.862201,888.247130,689.485948,6809.894666
1035.862531,1184.329507,1455.581446,7254.018232
1035.862860,1110.308913,1149.143247,9474.636058
1035.863190,-962.267725,2298.286494,12139.377449
1035.863519,-5033.400406,4596.572988,12657.521608
1035.863849,-7105.977043,3600.648841,13101.645173
1035.864178,-5995.668130,-612.876398,13989.892304
1035.864508,-4811.338623,-1302.362347,13989.892304
1035.864837,-3849.070898,-1225.752797,11103.089130
1035.865166,-2738.761985,-2451.505594,7994.224174
1035.865496,-2368.659014,-2911.162892,6217.729913
1035.865825,-1702.473667,-995.924147,6217.729913
1035.866155,74.020594,306.438199,7031.956449
1035.866484,2146.597232,1455.581446,7698.141797
1035.866814,2442.679609,3370.820191,8364.327145
1035.867143,2294.638420,3600.648841,8216.285956
1035.867473,3034.844362,3140.991542,9474.636058
1035.867802,2294.638420,1838.629195,11177.109724
1035.868132,-518.144159,2681.334243,13101.645173
1035.868461,-4441.235652,4519.963438,12139.377449
1035.868790,-7105.977043,3370.820191,11103.089130
1035.869120,-6143.709319,-1608.800546,11325.150913
1035.869449,-4737.318029,-2681.334243,11103.089130
1035.869779,-4367.215058,-2451.505594,9252.574275
1035.870108,-3849.070898,-3753.867940,6735.874072
1035.870438,-3256.906145,-2374.896044,6143.709319
1035.870767,-1332.370696,1149.143247,5995.668130
1035.871097,1480.411884,1762.019645,5847.626942
1035.871426,4367.215058,919.314598,6587.832884
1035.871755,5921.647536,4443.353888,6883.915261
1035.872085,6883.915261,4213.525239,8068.244768
1035.872414,6587.832884,1685.410096,10510.924376
1035.872744,2960.823768,3447.429741,13027.624579
1035.873073,-1184.329507,4290.134789,14063.912898
1035.873403,-1998.556043,2834.553343,13471.748144
1035.873732,-1554.432478,766.095498,12509.480420
1035.874062,-518.144159,-536.266849,11177.109724
1035.874391,-666.185348,-2451.505594,8364.327145
1035.874720,-1258.350101,-4213.525239,7920.203579
1035.875050,-2368.659014,-919.314598,8660.409521
1035.875379,-3330.926739,2604.724693,8068.244768
1035.875709,-3330.926739,3217.601092,6957.935855
1035.876038,-1332.370696,2068.457845,6291.750507
1035.876368,1184.329507,-383.047749,7105.977043
1035.876697,2294.638420,689.485948,8142.265362
1035.877027,1184.329507,1991.848295,9622.677246
1035.877356,-2146.597232,2221.676944,12139.377449
1035.877685,-5181.441594,3370.820191,14211.954086
1035.878015,-6069.688724,3064.381992,14434.015869
1035.878344,-4663.297435,919.314598,13323.706956
1035.878674,-2960.823768,-536.266849,11325.150913
1035.879003,-2590.720797,-2145.067394,9326.594869
1035.879333,-2146.597232,-2681.334243,9178.553681
1035.879662,-2960.823768,-2451.505594,9326.594869
1035.879992,-2960.823768,1072.533697,7772.162391
1035.880321,-1480.411884,2451.505594,5773.606348
1035.880651,1406.391290,536.266849,6143.709319
1035.880980,3775.050304,536.266849,7772.162391
1035.881309,4293.194464,1685.410096,8882.471304
1035.881639,3108.864956,2834.553343,9030.512492
1035.881968,148.041188,3907.087040,10214.842000
1035.882298,-2294.638420,4979.620737,12805.562797
1035.882627,-3775.050304,4673.182538,13619.789333
1035.882957,-4811.338623,2374.896044,11843.295072
1035.883286,-4737.318029,-612.876398,10066.800811
1035.883616,-3997.112087,-2451.505594,9474.636058
1035.883945,-4515.256246,-2681.334243,9400.615463
1035.884274,-5847.626942,-3753.867940,9696.697840
1035.884604,-6513.812290,-1838.629195,8808.450710
1035.884933,-5107.421000,1149.143247,6069.688724
1035.885263,-888.247130,1072.533697,4737.318029
1035.885592,3552.988522,-766.095498,5625.565159
1035.885922,6143.709319,1072.533697,6291.750507
1035.886251,6809.894666,2987.772442,7328.038826
1035.886581,5551.544565,3064.381992,9548.656652
1035.886910,2516.700203,4749.792088,12805.562797
1035.887239,-518.144159,6741.640382,14730.098246
1035.887569,-1406.391290,4596.572988,14063.912898
1035.887898,-1036.288319,1072.533697,12287.418637
1035.888228,0.000000,-995.924147,10362.883188
1035.888557,0.000000,-2298.286494,9178.553681
1035.888887,-1406.391290,-3677.258390,8660.409521
1035.889216,-4071.132681,-1991.848295,8364.327145
1035.889546,-4663.297435,1838.629195,7105.977043
1035.889875,-2664.741391,2221.676944,6365.771101
1035.890204,148.041188,612.876398,6439.791695
1035.890534,1702.473667,536.266849,7550.100608
1035.890863,2294.638420,1149.143247,7920.203579
1035.891193,1184.329507,1838.629195,10584.944971
1035.891522,-1998.556043,2757.943793,13693.809927
1035.891852,-5551.544565,4519.963438,15248.242405
1035.892181,-6957.935855,3830.477490,14804.118840
1035.892511,-5773.606348,383.047749,12657.521608
1035.892840,-2812.782580,-1991.848295,10510.924376
1035.893169,-444.123565,-2911.162892,7698.141797
1035.893499,-370.102971,-4290.134789,6513.812290
1035.893828,-1850.514855,-2374.896044,6661.853478
1035.894158,-2960.823768,2068.457845,7179.997637
1035.894487,-1332.370696,3830.477490,7328.038826
1035.894817,1406.391290,2451.505594,8068.244768
1035.895146,2886.803174,1455.581446,9178.553681
1035.895476,3923.091493,2604.724693,9770.718434
1035.895805,3404.947333,2451.505594,9622.677246
1035.896135,1184.329507,1302.362347,11325.150913
1035.896464,-2960.823768,2987.772442,12657.521608
1035.896793,-6735.874072,4213.525239,12731.542202
1035.897123,-6291.750507,1532.190996,12139.377449
1035.897452,-4441.235652,-1149.143247,11103.089130
1035.897782,-3552.988522,-2145.067394,8290.306550
1035.898111,-2812.782580,-3753.867940,5995.668130
1035.898441,-3404.947333,-5515.887586,6513.812290
1035.898770,-3478.967927,-612.876398,7772.162391
1035.899100,-2664.741391,3447.429741,8142.265362
1035.899429,-222.061783,2604.724693,7105.977043
1035.899758,2220.617826,2068.457845,6809.894666
1035.900088,4441.235652,1915.238745,7994.224174
1035.900417,6143.709319,1378.971896,9992.780217
1035.900747,4219.173869,2604.724693,11399.171507
1035.901076,0.000000,4060.306139,12953.603985
1035.901406,-3108.864956,4519.963438,13101.645173
1035.901735,-3182.885551,1685.410096,13249.686362
1035.902065,-1406.391290,-536.266849,12287.418637
1035.902394,222.061783,-1762.019645,9918.759623
1035.902723,370.102971,-2451.505594,7179.997637
1035.903053,-296.082377,-2757.943793,6513.812290
1035.903382,-1406.391290,-1455.581446,7179.997637
1035.903712,-1850.514855,2221.676944,6957.935855
1035.904041,-148.041188,3600.648841,6513.812290
1035.904371,1998.556043,1532.190996,7105.977043
1035.904700,3256.906145,2221.676944,8068.244768
1035.905030,2590.720797,2221.676944,9400.615463
1035.905359,1184.329507,1072.533697,12435.459826
1035.905688,-2368.659014,2911.162892,14582.057057
1035.906018,-5921.647536,5056.230287,14730.098246
1035.906347,-6439.791695,2221.676944,13545.768739
1035.906677,-4811.338623,-1225.752797,11695.253884
1035.907006,-2590.720797,-2374.896044,9770.718434
1035.907336,-1628.453072,-2528.115143,7920.203579
1035.907665,-1850.514855,-3064.381992,7105.977043
1035.907995,-2738.761985,-842.705048,7031.956449
1035.908324,-2516.700203,1838.629195,6365.771101
1035.908654,-296.082377,2374.896044,6439.791695
1035.908983,1924.535449,1455.581446,6661.853478
1035.909312,3478.967927,1455.581446,7698.141797
1035.909642,3849.070898,2145.067394,9622.677246
1035.909971,2516.700203,2374.896044,11103.089130
1035.910301,-1110.308913,3064.381992,12435.459826
1035.910630,-3404.947333,3524.039291,14211.954086
1035.910960,-4737.318029,2681.334243,13989.892304
1035.911289,-5107.421000,1608.800546,12213.398043
1035.911619,-3997.112087,-919.314598,10732.986159
1035.911948,-2146.597232,-2681.334243,9474.636058
1035.912277,-2368.659014,-3677.258390,8142.265362
1035.912607,-4367.215058,-2604.724693,7994.224174
1035.912936,-5033.400406,0.000000,7402.059420
1035.913266,-3478.967927,2374.896044,6439.791695
1035.913595,-444.123565,1072.533697,5477.523971
1035.913925,2590.720797,-766.095498,6513.812290
1035.914254,4145.153275,1225.752797,7402.059420
1035.914584,3849.070898,2987.772442,8808.450710
1035.914913,2220.617826,3140.991542,11843.295072
1035.915242,-1184.329507,4366.744339,13989.892304
1035.915572,-3627.009116,5669.106685,13841.851115
1035.915901,-4145.153275,3217.601092,12213.398043
1035.916231,-1776.494261,153.219100,10881.027347
1035.916560,296.082377,-1149.143247,9178.553681
1035.916890,518.144159,-2987.772442,7846.182985
1035.917219,-1332.370696,-4213.525239,7031.956449
1035.917549,-2886.803174,-766.095498,5995.668130
1035.917878,-1628.453072,3447.429741,6735.874072
1035.918207,1554.432478,2451.505594,6513.812290
1035.918537,3108.864956,1455.581446,6365.771101
1035.918866,3775.050304,1685.410096,6661.853478
1035.919196,3182.885551,1532.190996,9474.636058
1035.919525,1554.432478,2757.943793,13915.871710
1035.919855,-3330.926739,5669.106685,15840.407159
1035.920184,-6291.750507,5669.106685,14211.954086
1035.920514,-5847.626942,1608.800546,12287.418637
1035.920843,-2516.700203,-1225.752797,9622.677246
1035.921172,0.000000,-2528.115143,7624.121203
1035.921502,592.164754,-3600.648841,6883.915261
1035.921831,-1480.411884,-3140.991542,7179.997637
1035.922161,-5329.482782,-306.438199,9030.512492
1035.922490,-6809.894666,2221.676944,9696.697840
1035.922820,-5107.421000,4290.134789,9918.759623
1035.923149,-1628.453072,2221.676944,8808.450710
1035.923479,740.205942,536.266849,7698.141797
1035.923808,2664.741391,-842.705048,7772.162391
1035.924138,2368.659014,153.219100,9548.656652
1035.924467,-962.267725,2757.943793,11843.295072
1035.924796,-4959.379811,4673.182538,13027.624579
1035.925126,-6291.750507,4826.401637,12361.439231
1035.925455,-4737.318029,1532.190996,11917.315666
1035.925785,-2442.679609,-1838.629195,10732.986159
1035.926114,-1480.411884,-2528.115143,9622.677246
1035.926444,-2960.823768,-3294.210641,8882.471304
1035.926773,-6513.812290,-2451.505594,9622.677246
1035.927103,-8882.471304,383.047749,9474.636058
1035.927432,-7624.121203,1991.848295,8068.244768
1035.927761,-3256.906145,229.828649,6883.915261
1035.928091,222.061783,-1762.019645,6661.853478
1035.928420,2442.679609,306.438199,6735.874072
1035.928750,3701.029710,1915.238745,7105.977043
1035.929079,4071.132681,2757.943793,8586.388927
1035.929409,222.061783,4979.620737,10584.944971
1035.929738,-3552.988522,7201.297681,12139.377449
1035.930068,-4737.318029,6358.592633,11843.295072
1035.930397,-4959.379811,2834.553343,11251.130318
1035.930726,-5255.462188,153.219100,10288.862594
1035.931056,-6069.688724,-1685.410096,9474.636058
1035.931385,-7105.977043,-4060.306139,9178.553681
1035.931715,-7920.203579,-3983.696590,9992.780217
1035.932044,-10066.800811,-1302.362347,9474.636058
1035.932374,-9326.594869,1149.143247,7772.162391
1035.932703,-5847.626942,153.219100,6809.894666
1035.933033,-1924.535449,-1685.410096,6957.935855
1035.933362,1406.391290,1378.971896,7402.059420
1035.933692,3256.906145,3524.039291,7179.997637
1035.934021,3108.864956,3370.820191,7920.203579
1035.934351,666.185348,4673.182538,10362.883188
1035.934680,-3182.885551,5898.935335,12657.521608
1035.935010,-5773.606348,4596.572988,13619.789333
1035.935339,-7105.977043,2374.896044,13323.706956
1035.935669,-8216.285956,689.485948,12361.439231
1035.935999,-7920.203579,-919.314598,11991.336260
1035.936328,-7328.038826,-2911.162892,10436.903782
1035.936658,-6069.688724,-3217.601092,8068.244768
1035.936987,-5107.421000,-2145.067394,6513.812290
1035.937317,-3701.029710,153.219100,7105.977043
1035.937646,-2368.659014,1838.629195,8216.285956
1035.937976,-3404.947333,1915.238745,8734.430116
1035.938305,-4885.359217,3294.210641,8512.368333
1035.938635,-5477.523971,3524.039291,9178.553681
1035.938964,-4367.215058,2834.553343,10658.965565
1035.939294,-4145.153275,1302.362347,10955.047942
1035.939623,-4441.235652,-383.047749,9326.594869
1035.939953,-2886.803174,-1455.581446,8512.368333
1035.940282,-1036.288319,-919.314598,8734.430116
1035.940612,-592.164754,306.438199,10288.862594
1035.940942,-2294.638420,1762.019645,10732.986159
1035.941271,-4737.318029,2911.162892,10436.903782
1035.941601,-5329.482782,3140.991542,10881.027347
1035.941930,-4589.276840,3140.991542,11695.253884
1035.942260,-4737.318029,2451.505594,10955.047942
1035.942589,-4071.132681,-229.828649,8512.368333
1035.942919,-2812.782580,-3217.601092,6883.915261
1035.943248,-1776.494261,-2911.162892,6217.729913
1035.943578,-592.164754,-1685.410096,7402.059420
1035.943907,-518.144159,-919.314598,7994.224174
1035.944237,-1554.432478,1149.143247,9252.574275
1035.944566,-3775.050304,2911.162892,10140.821405
1035.944896,-4811.338623,3524.039291,11103.089130
1035.945225,-5625.565159,2987.772442,11695.253884
1035.945555,-6809.894666,2757.943793,11029.068536
1035.945885,-7402.059420,2145.067394,10288.862594
1035.946214,-5551.544565,-689.485948,9104.533087
1035.946544,-2960.823768,-2374.896044,7772.162391
1035.946873,-962.267725,-2604.724693,7179.997637
1035.947203,-444.123565,-1378.971896,6587.832884
1035.947532,370.102971,612.876398,7698.141797
1035.947862,444.123565,2221.676944,9178.553681
1035.948191,-1258.350101,4443.353888,10955.047942
1035.948521,-4219.173869,5822.325785,12583.501014
1035.948850,-7105.977043,4903.011187,13323.706956
1035.949180,-9030.512492,3447.429741,13619.789333
1035.949509,-9918.759623,1455.581446,13323.706956
1035.949839,-8956.491898,-995.924147,10955.047942
1035.950169,-7402.059420,-3217.601092,7624.121203
1035.950498,-4071.132681,-4903.011187,5551.544565
1035.950828,-518.144159,-3524.039291,5033.400406
1035.951157,2220.617826,-1149.143247,5329.482782
1035.951487,3330.926739,2681.334243,6513.812290
1035.951816,2072.576638,5439.278036,8660.409521
1035.952146,-444.123565,7814.174080,10807.006753
1035.952475,-2294.638420,8886.707777,12509.480420
1035.952805,-4663.297435,6971.469032,13693.809927
1035.953134,-6809.894666,3064.381992,13841.851115
1035.953464,-9622.677246,-536.266849,13175.665768
1035.953793,-11325.150913,-2604.724693,11991.336260
1035.954123,-11029.068536,-4673.182538,9548.656652
1035.954452,-9030.512492,-4826.401637,7105.977043
1035.954782,-5921.647536,-3983.696590,4959.379811
1035.955112,-1554.432478,-2068.457845,3923.091493
1035.955441,1406.391290,-153.219100,4293.194464
1035.955771,2368.659014,3370.820191,5403.503377
1035.956100,1554.432478,6052.154434,7105.977043
1035.956430,-666.185348,8044.002729,9992.780217
1035.956759,-3404.947333,7737.564530,12287.418637
1035.957089,-6217.729913,4673.182538,13249.686362
1035.957418,-7846.182985,842.705048,12657.521608
1035.957748,-8882.471304,-2221.676944,11251.130318
1035.958077,-8068.244768,-4903.011187,10807.006753
1035.958407,-7031.956449,-5975.544884,10066.800811
1035.958736,-5477.523971,-4519.963438,8808.450710
1035.959066,-3256.906145,-1991.848295,7254.018232
1035.959396,-666.185348,0.000000,7105.977043
1035.959725,1406.391290,1991.848295,8586.388927
1035.960055,1776.494261,4443.353888,10066.800811
1035.960384,592.164754,5515.887586,10732.986159
1035.960714,-1554.432478,3907.087040,11843.295072
1035.961043,-3701.029710,2834.553343,13175.665768
1035.961373,-6661.853478,1838.629195,12435.459826
1035.961702,-7328.038826,-459.657299,10436.903782
1035.962032,-6661.853478,-3524.039291,7994.224174
1035.962361,-4811.338623,-5209.449386,6439.791695
1035.962691,-2812.782580,-4443.353888,7031.956449
1035.963020,-1998.556043,-1225.752797,7698.141797
1035.963350,-2442.679609,2221.676944,8290.306550
1035.963679,-2812.782580,4826.401637,9326.594869
1035.964009,-2960.823768,6588.421283,10066.800811
1035.964339,-2812.782580,6818.249932,11029.068536
1035.964668,-3404.947333,4136.915689,12213.398043
1035.964998,-4737.318029,2145.067394,12287.418637
1035.965327,-5551.544565,1225.752797,12213.398043
1035.965657,-6365.771101,0.000000,10881.027347
1035.965986,-6513.812290,-1762.019645,9622.677246
1035.966316,-5551.544565,-1838.629195,8142.265362
1035.966645,-3404.947333,0.000000,6809.894666
1035.966975,-592.164754,1838.629195,6883.915261
1035.967304,592.164754,3294.210641,7402.059420
1035.967634,370.102971,4903.011187,8216.285956
1035.967963,-666.185348,6894.859482,8956.491898
1035.968293,-2220.617826,6435.202183,9548.656652
1035.968622,-3182.885551,5362.668486,10658.965565
1035.968952,-4145.153275,3217.601092,10732.986159
1035.969282,-4589.276840,1915.238745,9770.718434
1035.969611,-4071.132681,76.609550,9104.533087
1035.969941,-3404.947333,-306.438199,8216.285956
1035.970270,-2960.823768,76.609550,8068.244768
1035.970600,-2368.659014,2068.457845,8512.368333
1035.970929,-2368.659014,3907.087040,8956.491898
1035.971259,-2442.679609,4826.401637,9696.697840
1035.971588,-2072.576638,5362.668486,9992.780217
1035.971918,-1850.514855,5745.716235,10140.821405
1035.972247,-1776.494261,4903.011187,10288.862594
1035.972577,-1702.473667,3600.648841,10140.821405
1035.972906,-1332.370696,2604.724693,9844.739029
1035.973236,-888.247130,1915.238745,9548.656652
1035.973566,-740.205942,2451.505594,8956.491898
1035.973895,-592.164754,2451.505594,9548.656652
1035.974225,0.000000,3447.429741,10584.944971
1035.974554,-444.123565,5362.668486,11103.089130
1035.974884,-1332.370696,6894.859482,11325.150913
1035.975213,-2294.638420,6741.640382,11177.109724
1035.975543,-3404.947333,6588.421283,10066.800811
1035.975872,-3552.988522,5515.887586,9326.594869
1035.976202,-3108.864956,3600.648841,7772.162391
1035.976531,-1998.556043,1532.190996,6291.750507
1035.976861,-370.102971,689.485948,5699.585753
1035.977190,-222.061783,76.609550,5403.503377
1035.977520,-1110.308913,1302.362347,6883.915261
1035.977849,-1776.494261,3140.991542,8364.327145
1035.978179,-2368.659014,5439.278036,9918.759623
1035.978509,-2368.659014,6511.811733,11177.109724
1035.978838,-1850.514855,6052.154434,11103.089130
1035.979168,-1554.432478,6052.154434,11029.068536
1035.979497,-962.267725,4596.572988,10584.944971
1035.979827,-444.123565,3830.477490,10362.883188
1035.980156,-148.041188,3524.039291,10140.821405
1035.980486,-444.123565,3217.601092,9622.677246
1035.980815,-814.226536,2604.724693,8586.388927
1035.981145,-370.102971,2451.505594,8142.265362
1035.981474,518.144159,3217.601092,8808.450710
1035.981804,740.205942,2757.943793,9104.533087
1035.982133,0.000000,3064.381992,9474.636058
1035.982463,-1702.473667,4596.572988,10214.842000
1035.982793,-2590.720797,4903.011187,11177.109724
1035.983122,-2368.659014,4596.572988,11843.295072
1035.983452,-2294.638420,4290.134789,11843.295072
1035.983781,-1850.514855,4366.744339,10807.006753
1035.984111,-1184.329507,3830.477490,10140.821405
1035.984440,-962.267725,4366.744339,9548.656652
1035.984770,74.020594,5132.839837,9400.615463
1035.985099,740.205942,5209.449386,8512.368333
1035.985429,888.247130,4596.572988,7179.997637
1035.985758,1184.329507,3600.648841,6143.709319
1035.986088,814.226536,1991.848295,6661.853478
1035.986417,-370.102971,1608.800546,7994.224174
1035.986747,-2516.700203,2451.505594,9400.615463
1035.987076,-3923.091493,2911.162892,10288.862594
1035.987406,-3627.009116,2757.943793,11103.089130
1035.987736,-2886.803174,3907.087040,11473.192101
1035.988065,-1850.514855,4673.182538,11399.171507
1035.988395,-1036.288319,5745.716235,10362.883188
1035.988724,0.000000,6511.811733,9474.636058
1035.989054,740.205942,6588.421283,8808.450710
1035.989383,592.164754,6281.983084,8734.430116
1035.989713,148.041188,5745.716235,7476.080014
1035.990042,-296.082377,4596.572988,6513.812290
1035.990372,-444.123565,2528.115143,6291.750507
1035.990701,-1036.288319,919.314598,6365.771101
1035.991031,-1850.514855,-459.657299,6883.915261
1035.991360,-2368.659014,-459.657299,8660.409521
1035.991690,-3108.864956,689.485948,10584.944971
1035.992020,-3108.864956,3064.381992,12509.480420
1035.992349,-2590.720797,4903.011187,13249.686362
1035.992679,-1702.473667,5745.716235,12583.501014
1035.993008,-666.185348,5515.887586,12213.398043
1035.993338,-148.041188,6281.983084,11547.212695
1035.993667,370.102971,6128.763984,10807.006753
1035.993997,370.102971,5209.449386,9992.780217
1035.994326,0.000000,4290.134789,8956.491898
1035.994656,-1184.329507,2757.943793,8068.244768
1035.994985,-1628.453072,1991.848295,7624.121203
1035.995315,-1776.494261,1608.800546,7772.162391
1035.995644,-1332.370696,1762.019645,8068.244768
1035.995974,-518.144159,1915.238745,8438.347739
1035.996303,148.041188,2298.286494,8734.430116
1035.996633,370.102971,2911.162892,10288.862594
1035.996963,0.000000,4749.792088,11621.233289
1035.997292,-1406.391290,6818.249932,11843.295072
1035.997622,-1702.473667,7354.516781,12139.377449
1035.997951,-1628.453072,6665.030833,12361.439231
1035.998281,-1850.514855,6128.763984,11843.295072
1035.998610,-2812.782580,5745.716235,10214.842000
1035.998940,-3330.926739,4903.011187,7105.977043
1035.999269,-2220.617826,3677.258390,4367.215058
1035.999599,370.102971,2374.896044,3404.947333
1035.999928,2812.782580,1072.533697,4367.215058
1036.000258,2590.720797,1225.752797,5477.523971
1036.000587,370.102971,3294.210641,6957.935855
1036.000917,-2146.597232,4826.401637,8956.491898
1036.001246,-3923.091493,5592.497135,11843.295072
1036.001576,-4145.153275,6358.592633,15322.262999
1036.001906,-4885.359217,6511.811733,15914.427753
1036.002235,-5255.462188,6052.154434,13989.892304
1036.002565,-4219.173869,3753.867940,11547.212695
1036.002894,-2072.576638,2451.505594,9400.615463
1036.003224,666.185348,1762.019645,6957.935855
1036.003553,3182.885551,2298.286494,5625.565159
1036.003883,5181.441594,2911.162892,5255.462188
1036.004212,5181.441594,4366.744339,6217.729913
1036.004542,3256.906145,5209.449386,8142.265362
1036.004871,-296.082377,6818.249932,10807.006753
1036.005201,-3997.112087,8656.879127,13471.748144
1036.005530,-5625.565159,8656.879127,14804.118840
1036.005860,-5255.462188,5822.325785,13915.871710
1036.006190,-4219.173869,1838.629195,11251.130318
1036.006519,-2738.761985,-995.924147,8512.368333
1036.006849,-1554.432478,-536.266849,6217.729913
1036.007178,-814.226536,612.876398,5625.565159
1036.007508,-296.082377,3064.381992,7105.977043
1036.007837,-592.164754,4979.620737,7550.100608
1036.008167,-1110.308913,4826.401637,6513.812290
1036.008496,0.000000,3524.039291,6291.750507
1036.008826,888.247130,1915.238745,8290.306550
1036.009155,0.000000,2528.115143,11769.274478
1036.009485,-2368.659014,5362.668486,13619.789333
1036.009814,-3552.988522,5669.106685,14137.933492
1036.010144,-3256.906145,4826.401637,13545.768739
1036.010473,-1924.535449,4826.401637,12065.356855
1036.010803,-962.267725,3447.429741,8882.471304
1036.011133,962.267725,689.485948,5033.400406
1036.011462,2812.782580,-2451.505594,3627.009116
1036.011792,2368.659014,-2221.676944,3923.091493
1036.012121,1406.391290,-612.876398,5921.647536
1036.012451,-740.205942,995.924147,8216.285956
1036.012780,-2072.576638,2068.457845,11621.233289
1036.013110,-3552.988522,2911.162892,14137.933492
1036.013439,-4515.256246,4136.915689,14434.015869
1036.013769,-3775.050304,3294.210641,14211.954086
1036.014098,-2220.617826,1762.019645,13767.830521
1036.014428,-888.247130,2451.505594,12657.521608
1036.014757,-370.102971,3217.601092,11177.109724
1036.015087,296.082377,3600.648841,8956.491898
1036.015417,444.123565,3907.087040,8068.244768
1036.015746,296.082377,4213.525239,6661.853478
1036.016076,1036.288319,2145.067394,4737.318029
1036.016405,1998.556043,-2145.067394,3923.091493
1036.016735,1184.329507,-3217.601092,5107.421000
1036.017064,-1628.453072,-1838.629195,8734.430116
1036.017394,-3627.009116,536.266849,12805.562797
1036.017723,-5107.421000,2528.115143,15396.283594
1036.018053,-6291.750507,5286.058936,16136.489536
1036.018382,-5107.421000,6818.249932,14804.118840
1036.018712,-1702.473667,4366.744339,12657.521608
1036.019041,1480.411884,2681.334243,9400.615463
1036.019371,1332.370696,2528.115143,5773.606348
1036.019700,1332.370696,2604.724693,4145.153275
1036.020030,1924.535449,2528.115143,5329.482782
1036.020360,592.164754,3294.210641,7031.956449
1036.020689,-2146.597232,4903.011187,5625.565159
1036.021019,-2072.576638,2451.505594,4441.235652
1036.021348,148.041188,-1762.019645,5921.647536
1036.021678,444.123565,-2911.162892,8660.409521
1036.022007,-1554.432478,-1149.143247,11177.109724
1036.022337,-2812.782580,995.924147,13545.768739
1036.022666,-3330.926739,4060.306139,14211.954086
1036.022996,-3330.926739,5822.325785,13841.851115
1036.023325,-1406.391290,4213.525239,11769.274478
1036.023655,1184.329507,1608.800546,9770.718434
1036.023984,2072.576638,1685.410096,7179.997637
1036.024314,1776.494261,459.657299,4811.338623
1036.024644,1258.350101,-1225.752797,5033.400406
1036.024973,-222.061783,-1378.971896,7105.977043
1036.025303,-2664.741391,383.047749,9622.677246
1036.025632,-4589.276840,1302.362347,9548.656652
1036.025962,-3701.029710,-995.924147,9400.615463
1036.026291,-962.267725,-3217.601092,10510.924376
1036.026621,-740.205942,-2681.334243,12139.377449
1036.026950,-1628.453072,-2145.067394,12657.521608
1036.027280,-1924.535449,-1072.533697,13397.727550
1036.027609,-2072.576638,612.876398,13249.686362
1036.027939,-2146.597232,2451.505594,12509.480420
1036.028268,-1036.288319,612.876398,11325.150913
1036.028598,518.144159,-1532.190996,10732.986159
1036.028927,1332.370696,-1455.581446,9252.574275
1036.029257,666.185348,-536.266849,8142.265362
1036.029587,-518.144159,0.000000,7550.100608
1036.029916,-518.144159,0.000000,8438.347739
1036.030246,0.000000,0.000000,9326.594869
1036.030575,74.020594,612.876398,9474.636058
1036.030905,814.226536,383.047749,9622.677246
1036.031234,444.123565,76.609550,10658.965565
1036.031564,-962.267725,612.876398,10881.027347
1036.031890,-2664.741391,1225.752797,11251.130318
1036.032219,-2960.823768,1149.143247,11251.130318
1036.032549,-2886.803174,1225.752797,9918.759623
1036.032878,-3552.988522,229.828649,8216.285956
1036.033208,-2738.761985,0.000000,7920.203579
1036.033537,-2294.638420,383.047749,7920.203579
1036.033867,-1480.411884,2068.457845,7031.956449
1036.034197,-1332.370696,2604.724693,7105.977043
1036.034526,-1110.308913,2987.772442,7179.997637
1036.034856,-296.082377,3983.696590,6809.894666
1036.035185,518.144159,2834.553343,7031.956449
1036.035515,1850.514855,1991.848295,7846.182985
1036.035845,1776.494261,2221.676944,9252.574275
1036.036174,-370.102971,2911.162892,10732.986159
1036.036504,-1480.411884,2987.772442,11843.295072
1036.036833,-3330.926739,2451.505594,11769.274478
1036.037163,-3034.844362,2757.943793,11177.109724
1036.037492,-2220.617826,2068.457845,10066.800811
1036.037822,-1480.411884,689.485948,9622.677246
1036.038152,-962.267725,842.705048,9030.512492
1036.038481,-814.226536,1302.362347,7994.224174
1036.038811,-1110.308913,2145.067394,7550.100608
1036.039140,-1332.370696,2298.286494,8438.347739
1036.039470,-2072.576638,3064.381992,9104.533087
1036.039800,-1258.350101,2528.115143,8364.327145
1036.040129,296.082377,306.438199,7402.059420
1036.040459,1924.535449,-1302.362347,8290.306550
1036.040788,1702.473667,-842.705048,9844.739029
1036.041118,370.102971,-153.219100,12139.377449
1036.041447,-2072.576638,919.314598,14137.933492
1036.041777,-3923.091493,3217.601092,14508.036463
1036.042107,-3923.091493,3140.991542,13175.665768
1036.042436,-1924.535449,995.924147,11843.295072
1036.042766,0.000000,-1378.971896,9844.739029
1036.043095,296.082377,-1608.800546,7550.100608
1036.043425,666.185348,-1991.848295,6439.791695
1036.043755,444.123565,0.000000,6809.894666
1036.044084,-370.102971,1455.581446,7179.997637
1036.044414,0.000000,612.876398,7550.100608
1036.044743,962.267725,-1532.190996,7179.997637
1036.045073,1554.432478,-1915.238745,7920.203579
1036.045402,1480.411884,-1608.800546,9696.697840
1036.045732,-296.082377,-766.095498,11621.233289
1036.046062,-2812.782580,459.657299,13767.830521
1036.046391,-4367.215058,2451.505594,14952.160028
1036.046721,-4441.235652,2145.067394,14137.933492
1036.047050,-3108.864956,842.705048,11695.253884
1036.047380,-2220.617826,-1225.752797,9252.574275
1036.047709,-1036.288319,-2834.553343,7105.977043
1036.048039,74.020594,-2528.115143,6069.688724
1036.048369,74.020594,-842.705048,6957.935855
1036.048698,-518.144159,1455.581446,7550.100608
1036.049028,-444.123565,2528.115143,7550.100608
1036.049357,148.041188,1378.971896,7476.080014
1036.049687,1776.494261,-459.657299,7846.182985
1036.050017,2294.638420,-1149.143247,9548.656652
1036.050346,592.164754,536.266849,11547.212695
1036.050676,-1850.514855,2298.286494,13767.830521
1036.051005,-3627.009116,3064.381992,14285.974681
1036.051335,-4219.173869,3370.820191,13101.645173
1036.051664,-3256.906145,1378.971896,11325.150913
1036.051994,-1776.494261,-612.876398,9696.697840
1036.052324,-1480.411884,0.000000,7624.121203
1036.052653,-962.267725,0.000000,5921.647536
1036.052983,-666.185348,459.657299,5773.606348
1036.053312,-1258.350101,1608.800546,6587.832884
1036.053642,-1924.535449,2681.334243,7550.100608
1036.053972,-1480.411884,3217.601092,7179.997637
1036.054301,444.123565,1685.410096,7328.038826
1036.054631,2220.617826,306.438199,8290.306550
1036.054960,2368.659014,0.000000,9844.739029
1036.055290,518.144159,383.047749,12065.356855
1036.055619,-1850.514855,2145.067394,14285.974681
1036.055949,-4219.173869,4903.011187,13989.892304
1036.056279,-4293.194464,3983.696590,12139.377449
1036.056608,-2072.576638,536.266849,11177.109724
1036.056938,296.082377,-1378.971896,9992.780217
1036.057267,740.205942,-842.705048,7698.141797
1036.057597,1110.308913,-459.657299,6365.771101
1036.057927,814.226536,766.095498,6143.709319
1036.058256,0.000000,1838.629195,7105.977043
1036.058586,74.020594,2145.067394,8586.388927
1036.058915,1110.308913,1762.019645,9474.636058
1036.059245,1998.556043,459.657299,10214.842000
1036.059574,666.185348,76.609550,10436.903782
1036.059904,-1480.411884,0.000000,11917.315666
1036.060234,-3552.988522,153.219100,13323.706956
1036.060563,-4737.318029,1302.362347,14137.933492
1036.060893,-4737.318029,2221.676944,12583.501014
1036.061222,-3997.112087,612.876398,9104.533087
1036.061552,-1850.514855,-2451.505594,7624.121203
1036.061881,-518.144159,-2451.505594,7179.997637
1036.062211,296.082377,306.438199,6587.832884
1036.062541,666.185348,1991.848295,6883.915261
1036.062870,592.164754,3294.210641,6809.894666
1036.063200,666.185348,3064.381992,6291.750507
1036.063529,1332.370696,536.266849,6809.894666
1036.063859,2072.576638,-919.314598,8364.327145
1036.064189,814.226536,919.314598,10214.842000
1036.064518,-1258.350101,1915.238745,11177.109724
1036.064848,-3552.988522,842.705048,11843.295072
1036.065177,-4071.132681,229.828649,12139.377449
1036.065507,-3775.050304,383.047749,11769.274478
1036.065836,-2516.700203,-459.657299,10066.800811
1036.066166,-1998.556043,-1225.752797,8882.471304
1036.066496,-1332.370696,-153.219100,8216.285956
1036.066825,-1406.391290,612.876398,7476.080014
1036.067155,-1110.308913,919.314598,7994.224174
1036.067484,-1332.370696,1225.752797,8142.265362
1036.067814,-1924.535449,1532.190996,7772.162391
1036.068144,-888.247130,0.000000,7698.141797
1036.068473,296.082377,-2068.457845,9252.574275
1036.068803,1184.329507,-1915.238745,10807.006753
1036.069132,814.226536,-919.314598,11843.295072
1036.069462,-518.144159,0.000000,12805.562797
1036.069791,-2072.576638,306.438199,13619.789333
1036.070121,-2146.597232,2298.286494,13841.851115
1036.070451,-1406.391290,1915.238745,12583.501014
1036.070780,-296.082377,536.266849,11473.192101
1036.071110,370.102971,-383.047749,9918.759623
1036.071439,888.247130,-612.876398,8438.347739
1036.071769,592.164754,-689.485948,7105.977043
1036.072098,0.000000,-306.438199,7179.997637
1036.072428,-814.226536,995.924147,7254.018232
1036.072758,-740.205942,1225.752797,7846.182985
1036.073087,296.082377,76.609550,8660.409521
1036.073417,814.226536,536.266849,9400.615463
1036.073746,592.164754,842.705048,9770.718434
1036.074076,-1184.329507,842.705048,10362.883188
1036.074406,-3034.844362,2145.067394,11917.315666
1036.074735,-4219.173869,3677.258390,12731.542202
1036.075065,-3997.112087,3600.648841,11029.068536
1036.075394,-2738.761985,612.876398,9252.574275
1036.075724,-1924.535449,-612.876398,7550.100608
1036.076053,-1110.308913,0.000000,6883.915261
1036.076383,-740.205942,1072.533697,6587.832884
1036.076713,-1110.308913,2068.457845,6957.935855
1036.077042,-1258.350101,3600.648841,6883.915261
1036.077372,-740.205942,3217.601092,6883.915261
1036.077701,740.205942,995.924147,7328.038826
1036.078031,1258.350101,0.000000,8216.285956
1036.078361,740.205942,1149.143247,9326.594869
1036.078690,0.000000,1149.143247,10584.944971
1036.079020,-1628.453072,1532.190996,12361.439231
1036.079349,-2886.803174,2604.724693,13323.706956
1036.079679,-2812.782580,3217.601092,12287.418637
1036.080008,-1924.535449,1915.238745,10807.006753
1036.080338,-740.205942,459.657299,9548.656652
1036.080668,-296.082377,919.314598,8142.265362
1036.080997,222.061783,689.485948,7624.121203
1036.081327,0.000000,766.095498,7772.162391
1036.081656,-1110.308913,2451.505594,8438.347739
1036.081986,-1998.556043,2604.724693,8438.347739
1036.082316,-1480.411884,1532.190996,8364.327145
1036.082645,0.000000,0.000000,8586.388927
1036.082975,814.226536,-1149.143247,9104.533087
1036.083304,888.247130,-919.314598,10288.862594
1036.083634,-296.082377,0.000000,12435.459826
1036.083963,-2590.720797,1991.848295,13101.645173
1036.084293,-3849.070898,3217.601092,12361.439231
1036.084623,-3330.926739,1838.629195,11547.212695
1036.084952,-1702.473667,0.000000,10584.944971
1036.085282,-592.164754,-612.876398,9474.636058
1036.085611,148.041188,-689.485948,7476.080014
1036.085941,666.185348,-612.876398,6143.709319
1036.086270,370.102971,-459.657299,6587.832884
1036.086600,222.061783,1302.362347,7772.162391
1036.086930,666.185348,1532.190996,8512.368333
1036.087259,1776.494261,0.000000,9030.512492
1036.087589,2072.576638,-612.876398,9104.533087
1036.087918,1110.308913,-383.047749,10732.986159
1036.088248,-444.123565,-306.438199,12805.562797
1036.088578,-2664.741391,1072.533697,14359.995275
1036.088907,-4663.297435,2987.772442,14211.954086
1036.089237,-4663.297435,2451.505594,11843.295072
1036.089566,-2960.823768,383.047749,10955.047942
1036.089896,-1998.556043,-1455.581446,8512.368333
1036.090225,-1628.453072,-2374.896044,5995.668130
1036.090555,-1184.329507,-1685.410096,5847.626942
1036.090885,-740.205942,612.876398,7105.977043
1036.091214,-888.247130,2681.334243,7920.203579
1036.091544,-592.164754,3600.648841,7772.162391
1036.091873,296.082377,1072.533697,7254.018232
1036.092203,1776.494261,-919.314598,8586.388927
1036.092533,1554.432478,1149.143247,11251.130318
1036.092862,-296.082377,2451.505594,12287.418637
1036.093192,-2368.659014,3064.381992,12953.603985
1036.093521,-3478.967927,3524.039291,12805.562797
1036.093851,-3108.864956,3217.601092,11547.212695
1036.094180,-1998.556043,1532.190996,10288.862594
1036.094510,-1110.308913,0.000000,7772.162391
1036.094840,-444.123565,842.705048,5773.606348
1036.095169,0.000000,229.828649,5329.482782
1036.095499,0.000000,1302.362347,6365.771101
1036.095828,-1110.308913,3294.210641,7254.018232
1036.096158,-1776.494261,3370.820191,7105.977043
1036.096488,-592.164754,2451.505594,7846.182985
1036.096817,296.082377,459.657299,9104.533087
1036.097147,148.041188,612.876398,10732.986159
1036.097476,-888.247130,919.314598,11991.336260
1036.097806,-2590.720797,1991.848295,12953.603985
1036.098135,-3552.988522,3140.991542,12731.542202
1036.098465,-3552.988522,2911.162892,12065.356855
1036.098795,-1776.494261,1302.362347,11103.089130
1036.099124,-592.164754,229.828649,9770.718434
1036.099454,74.020594,153.219100,8068.244768
1036.099783,814.226536,536.266849,6809.894666
1036.100113,740.205942,306.438199,7031.956449
1036.100442,444.123565,1762.019645,7698.141797
1036.100772,74.020594,2681.334243,8216.285956
1036.101102,666.185348,1762.019645,8956.491898
1036.101431,1258.350101,-229.828649,10066.800811
1036.101761,518.144159,0.000000,10955.047942
1036.102090,-1110.308913,612.876398,12139.377449
1036.102420,-2368.659014,536.266849,13175.665768
1036.102750,-3330.926739,1762.019645,13767.830521
1036.103079,-4071.132681,3907.087040,12213.398043
1036.103409,-2664.741391,1685.410096,9770.718434
1036.103738,-1776.494261,-536.266849,8660.409521
1036.104068,-370.102971,-306.438199,8068.244768
1036.104397,-518.144159,536.266849,6957.935855
1036.104727,-1258.350101,1072.533697,6735.874072
1036.105057,-1776.494261,1302.362347,6661.853478
1036.105386,-1702.473667,2451.505594,7254.018232
1036.105716,-814.226536,1225.752797,7698.141797
1036.106045,222.061783,-919.314598,8586.388927
1036.106375,0.000000,-383.047749,9474.636058
1036.106705,-1406.391290,842.705048,10066.800811
1036.107034,-1998.556043,919.314598,11103.089130
1036.107364,-2368.659014,995.924147,12287.418637
1036.107693,-2590.720797,2757.943793,11991.336260
1036.108023,-2220.617826,2604.724693,10436.903782
1036.108352,-1332.370696,842.705048,8438.347739
1036.108682,-592.164754,-459.657299,7920.203579
1036.109012,370.102971,536.266849,8364.327145
1036.109341,0.000000,1838.629195,8216.285956
1036.109671,-666.185348,2145.067394,8068.244768
1036.110000,-1036.288319,1685.410096,7328.038826
1036.110330,-518.144159,306.438199,7846.182985
1036.110660,518.144159,-689.485948,8956.491898
1036.110989,296.082377,76.609550,10881.027347
1036.111319,-740.205942,842.705048,10732.986159
1036.111648,-1850.514855,0.000000,10881.027347
1036.111978,-1998.556043,153.219100,12583.501014
1036.112307,-2442.679609,2681.334243,12879.583391
1036.112637,-2590.720797,2987.772442,11621.233289
1036.112967,-1258.350101,1532.190996,9474.636058
1036.113296,74.020594,-153.219100,8808.450710
1036.113626,74.020594,-153.219100,8734.430116
1036.113955,0.000000,1225.752797,8216.285956
1036.114285,-518.144159,1838.629195,8068.244768
1036.114614,-1110.308913,2145.067394,7624.121203
1036.114944,-666.185348,1991.848295,7920.203579
1036.115274,148.041188,0.000000,9474.636058
1036.115603,592.164754,-1072.533697,10584.944971
1036.115933,-1258.350101,766.095498,10362.883188
1036.116262,-1702.473667,1225.752797,10732.986159
1036.116592,-2368.659014,612.876398,11991.336260
1036.116922,-2886.803174,1532.190996,13027.624579
1036.117251,-2738.761985,3447.429741,11843.295072
1036.117581,-1924.535449,2451.505594,9918.759623
1036.117910,-740.205942,1072.533697,8512.368333
1036.118240,0.000000,842.705048,8142.265362
1036.118569,-444.123565,1072.533697,7698.141797
1036.118899,-1184.329507,1608.800546,7328.038826
1036.119229,-1776.494261,2451.505594,6809.894666
1036.119558,-814.226536,2604.724693,7105.977043
1036.119888,148.041188,306.438199,7105.977043
1036.120217,666.185348,-1149.143247,9252.574275
1036.120547,-370.102971,766.095498,10288.862594
1036.120877,-1702.473667,1991.848295,10288.862594
1036.121206,-2442.679609,1838.629195,10955.047942
1036.121536,-2664.741391,2681.334243,12583.501014
1036.121865,-2664.741391,3294.210641,12509.480420
1036.122195,-2368.659014,2681.334243,10436.903782
1036.122524,-1184.329507,1378.971896,8438.347739
1036.122854,-222.061783,1072.533697,7254.018232
1036.123184,-222.061783,612.876398,7179.997637
1036.123513,-592.164754,919.314598,7698.141797
1036.123843,-592.164754,1762.019645,7846.182985
1036.124172,-888.247130,3140.991542,6957.935855
1036.124502,0.000000,1225.752797,6291.750507
1036.124831,1184.329507,-383.047749,7550.100608
1036.125161,1184.329507,-612.876398,9844.739029
1036.125491,0.000000,1532.190996,11399.171507
1036.125820,-1702.473667,2757.943793,12065.356855
1036.126150,-3256.906145,1455.581446,11917.315666
1036.126479,-3849.070898,1378.971896,12065.356855
1036.126809,-3404.947333,306.438199,11251.130318
1036.127139,-1924.535449,-919.314598,10214.842000
1036.127468,-888.247130,-1072.533697,9030.512492
1036.127798,-666.185348,0.000000,8586.388927
1036.128127,-1480.411884,229.828649,8068.244768
1036.128457,-1184.329507,76.609550,9252.574275
1036.128786,-888.247130,1838.629195,9622.677246
1036.129116,-296.082377,2451.505594,8808.450710
1036.129446,666.185348,0.000000,8882.471304
1036.129775,1332.370696,-2757.943793,9622.677246
1036.130105,0.000000,-1608.800546,11917.315666
1036.130434,-1628.453072,459.657299,13323.706956
1036.130764,-3182.885551,1302.362347,13397.727550
1036.131094,-3701.029710,1378.971896,12657.521608
1036.131423,-2442.679609,229.828649,11177.109724
1036.131753,-1332.370696,-919.314598,9844.739029
1036.132082,148.041188,-1072.533697,8512.368333
1036.132412,148.041188,0.000000,6957.935855
1036.132741,-444.123565,459.657299,6661.853478
1036.133071,-444.123565,1532.190996,8216.285956
1036.133401,-1406.391290,2528.115143,9104.533087
1036.133730,-1258.350101,2604.724693,8068.244768
1036.134060,-592.164754,459.657299,6661.853478
1036.134389,0.000000,-2145.067394,7846.182985
1036.134719,-444.123565,-1762.019645,9992.780217
1036.135048,-2146.597232,459.657299,11991.336260
1036.135378,-3404.947333,2068.457845,12139.377449
1036.135707,-4441.235652,3294.210641,11547.212695
1036.136037,-3923.091493,2757.943793,11029.068536
1036.136366,-2294.638420,1762.019645,9844.739029
1036.136696,-592.164754,0.000000,8142.265362
1036.137026,592.164754,383.047749,6735.874072
1036.137355,740.205942,1685.410096,6069.688724
1036.137685,296.082377,2298.286494,7105.977043
1036.138014,-666.185348,2757.943793,8068.244768
1036.138344,-888.247130,2757.943793,7846.182985
1036.138673,0.000000,1991.848295,7846.182985
1036.139003,740.205942,0.000000,8438.347739
1036.139332,888.247130,-689.485948,10288.862594
1036.139662,-222.061783,459.657299,11769.274478
1036.139991,-2146.597232,1302.362347,11991.336260
1036.140321,-3404.947333,3600.648841,12657.521608
1036.140650,-3330.926739,4443.353888,12435.459826
1036.140980,-2294.638420,2834.553343,11473.192101
1036.141310,-962.267725,919.314598,10510.924376
1036.141639,-296.082377,689.485948,8216.285956
1036.141969,148.041188,306.438199,6439.791695
1036.142298,-296.082377,229.828649,6217.729913
1036.142628,-1110.308913,919.314598,8142.265362
1036.142957,-1924.535449,2145.067394,9252.574275
1036.143287,-1850.514855,1378.971896,9252.574275
1036.143616,-666.185348,0.000000,9030.512492
1036.143946,0.000000,-1302.362347,9252.574275
1036.144275,-592.164754,-766.095498,10436.903782
1036.144605,-1110.308913,-229.828649,11843.295072
1036.144934,-1776.494261,1225.752797,12583.501014
1036.145264,-2442.679609,3524.039291,12361.439231
1036.145593,-2442.679609,3140.991542,10066.800811
1036.145923,-1184.329507,842.705048,9474.636058
1036.146253,148.041188,-919.314598,8364.327145
1036.146582,444.123565,-689.485948,7179.997637
1036.146912,296.082377,-689.485948,6957.935855
1036.147241,-444.123565,0.000000,7846.182985
1036.147571,-2146.597232,689.485948,8660.409521
1036.147900,-2220.617826,306.438199,9400.615463
1036.148230,-1036.288319,-995.924147,9992.780217
1036.148559,-370.102971,-1149.143247,10955.047942
1036.148889,-1110.308913,-536.266849,10510.924376
1036.149218,-1776.494261,-689.485948,11177.109724
1036.149548,-1628.453072,-1302.362347,12361.439231
1036.149877,-2220.617826,1991.848295,13323.706956
1036.150207,-2590.720797,3830.477490,11843.295072
1036.150537,-2072.576638,2451.505594,9474.636058
1036.150866,-148.041188,-306.438199,8438.347739
1036.151196,666.185348,-1149.143247,8438.347739
1036.151525,222.061783,306.438199,7624.121203
1036.151855,-1110.308913,1149.143247,7179.997637
1036.152184,-1480.411884,1378.971896,6957.935855
1036.152514,-1110.308913,2068.457845,7698.141797
1036.152843,-148.041188,0.000000,8438.347739
1036.153173,222.061783,-1149.143247,9104.533087
1036.153502,-148.041188,153.219100,9548.656652
1036.153832,-1480.411884,1302.362347,10214.842000
1036.154161,-2368.659014,919.314598,11103.089130
1036.154491,-2516.700203,1302.362347,12065.356855
1036.154821,-2516.700203,2834.553343,11325.150913
1036.155150,-2368.659014,1915.238745,9548.656652
1036.155480,-888.247130,919.314598,9326.594869
1036.155809,-148.041188,153.219100,8660.409521
1036.156139,0.000000,612.876398,7698.141797
1036.156468,-592.164754,229.828649,7179.997637
1036.156798,-444.123565,1072.533697,7920.203579
1036.157127,-592.164754,2528.115143,8734.430116
1036.157457,-148.041188,1225.752797,8512.368333
1036.157786,962.267725,-612.876398,9918.759623
1036.158116,444.123565,-383.047749,11177.109724
1036.158445,-666.185348,1455.581446,12139.377449
1036.158775,-1924.535449,1378.971896,12213.398043
1036.159104,-2516.700203,689.485948,12435.459826
1036.159434,-3108.864956,1532.190996,11177.109724
1036.159764,-2664.741391,1608.800546,10288.862594
1036.160093,-1036.288319,536.266849,9918.759623
1036.160423,-296.082377,536.266849,9178.553681
1036.160752,-888.247130,1302.362347,7698.141797
1036.161082,-962.267725,1225.752797,7179.997637
1036.161411,-592.164754,1225.752797,7994.224174
1036.161741,-888.247130,2451.505594,8586.388927
1036.162070,-740.205942,2298.286494,8142.265362
1036.162400,-296.082377,0.000000,8438.347739
1036.162729,-296.082377,-1225.752797,9030.512492
1036.163059,-888.247130,-306.438199,10066.800811
1036.163388,-1480.411884,536.266849,11547.212695
1036.163718,-2220.617826,1532.190996,12509.480420
1036.164048,-3034.844362,3140.991542,11991.336260
1036.164377,-2368.659014,2834.553343,10658.965565
1036.164707,-1110.308913,919.314598,9770.718434
1036.165036,222.061783,306.438199,8512.368333
1036.165366,222.061783,1225.752797,7254.018232
1036.165695,444.123565,919.314598,7105.977043
1036.166025,-592.164754,1685.410096,7402.059420
1036.166354,-888.247130,2681.334243,7105.977043
1036.166684,-1406.391290,2451.505594,7105.977043
1036.167013,0.000000,76.609550,7105.977043
1036.167343,518.144159,-1762.019645,8438.347739
1036.167672,-444.123565,-1455.581446,10214.842000
1036.168002,-1924.535449,-229.828649,11399.171507
1036.168331,-3330.926739,1302.362347,12805.562797
1036.168661,-4219.173869,2604.724693,13249.686362
1036.168991,-4145.153275,3064.381992,12509.480420
1036.169320,-2442.679609,766.095498,10807.006753
1036.169650,-592.164754,-689.485948,9400.615463
1036.169979,518.144159,0.000000,7698.141797
1036.170309,666.185348,229.828649,7105.977043
1036.170638,296.082377,919.314598,7254.018232
1036.170968,74.020594,1302.362347,8438.347739
1036.171297,-296.082377,2298.286494,8660.409521
1036.171627,148.041188,1608.800546,8808.450710
1036.171956,1406.391290,-1302.362347,9474.636058
1036.172286,666.185348,-1762.019645,10881.027347
1036.172615,-1036.288319,-689.485948,11547.212695
1036.172945,-2368.659014,-689.485948,12287.418637
1036.173275,-3182.885551,536.266849,12805.562797
1036.173604,-3182.885551,1225.752797,12657.521608
1036.173934,-2516.700203,1378.971896,11177.109724
1036.174263,-1480.411884,-383.047749,9178.553681
1036.174593,0.000000,-1608.800546,7624.121203
1036.174922,-148.041188,-689.485948,7105.977043
1036.175252,-148.041188,919.314598,7254.018232
1036.175581,-592.164754,1762.019645,8290.306550
1036.175911,-1110.308913,1838.629195,8216.285956
1036.176240,-518.144159,612.876398,7994.224174
1036.176570,296.082377,-1072.533697,9400.615463
1036.176899,444.123565,-766.095498,10214.842000
1036.177229,-518.144159,153.219100,11251.130318
1036.177559,-1406.391290,536.266849,12213.398043
1036.177888,-2146.597232,1838.629195,12953.603985
1036.178218,-2812.782580,3294.210641,12139.377449
1036.178547,-2294.638420,2987.772442,10584.944971
1036.178877,-1036.288319,1225.752797,8734.430116
1036.179206,74.020594,842.705048,8438.347739
1036.179536,222.061783,2145.067394,7698.141797
1036.179865,-222.061783,2528.115143,6661.853478
1036.180195,-444.123565,1991.848295,6143.709319
1036.180524,-666.185348,1915.238745,6069.688724
1036.180854,-814.226536,2451.505594,7698.141797
1036.181183,74.020594,1838.629195,8660.409521
1036.181513,-148.041188,306.438199,9400.615463
1036.181842,-1332.370696,842.705048,10066.800811
1036.182172,-2220.617826,1455.581446,11843.295072
1036.182502,-2664.741391,2298.286494,13027.624579
1036.182831,-3330.926739,4213.525239,12879.583391
1036.183161,-3330.926739,4060.306139,10955.047942
1036.183490,-1924.535449,1532.190996,8808.450710
1036.183820,74.020594,0.000000,8290.306550
1036.184149,666.185348,919.314598,7624.121203
1036.184479,296.082377,1991.848295,6587.832884
1036.184808,222.061783,1762.019645,6661.853478
1036.185138,0.000000,2145.067394,7698.141797
1036.185467,-518.144159,2298.286494,8068.244768
1036.185797,444.123565,306.438199,7994.224174
1036.186126,1480.411884,-842.705048,9178.553681
1036.186456,888.247130,-612.876398,10214.842000
1036.186786,-518.144159,766.095498,11547.212695
1036.187115,-1776.494261,1072.533697,13027.624579
1036.187445,-3404.947333,2374.896044,12805.562797
1036.187774,-3182.885551,2604.724693,11843.295072
1036.188104,-2146.597232,1149.143247,10658.965565
1036.188433,-444.123565,-1225.752797,9696.697840
1036.188763,74.020594,-1915.238745,8586.388927
1036.189092,-740.205942,-612.876398,7550.100608
1036.189422,-1110.308913,229.828649,7402.059420
1036.189751,-1554.432478,689.485948,9252.574275
1036.190081,-1776.494261,1991.848295,9992.780217
1036.190410,-1110.308913,689.485948,9474.636058
1036.190740,74.020594,-2374.896044,8882.471304
1036.191069,666.185348,-2757.943793,9992.780217
1036.191399,74.020594,-383.047749,11473.192101
1036.191729,-1184.329507,766.095498,12879.583391
1036.192058,-2294.638420,2068.457845,13175.665768
1036.192388,-2738.761985,3830.477490,12139.377449
1036.192717,-1332.370696,3064.381992,10732.986159
1036.193047,0.000000,0.000000,9178.553681
1036.193376,740.205942,0.000000,7994.224174
1036.193706,296.082377,306.438199,6587.832884
1036.194035,-592.164754,383.047749,6513.812290
1036.194365,-1776.494261,2374.896044,7179.997637
1036.194694,-2220.617826,3217.601092,7772.162391
1036.195024,-1776.494261,1991.848295,7772.162391
1036.195353,-370.102971,0.000000,7846.182985
1036.195683,0.000000,-766.095498,8216.285956
1036.196013,-518.144159,229.828649,9400.615463
1036.196342,-1776.494261,1608.800546,10214.842000
1036.196672,-2738.761985,2604.724693,11843.295072
1036.197001,-3034.844362,4443.353888,12139.377449
1036.197331,-2886.803174,3983.696590,11103.089130
1036.197660,-1850.514855,2145.067394,9474.636058
1036.197990,-296.082377,306.438199,7846.182985
1036.198319,666.185348,-153.219100,7031.956449
1036.198649,814.226536,1532.190996,7179.997637
1036.198978,296.082377,2834.553343,7624.121203
1036.199308,-518.144159,3064.381992,7994.224174
1036.199637,-370.102971,3064.381992,7698.141797
1036.199967,370.102971,1608.800546,9474.636058
1036.200297,962.267725,766.095498,9918.759623
1036.200626,444.123565,919.314598,10436.903782
1036.200956,-296.082377,306.438199,10881.027347
1036.201285,-1554.432478,459.657299,11991.336260
1036.201615,-2664.741391,1608.800546,12435.459826
1036.201944,-2960.823768,2604.724693,11991.336260
1036.202274,-2072.576638,1455.581446,11103.089130
1036.202603,-1036.288319,383.047749,10214.842000
1036.202933,-740.205942,383.047749,9030.512492
1036.203262,-592.164754,0.000000,7624.121203
1036.203592,0.000000,-153.219100,7328.038826
1036.203921,-740.205942,1302.362347,8142.265362
1036.204251,-1036.288319,2374.896044,8808.450710
1036.204580,-370.102971,842.705048,8734.430116
1036.204910,370.102971,-1532.190996,9104.533087
1036.205240,222.061783,-2451.505594,9622.677246
1036.205569,-592.164754,-153.219100,11769.274478
1036.205899,-1628.453072,1072.533697,12361.439231
1036.206228,-2368.659014,1608.800546,11917.315666
1036.206558,-2738.761985,1378.971896,10732.986159
1036.206887,-2146.597232,1455.581446,9696.697840
1036.207217,0.000000,536.266849,9252.574275
1036.207546,444.123565,536.266849,8216.285956
1036.207876,296.082377,459.657299,7105.977043
1036.208205,-592.164754,76.609550,6661.853478
1036.208535,-1332.370696,1072.533697,7328.038826
1036.208864,-1184.329507,1915.238745,7402.059420
1036.209194,-222.061783,689.485948,7476.080014
1036.209524,592.164754,-766.095498,8660.409521
1036.209853,74.020594,-612.876398,9844.739029
1036.210183,-1628.453072,0.000000,10955.047942
1036.210512,-2590.720797,1225.752797,12657.521608
1036.210842,-3034.844362,2757.943793,13249.686362
1036.211171,-3627.009116,3830.477490,12509.480420
1036.211501,-2886.803174,2298.286494,10732.986159
1036.211830,-1850.514855,0.000000,9252.574275
1036.212160,-666.185348,0.000000,8216.285956
1036.212489,-370.102971,1225.752797,7402.059420
1036.212819,-444.123565,2451.505594,7179.997637
1036.213148,-296.082377,1762.019645,7328.038826
1036.213478,-518.144159,1455.581446,7550.100608
1036.213807,-370.102971,2298.286494,7624.121203
1036.214137,370.102971,1532.190996,8364.327145
1036.214467,1036.288319,229.828649,9770.718434
1036.214796,518.144159,612.876398,10955.047942
1036.215126,-592.164754,1149.143247,11843.295072
1036.215455,-1776.494261,1685.410096,12953.603985
1036.215785,-2590.720797,2451.505594,12361.439231
1036.216114,-2664.741391,3140.991542,11621.233289
1036.216444,-1628.453072,1378.971896,10362.883188
1036.216773,-148.041188,0.000000,9326.594869
1036.217103,0.000000,229.828649,7698.141797
1036.217432,-666.185348,842.705048,6291.750507
1036.217762,-148.041188,1302.362347,6587.832884
1036.218091,-518.144159,1455.581446,7402.059420
1036.218421,-592.164754,1685.410096,8290.306550
1036.218751,-296.082377,306.438199,8882.471304
1036.219080,222.061783,-612.876398,9178.553681
1036.219410,0.000000,0.000000,11177.109724
1036.219739,-1258.350101,383.047749,12139.377449
1036.220069,-2516.700203,1072.533697,12657.521608
1036.220398,-3256.906145,1762.019645,12361.439231
1036.220728,-2738.761985,2298.286494,11695.253884
1036.221057,-1850.514855,2374.896044,9918.759623
1036.221387,-592.164754,153.219100,8586.388927
1036.221716,592.164754,-612.876398,7698.141797
1036.222046,518.144159,-153.219100,7328.038826
1036.222375,-444.123565,1378.971896,7550.100608
1036.222705,-1110.308913,2145.067394,7550.100608
1036.223035,-888.247130,2221.676944,8142.265362
1036.223364,-370.102971,842.705048,8290.306550
1036.223694,370.102971,-1225.752797,9252.574275
1036.224023,222.061783,-1302.362347,9992.780217
1036.224353,-962.267725,0.000000,10510.924376
1036.224682,-2368.659014,-229.828649,11843.295072
1036.225012,-3108.864956,1608.800546,13101.645173
1036.225341,-3330.926739,2987.772442,12213.398043
1036.225671,-2590.720797,2068.457845,9918.759623
1036.226000,-1332.370696,0.000000,8068.244768
1036.226330,-370.102971,-229.828649,7328.038826
1036.226659,0.000000,995.924147,6809.894666
1036.226989,-148.041188,995.924147,6735.874072
1036.227318,-740.205942,919.314598,6661.853478
1036.227648,-1480.411884,1455.581446,7328.038826
1036.227978,-592.164754,1149.143247,8364.327145
1036.228307,0.000000,-306.438199,9474.636058
1036.228637,0.000000,-1455.581446,9696.697840
1036.228966,-370.102971,-1149.143247,10807.006753
1036.229296,-1184.329507,0.000000,12879.583391
1036.229625,-2368.659014,2374.896044,13767.830521
1036.229955,-2960.823768,4060.306139,13323.706956
1036.230284,-2072.576638,2451.505594,11325.150913
1036.230614,-592.164754,76.609550,10140.821405
1036.230943,518.144159,-766.095498,9992.780217
1036.231273,666.185348,536.266849,8364.327145
1036.231602,0.000000,306.438199,6957.935855
1036.231932,-296.082377,0.000000,7698.141797
1036.232262,-1036.288319,1149.143247,8586.388927
1036.232591,-1406.391290,1149.143247,9104.533087
1036.232921,-296.082377,-919.314598,9474.636058
1036.233250,0.000000,-1608.800546,9770.718434
1036.233580,-740.205942,-842.705048,10436.903782
1036.233909,-1702.473667,229.828649,11547.212695
1036.234239,-2146.597232,229.828649,12583.501014
1036.234568,-2886.803174,2451.505594,12731.542202
1036.234898,-3256.906145,4366.744339,11325.150913
1036.235227,-1554.432478,2298.286494,9104.533087
1036.235557,-222.061783,76.609550,7920.203579
1036.235886,370.102971,-383.047749,7105.977043
1036.236216,0.000000,459.657299,6661.853478
1036.236546,-740.205942,1225.752797,6809.894666
1036.236875,-1184.329507,2068.457845,7402.059420
1036.237205,-1184.329507,2451.505594,7846.182985
1036.237534,-518.144159,612.876398,8216.285956
1036.237864,592.164754,-919.314598,9474.636058
1036.238194,222.061783,689.485948,10658.965565
1036.238523,-814.226536,2145.067394,10732.986159
1036.238853,-2368.659014,2221.676944,11325.150913
1036.239182,-2442.679609,1991.848295,12509.480420
1036.239512,-2960.823768,3447.429741,12213.398043
1036.239842,-2960.823768,3064.381992,10214.842000
1036.240171,-1998.556043,995.924147,7698.141797
1036.240501,-814.226536,-153.219100,7105.977043
1036.240831,-592.164754,229.828649,6957.935855
1036.241160,-518.144159,842.705048,7031.956449
1036.241490,-740.205942,1455.581446,7254.018232
1036.241819,-888.247130,1915.238745,7476.080014
1036.242149,-814.226536,1225.752797,7846.182985
1036.242479,592.164754,-459.657299,9474.636058
1036.242808,888.247130,-459.657299,11251.130318
1036.243138,-444.123565,1532.190996,11991.336260
1036.243467,-1702.473667,2145.067394,12287.418637
1036.243797,-2812.782580,1915.238745,12657.521608
1036.244127,-2812.782580,1608.800546,12287.418637
1036.244456,-2368.659014,1608.800546,11177.109724
1036.244786,-1184.329507,-306.438199,9474.636058
1036.245115,148.041188,-1762.019645,7994.224174
1036.245445,148.041188,-1072.533697,7105.977043
1036.245775,-148.041188,0.000000,6957.935855
1036.246104,-962.267725,229.828649,7624.121203
1036.246434,-1258.350101,1149.143247,8068.244768
1036.246763,-1110.308913,1532.190996,8142.265362
1036.247093,-370.102971,-383.047749,9030.512492
1036.247423,296.082377,-2298.286494,10510.924376
1036.247752,-148.041188,-1149.143247,11695.253884
1036.248082,-1332.370696,-383.047749,11843.295072
1036.248411,-2960.823768,0.000000,12657.521608
1036.248741,-4219.173869,1225.752797,12805.562797
1036.249071,-3923.091493,1991.848295,12287.418637
1036.249400,-1998.556043,689.485948,11177.109724
1036.249730,-444.123565,-612.876398,9030.512492
1036.250059,148.041188,-612.876398,7105.977043
1036.250389,0.000000,-689.485948,7031.956449
1036.250719,0.000000,306.438199,7994.224174
1036.251048,-592.164754,2298.286494,8512.368333
1036.251378,-1036.288319,2681.334243,8512.368333
1036.251708,-296.082377,919.314598,8660.409521
1036.252037,148.041188,-1072.533697,9400.615463
1036.252367,0.000000,-919.314598,10584.944971
1036.252696,-1110.308913,1302.362347,11029.068536
1036.253026,-2516.700203,1149.143247,11177.109724
1036.253356,-3701.029710,2451.505594,11547.212695
1036.253685,-3478.967927,2757.943793,11325.150913
1036.254015,-2664.741391,1762.019645,9844.739029
1036.254344,-1258.350101,842.705048,8512.368333
1036.254674,-296.082377,919.314598,6883.915261
1036.255004,0.000000,1532.190996,5921.647536
1036.255333,-148.041188,919.314598,6513.812290
1036.255663,-370.102971,2451.505594,7402.059420
1036.255992,-1036.288319,3983.696590,6735.874072
1036.256322,-814.226536,2451.505594,7031.956449
1036.256652,444.123565,0.000000,8660.409521
1036.256981,518.144159,-1149.143247,10140.821405
1036.257311,-518.144159,-459.657299,11029.068536
1036.257640,-1628.453072,459.657299,12213.398043
1036.257970,-2886.803174,2911.162892,12953.603985
1036.258300,-3404.947333,3600.648841,12287.418637
1036.258629,-2442.679609,2145.067394,11325.150913
1036.258959,-740.205942,536.266849,10362.883188
1036.259288,222.061783,0.000000,8660.409521
1036.259618,814.226536,536.266849,7328.038826
1036.259948,222.061783,995.924147,7179.997637
1036.260277,-518.144159,919.314598,7920.203579
1036.260607,-1480.411884,1302.362347,8734.430116
1036.260936,-1628.453072,1762.019645,9252.574275
1036.261266,-592.164754,76.609550,9400.615463
1036.261596,-740.205942,-2451.505594,9844.739029
1036.261925,-888.247130,-1762.019645,10732.986159
1036.262255,-1554.432478,-1225.752797,11991.336260
1036.262585,-2294.638420,153.219100,13249.686362
1036.262914,-3256.906145,2911.162892,12731.542202
1036.263244,-3034.844362,3294.210641,11325.150913
1036.263573,-1332.370696,919.314598,10362.883188
1036.263903,148.041188,-153.219100,9178.553681
1036.264233,518.144159,842.705048,7624.121203
1036.264562,888.247130,383.047749,6883.915261
1036.264892,148.041188,919.314598,6957.935855
1036.265221,-814.226536,1685.410096,7254.018232
1036.265551,-1258.350101,1378.971896,8142.265362
1036.265881,-370.102971,306.438199,8660.409521
1036.266210,-296.082377,-459.657299,9400.615463
1036.266540,-1110.308913,-306.438199,9770.718434
1036.266869,-1776.494261,-459.657299,10732.986159
1036.267199,-2516.700203,459.657299,12065.356855
1036.267529,-2960.823768,2451.505594,12361.439231
1036.267858,-3478.967927,3524.039291,11177.109724
1036.268188,-2664.741391,1532.190996,9696.697840
1036.268517,-1554.432478,153.219100,9400.615463
1036.268847,-814.226536,842.705048,8586.388927
1036.269177,-518.144159,1302.362347,7476.080014
1036.269506,-444.123565,919.314598,6883.915261
1036.269836,-814.226536,842.705048,7031.956449
1036.270165,-666.185348,1608.800546,7846.182985
1036.270495,0.000000,1378.971896,9326.594869
1036.270825,222.061783,536.266849,9770.718434
1036.271154,0.000000,689.485948,9844.739029
1036.271484,-666.185348,536.266849,10881.027347
1036.271814,-1406.391290,1149.143247,12139.377449
1036.272143,-2294.638420,2221.676944,12509.480420
1036.272473,-2590.720797,3140.991542,11473.192101
1036.272802,-2072.576638,1991.848295,9844.739029
